time,seconds_elapsed,z,y,x
1789337798274879200,0.106879150390625,1.1783154655873775,0.16395780553519726,0.1702215421050787
1789337798284905200,0.1169052734375,1.0006161349475384,0.0016311083331704138,0.020259967087954283
1789337798294931500,0.126931396484375,0.7986527161449194,-0.1679383996039629,-0.17155132940411566
1789337798304957400,0.13695751953125,0.6229647253274917,-0.300834711921215,-0.3930725583747029
1789337798314984400,0.146984375,0.47404491444826125,-0.36894583285599947,-0.5455243427723646
1789337798325010200,0.15701025390625,0.3706190267652273,-0.41569443228840824,-0.6790728353880345
1789337798335036200,0.1670361328125,0.31849019559919833,-0.4096797020435333,-0.7033451068572699
1789337798345062100,0.177062255859375,0.3739285897046327,-0.36983810552060603,-0.5495275870643556
1789337798355089200,0.187089111328125,0.5420780017107725,-0.27643179980963467,-0.31467458283379673
1789337798365115400,0.197115478515625,0.6851461639523506,-0.17008564076572655,-0.08034253373742103
1789337798375141400,0.207141357421875,0.7366425424337386,-0.12898089243918656,0.19669351557567716
1789337798385167400,0.21716748046875,0.7189227613478899,-0.09245119694322347,0.36475218055844305
1789337798395194400,0.2271943359375,0.6656009210050106,-0.04773819499164819,0.38735958755537864
1789337798405220400,0.237220458984375,0.7089619238257407,-0.028830665425956248,0.2424399522282183
1789337798415246300,0.247246337890625,0.7321843939810991,-0.06023702655881643,0.051869741838425396
1789337798425272300,0.257272216796875,0.6389513990104199,-0.1687634522512555,-0.003068155398964882
1789337798435299300,0.26729931640625,0.44961189945936203,-0.2747100905835628,0.03721066349744796
1789337798445325300,0.2773251953125,0.1963636990994215,-0.27456980533003805,0.08909472612217068
1789337798455351300,0.287351318359375,0.004843932899832725,-0.20693506973534823,0.17594708014503121
1789337798465377300,0.297377197265625,-0.17964812662005422,-0.10306816028654575,0.23671938262432812
1789337798475404300,0.307404296875,-0.31398879252672196,0.02698620660305023,0.210466897123307
1789337798485430300,0.31743017578125,-0.39034897862970824,0.09506488657295703,0.1597745285011828
1789337798495456300,0.327456298828125,-0.39790509309768674,0.14872984126508235,0.16593787343651056
1789337798505482200,0.337482177734375,-0.35013270357549187,0.10466741217672824,0.13157631575986742
1789337798515509200,0.34750927734375,-0.2526087334126234,0.0034907647252082822,0.11092457287535071
1789337798525535200,0.35753515625,-0.08902268379926681,-0.12989420789182185,0.0788712921410799
1789337798535561200,0.367561279296875,0.04862579148113727,-0.26491759536564347,0.06288578750193119
1789337798545588200,0.377588134765625,0.15191490104198455,-0.3016182635143399,0.051513768007606264
1789337798555614200,0.3876142578125,0.2049813053190708,-0.30926439435333014,0.11117343306988477
1789337798565640200,0.39764013671875,0.23879355854988096,-0.2765048650458455,0.21722923086509108
1789337798575666200,0.407666259765625,0.21956395742297172,-0.20480156483799217,0.32933906800225377
1789337798585693400,0.417693359375,0.18678806150257588,-0.09626257192492485,0.3869336172282696
1789337798595719400,0.427719482421875,0.09169570240080356,-0.03132832746058702,0.40187151251062747
1789337798605745400,0.437745361328125,-0.05162146616578102,-0.005018412683904171,0.36356413981765506
1789337798615771400,0.447771484375,-0.14373510171771048,0.047674189844727516,0.3382742157384753
1789337798625798100,0.457798095703125,-0.15189444277584552,0.08501344815790653,0.3204391377098858
1789337798635824000,0.46782421875,-0.11802256831228733,-0.0005862754553556442,0.31583865817710755
1789337798645850000,0.47785009765625,-0.0762877053886652,-0.11977028876245022,0.35297552578598257
1789337798655876400,0.48787646484375,-0.04805763620436191,-0.15834084243625401,0.3189280024945736
1789337798665903400,0.4979033203125,-0.02348842761516571,-0.13142273263335227,0.2957658842243254
1789337798675929300,0.507929443359375,-0.07094868244826794,-0.09997837757766247,0.26431583008021114
1789337798685955300,0.517955322265625,-0.19645722260177134,-0.09943944839537143,0.1345318045645952
1789337798695981300,0.527981201171875,-0.31790099753439427,-0.15499562366157768,-0.0009250058904290199
1789337798706008300,0.53800830078125,-0.3747311382591724,-0.21189882962256668,-0.033315263494104144
1789337798716034000,0.548033935546875,-0.4268517861187458,-0.2620020001798868,-0.08215221350789069
1789337798726060300,0.558060302734375,-0.37323885387480255,-0.24665946961939333,-0.06777107532545924
1789337798736087300,0.56808740234375,-0.06750000329911708,-0.1368985336959362,-0.04536182124912738
1789337798746113300,0.57811328125,0.31108897943198677,-0.07830138329863548,0.028265140497684478
1789337798756139300,0.58813916015625,0.526871664750576,-0.11539806502759456,0.10701996665224432
1789337798766165200,0.598165283203125,0.5164122300565243,-0.14656301862001417,0.15800941852480171
1789337798776192300,0.608192138671875,0.39687107387483117,-0.18681757985800504,0.14728358797952532
1789337798786218500,0.618218505859375,0.23666882148087023,-0.125378776293993,0.1788486468054354
1789337798796244500,0.628244384765625,0.038355741879343985,-0.05901800615787506,0.16766469722911714
1789337798806270500,0.6382705078125,-0.11550444801151752,0.019035247598588465,0.03899009426012635
1789337798816297200,0.648297119140625,-0.20243162083625793,0.042812136766314506,-0.12673749742656945
1789337798826323200,0.6583232421875,-0.15128303287923336,0.0012128829210996627,-0.3129375299081206
1789337798836349200,0.66834912109375,-0.0037760114073753354,-0.055661096945405004,-0.3994749727629125
1789337798846375200,0.678375244140625,0.09769640412032604,-0.1161672958344221,-0.36491277794763444
1789337798856402400,0.68840234375,0.018120763102173806,-0.1587073376610875,-0.18489435671046375
1789337798866428400,0.698428466796875,-0.1269026248604059,-0.17066870135068893,-0.012520312746614217
1789337798876454400,0.708454345703125,-0.2505044546097517,-0.12918664414435624,0.09410071771591902
1789337798886480400,0.71848046875,-0.2912807016342878,-0.11083528715670109,0.13280337333679199
1789337798896507100,0.728507080078125,-0.2877823381245136,-0.07032821246236562,0.08423968730643391
1789337798906533000,0.738533203125,-0.29007191036641594,-0.1278138944864273,0.026426965285092592
1789337798916559400,0.748559326171875,-0.33110300893485545,-0.2384042669713497,-0.011458528733998536
1789337798926585300,0.75858544921875,-0.27389292898178097,-0.35516339121907947,-0.06724851275607943
1789337798936612400,0.7686123046875,-0.14634148482382298,-0.40202772598564623,-0.1720531414464116
1789337798946638300,0.778638427734375,-0.14518237791657446,-0.3681394849091768,-0.10585720648318528
1789337798956664300,0.788664306640625,-0.307867679297924,-0.2768234294757247,0.03720116501674056
1789337798966691600,0.798691650390625,-0.380675725877285,-0.2689437821418047,0.12453034277111291
1789337798976717600,0.808717529296875,-0.4051601787924766,-0.27622312549501654,0.173334559559077
1789337798986743600,0.81874365234375,-0.35391514472365376,-0.19753741905391214,0.08169540965110063
1789337798996769500,0.82876953125,-0.3089192341774702,-0.09885492650568485,-0.041135143464803695
1789337799006796300,0.83879638671875,-0.26317162848114967,0.08176029158085585,-0.12308671983405947
1789337799016822300,0.848822265625,-0.09308277284502983,0.2535343238249421,-0.17157997097671032
1789337799026848300,0.85884814453125,0.1389975518018007,0.27478110999315974,-0.19053382390215992
1789337799036874200,0.868874267578125,0.2786427538573742,0.11125848100483417,-0.16463745836243032
1789337799046901500,0.878901611328125,0.3451005546271801,-0.17795330540090798,-0.09123363784700632
1789337799056927500,0.888927490234375,0.35213176843822,-0.41581922771185637,0.06603636048734188
1789337799066953500,0.898953369140625,0.27220424524247644,-0.4652995901957154,0.21472630813345311
1789337799076979500,0.9089794921875,0.042486558073759076,-0.3767752113074064,0.37679040887653825
1789337799087006200,0.919006103515625,-0.19975158797204493,-0.19867577543407677,0.47047640831172466
1789337799097032200,0.9290322265625,-0.19118425063490865,0.09795856218785047,0.5586784233778714
1789337799107058200,0.93905810546875,-0.21335633495450018,0.3172153533577919,0.5178220968544482
1789337799117084200,0.949084228515625,-0.3547580252885818,0.32949615826010703,0.3421250459477305
1789337799127111400,0.959111328125,-0.3615729660004377,0.36648178083002564,0.09257993788942694
1789337799137137400,0.969137451171875,-0.22834522977173327,0.4672881336644292,-0.13302885265573858
1789337799147163400,0.979163330078125,-0.058252867004275316,0.46998102601021524,-0.3862666777521372
1789337799157190400,0.9891904296875,0.04571896412372589,0.4040037022337317,-0.6146078158706426
1789337799167216400,0.99921630859375,0.036268998733162874,0.29414778150320053,-0.7297928226694465
1789337799177242400,1.009242431640625,0.016753566402196884,0.1452156956642866,-0.6836191005155444
1789337799187268400,1.019268310546875,0.025384616625308987,-0.0644034985885024,-0.49345717866569755
1789337799197295400,1.02929541015625,-0.03091419370174408,-0.2580924255207181,-0.2518780810505152
1789337799207321300,1.0393212890625,-0.01984977885186672,-0.34032150365710256,-0.08605192436017095
1789337799217347300,1.049347412109375,0.18442250141501426,-0.4040864120811224,-0.14583653097636998
1789337799227373300,1.059373291015625,0.3733247785925865,-0.1687552689447999,-0.6631923254933207
1789337799237400300,1.069400390625,0.345469972461462,0.23368892888724802,-1.2677331400536
1789337799247426300,1.07942626953125,0.2986152823060751,0.1447965934693813,-0.9080837625268846
1789337799257452500,1.08945263671875,0.32640286841988564,-0.27145108878761526,-0.08610270469933748
1789337799267478500,1.099478515625,0.4149567656636238,-0.38416649060249325,0.20429653792530297
1789337799277505300,1.10950537109375,0.46695934010148044,-0.20528964061588048,0.03948277314789593
1789337799287531300,1.11953125,0.31433833661675453,0.03954495166391134,-0.17570253079943357
1789337799297557200,1.12955712890625,0.0035199908196926113,0.1055278283983469,-0.23048574893176554
1789337799307583200,1.139583251953125,-0.22816753511726856,0.0028729250878095627,-0.1904574707303196
1789337799317610200,1.1496103515625,-0.3087491383075714,-0.07435644506514072,-0.07233334173969924
1789337799327636500,1.159636474609375,-0.276865807312727,-0.05021744458675384,-0.05731010626144707
1789337799337662500,1.169662353515625,-0.17751169911324977,0.017297171759605406,0.0031016923423856494
1789337799347688400,1.1796884765625,-0.07584463779628277,0.057617491710186,0.07969378750510513
1789337799357715500,1.189715576171875,-0.05892156004607677,0.07416676771193742,0.09975669765099883
1789337799367741400,1.199741455078125,-0.12142916188538073,0.06520926201343535,0.0762451814211905
1789337799377767400,1.209767333984375,-0.10901508599221706,-0.06569704553037882,0.02887611200287938
1789337799387793400,1.21979345703125,-0.1297702892512083,-0.16041560288369655,-0.06167246618941426
1789337799397820400,1.2298203125,-0.1328898825764656,-0.1270242054134607,-0.12795249923951924
1789337799407846400,1.239846435546875,-0.06091185708045959,-0.08226005779653787,0.002210880982503295
1789337799417872400,1.249872314453125,-0.01725216357409954,-0.07275719317495823,0.08498108025826513
1789337799427899400,1.2598994140625,0.008988193097710609,0.008190612979233264,0.14521986038275062
1789337799437925400,1.26992529296875,0.01574409709870815,0.13616115933209658,0.25910423291176554
1789337799447951400,1.279951416015625,-0.08869009084403515,0.21764643336385486,0.29972433952651917
1789337799457977300,1.289977294921875,-0.14937515343129634,0.18213205239027738,0.3630321518328041
1789337799468003300,1.30000341796875,-0.20615502527356147,0.12663199122548102,0.3638790509857237
1789337799478030300,1.3100302734375,-0.20849252831041812,0.0928705913990736,0.23866565785389393
1789337799488056300,1.320056396484375,-0.13145020516216754,0.008629881179332733,0.15060294166058302
1789337799498082300,1.330082275390625,-0.18880524654388425,0.004718845215439796,0.14666991306059063
1789337799508109300,1.340109375,-0.23252865293622016,0.06167524266839027,0.13426394740864633
1789337799518135300,1.35013525390625,-0.16219839464724062,0.13084259465783835,0.15695161656755954
1789337799528161300,1.360161376953125,-0.09369885891675948,0.1596253292888403,0.2028175879465416
1789337799538187300,1.370187255859375,0.06313128669559956,0.0732113666832447,0.41313269204162056
1789337799548214500,1.380214599609375,0.1766080282717943,0.0893479702308774,0.5284959049515426
1789337799558240500,1.390240478515625,0.20064941359460353,0.09201777396202086,0.4874599840775132
1789337799568266500,1.4002666015625,0.17064356690943241,0.028300796332955357,0.47535080941505725
1789337799578292500,1.41029248046875,0.10186229162812233,-0.05370148731023073,0.43943391205519433
1789337799588319200,1.4203193359375,0.15460253269076346,-0.0004623568147420883,0.4039203347992152
1789337799598345200,1.43034521484375,0.1876543229430914,-0.006366027900576591,0.4282726857673377
1789337799608371200,1.44037109375,0.21515257072150706,-0.07151800676882267,0.49282472598105664
1789337799618397400,1.4503974609375,0.2113607772231102,-0.008557984986901282,0.4317863929767161
1789337799628424400,1.460424560546875,0.11085516090095042,0.14863865585029123,0.43107028059661384
1789337799638450400,1.470450439453125,0.06503215188086033,0.30470453909188505,0.6126140117049217
1789337799648476400,1.480476318359375,-0.004821136546134948,0.36429303861409423,0.7622915090836584
1789337799658502400,1.49050244140625,-0.053446928027272224,0.33674393743127584,0.6667343089491129
1789337799668529200,1.500529052734375,-0.12071604517996311,0.2783209745571017,0.5729946796305477
1789337799678555400,1.510555419921875,-0.15139643012583254,0.2634402162894606,0.47169294449463484
1789337799688581400,1.520581298828125,-0.004988894328474998,0.400582787874341,0.293181712950021
1789337799698607400,1.530607421875,0.15022621730268002,0.49389001712501046,0.32446905081309374
1789337799708634400,1.54063427734375,0.2042366244316101,0.4426557967111468,0.48390872133672236
1789337799718660400,1.550660400390625,0.20740473307371138,0.32467414493113755,0.5600334912486374
1789337799728686300,1.560686279296875,0.2199871512711048,0.10980053728148341,0.6644551119707525
1789337799738712300,1.57071240234375,0.39096740278899667,-0.037969519040733576,0.6841635826557875
1789337799748739600,1.580739501953125,0.5720464389950036,0.09416954516842961,0.5445622197419404
1789337799758765600,1.590765625,0.5999614508807659,0.29717107484713196,0.4882489424981177
1789337799768791600,1.60079150390625,0.588687192672491,0.2913790474422276,0.6550440172858536
1789337799778817500,1.610817626953125,0.5768377649247646,0.23883505960404872,0.7304793436288833
1789337799788844300,1.62084423828125,0.4761766657799482,0.253391846614331,0.6341505745999515
1789337799798870300,1.630870361328125,0.2689566416233778,0.3766029234804213,0.45703415841460227
1789337799808896300,1.640896240234375,0.02976853079795837,0.3722853525422513,0.1986699302151799
1789337799818922200,1.650922119140625,-0.19114508766829966,0.20406287529990075,0.08022811357751489
1789337799828949500,1.660949462890625,-0.17462825263142584,0.04153787904679775,0.07206424247473478
1789337799838975500,1.6709755859375,0.06334931336045264,-0.0463205832786858,0.2524212480165064
1789337799849001500,1.68100146484375,0.23596213451623915,-0.056109279104322195,0.2917791526757181
1789337799859028200,1.6910283203125,0.19518588749170301,-0.0801898273937404,0.1418801215007901
1789337799869054200,1.70105419921875,0.03658814768493175,-0.16469591055139898,-0.016461451587826012
1789337799879080200,1.711080078125,-0.16353110455572603,-0.20246406180113552,-0.05155863006263971
1789337799889106200,1.721106201171875,-0.15358721816837786,-0.1789734422288835,0.019445728095620868
1789337799899133400,1.731133544921875,0.03132628163397312,-0.06520999266579747,0.14044789674058555
1789337799909159400,1.741159423828125,0.18673019383549688,0.04418167155385017,0.18481515399441123
1789337799919185000,1.751184814453125,0.21004268036186693,-0.01860693918392062,0.3274659676067531
1789337799929211000,1.7612109375,0.20345862579643725,-0.11400690293014049,0.408817678386718
1789337799939238000,1.77123779296875,0.21339666696488857,-0.06865984085872769,0.26553309691548344
1789337799949264000,1.781263916015625,0.2468225512266159,-0.020792904920876026,0.1273839786365628
1789337799959290000,1.7912900390625,0.2580705059498548,-0.01005626072064042,0.16588395129218697
1789337799969316000,1.801316162109375,0.13423077579140663,0.0362711906902492,0.23957988662198185
1789337799979342800,1.8113427734375,-0.10836977382600307,0.1942223031565547,0.24913024364709851
1789337799989368800,1.821368896484375,-0.2877870142996311,0.3656774787098169,0.21035949122607706
1789337799999394800,1.831394775390625,-0.40738662267029285,0.45757133403122424,0.1408491710178554
1789337800009420800,1.8414208984375,-0.4653454751640558,0.4082134288832545,0.021696721892803906
1789337800019447800,1.85144775390625,-0.24324586178362367,0.24988909919038413,-0.07299319388791918
1789337800029474000,1.86147412109375,0.0984603742301464,0.13752470277026294,-0.08735226636901497
1789337800039500000,1.8715,0.20660861425995825,0.12997662547826766,-0.062473845700174564
1789337800049526000,1.881526123046875,0.08586743463873862,0.11359189238846301,-0.025746289544552565
1789337800059553000,1.891552978515625,-0.08573182556033133,0.1611436248973012,-0.027418022149056195
1789337800069579000,1.9015791015625,-0.3112064683318138,0.25099136134386063,-0.08925210864096879
1789337800079605000,1.91160498046875,-0.37191608083844185,0.3169973266929388,-0.05223068410530686
1789337800089630700,1.921630615234375,-0.24234920520484446,0.34420185222178695,0.12221125217378138
1789337800099658000,1.931657958984375,-0.15386545058786869,0.3461667225539684,0.2685134279005229
1789337800109684000,1.94168408203125,-0.040109892070293425,0.27720453774780035,0.2609896082669496
1789337800119710000,1.9517099609375,0.010551204630732535,0.23701982687562703,0.1428540810994804
1789337800129736000,1.96173583984375,-0.0029769699841737745,0.15069894938096404,0.0656739569157362
1789337800139763000,1.971762939453125,0.11973872458040713,0.056685471557080744,0.07277604400590061
1789337800149789000,1.981788818359375,0.266664146772027,0.02655307588279247,0.03102013829424977
1789337800159815000,1.99181494140625,0.23662790494859218,-0.03710413438305259,-0.03548106322586536
1789337800169841000,2.0018408203125,0.15059914226830004,-0.018356909945607184,-0.11699877822250127
1789337800179868000,2.011867919921875,0.10928688867092132,0.02209931134432554,-0.07982961577922106
1789337800189894000,2.021893798828125,0.06254910289347171,0.07648468926548957,-0.19280717566162348
1789337800199919900,2.031919921875,-0.04065174386203289,0.09696545949727296,-0.276898394408077
1789337800209945900,2.04194580078125,-0.10250877283811569,0.1177861292079091,-0.2748198345683515
1789337800219972900,2.051972900390625,-0.10427402894496918,0.145491005474329,-0.2089081233739853
1789337800229998800,2.061998779296875,-0.024269348859786984,0.16161095014810561,-0.13513590793758629
1789337800240024800,2.07202490234375,0.0442588284432888,0.1052200776234269,-0.21886706119999289
1789337800250051000,2.082051025390625,0.08980477408766746,-0.09395867889672517,-0.42762642375305293
1789337800260078000,2.092078125,0.15581541561186313,-0.440749378567934,-0.6412164213329553
1789337800270103800,2.102103759765625,0.17183131538927554,-0.7337146722882986,-0.9863581847533583
1789337800280129800,2.1121298828125,0.14445231007635592,-0.8470660339191556,-1.3196701019093393
1789337800290155800,2.12215576171875,0.07142389874458313,-0.9329331762969494,-1.6116652354232965
1789337800300182800,2.132182861328125,-0.1501309402346611,-1.0602291843891143,-1.9021984796911477
1789337800310209000,2.142208984375,-0.26042671368718145,-1.1751026410207153,-2.100224266783893
1789337800320235000,2.152235107421875,-0.20478490596413612,-1.2263275090843437,-2.2839104167483746
1789337800330262000,2.162261962890625,-0.17797756305932996,-1.3080638352677225,-2.4169172037027775
1789337800340288000,2.1722880859375,-0.15253274067938327,-1.4610186007514596,-2.3475090286947786
1789337800350314000,2.18231396484375,-0.2400023498177528,-1.5877712957471608,-2.4674732325941324
1789337800360340000,2.192340087890625,-0.3965571856200695,-1.773355826678872,-2.8774074939206242
1789337800370366700,2.20236669921875,-0.7900877168953419,-2.0710078169107438,-3.2091526001513
1789337800380393000,2.21239306640625,-1.2408932100534438,-2.316754847860336,-3.3887595179781314
1789337800390419000,2.2224189453125,-1.6289748282730578,-2.4914962054774166,-3.4683038870751854
1789337800400445000,2.23244482421875,-1.8559826719611883,-2.671680046409368,-3.306844328096509
1789337800410472000,2.242471923828125,-2.088337137374282,-2.757624345676601,-3.1374644975125787
1789337800420498000,2.252497802734375,-2.1393162139832973,-2.5552327645897863,-3.201041774410009
1789337800430524000,2.26252392578125,-2.173559844368696,-2.1650658645287155,-3.045661243084073
1789337800440550000,2.2725498046875,-2.2366975608050823,-2.0664275033831596,-2.4797464387118815
1789337800450577000,2.282576904296875,-1.9550825131386518,-1.9665809354916213,-2.1639166944935915
1789337800460603000,2.292602783203125,-1.621317006996274,-1.7137974300339818,-1.84238800798133
1789337800470628900,2.30262890625,-1.4260866958409546,-1.7517223792806267,-1.61630765440166
1789337800480654800,2.31265478515625,-1.6867799515098332,-1.8023890289396047,-0.9043305474732071
1789337800490681900,2.322681884765625,-2.626019534474611,-1.2605658787727356,-0.34690771364700046
1789337800500707800,2.332707763671875,-3.5926965749412774,-0.4669952881976962,-0.4306231944162398
1789337800510733800,2.34273388671875,-3.654234454965591,-0.4817845687896013,-0.5095735431428998
1789337800520759800,2.352759765625,-3.315157982933521,-0.7965607123017311,-0.0539868801228702
1789337800530787000,2.362787109375,-2.9968367141604424,-0.857554110185802,0.14245646008402107
1789337800540813000,2.37281298828125,-2.560628486153483,-0.4515378990858793,0.0013910159669816493
1789337800550839000,2.382839111328125,-1.9516168828547,-0.12985241457670926,0.15581205461099742
1789337800560865000,2.392864990234375,-0.9636036243706941,-0.3327154125675559,0.13417290812432764
1789337800570891800,2.402891845703125,-0.027159809604287145,-0.9568158639267086,0.3720578273966908
1789337800580917800,2.412917724609375,0.4394640149325132,-1.6721575519174336,0.8070978884071112
1789337800590943700,2.42294384765625,0.50991117759943,-1.8669445032194256,0.9860133168384432
1789337800600970000,2.432969970703125,0.6569546732127666,-1.533456644974649,1.5336144658848643
1789337800610997000,2.4429970703125,1.0838701722174882,-1.0494976547554136,2.36411865658164
1789337800621023000,2.45302294921875,1.2473890018135307,-0.9702966922685503,2.30919464173913
1789337800631049000,2.463049072265625,1.0517635538607835,-1.2561661825090646,1.8418264285758137
1789337800641075000,2.473074951171875,0.8046142548978328,-1.2525479920119047,1.6729913723930716
1789337800651102000,2.48310205078125,0.7338736622422933,-1.253125499638915,1.4256380752906201
1789337800661127700,2.493127685546875,0.7546177595853805,-1.2732622787386179,0.7283581136912107
1789337800671154000,2.50315380859375,0.9598229367882013,-1.379488172403723,0.23057167364954947
1789337800681180000,2.513179931640625,1.2730302235484123,-1.6471283246010542,0.9233569541782141
1789337800691207000,2.52320703125,1.3967092101871967,-1.6248739688254892,1.7262988919496536
1789337800701233000,2.53323291015625,1.6691624617546796,-1.0411085965946316,2.547241765835881
1789337800711259000,2.5432587890625,1.7147662750661372,-0.37452012585699557,3.32476460019052
1789337800721284900,2.553284912109375,1.2647539781123398,0.007095365088433027,3.6358354594439266
1789337800731311900,2.563311767578125,0.6281494344890117,0.11952069791555404,3.1952386410892006
1789337800741338000,2.573338134765625,0.05081014978289604,-0.16565774132087827,2.5870091280788183
1789337800751364000,2.583364013671875,-0.2446609892785549,-0.45461073065996166,1.9122388121902942
1789337800761390000,2.59339013671875,0.13472937296330928,-0.3673820906706154,1.6211895812243222
1789337800771416800,2.603416748046875,0.6638654755145311,-0.18906214391440151,1.3862433457523584
1789337800781442800,2.61344287109375,0.8255565051615238,-0.45070451700165864,1.2958370986402035
1789337800791468800,2.62346875,1.0606471175402403,-0.5867248065583408,1.2899638226926327
1789337800801494800,2.633494873046875,1.200268938720226,-0.4960175306729972,1.4239005839735268
1789337800811522000,2.64352197265625,1.073899982345104,-0.25999855140298606,1.35541156963706
1789337800821548000,2.653548095703125,0.8691396263003349,-0.033716391640901566,1.1265355939894914
1789337800831574000,2.663573974609375,0.6352408540546893,-0.1263653031133115,1.1359902355551719
1789337800841600000,2.67360009765625,0.40031858398020265,-0.05062909412756562,1.0251906042337418
1789337800851626800,2.683626708984375,0.28969138661623,0.09642828388065099,0.9234498931586742
1789337800861652700,2.69365283203125,0.20833061574697492,-0.09071662823557854,0.7798673516541719
1789337800871678700,2.7036787109375,0.2800193029075861,-0.115792617303133,0.5874176111280918
1789337800881704700,2.71370458984375,0.5250730908960104,0.028039368917793035,0.5487246001183986
1789337800891732000,2.72373193359375,0.7244412325084209,0.1024514896929264,0.49087271513044833
1789337800901758000,2.733758056640625,0.6317080037534236,-0.012314999432861804,0.25878946787416934
1789337800911784000,2.743783935546875,0.5827431895762681,-0.05061594238504767,-0.11294716474413871
1789337800921810000,2.753809814453125,0.5851496661961079,-0.06773315446786582,-0.2783142525553703
1789337800931837000,2.7638369140625,0.6582172404944896,-0.18843707081861794,-0.3567816400706768
1789337800941863000,2.77386279296875,0.9121896634757518,-0.0880775119036436,-0.2265840653181076
1789337800951889000,2.783888916015625,0.8933014231324196,0.050854354250803584,-0.36513270430862904
1789337800961915100,2.7939150390625,0.6330570802748203,-0.04396401021517813,-0.6830471458464861
1789337800971942000,2.80394189453125,0.5154162047564983,-0.16556947851553558,-0.8984645049840211
1789337800981968000,2.8139677734375,0.42032735278606415,-0.21844160232953727,-1.0145733486294746
1789337800991993900,2.823993896484375,0.33545009822845456,-0.19510157020911573,-1.2536287729859352
1789337801002019800,2.834019775390625,0.1975479404479265,-0.24441958173811434,-1.5599293490976094
1789337801012046800,2.844046875,0.26036884602010246,-0.41130503822304304,-1.8708616766631603
1789337801022073000,2.854072998046875,0.5643196441352367,-0.5835437653694302,-1.9105495439290998
1789337801032099000,2.86409912109375,0.9261118058443069,-0.6729824095584451,-1.9537451270550488
1789337801042125000,2.874125,1.0020143113076687,-0.7999198134712875,-1.811668898460269
1789337801052151800,2.88415185546875,1.1785931134849785,-0.7717708466991782,-1.109189906913042
1789337801062177800,2.894177734375,0.9793938986986875,-0.630882951106131,-0.6553028143525124
1789337801072203800,2.904203857421875,0.3119511492192745,-0.5121699893768876,-0.5182569811403751
1789337801082229800,2.914229736328125,-0.3124029846400022,-0.36203561507612464,-0.500244939109683
1789337801092257000,2.924257080078125,-0.47771746548116206,-0.3947136401126161,-0.052035892185568804
1789337801102283000,2.934282958984375,-0.2395546060502529,-0.34211784902196374,0.4936082775741815
1789337801112309000,2.94430908203125,-0.257585352781415,-0.3621575609553605,0.5300976410597562
1789337801122335000,2.9543349609375,-0.25460721375346185,-0.5865541626991704,0.5526327134728432
1789337801132362000,2.964362060546875,-0.20919570814371108,-0.6391527668014169,0.5186316596716642
1789337801142388000,2.974387939453125,-0.20795009199678896,-0.6376645010050386,0.6267617795228958
1789337801152414000,2.9844140625,-0.1762111379086971,-0.6376900007724762,0.6170306591033935
1789337801162440000,2.99443994140625,-0.5292553450167179,-0.5950361963730305,0.1494593245834112
1789337801172466000,3.0044658203125,-0.9962111779868602,-0.6383784944932908,0.052180269092321395
1789337801182493000,3.014492919921875,-1.2644324910730123,-0.45735615691058334,0.3184504481106996
1789337801192519000,3.024518798828125,-1.3362614634871481,-0.15130042240545152,0.4265191931635141
1789337801202545000,3.034544921875,-1.405567054903507,-0.12479929590560496,0.3862257612198591
1789337801212571000,3.04457080078125,-1.5787772574305534,-0.15456059324517846,0.30793665288090705
1789337801222598000,3.054597900390625,-1.7117647551625965,-0.11538995478637516,0.32616730609834194
1789337801232623900,3.064623779296875,-1.5782137783288954,-0.15670798053741455,0.44597208165228364
1789337801242650000,3.074650146484375,-1.21133978331089,-0.1127802837446332,0.5513724842786789
1789337801252676000,3.084676025390625,-0.7101502568274736,-0.025535423272848128,0.86088676173985
1789337801262702800,3.094702880859375,-0.15757891815304756,0.06509703381061553,1.1433481971025465
1789337801272728800,3.104728759765625,0.1914917091488838,0.003276245191693306,0.9377414533615112
1789337801282754800,3.1147548828125,0.266947639888525,-0.26032252266034484,0.42490649726986884
1789337801292780800,3.12478076171875,0.09946224474906921,-0.5458674571216106,0.11375497399568557
1789337801302807800,3.134807861328125,0.0662660775899887,-0.5609029675595462,0.14432956047952175
1789337801312834000,3.144833984375,0.5515218296214938,-0.4249645110674202,0.4246756111234426
1789337801322860000,3.154860107421875,1.0526748234868049,-0.30555574909374117,0.9776426711171865
1789337801332886000,3.164885986328125,1.23811234716326,-0.22344109111726282,1.2959025650918483
1789337801342913000,3.1749130859375,0.9657026424765587,-0.41275209522619843,1.1430834086865187
1789337801352939000,3.18493896484375,0.5048708453446626,-0.44601913566440343,1.0844254680126906
1789337801362965000,3.194965087890625,0.17399170829355715,-0.47767830251455307,1.0080927544385194
1789337801372990700,3.20499072265625,0.006270166310667991,-0.6138695647239685,1.3138017943978308
1789337801383018000,3.21501806640625,-0.15643734690248964,-0.5376835661441087,1.574693202987313
1789337801393044000,3.2250439453125,-0.3608832301706075,-0.6257330209970474,1.586696944513917
1789337801403070000,3.235070068359375,-0.4180529781132936,-0.8493551677696406,1.8043536070108412
1789337801413096000,3.245095947265625,-0.25002573118209837,-0.958091729081422,2.2111147912591695
1789337801423123000,3.255123046875,-0.0763505414918065,-1.017801809156686,2.2710294539958236
1789337801433149000,3.26514892578125,-0.10507920784801245,-1.0847338033095002,2.0653227570116517
1789337801443175000,3.2751748046875,-0.25979426100254055,-1.0972037010431288,1.9200100307136774
1789337801453201000,3.285200927734375,-0.46283378460407254,-1.0765402677208185,1.7484201228648424
1789337801463228000,3.295227783203125,-0.6331944429188966,-0.9309396643921732,1.725361903360486
1789337801473254000,3.30525390625,-0.7213274844020605,-0.7022318849183619,1.6666443414539098
1789337801483280000,3.31527978515625,-0.894497939440608,-0.4529657399319112,1.4786580100774764
1789337801493305900,3.325305908203125,-1.0397563052028418,-0.269810335843265,1.3030009989202023
1789337801503332900,3.335332763671875,-0.9778943077906965,-0.07058481757193803,0.9809159936994314
1789337801513358800,3.34535888671875,-0.9425345328569412,0.07625745638087392,0.60176294734478
1789337801523384800,3.355384765625,-0.7666597872957587,0.21247882146760821,0.354283978036046
1789337801533411000,3.3654111328125,-0.5534866999536753,0.3041910366117954,0.19294015439152717
1789337801543438000,3.37543798828125,-0.4421785345882177,0.37528818762004373,-0.005761632266640663
1789337801553463800,3.3854638671875,-0.3274585149526596,0.47447906808182594,-0.08459960666000843
1789337801563489800,3.39548974609375,-0.28125381313860415,0.5593995772592723,-0.07201660394072532
1789337801573515800,3.405515869140625,-0.26647096228748557,0.49723479750826954,-0.026829554736614226
1789337801583542800,3.415542724609375,-0.1109825866729021,0.3862560102276504,0.1147995146125555
1789337801593568800,3.42556884765625,0.08916472261846065,0.3187256117902696,0.21292203519046304
1789337801603595000,3.435594970703125,0.1146294187426567,0.12118936178013681,0.3286825037896633
1789337801613621000,3.44562109375,0.1303001583442092,-0.14765826651081443,0.4456166923433542
1789337801623647000,3.45564697265625,0.19418343245089054,-0.4519593393683433,0.5588046801060438
1789337801633674000,3.465674072265625,0.2984171293854713,-0.7377930276431143,0.6392196945577859
1789337801643700000,3.475699951171875,0.41094431515187024,-0.91896310313344,0.7923018858134746
1789337801653726000,3.485725830078125,0.4268821812570095,-0.9966165439173579,0.9556319148391484
1789337801663752000,3.495751953125,0.34524054761976003,-1.0324569419749081,1.1248293745934963
1789337801673779000,3.505779052734375,0.20903145749270916,-1.0757890109620987,1.3188719372689723
1789337801683805000,3.515804931640625,0.023306641307473182,-1.1439894176155327,1.43868431160748
1789337801693831000,3.525830810546875,-0.10521452466547489,-1.2212522516466677,1.5865350319504736
1789337801703857000,3.53585693359375,-0.23382103083431718,-1.351731712080538,1.74033033991158
1789337801713884000,3.5458837890625,-0.4980673028096556,-1.5752581433936952,1.7599580004453659
1789337801723910000,3.555909912109375,-0.7408423322111368,-1.9565182450301943,1.7851923949450252
1789337801733935900,3.565935791015625,-0.8861579811185598,-2.3058833252340554,1.6438415580153465
1789337801743961900,3.5759619140625,-1.0680693764954805,-2.401468728549778,1.5492776067018508
1789337801753988900,3.58598876953125,-1.1587956493422389,-2.493039051005244,1.672403051111102
1789337801764014800,3.596014892578125,-1.0992916132330894,-2.5410598623305556,1.8664450292646884
1789337801774040800,3.606040771484375,-1.0269605365157126,-2.5386951790258285,2.045918383839726
1789337801784066800,3.61606689453125,-0.9471423189133406,-2.6178017412275074,2.3560884948611256
1789337801794093800,3.62609375,-0.9751859256148337,-2.6198884843736887,2.544233231669664
1789337801804119800,3.636119873046875,-1.174586215931177,-2.6554350140511986,2.5070143848657604
1789337801814145800,3.646145751953125,-1.5303198082536458,-2.815782227873802,2.4557956542819737
1789337801824172000,3.656172119140625,-1.8761416628926992,-3.0568016457796094,2.3253134173691272
1789337801834199000,3.666198974609375,-2.020107650756836,-3.2940956134214994,2.232712875083089
1789337801844225000,3.67622509765625,-1.9153794483035802,-3.3913889896988865,2.041945973077416
1789337801854251000,3.6862509765625,-1.654952150094509,-3.3604695353001355,1.8191671452611684
1789337801864277000,3.696277099609375,-1.3667249908119439,-3.335757118847966,1.822086247578263
1789337801874303700,3.7063037109375,-0.9590671499848366,-3.2073917279586195,1.850451341319084
1789337801884330000,3.716330078125,-0.6654688190579414,-3.065599869263172,1.8681693688392638
1789337801894356000,3.72635595703125,-0.37769641780555246,-2.9837901855826376,2.075070244044065
1789337801904382000,3.7363818359375,-0.26927345248758794,-3.0043080729544163,2.1474504206001757
1789337801914409000,3.746408935546875,-0.29021687179505823,-3.311499168165028,1.945708535593748
1789337801924435500,3.756435546875,-0.22220073566734788,-3.80334365093708,1.4054960354939103
1789337801934461400,3.76646142578125,-0.16938801389038563,-4.188542699457705,0.7471525382712483
1789337801944487400,3.7764873046875,-0.08333119415938854,-4.314478525112569,0.5145160410463809
1789337801954513400,3.786513427734375,-0.09748305363059043,-4.05610903621614,0.36664252434968947
1789337801964540400,3.79654052734375,-0.16225450874865055,-3.7502497741311784,0.3128329004898667
1789337801974566400,3.80656640625,-0.22193419368565082,-3.500657173669338,0.3259270676016807
1789337801984592400,3.81659228515625,-0.34351182413101194,-3.3521015199273823,0.2671476925052702
1789337801994618400,3.826618408203125,-0.47760465275645253,-3.0470138267368077,0.20574352186322212
1789337802004645400,3.836645263671875,-0.5536673172175884,-2.6300021743699906,0.12201076116561889
1789337802014671400,3.84667138671875,-0.6388327410668134,-2.344269462251663,0.18662578361295162
1789337802024697300,3.856697265625,-0.6225391933917999,-2.3133301341086625,0.0803571467846632
1789337802034723300,3.866723388671875,-0.6197095229238271,-2.354797578267753,-0.40738676880076524
1789337802044750300,3.876750244140625,-0.6030038873165845,-2.3051862828806042,-0.8442301529061049
1789337802054776300,3.8867763671875,-0.5898854625463485,-2.1304870108395813,-1.1254100970908998
1789337802064802300,3.89680224609375,-0.5838263086378574,-1.7931597205623984,-1.3013316044032572
1789337802074828300,3.906828369140625,-0.4800175591170788,-1.3478928645700214,-1.3616053097106515
1789337802084855300,3.916855224609375,-0.47907238722145556,-0.8801365288719535,-1.3259734398372471
1789337802094881300,3.92688134765625,-0.5049129309207201,-0.45336511451303957,-1.2963961938276887
1789337802104907300,3.9369072265625,-0.4699895015776157,-0.1307134153202176,-1.443363701595366
1789337802114933500,3.94693359375,-0.36628362790942187,0.07558861720860004,-1.557656727990508
1789337802124960500,3.95696044921875,-0.19265899936258793,0.17836363976746797,-1.6122370439618825
1789337802134986500,3.966986572265625,0.042560207831859584,0.1546641997501254,-1.6256559129834174
1789337802145012500,3.977012451171875,0.20500527071654795,0.03486351584941148,-1.6609150040216742
1789337802155038500,3.98703857421875,0.13200257834792137,-0.09738543847501277,-1.7608416514120995
1789337802165065200,3.997065185546875,-0.014392682489752768,-0.1898065325409174,-1.893146427576989
1789337802175091200,4.00709130859375,0.029750995141267774,-0.24873043067455292,-1.9234905663058162
1789337802185117400,4.017117431640625,0.2021025350123644,-0.2592348735541105,-1.7635884659022092
1789337802195143400,4.027143310546875,0.2948077067166567,-0.23689123205989598,-1.6458295169621706
1789337802205169400,4.03716943359375,0.1717196717083454,-0.2274725385904312,-1.5367255836427212
1789337802215196400,4.047196533203125,0.019754501783847807,-0.20661124460846184,-1.3343962541371583
1789337802225222400,4.057222412109375,0.05565349816083908,-0.2349640633895993,-1.1105290465623139
1789337802235248400,4.067248291015625,0.1289163027703762,-0.22836276542842388,-0.9723398885339498
1789337802245274400,4.0772744140625,0.07849895169734955,-0.2520318103075027,-0.8923542054101824
1789337802255301400,4.08730126953125,-0.05627601397335529,-0.31240795307606456,-0.8073512786462903
1789337802265327400,4.097327392578125,-0.18292729442119599,-0.3275663592413068,-0.7249743164718151
1789337802275353300,4.107353271484375,-0.14148761505186558,-0.3225242734208703,-0.7312988433182239
1789337802285379300,4.11737939453125,-0.201739546918869,-0.38291619828045365,-0.7675918074488639
1789337802295406300,4.12740625,-0.31703298252820966,-0.4891922146975994,-0.7246940382257103
1789337802305432300,4.137432373046875,-0.3076251027137041,-0.5798156116917729,-0.73018708268404
1789337802315458300,4.147458251953125,-0.4063555260568857,-0.6065314769208431,-0.7644070399329066
1789337802325484300,4.157484375,-0.4909481184542179,-0.6192544726327062,-0.7158592821240425
1789337802335511600,4.167511474609375,-0.4213210399985313,-0.56588937766999,-0.6222691442787647
1789337802345537500,4.17753759765625,-0.3249111685574054,-0.4607786056399345,-0.4761828032597899
1789337802355563500,4.1875634765625,-0.256539058598876,-0.3031912119194865,-0.39298780270069833
1789337802365589500,4.197589599609375,-0.19003098894655704,-0.2213596086680889,-0.3874462429255247
1789337802375616300,4.2076162109375,-0.25970833628475665,-0.24383769019693136,-0.3114601508319378
1789337802385642200,4.217642333984375,-0.389579163300991,-0.23450784405469893,-0.2690288300767541
1789337802395668200,4.227668212890625,-0.5812205100536346,-0.17265198412239552,-0.24064093998223543
1789337802405694500,4.237694580078125,-0.8436129708558321,-0.15410364325791595,-0.18016338266581297
1789337802415721500,4.247721435546875,-0.9966957466334104,-0.10425386293977498,-0.18222119197845457
1789337802425747500,4.25774755859375,-1.0336369455397127,-0.045232349650561804,-0.17754180199056863
1789337802435773400,4.2677734375,-1.0150544101446866,0.006174889242649078,-0.03319061420112848
1789337802445799400,4.27779931640625,-0.97485742431283,0.08604045311808585,0.1002358594700694
1789337802455825400,4.287825439453125,-1.0901210493057965,0.1737967702433467,0.14104396293759344
1789337802465852200,4.29785205078125,-1.277195526534319,0.18505378505587577,0.1057972929894924
1789337802475878400,4.30787841796875,-1.2928320716053248,0.10853577804267406,0.1581821447432041
1789337802485904400,4.317904296875,-1.3658178128391503,0.08371288695335388,0.27321371454596516
1789337802495930400,4.327930419921875,-1.1657429842621088,0.08556202195137738,0.3729030460491776
1789337802505957400,4.337957275390625,-0.7009954749912023,0.10340718298256396,0.3858960908740759
1789337802515983400,4.3479833984375,-0.6493997277885675,0.014457272158563137,0.40753333766460415
1789337802526009300,4.35800927734375,-0.9964835651874542,0.06874795753359794,0.3181193164601922
1789337802536035300,4.368035400390625,-1.4251280799418686,0.14500526778399944,0.22978695301264523
1789337802546062600,4.3780625,-1.7003747616201639,0.18375468515604734,0.2803232542902231
1789337802556088300,4.38808837890625,-1.401796304193139,0.3812544025480747,0.4762698970213532
1789337802566114300,4.3981142578125,-0.9022732496172189,0.5044862299412488,0.8982692746728658
1789337802576140300,4.408140380859375,-0.6590554448843002,0.44117081885039805,1.5252344678133725
1789337802586167300,4.418167236328125,-0.6006780747175217,0.43144554364979265,2.064206758593768
1789337802596193300,4.428193359375,-0.4877133743166923,0.4649915471598506,2.2409135710649193
1789337802606219300,4.43821923828125,-0.40304128694236274,0.34468583634644745,2.073278684452176
1789337802616245200,4.448245361328125,-0.054389761835336684,-0.028211949005723,1.3976279324673115
1789337802626272500,4.4582724609375,0.8501549398452043,-0.6287123290687799,-0.5513065794356167
1789337802636298500,4.468298583984375,1.6059142706811427,-0.7166323123231529,-1.8691396751761435
1789337802646324500,4.478324462890625,2.1598808631062507,-0.24635902536809443,-0.9441125958286225
1789337802656350500,4.4883505859375,0.7457552386939525,-0.9261287569791078,0.07362257783263922
1789337802666376400,4.49837646484375,-1.7055635624349117,-0.4923860423028469,0.3393969361580908
1789337802676403200,4.5084033203125,-2.799998967808485,2.1457140983268617,0.3877271056935191
1789337802686429200,4.51842919921875,-3.4784131931573152,3.570918750636279,0.9784161397077142
1789337802696455400,4.528455322265625,-2.833136098256707,3.1549902173310516,0.5913489592276513
1789337802706481400,4.5384814453125,-1.800759966433048,3.151180888175964,1.141951262851432
1789337802716508400,4.54850830078125,-0.8190858478426932,2.723096637652814,1.678432686664164
1789337802726534400,4.558534423828125,-0.05588906048238277,2.405011223462224,2.3133546840280292
1789337802736560400,4.568560302734375,0.4070762415468693,2.3168086238741874,2.402697247431427
1789337802746586400,4.57858642578125,0.8937661180347204,2.5161533846110102,1.6233447134315966
1789337802756613400,4.58861328125,0.8551847507059573,2.3110069518581033,1.6380531838722525
1789337802766639400,4.598639404296875,0.513704724663496,2.0458345049485565,1.9476973713234065
1789337802776665300,4.608665283203125,0.5012742821574211,2.250941190212965,1.9166214111886917
1789337802786691300,4.61869140625,0.4045815021216869,2.359005551351607,1.8295824485525487
1789337802796718300,4.62871826171875,0.09754209034144878,2.2277239807546136,1.6903544489957392
1789337802806744300,4.638744384765625,-0.1255178925037384,2.0226322007983923,1.4000064981669187
1789337802816770300,4.648770263671875,-0.25794366469979285,1.7910973812051116,0.966291256019473
1789337802826796300,4.65879638671875,-0.44951253073811526,1.581341116569191,0.6218915431380272
1789337802836823600,4.668823486328125,-0.6771095724910497,1.4668128201134503,0.1990789494074881
1789337802846849500,4.678849609375,-0.8984791180312633,1.4309624851837754,-0.15532485561594367
1789337802856875500,4.68887548828125,-1.1459247695922852,1.4989245530366897,-0.36798385595604777
1789337802866901500,4.698901611328125,-1.2229799522221088,1.6521375310651958,-0.5585612267389893
1789337802876927500,4.708927490234375,-1.1847843693405389,1.742870379783213,-0.7154846035927533
1789337802886954200,4.718954345703125,-1.0483505305469036,1.8271341786175965,-0.8399078327275812
1789337802896980200,4.728980224609375,-0.7975655054301023,1.8632073625177143,-0.8978573328711092
1789337802907006200,4.739006103515625,-0.6481266391128301,1.8692073335848747,-1.0022925437271595
1789337802917031400,4.749031494140625,-0.5707657515347003,1.9380474994465708,-1.1410236996777354
1789337802927058400,4.759058349609375,-0.5405108985245227,2.026043470546603,-1.2418247918151317
1789337802937084400,4.76908447265625,-0.4400917914420366,2.1542709142699836,-1.2444228454843163
1789337802947110400,4.7791103515625,-0.24396599275171754,2.190970121113956,-1.124104567450285
1789337802957136400,4.789136474609375,0.0869488001346588,2.1906910119116305,-1.064445486909896
1789337802967163400,4.799163330078125,0.3933183498293161,2.156621130657941,-1.1406092736579476
1789337802977189400,4.809189453125,0.6207347743183375,2.0618819689080117,-1.2382786436408757
1789337802987215600,4.819215576171875,0.8545587277621031,1.9712742078743875,-1.3626907668597996
1789337802997241600,4.82924169921875,0.9840975463449955,1.8577578649401663,-1.5022579352430998
1789337803007268400,4.839268310546875,0.9943231722831726,1.8023796765893696,-1.6324778679579495
1789337803017294300,4.84929443359375,0.9278004895836114,1.8079896254256367,-1.6777556641854345
1789337803027320300,4.8593203125,0.8076192819327116,1.8883961643099785,-1.694347902546078
1789337803037346300,4.86934619140625,0.6463742424875497,2.0040007116951046,-1.7295161004304884
1789337803047373600,4.87937353515625,0.4035959982156753,2.118761355601996,-1.699503239482641
1789337803057399600,4.889399658203125,0.20316110415458677,2.2793065762147307,-1.6438301598384975
1789337803067425500,4.899425537109375,0.25972470289766786,2.399585399021208,-1.6545241339407861
1789337803077451500,4.909451416015625,0.6067915891617536,2.3924042553454634,-1.583350118304044
1789337803087477500,4.9194775390625,1.1008370891094208,2.0994300476662815,-1.3834360332466662
1789337803097504300,4.929504150390625,1.6652736376225947,1.8532257744684815,-1.3212459729239343
1789337803107530200,4.9395302734375,1.9852537795186043,1.665708375778049,-1.400612793496996
1789337803117556200,4.94955615234375,2.053895938590169,1.470686008284986,-1.366627667917311
1789337803127582200,4.959582275390625,2.142307797014713,1.2088830378085373,-1.3234481591433287
1789337803137609500,4.969609375,2.4228397256195544,0.8880779893957078,-1.2608629620231688
1789337803147635500,4.979635498046875,2.59069863024652,0.6127005209445953,-1.1180937827281654
1789337803157661400,4.989661376953125,2.6367899348139763,0.414877124556154,-1.0482492621295154
1789337803167687400,4.9996875,2.497314244106412,0.2831469334088266,-0.9516726558193563
1789337803177714400,5.00971435546875,2.2777403498113156,0.2600556884177029,-0.7426762696400284
1789337803187740400,5.019740478515625,2.100619695842266,0.3755211195930838,-0.5912811546884477
1789337803197766400,5.029766357421875,1.9966110398352146,0.39464126899614926,-0.4965900698639452
1789337803207792600,5.039792724609375,1.9312012868136166,0.43545156442075966,-0.5842378120481968
1789337803217819400,5.0498193359375,1.9955150612920523,0.33301834103688593,-0.6395614937327802
1789337803227845400,5.059845458984375,2.235963401311636,0.04340893361568451,-0.6141656250610947
1789337803237871400,5.069871337890625,2.3916905541181563,-0.30339988623410463,-0.6922108416415751
1789337803247897300,5.0798974609375,2.378844516548514,-0.6257436885215342,-0.7574453842267393
1789337803257923300,5.08992333984375,2.2320921128362414,-0.941233094869554,-0.7466602247096598
1789337803267950600,5.09995068359375,2.034506762987375,-1.2390358917489648,-0.7156944469511508
1789337803277976600,5.1099765625,1.7463602677255867,-1.4742606519013643,-0.7183977145604789
1789337803288002600,5.12000244140625,1.374934600752592,-1.621574488888681,-0.6885701470516622
1789337803298028500,5.130028564453125,1.0216846419394017,-1.7503306326612829,-0.6470869208015501
1789337803308055300,5.14005517578125,0.7987339646875857,-1.9302629830501972,-0.6640205199457705
1789337803318081300,5.150081298828125,0.7459317643046378,-2.0925379500649868,-0.5742759516127407
1789337803328107300,5.160107177734375,0.792383134356141,-2.196430286215991,-0.41079672337472434
1789337803338133200,5.17013330078125,0.7493056246519089,-2.2181055269293486,-0.22663974102810025
1789337803348160500,5.180160400390625,0.5365256282806397,-2.197648283703625,-0.06694806850478052
1789337803358186500,5.1901865234375,0.17376608284413814,-2.142778483266383,-0.015172434690594672
1789337803368212500,5.20021240234375,-0.24121523273885248,-2.0402312781140206,-0.005471417148411274
1789337803378238500,5.210238525390625,-0.629536504933238,-1.9134484802410006,0.09094985246956348
1789337803388265500,5.220265380859375,-1.0300532418340445,-1.7532272308856247,0.17069529709666967
1789337803398291500,5.23029150390625,-1.3610790938794612,-1.672134463302791,0.20973434506505725
1789337803408317400,5.2403173828125,-1.504610197457671,-1.6493138519465922,0.25810294691473246
1789337803418343400,5.250343505859375,-1.4277064059972762,-1.6462787220343946,0.37962563230246305
1789337803428369400,5.260369384765625,-1.4661094941496848,-1.6595076214417814,0.43745998163372274
1789337803438396400,5.270396484375,-1.6695488307237625,-1.7291966592177748,0.3900049874976277
1789337803448422400,5.28042236328125,-1.9950532889991996,-1.6929545484915374,0.2548258249402046
1789337803458448400,5.290448486328125,-2.3310101677060127,-1.6251032475367186,0.15031769497841596
1789337803468474400,5.300474365234375,-2.634039759323001,-1.555606809723377,0.10538082114309072
1789337803478501400,5.31050146484375,-2.8890947168439625,-1.3633046609744428,0.11245412053018808
1789337803488527400,5.32052734375,-3.1319746679246423,-1.1478244657337664,0.05607727653086185
1789337803498553600,5.3305537109375,-3.396775943434238,-1.0090545852079986,0.04572890099585056
1789337803508579600,5.34057958984375,-3.5550808377742764,-0.9174819246649741,0.05147241308391094
1789337803518606300,5.3506064453125,-3.5155823556005954,-0.7507593305915594,0.057223523956537244
1789337803528632300,5.36063232421875,-3.3977345593333244,-0.5244762940466403,-0.028046237049996852
1789337803538658300,5.370658203125,-3.346538625103235,-0.3821791161775589,-0.13873919312655925
1789337803548684300,5.380684326171875,-3.3441718959718942,-0.2560942374408245,-0.2758776730582118
1789337803558711600,5.390711669921875,-3.2058062123328446,-0.087629183614254,-0.49465749436616896
1789337803568737500,5.400737548828125,-2.9890421147614714,0.058655894847214216,-0.6948436743631958
1789337803578763500,5.410763427734375,-2.7994851730674504,0.1488362242490053,-0.832187906000018
1789337803588789500,5.42078955078125,-2.600746561530232,0.3121446259647608,-0.9268018339350819
1789337803598815500,5.4308154296875,-2.3246879789471624,0.5302703672781587,-0.9744088037624955
1789337803608842500,5.440842529296875,-2.005409263318777,0.7765572041928768,-1.0933911570176482
1789337803618868200,5.4508681640625,-1.7565139974713324,1.0104305497363208,-1.2638196198716758
1789337803628894200,5.460894287109375,-1.5409879172623158,1.2142533326700329,-1.4148986546114086
1789337803638920200,5.470920166015625,-1.29614163454473,1.4019365894466638,-1.5355156233310698
1789337803648947500,5.480947509765625,-0.9822609785676002,1.6141636281102896,-1.66819157089591
1789337803658973400,5.490973388671875,-0.7942506817936896,1.802699702323973,-1.9491615986570714
1789337803668999400,5.50099951171875,-0.7315028414577245,1.9849962976261972,-2.2502131681993602
1789337803679025400,5.511025390625,-0.7128390575200318,2.172714625716209,-2.4399939817771314
1789337803689052400,5.521052490234375,-0.6801473327517509,2.235233917993307,-2.574187640428543
1789337803699078400,5.531078369140625,-0.5447819999724626,2.1617934187293053,-2.7048192226842045
1789337803709104400,5.5411044921875,-0.3666588909626007,2.038390034161508,-2.695849442026019
1789337803719130600,5.551130615234375,-0.16728548865318296,1.9221371058702468,-2.726577757766843
1789337803729156600,5.561156494140625,0.01246200668811798,1.7585209533795714,-2.727334129092097
1789337803739183400,5.571183349609375,0.16716390810012816,1.7445991032719612,-2.840430346918106
1789337803749209300,5.581209228515625,0.35560149037539956,1.8839102510675787,-3.0115456229925153
1789337803759235300,5.5912353515625,0.33343466675281525,2.019976133331656,-3.174027218495309
1789337803769261300,5.60126123046875,0.1318143622994423,2.0589675427660343,-3.3573438044950366
1789337803779288600,5.61128857421875,-0.0363595996260643,1.9932202283531426,-3.3881235581621527
1789337803789314600,5.621314453125,-0.12881985665857792,1.8858228066906333,-3.2743481259003278
1789337803799340500,5.631340576171875,0.008751461732387542,1.6767390344887971,-3.0273908423781393
1789337803809366500,5.641366455078125,0.6438537840992212,1.302479313133657,-2.6403920509591696
1789337803819393300,5.651393310546875,1.9340256965845821,0.7101824055314063,-2.1408187275007364
1789337803829419300,5.661419189453125,3.5793186224520204,-0.15997224303036928,-1.6472545813292263
1789337803839445200,5.6714453125,5.100027721795439,-0.9858578340157866,-1.1590686210647225
1789337803849471200,5.68147119140625,5.983619651818275,-1.5220356717720627,-0.6883455445155501
1789337803859498500,5.69149853515625,6.21373422935009,-1.769500904816389,-0.26467706460803747
1789337803869524500,5.7015244140625,5.807388055643439,-1.8302713075995445,0.2484016371116042
1789337803879550500,5.711550537109375,4.994572374111414,-1.774976705878973,0.5412669775888324
1789337803889576400,5.721576416015625,4.111028374883532,-1.634688822005689,0.7111866141378879
1789337803899602400,5.7316025390625,3.4188100805878636,-1.5407333579793572,0.9919248789697885
1789337803909629400,5.74162939453125,2.931669537723064,-1.5996367978468535,1.2187427530437707
1789337803919656000,5.751656005859375,2.5283640468865634,-1.7118918886736034,1.3029761567398905
1789337803929682000,5.761681884765625,2.2089567364424467,-1.8747434865325687,1.2625135057091712
1789337803939708200,5.771708251953125,1.9084785828739403,-2.13901284712255,1.1853241753056645
1789337803949735200,5.781735107421875,1.5756290225327014,-2.397453939950466,1.2209554606571793
1789337803959761200,5.79176123046875,1.2183359258085489,-2.532001526606083,1.340448686043918
1789337803969787100,5.801787109375,0.849804811233282,-2.6693738152936097,1.4959224486112594
1789337803979813000,5.811813232421875,0.47383448656797406,-2.670767023217678,1.7134084307163953
1789337803989840100,5.821840087890625,0.029520108994841573,-2.57783885641247,1.916655459588766
1789337803999866000,5.8318662109375,-0.4837140755474567,-2.492722240141034,2.134701121403277
1789337804009892400,5.841892333984375,-0.9632470660179853,-2.3757050494790075,2.2438547390833494
1789337804019918000,5.85191796875,-1.4938701922565698,-2.251979885610938,2.276590595254302
1789337804029944000,5.861944091796875,-1.947155811792612,-2.1319602982625363,2.2879250592172142
1789337804039971000,5.87197119140625,-2.296672429296374,-2.0318574175223705,2.259270334880054
1789337804049997000,5.8819970703125,-2.4940643023997544,-1.9795541065722704,2.215395245057344
1789337804060023000,5.89202294921875,-2.588466341149807,-1.954291070500016,2.192523195774853
1789337804070049000,5.902049072265625,-2.6001158624112604,-1.9317501528680323,2.170697148413956
1789337804080076300,5.912076171875,-2.4673633424788712,-1.8618360741645097,2.2050763878777624
1789337804090102300,5.922102294921875,-2.2759733401387927,-1.7871423599690197,2.2322338593944906
1789337804100128300,5.932128173828125,-2.164462345677614,-1.6994254980713128,2.234205743989348
1789337804110154200,5.942154296875,-2.157152314925194,-1.5592589024901389,2.246871164295077
1789337804120181000,5.952180908203125,-2.1583891632437706,-1.3515472954243422,2.206684699857235
1789337804130207000,5.96220703125,-2.1583552609741687,-1.1458850221037864,2.0771116867437955
1789337804140233000,5.97223291015625,-2.0912153231590986,-0.9629799395143985,1.8870327670022844
1789337804150259000,5.982259033203125,-2.0159517001211644,-0.8073270209878682,1.712756104287505
1789337804160286200,5.9922861328125,-1.8886334801971911,-0.5861667342841624,1.5972379200115798
1789337804170312200,6.002312255859375,-1.6704530860871076,-0.3286784121364355,1.5350968133971095
1789337804180338200,6.012338134765625,-1.4838877274245024,-0.0472217699021101,1.4385940029755233
1789337804190364200,6.0223642578125,-1.3162544482469558,0.26549744108021256,1.3243883626028894
1789337804200390100,6.03239013671875,-1.1700094095349312,0.5867553478270768,1.264182900226116
1789337804210417200,6.042417236328125,-0.9760691381901502,0.8621294552773237,1.2923141852110624
1789337804220443100,6.052443115234375,-0.7883154465258121,1.0826678106904029,1.3368667359039186
1789337804230469000,6.06246923828125,-0.7205448095917701,1.319439508023858,1.379447986523807
1789337804240495000,6.0724951171875,-0.8115700653851031,1.5072797089278698,1.3386132873103023
1789337804250522000,6.082522216796875,-0.8956488630414009,1.6566577849686144,1.241500820557773
1789337804260548000,6.092548095703125,-0.8675123173594474,1.706850095114112,1.2318544558122753
1789337804270574000,6.102573974609375,-0.6967664591193199,1.5701882927834987,1.20571697499305
1789337804280600000,6.11260009765625,-0.330150822776556,1.3295733640253542,1.1511547792002559
1789337804290627300,6.12262744140625,0.2237041259676218,1.1582231101512908,0.9531488658517598
1789337804300653300,6.1326533203125,0.7782605009794235,1.121935406717658,0.645901948800683
1789337804310679300,6.14267919921875,1.2676549602508544,1.1741600994735955,0.63721653804183
1789337804320705300,6.152705322265625,1.781505815386772,1.2318769599050283,0.7403413969516753
1789337804330731300,6.162731201171875,2.3428473204940556,1.2647048782736063,0.8706459392100572
1789337804340758000,6.172758056640625,2.809355409696698,1.35296826813817,1.1357155102670191
1789337804350784000,6.182783935546875,3.0539456718266007,1.486471314176917,1.4015899679660797
1789337804360810000,6.19281005859375,2.9298130962014195,1.5203186387211083,1.552993996876478
1789337804370836000,6.2028359375,2.450197688144445,1.370738318106532,1.5070979226201773
1789337804380863200,6.21286328125,1.8012556409955023,1.1470020434349775,1.250662032134831
1789337804390889200,6.22288916015625,1.144643497610092,0.9295102161109446,1.0409294406354426
1789337804400915200,6.232915283203125,0.780906047052145,0.6389899774551391,0.8901309764027595
1789337804410941200,6.242941162109375,0.8811860379248857,0.2199257764726877,0.875288212057948
1789337804420967200,6.25296728515625,1.284118019273877,-0.3003361147493124,0.922575448411703
1789337804430994000,6.262993896484375,1.812106705355644,-0.7273334468185901,0.9206678612247109
1789337804441020000,6.27302001953125,2.243469831418991,-0.947546223539114,0.9528276710733771
1789337804451046100,6.283046142578125,2.4817127703487873,-1.0958318281680346,0.959305050393939
1789337804461072100,6.293072021484375,2.626747264227271,-1.16754009681195,0.9394248764038086
1789337804471099100,6.30309912109375,2.5776018327862023,-1.2125365918800235,0.9550497310370206
1789337804481125000,6.313125,2.169759283041954,-1.2592287849500774,0.9936027490541338
1789337804491151000,6.323151123046875,1.4910451979637145,-1.2633388506174086,0.9892448461055755
1789337804501177000,6.333177001953125,0.6976514252603053,-1.2480103485822678,0.8912018205046653
1789337804511204400,6.343204345703125,-0.043887072521448134,-1.3323656250923872,0.7751341856524347
1789337804521230300,6.353230224609375,-0.8310638704061508,-1.4849386977821588,0.7280617610931396
1789337804531256300,6.36325634765625,-1.5793249544411896,-1.4770684027984737,0.5274103016719222
1789337804541282300,6.3732822265625,-2.300464222794771,-1.425808171160519,0.3026306554272771
1789337804551308000,6.38330810546875,-2.8902433023571965,-1.4553820561692117,0.13284721247851847
1789337804561335000,6.3933349609375,-3.362150620254874,-1.4598440040141343,-0.047749008646607395
1789337804571361000,6.403361083984375,-3.6768975376725193,-1.4192781848698854,-0.28370237533450127
1789337804581387000,6.413386962890625,-3.8493390939146277,-1.3747826250612736,-0.46992140477746724
1789337804591413000,6.4234130859375,-3.98751305437386,-1.3074778520733117,-0.6508788604304194
1789337804601440300,6.433440185546875,-4.063334895816445,-1.2249538826435804,-0.835302530889213
1789337804611466200,6.44346630859375,-4.036434029409289,-1.1254150655269621,-1.0286451286017895
1789337804621492200,6.4534921875,-3.8796103135377167,-1.0595336033403873,-1.129397120900452
1789337804631518200,6.463518310546875,-3.6139030290991068,-1.034914125868678,-1.2083707043722272
1789337804641545000,6.473544921875,-3.2712118737012146,-1.003430900107324,-1.4144643548473714
1789337804651571000,6.483571044921875,-2.9257278727144,-1.0284104430630803,-1.629647612968087
1789337804661597000,6.493596923828125,-2.702938523504138,-1.0234075202092527,-1.8685162825807928
1789337804671623200,6.503623046875,-2.61899065875113,-1.0013678300976752,-2.1796882641211153
1789337804681649200,6.513649169921875,-2.5866426328539847,-0.969508464500308,-2.4977301314309237
1789337804691676200,6.52367626953125,-2.3746003031075,-0.8060977714538574,-2.7211098477497697
1789337804701702100,6.5337021484375,-1.9347072491079569,-0.6327987215995788,-2.8836808751016854
1789337804711728000,6.54372802734375,-1.3977233556658029,-0.521144227014482,-3.089090050444007
1789337804721754000,6.553754150390625,-0.9245441181361674,-0.4140142241165042,-3.206491564248502
1789337804731781000,6.563781005859375,-0.7674567828923463,-0.7147592119276523,-3.6208158772274848
1789337804741807000,6.57380712890625,0.22901216924786566,-0.05314034629613161,-3.6969720651909705
1789337804751833000,6.5838330078125,0.8328829025268554,0.7119207736313342,-3.919179815120995
1789337804761859000,6.593859130859375,0.6087596743643283,0.6465361550509929,-4.3091342414751646
1789337804771886000,6.603885986328125,0.8206950366050004,0.8453603990450501,-4.316281775142252
1789337804781912000,6.613912109375,0.895419145938754,1.2798463333040475,-4.4373046943143
1789337804791938000,6.62393798828125,0.9280015651136636,1.5166145235061645,-4.439303759177029
1789337804801964000,6.633964111328125,1.1627607535809277,1.6348519036129117,-4.2147015153259035
1789337804811990000,6.643989990234375,1.6626327677249908,1.7650822115913032,-3.8043855612054465
1789337804822017300,6.654017333984375,2.3048446298360825,1.7018956875771283,-3.3414556227505203
1789337804832043300,6.664043212890625,2.8814053313851353,1.576484178057313,-3.027736879336834
1789337804842069200,6.6740693359375,3.18667948705852,1.6726912204027176,-2.749306306925416
1789337804852095200,6.68409521484375,3.070357292923331,1.7744857074916363,-2.5403181040525435
1789337804862122000,6.6941220703125,2.8731875381380316,1.725949055598676,-2.506720662616193
1789337804872148000,6.70414794921875,2.7328923477411267,1.6266770727247,-2.528862644058466
1789337804882174000,6.714174072265625,2.7295021207809445,1.4350453705832362,-2.448240854988247
1789337804892200200,6.7242001953125,2.8882594350636004,1.0880170627638697,-2.2617484154313803
1789337804902227200,6.734227294921875,3.1011236025869846,0.6692819476053118,-1.9834327015712856
1789337804912253200,6.744253173828125,3.163631788948178,0.2816565487205982,-1.7276719338685274
1789337804922279400,6.754279541015625,3.070017685705423,-0.026102409505844113,-1.4184677452698349
1789337804932305400,6.764305419921875,3.056063979154825,-0.23024901756644248,-1.0656950485795735
1789337804942331400,6.774331298828125,3.0070950733244417,-0.32997809655815363,-0.746468647660315
1789337804952358100,6.784358154296875,2.845269603642821,-0.4265276687309146,-0.3674427348166704
1789337804962384100,6.794384033203125,2.5479291635781527,-0.4376449828118086,-0.020768647262454032
1789337804972410000,6.80441015625,2.222823933753371,-0.4661354564979672,0.28622984798550605
1789337804982436000,6.81443603515625,1.7406769613921642,-0.5466156451404094,0.5920800499811768
1789337804992463400,6.82446337890625,1.21848322532475,-0.6782654645279049,0.935718130840361
1789337805002489300,6.8344892578125,0.9853355637073516,-0.8447565879330039,1.2385258964002133
1789337805012515300,6.844515380859375,1.0545458780556916,-1.115186224718392,1.3982657919794321
1789337805022541300,6.854541259765625,1.0657079080611467,-1.4538754509985445,1.6468123905196785
1789337805032567300,6.8645673828125,1.0870815354794263,-1.66446173671782,1.8994944814294576
1789337805042594300,6.87459423828125,1.0214455724865197,-1.7651488470867276,2.0873139318063854
1789337805052620300,6.884620361328125,0.8829320048093795,-1.8644626232758164,2.2391177736893293
1789337805062646300,6.894646240234375,0.654217941725254,-1.9754899258732794,2.4826596958100793
1789337805072672300,6.90467236328125,0.3696370299905538,-2.0237448382154106,2.7577684303224084
1789337805082699300,6.91469921875,0.07479483648240566,-1.9475109088405966,2.9219086066871878
1789337805092725200,6.924725341796875,-0.24304770886301993,-1.9347209853723644,2.918474832846224
1789337805102751200,6.934751220703125,-0.6256260534912348,-1.994620158278942,2.8923671626433727
1789337805112777200,6.944777099609375,-1.0432529151469467,-2.0154481345131994,2.8521435810655356
1789337805122804200,6.95480419921875,-1.3429483939051627,-2.0026634717419745,2.770320161120593
1789337805132830200,6.964830322265625,-1.5011872372716664,-2.0011331934347747,2.753975760041177
1789337805142856400,6.9748564453125,-1.6214970397382973,-2.0709251070633528,2.7858348333775997
1789337805152882400,6.98488232421875,-1.7817285182267426,-2.128202699294686,2.7742563315257427
1789337805162908400,6.994908447265625,-1.8519710982322692,-2.1876605581745503,2.7438609010010957
1789337805172935200,7.00493505859375,-1.8757541248798368,-2.186872038145363,2.644692670762539
1789337805182961200,7.014961181640625,-1.8814748406141995,-2.076792245531082,2.5485870429649946
1789337805192987100,7.024987060546875,-1.8496435320675373,-1.9286705992922186,2.516076227721572
1789337805203013000,7.03501318359375,-1.747518205589056,-1.6987866156458853,2.4895526701942083
1789337805213040400,7.045040283203125,-1.7252561048984527,-1.442158709719777,2.474299571482837
1789337805223066400,7.05506640625,-1.7347300356864928,-1.1416983840689063,2.4278899947464465
1789337805233092400,7.06509228515625,-1.832562633407116,-0.7186354688391089,2.348130521593988
1789337805243118300,7.075118408203125,-1.8300865986824035,-0.1468845056593418,2.281463754248619
1789337805253144300,7.085144287109375,-1.778257042723894,0.4590662487640977,2.2443509981676937
1789337805263171000,7.095171142578125,-1.6171417671382426,0.9339519979506731,2.1902359616205094
1789337805273197000,7.105197021484375,-1.207317103666067,1.2449497919678687,2.166665408679843
1789337805283223000,7.11522314453125,-0.49487961268424985,1.5268547624915838,2.0468799223482605
1789337805293249300,7.125249267578125,0.23237317011356354,1.6378864490032194,1.981930480314791
1789337805303276300,7.1352763671875,0.7549222954899072,1.5692168174028396,1.9360072257906198
1789337805313302300,7.14530224609375,1.0325000504642725,1.4743085826963185,1.9209008420735596
1789337805323328300,7.155328369140625,1.2340122183680533,1.3436270238190888,2.000340289491415
1789337805333354200,7.165354248046875,1.5224690947532653,1.3497417073071003,1.9129732639446853
1789337805343381200,7.17538134765625,1.7409949413001535,1.4905983309790491,1.5390512501113116
1789337805353407200,7.1854072265625,1.7860779456079006,1.5584472938463092,1.1484992962554097
1789337805363433500,7.19543359375,1.643230732640624,1.4592965992644429,0.7959595315381884
1789337805373459500,7.20545947265625,1.5067729284495115,1.3506252121433615,0.6382919121883809
1789337805383485400,7.2154853515625,1.6466285583853721,1.345944945372641,0.6772809835352003
1789337805393512200,7.22551220703125,2.036743143737316,1.1270312685519457,0.8636800457201897
1789337805403538200,7.2355380859375,2.4403087468147278,0.7284989834666251,1.141028375852853
1789337805413564200,7.245564208984375,2.7729548935383557,0.38658787253051996,1.2743890908114612
1789337805423590100,7.255590087890625,2.980191868829727,0.14536854813843963,1.1087290114030242
1789337805433617400,7.265617431640625,2.886172691917419,-0.007920563866198063,0.8756153981857001
1789337805443643400,7.275643310546875,2.3824860879212615,-0.1146186050876975,0.6388361020676792
1789337805453669400,7.28566943359375,1.7695085036009548,-0.16113719515651465,0.3756616971075535
1789337805463695400,7.2956953125,1.1405103433281183,-0.09490238948762417,0.29406711748242376
1789337805473721300,7.305721435546875,0.5814613330721855,0.025709318535029887,0.26376068041548134
1789337805483748000,7.315748046875,0.1762333497405052,0.16741145312041042,0.31396453486829995
1789337805493774000,7.325774169921875,-0.03821779471337795,0.26139263610988855,0.43829570180550215
1789337805503800000,7.335800048828125,-0.0848842688202858,0.20530892983824015,0.6094723526783287
1789337805513826000,7.345825927734375,-0.05796528223454952,0.06463204664736986,0.6929732043161988
1789337805523853300,7.355853271484375,0.05094809694886207,-0.11445640026330947,0.6975482571467757
1789337805533879300,7.36587939453125,0.2819271823555231,-0.32632951092272994,0.7536344476364553
1789337805543905300,7.3759052734375,0.4339648329943418,-0.5065796950891613,0.7930753544040023
1789337805553931300,7.38593115234375,0.4986187992125749,-0.6548360736235976,0.8643294495396315
1789337805563958300,7.395958251953125,0.41282384528815746,-0.8112798502668738,0.8955107697449624
1789337805573984300,7.405984375,0.0064484454870223995,-0.9154834443241358,0.8457111121788621
1789337805584010200,7.41601025390625,-0.6133715520739556,-0.9019073389142751,0.7261513974271714
1789337805594036200,7.4260361328125,-1.1544704796195029,-0.8673395911410451,0.5350678306877613
1789337805604062200,7.436062255859375,-1.6197773763388394,-0.8864408897131681,0.41603330885395406
1789337805614089200,7.446089111328125,-2.1720114458829163,-0.942529272159934,0.2800384459994733
1789337805624115200,7.456115234375,-2.5895710875213145,-0.9410238360330462,0.05303951627016067
1789337805634141200,7.46614111328125,-2.9316636925041673,-0.9245780204057693,-0.16145575958639383
1789337805644167200,7.476167236328125,-3.228146054434776,-0.8846388087272643,-0.3294644479475915
1789337805654194400,7.4861943359375,-3.4970109261214732,-0.8024903946116566,-0.4611526996493339
1789337805664220400,7.496220458984375,-3.6077334005534647,-0.7218196518331765,-0.6204537654198706
1789337805674246400,7.506246337890625,-3.5468940241873264,-0.5778399277046322,-0.7434474001429975
1789337805684272400,7.5162724609375,-3.3700551097691056,-0.41289749504625795,-0.8630943547867238
1789337805694298400,7.52629833984375,-3.1399095525771377,-0.2759919470876455,-1.0600948904849588
1789337805704325000,7.5363251953125,-2.8826883569329977,-0.10220394467264413,-1.2728317783668637
1789337805714351000,7.54635107421875,-2.502591892248392,0.11888298453390597,-1.4389068683169781
1789337805724377000,7.556377197265625,-2.0312094750076533,0.3816109609007835,-1.6090269958741963
1789337805734403000,7.566403076171875,-1.5533347731381655,0.6079331604123115,-1.7980045302450656
1789337805744430300,7.576430419921875,-1.107231758582592,0.8862272469624877,-2.053896376981586
1789337805754456300,7.586456298828125,-0.48057110134661196,1.1098343422964214,-2.3324976297847924
1789337805764482300,7.596482421875,0.4479606251209974,1.2005348961800335,-2.6245950546294448
1789337805774508300,7.60650830078125,1.3862240565299988,1.2750593912884591,-2.9921193302497264
1789337805784535300,7.616535400390625,1.9717799654394388,1.4005813754454255,-3.212383544896543
1789337805794561000,7.62656103515625,2.175997885170579,1.6473203400418162,-3.367352280551195
1789337805804587300,7.636587158203125,2.1871675139606,1.996891610342264,-3.503387183155119
1789337805814613200,7.64661328125,2.164057856529951,2.207650330018997,-3.5214468637198206
1789337805824639200,7.65663916015625,2.403303835022449,2.226330188308656,-3.569735386070609
1789337805834666200,7.666666259765625,2.805707408583164,2.044181184783578,-3.626961248114705
1789337805844692200,7.676692138671875,3.164215726315975,1.7796081650719044,-3.7479856285914774
1789337805854718200,7.68671826171875,3.5715228540092703,1.5455971646234392,-3.900732012021541
1789337805864744200,7.696744140625,3.958889601957798,1.4762275680601595,-4.038662226852774
1789337805874771500,7.706771484375,4.124183040010929,1.348076696704328,-4.024134227545559
1789337805884797400,7.71679736328125,4.191183861616254,1.203930091576278,-3.746559687441587
1789337805894823400,7.726823486328125,4.330051649558544,1.1684873145341872,-3.2962089523136613
1789337805904849400,7.736849365234375,4.412801244437694,1.0869617084920407,-2.7794886792212723
1789337805914876200,7.746876220703125,4.367818777894973,0.7965984139636159,-2.21368244979009
1789337805924901400,7.7569013671875,4.295476595261693,0.4280515172973275,-1.7437310882657766
1789337805934927400,7.76692724609375,4.117300294759869,0.1205444880053401,-1.463332138390839
1789337805944953300,7.776953369140625,3.6934570428073403,-0.12283435250818729,-1.1994639059476553
1789337805954979300,7.786979248046875,3.0631840402930974,-0.3735153327286243,-0.8662702083438635
1789337805965006300,7.79700634765625,2.347796467334032,-0.5513695616692305,-0.5595509684287011
1789337805975032300,7.8070322265625,1.7024293560624122,-0.6511921641632914,-0.23884528873711822
1789337805985058300,7.817058349609375,1.1828460947543382,-0.786870216153562,0.12860007642805577
1789337805995084500,7.82708447265625,0.766681706866622,-0.9150649266511202,0.4609386185072362
1789337806005111600,7.837111572265625,0.4380722683131695,-1.0225219695463776,0.7258357556067406
1789337806015137500,7.847137451171875,0.11906301727592944,-1.178458088928461,0.910128347031772
1789337806025163500,7.85716357421875,-0.18510346941649913,-1.3526222311794758,1.0873968850389122
1789337806035189500,7.867189453125,-0.43882922416031356,-1.4734583956077694,1.2590966830030084
1789337806045216300,7.87721630859375,-0.6482394518375396,-1.5805334534481166,1.3556984237544238
1789337806055242200,7.8872421875,-0.8438228142142296,-1.6872271107554435,1.4347764905139804
1789337806065268500,7.8972685546875,-1.0324012662649154,-1.8258865166440605,1.554796077862382
1789337806075294500,7.90729443359375,-1.171912028285861,-1.9706445316687224,1.6318427849248052
1789337806085320400,7.917320556640625,-1.1715864495933055,-2.1573320554062723,1.7558800834819674
1789337806095347500,7.927347412109375,-1.0901385849624872,-2.3636428557634352,1.829466128696501
1789337806105373400,7.93737353515625,-1.1325783812850714,-2.548123517106473,1.887708766567707
1789337806115399400,7.9473994140625,-1.2727268566876648,-2.686460851433873,2.032266875106096
1789337806125425400,7.95742529296875,-1.4990063861012457,-2.7263059550881383,2.0786095240861178
1789337806136079400,7.968079345703125,-1.7123866864532231,-2.7711794082984325,2.0930553980678317
1789337806146105600,7.978105712890625,-1.902666097202897,-2.8772502575322982,2.0896397444054484
1789337806156131600,7.988131591796875,-2.0742729561865327,-2.983485357417166,2.1284283247441054
1789337806166157600,7.998157470703125,-2.113129633325338,-3.097903471496701,2.1283172655850646
1789337806176183600,8.00818359375,-2.0380121407598257,-3.180815855722129,2.0381313832253216
1789337806186210300,8.018210205078125,-2.1702245624661445,-3.2149002038925882,1.9050100299805401
1789337806196236300,8.028236328125,-2.4149229611456393,-3.1550536379560827,1.777964197257161
1789337806206262300,8.03826220703125,-2.6872230679780245,-2.989586012379825,1.5871639775037765
1789337806216288300,8.048288330078124,-2.8213427846103905,-2.785220500871539,1.3993088712915778
1789337806226315500,8.0583154296875,-2.817404860639572,-2.519125386159122,1.2204229612156747
1789337806236341500,8.068341552734376,-2.7923142585247755,-2.222995783188939,1.0685820021927357
1789337806246367500,8.078367431640626,-2.6535885094016787,-1.8384104826524852,0.7727887915700674
1789337806256393500,8.0883935546875,-2.439597383674979,-1.4126362626373767,0.5471455142334103
1789337806266420500,8.09842041015625,-2.1083657799243927,-0.9153349757641553,0.6280600026398897
1789337806276446500,8.108446533203125,-1.7392010436207055,-0.32773908545970915,0.8232584573522209
1789337806286472400,8.118472412109375,-1.3076456098556517,0.3206739693790674,1.0623609357208013
1789337806296498200,8.128498291015624,-0.7876835783630609,0.9688041156232357,1.444937526783347
1789337806306525400,8.138525390625,-0.1328852064013481,1.5772306125104427,1.9214903323993087
1789337806316551400,8.148551513671874,0.5919400569885969,2.1324808150053025,2.1823615749835965
1789337806326577400,8.158577392578126,1.184599660423398,2.423366964364052,2.360930381934345
1789337806336603400,8.168603271484375,1.603763230127096,2.3797984562724825,2.445685617547482
1789337806346629400,8.17862939453125,2.011194860982895,2.2025170587837697,2.3915108136370775
1789337806356656400,8.188656494140625,2.320901446145773,1.955352562251687,2.181100176745653
1789337806366682600,8.1986826171875,2.5262375562518833,1.8465543338805437,1.678413981963694
1789337806376708600,8.20870849609375,2.4771020616829396,1.8417559936881065,1.104002129011601
1789337806386734600,8.218734619140625,2.187666695654392,1.6767191607445477,0.7262142335303128
1789337806396761300,8.22876123046875,2.0053665932208298,1.412831492948532,0.5746003612615168
1789337806406787300,8.238787353515624,2.067890561673045,1.2690966834917663,0.3467774017982185
1789337806416813300,8.248813232421876,2.4169044903516768,1.16714846714586,0.42139293619096274
1789337806426839300,8.25883935546875,2.953596707370877,1.0504974794477224,0.8945150367058813
1789337806436866600,8.268866455078125,3.328432475048303,0.8818646678388118,1.2072191962495447
1789337806446892500,8.278892578125,3.406905707782507,0.8625196236386895,1.2332945716179906
1789337806456918500,8.28891845703125,3.0902292836070058,0.863359581594169,1.1900038575544953
1789337806466944500,8.298944580078125,2.4757576613366603,0.8170835681095718,1.0223704322464764
1789337806486370300,8.318370361328125,0.6954629753053188,0.6811711228415369,0.36270080098658797
1789337806496396300,8.328396240234374,-0.14681202494502066,0.5988260171100497,0.1503545198574662
1789337806506422500,8.338422607421874,-0.8834908077359199,0.6339291869342327,0.04874532620757818
1789337806516448500,8.348448486328126,-1.472463247090578,0.7203171383157372,-0.056285950845479965
1789337806526475500,8.3584755859375,-1.9050456858158111,0.6166077575162052,0.005587883134931326
1789337806536501500,8.36850146484375,-1.8467711915016174,0.3179644181594252,0.12739552294388412
1789337806546527500,8.378527587890625,-1.3409230255573987,-0.01439092892408371,0.4048514051042497
1789337806556553500,8.388553466796875,-0.9278262085467577,-0.2461772390604019,0.8213679674305021
1789337806566580500,8.39858056640625,-0.6041828679680824,-0.40814416303932666,1.0893231769263745
1789337806576606500,8.4086064453125,-0.32524200794696806,-0.5949550208956003,1.3739188478387891
1789337806586632400,8.418632568359374,-0.11210896035432814,-0.7684785271555185,1.5177457194931805
1789337806596658400,8.428658447265626,-0.07853285396695137,-0.9123319945558905,1.450484054994583
1789337806606684400,8.438684326171876,-0.30797990750074383,-1.0494655060514808,1.2613710576757788
1789337806616711400,8.44871142578125,-0.7914467302888631,-1.1519403766199945,1.0354112617358564
1789337806626737400,8.4587373046875,-1.403069977390766,-1.1475725367993115,0.8158715619713067
1789337806636763400,8.468763427734375,-1.952722798269987,-1.0899144208177924,0.6165514972843229
1789337806646789400,8.478789306640625,-2.44696235948503,-1.0596133905783296,0.4328418203137815
1789337806656816400,8.48881640625,-2.79467397339344,-1.030699138522148,0.24736454914882777
1789337806666842400,8.49884228515625,-3.1030203761190176,-1.0339143011763692,0.023998276833444833
1789337806676868400,8.508868408203124,-3.335048093795776,-1.0448635652139782,-0.22272125241011378
1789337806686894300,8.518894287109376,-3.5431302877396345,-1.0403387812659144,-0.42706206786856055
1789337806696921300,8.52892138671875,-3.6257559639781713,-0.9718497669294476,-0.7207653204746544
1789337806706947300,8.538947265625,-3.4237603964716192,-0.8828504640057683,-0.9819169874355196
1789337806716973300,8.548973388671875,-3.0851123789846895,-0.8118769393771886,-1.246889235597849
1789337806726999600,8.55899951171875,-2.7270395300596952,-0.663403118699789,-1.5162015587911009
1789337806737026600,8.569026611328125,-2.45529939519763,-0.41104777552634475,-1.802207534892857
1789337806747052500,8.579052490234375,-2.3182594072043896,-0.11332885753810405,-2.1283266179352998
1789337806757078500,8.58907861328125,-2.1925889544874426,0.31294863582402466,-2.4373846760615705
1789337806767104500,8.5991044921875,-1.9310493111222982,0.7846876114174723,-2.5957833861649036
1789337806777130200,8.609130126953126,-1.534892522996664,1.231668577851355,-2.6035376535534858
1789337806787157500,8.619157470703126,-0.8958014232546091,1.580329455308616,-2.597535782790184
1789337806797183500,8.62918359375,0.023105565777420997,1.8221759716883301,-2.6998694913223384
1789337806807209500,8.63920947265625,1.0116694438815117,1.9842866880521177,-2.7621476683199404
1789337806817235500,8.6492353515625,1.8693465959250926,2.0961074791148304,-2.8391443987607956
1789337806827262500,8.659262451171875,2.59670342361927,2.183944460260868,-2.860148900605738
1789337806837288400,8.669288330078125,3.1389497676342724,2.226365844143927,-2.8672400279104706
1789337806847314400,8.679314453125,3.4997067410767078,2.194237598477304,-2.84265182235986
1789337806857340400,8.68934033203125,3.7366058641821143,2.0592311621382833,-2.61103677713722
1789337806867367400,8.699367431640624,4.085956477469206,1.798330108937621,-2.3220544155731795
1789337806877393400,8.709393310546876,4.566199662035704,1.6327198600202797,-2.2353592979386447
1789337806887419400,8.71941943359375,5.004901460424065,1.5777750946506857,-2.281986755209416
1789337806897445400,8.7294453125,5.275250433188677,1.625248208965361,-2.317473955915123
1789337806907472400,8.739472412109375,5.2302364024639125,1.543900297577679,-2.084569601534307
1789337806917498400,8.749498291015625,5.0531946589499706,1.3791095483496785,-1.6789263154000043
1789337806927525600,8.759525634765625,4.936839731588959,1.2790756411924957,-1.397032012400776
1789337806937551600,8.769551513671875,4.781436988431215,1.1055638253703712,-1.1962440671183168
1789337806947578400,8.779578369140625,4.474100639531016,0.7928589351743459,-1.0771683364912867
1789337806957604400,8.789604248046874,3.957484995856881,0.4422951467052102,-1.0031462379470466
1789337806967630300,8.79963037109375,3.34018837929368,0.0982423475652933,-0.8981988397851586
1789337806977656300,8.80965625,2.785985640025139,-0.1253802375987172,-0.7743029955253005
1789337806987683600,8.81968359375,2.3864532379865646,-0.2333592585414648,-0.5372875525638461
1789337806997709600,8.82970947265625,2.031381908965111,-0.3323483328208327,-0.06339724415540694
1789337807007735600,8.839735595703125,1.6374042184442281,-0.46245442989766594,0.4901935006946325
1789337807017761500,8.849761474609375,1.251635553342104,-0.5879100708201527,0.9281438961938023
1789337807027787500,8.85978759765625,0.9141682700723409,-0.680038903941214,1.1642609290108084
1789337807037814300,8.869814208984375,0.48675885007083414,-0.8613280757665633,1.3053300263896583
1789337807047840300,8.87984033203125,-0.008269815695285797,-1.0931403971269726,1.3490554786086082
1789337807057866200,8.8898662109375,-0.4880740243226289,-1.3233119655430317,1.314217389461398
1789337807067892200,8.899892333984376,-0.8651473417937755,-1.5393214453548192,1.296874917255342
1789337807077919500,8.90991943359375,-1.0250748688995837,-1.7291025511935352,1.389800453712046
1789337807087945500,8.919945556640625,-0.8970721738427877,-1.8292060164555906,1.5215096020713448
1789337807097971500,8.929971435546875,-0.7893319300919771,-1.9277993694156408,1.670528781671822
1789337807107997400,8.93999755859375,-0.9279372677057981,-2.038658914230764,1.8249916136309503
1789337807118024400,8.9500244140625,-1.189208031001687,-2.1524866612017153,2.0204192009240387
1789337807128050400,8.960050537109375,-1.4411094929277897,-2.1887217576652764,2.170567092293501
1789337807138076400,8.970076416015624,-1.6160189005881547,-2.173874901667237,2.2464418329671023
1789337807148102400,8.980102294921876,-1.7740023078888654,-2.182455683007836,2.2909628194779157
1789337807158129400,8.99012939453125,-1.9384230547606944,-2.1960808882564304,2.359526652616262
1789337807168155400,9.0001552734375,-2.1152678143978116,-2.196981051966548,2.375056814703345
1789337807178181400,9.010181396484375,-2.32157832249403,-2.143479178881645,2.347025482961535
1789337807188207400,9.020207275390625,-2.5832231797993184,-2.105755597425997,2.344875903712213
1789337807198233300,9.0302333984375,-2.8411177446603775,-2.0286697273969647,2.3147902697890994
1789337807208260600,9.040260498046875,-2.9948055005937815,-1.8127490949124097,2.1250880744054914
1789337807218286600,9.05028662109375,-3.0189070916712284,-1.5915809171631932,1.8928581121549009
1789337807228312600,9.0603125,-2.987990559881925,-1.4049246653467415,1.7116273925185204
1789337807238338600,9.070338623046876,-2.9011352832496167,-1.188439676977694,1.6231041826739907
1789337807248365300,9.080365234375,-2.8299048612505198,-0.8829992248266935,1.5620929568722843
1789337807258391300,9.090391357421876,-2.8358588012188672,-0.5602390968233346,1.5192872498467564
1789337807268417300,9.100417236328125,-2.7894232132583854,-0.24303689520806074,1.6215189593091606
1789337807278443300,9.110443359375,-2.621724467629194,0.13154139057695866,1.71452808239609
1789337807288470500,9.120470458984375,-2.256132913637161,0.5279986229538918,1.7291040124982595
1789337807298496500,9.13049658203125,-1.7874615089207886,0.8554337570309638,1.7182435957878828
1789337807308522500,9.1405224609375,-1.4693974297791719,1.2173515909463166,1.6781389644145965
1789337807318548500,9.150548583984374,-1.116368420240283,1.4132441654026509,1.6740829670220612
1789337807328575500,9.160575439453124,-0.4568588018476963,1.4758523050069807,1.7500689129851756
1789337807338601500,9.1706015625,0.32301088789403437,1.4338006312191485,1.8532050239413975
1789337807348627500,9.18062744140625,1.0985679751336574,1.3532295494228601,1.6539548096202312
1789337807358653200,9.190653076171875,1.5542805295556783,1.212007891830802,1.399888424745202
1789337807368680400,9.200680419921875,1.6020429822057485,0.9671388127595185,1.1506377695888281
1789337807378706400,9.21070654296875,1.5950573611021042,0.8096782602891326,0.9840241888478398
1789337807388732400,9.220732421875,1.8662135585963724,0.8663219385311007,0.7822709056645631
1789337807398758400,9.23075830078125,2.3551526753157375,1.063394662682712,0.6247327579133212
1789337807408784400,9.240784423828124,2.8611773668706415,1.1188155211314559,0.7644749906025826
1789337807418811400,9.250811279296874,3.3608272626966236,1.0093027147501707,1.1362247749634087
1789337807428837400,9.26083740234375,3.7908962572962044,1.0265706604152918,1.4279732402399181
1789337807438863600,9.270863525390626,4.057027904626727,1.1035896026879548,1.743083876403421
1789337807448889600,9.2808896484375,3.962790701049566,1.059821480371058,1.9995678438141942
1789337807458916400,9.290916259765625,3.4588574288159606,0.8504235276535153,1.9627464718952774
1789337807468942300,9.3009423828125,2.7627006260275837,0.6069178458899259,1.630068614859134
1789337807478968300,9.31096826171875,2.14574478572607,0.46193478993773457,1.2337423153854905
1789337807488994300,9.320994384765624,1.6378139682888984,0.2328320197969675,1.0051897264733909
1789337807499021600,9.331021484375,1.4121967021763324,-0.09306757527589797,0.9665843937471509
1789337807509047600,9.341047607421874,1.50619775891006,-0.4041156381756067,1.1286479099683462
1789337807519073500,9.351073486328126,1.5889000075161457,-0.7098945285007358,1.3807752896048129
1789337807529099500,9.361099609375,1.6386229465842246,-0.8952624940723181,1.5140228995777665
1789337807539126300,9.371126220703125,1.5182552764505146,-0.9269842047646641,1.6263582160338759
1789337807549152300,9.38115234375,1.4037860167056322,-0.8502356038659811,1.7836834516867994
1789337807559178200,9.39117822265625,1.3124416119605302,-0.7776002835050225,1.9604057539880275
1789337807569204200,9.401204345703125,1.0075076480269431,-0.7994947199270128,2.0330970423199237
1789337807579230200,9.411230224609374,0.7034668335407972,-0.8159779449552297,2.046426771753281
1789337807589257500,9.421257568359374,0.3160895641982555,-0.8743561919048428,1.9250632224500177
1789337807599283500,9.431283447265624,-0.23611411020755765,-1.0079743887558579,1.5559483166374266
1789337807609309400,9.441309326171876,-0.8176011622428894,-1.126981876452267,1.1423870969854295
1789337807619335400,9.45133544921875,-1.345523212829232,-1.2681710930794476,0.7556285440631211
1789337807629362400,9.461362548828125,-1.7713433178126812,-1.4384282910197972,0.3855933085352182
1789337807639388400,9.471388427734375,-2.1137626705318686,-1.5596061084926127,0.04809110008254647
1789337807649414400,9.481414306640625,-2.4377859503388404,-1.627109618923068,-0.228508019118011
1789337807659440600,9.491440673828125,-2.777355174323916,-1.6196616410046816,-0.4917562199667096
1789337807669467400,9.50146728515625,-3.1087066050618883,-1.5728075353711843,-0.7496634981788695
1789337807679493400,9.511493408203124,-3.3655566293060777,-1.561449982793629,-0.9999500722542405
1789337807689519400,9.521519287109374,-3.4652322245448826,-1.5115128164529799,-1.2163687173888087
1789337807699545300,9.53154541015625,-3.408009285110235,-1.4360522095382213,-1.4389989305146038
1789337807709571300,9.5415712890625,-3.293745777070522,-1.3620400478661059,-1.671596995425224
1789337807719598600,9.5515986328125,-3.067754416948557,-1.2562199585229157,-1.8864222338885068
1789337807729624600,9.56162451171875,-2.777686013713479,-1.146454346424341,-2.1308929612919685
1789337807739650600,9.571650634765625,-2.5019693764358757,-1.000607074858248,-2.5361437409773466
1789337807749676500,9.581676513671875,-2.322335278341174,-0.7784376111119985,-2.8938001180559394
1789337807759703300,9.591703369140625,-2.1973270889252423,-0.4083580980509519,-3.222558609691262
1789337807769729300,9.601729248046874,-1.9935984140157699,-0.025861001965403554,-3.500806226751208
1789337807779755300,9.61175537109375,-1.627633350536227,0.3018348288744688,-3.6298978860884903
1789337807789781200,9.62178125,-1.0382295340269803,0.6167798992127179,-3.74381301908195
1789337807799808500,9.63180859375,-0.23722236371040342,0.8762874522283672,-3.829881529250741
1789337807809834500,9.64183447265625,0.5415127690434456,1.082796113245189,-3.8714848747491835
1789337807819860500,9.651860595703125,1.2160954534053803,1.2429545264974236,-3.874667596438527
1789337807829886500,9.661886474609375,1.8516157089233398,1.3313982413649559,-3.9119092395961284
1789337807839912400,9.671912353515625,2.3680945744752884,1.4317843229606746,-4.056159889620543
1789337807849939500,9.681939453125,2.6448855629861354,1.5111270320057868,-4.182420124924183
1789337807859965400,9.69196533203125,2.6086077964246273,1.477375569051504,-4.27747478236407
1789337807869991400,9.701991455078126,2.3258739738613365,1.3602370900973677,-4.3260599495738745
1789337807880017400,9.712017333984376,2.0076760392069817,1.2985241457670926,-4.281847298359871
1789337807890044400,9.72204443359375,1.9824924981117247,1.2370482250630854,-4.001243473562598
1789337807900070400,9.7320703125,2.376419919750094,1.2031003627538681,-3.672799454703927
1789337807910096400,9.742096435546875,2.956590043967962,1.160751751846075,-3.347318377304077
1789337807920122400,9.752122314453125,3.301604673877358,0.9489002684965729,-2.826055200085044
1789337807930148600,9.762148681640625,3.48567763120234,0.5708548911228776,-2.316940433560312
1789337807940174600,9.772174560546874,3.6061154439628123,0.396352895219624,-1.8581234833821654
1789337807950200600,9.78220068359375,3.6337890483081337,0.37331981015652416,-1.6700040271453558
1789337807960226600,9.7922265625,3.4320401490390298,0.28427754487395285,-1.6385959124468266
1789337807970252500,9.80225244140625,3.1377579275012013,0.2317398406460881,-1.770222497089207
1789337807980279600,9.812279541015625,2.8090385988324877,0.22608429910242556,-1.8626640494212507
1789337807990305500,9.822305419921875,2.3725515538841484,0.19018442594259977,-1.695113480091095
1789337808000331500,9.83233154296875,2.0045412483125924,0.18303806131929157,-1.2017623921483755
1789337808010357500,9.842357421875,1.7762807742148636,0.2556339264526963,-0.43081148352995513
1789337808020384500,9.852384521484375,1.7388468233555554,0.34959757378548384,0.3357068494684994
1789337808030410500,9.862410400390624,1.9343062670916318,0.20115531729012726,1.02171109155491
1789337808040436500,9.8724365234375,2.2118232317894697,-0.19894553228616713,1.4877458641573786
1789337808050462500,9.88246240234375,2.3019980082333085,-0.7601338926583528,1.5975272583469748
1789337808060488400,9.892488525390625,2.057217776489258,-1.2253659705758093,1.4273058623723685
1789337808070515500,9.902515380859375,1.6021043570041655,-1.52815795404464,1.197000292313099
1789337808080541700,9.912541748046875,1.0617799209624528,-1.7542802470698953,1.0823619596116245
1789337808090567700,9.922567626953125,0.6217623638004064,-1.8913897931680081,0.9901660526037216
1789337808100593700,9.93259375,0.16950784087777138,-1.9352113992378115,0.9953362948484719
1789337808110620400,9.942620361328125,-0.32287995499074457,-1.892184742937982,1.1395967356145382
1789337808120646400,9.952646484375,-0.6509089633077383,-1.843431525684893,1.4138047218948602
1789337808130672400,9.96267236328125,-0.816113554033637,-1.8274416371315716,1.6063412639215588
1789337808140698400,9.972698486328126,-0.9562082534223795,-1.8471216123744845,1.78452165607661
1789337808150725600,9.9827255859375,-1.1000164203763008,-1.8786995306819676,1.9544322325363754
1789337808160751600,9.992751708984375,-1.2991045760035513,-2.0469196698367593,2.005640441726148
1789337808170777600,10.002777587890625,-1.605205245628953,-2.2502333342045544,1.9513658307030797
1789337808180803600,10.012803466796875,-1.8688281250089407,-2.3869641101181505,1.8233692731261253
1789337808190829600,10.02282958984375,-2.0871680935949084,-2.4352900418698784,1.7151716409966349
1789337808200856300,10.032856201171874,-2.2912375447660684,-2.3989114452823994,1.6878233230829238
1789337808210882300,10.04288232421875,-2.4558406624674793,-2.3270044391959903,1.7643766936704515
1789337808220908300,10.052908203125,-2.584446584114432,-2.17426127063632,1.8951272261306642
1789337808230934500,10.0629345703125,-2.6369775663405655,-1.9895622903674839,2.1406340185835955
1789337808240961500,10.07296142578125,-2.5745079584240913,-1.739022764444351,2.3438225952669978
1789337808250987500,10.082987548828125,-2.5135756430774925,-1.4875018262684345,2.5547642702952027
1789337808261013500,10.093013427734375,-2.382349894320965,-1.2042989248886704,2.6867580808147786
1789337808271039500,10.10303955078125,-2.1500229014366865,-0.8143851228058337,2.5982433465376493
1789337808281065500,10.1130654296875,-1.94947227204144,-0.4896697690814733,2.520657710292935
1789337808291092500,10.123092529296875,-1.7808768698334694,-0.2356897473156452,2.5186750120431185
1789337808301118700,10.13311865234375,-1.4704904857128858,0.09297054464221,2.5117200783386826
1789337808311144700,10.143144775390626,-1.1283709927231074,0.44131870288848873,2.591341604325175
1789337808321170700,10.153170654296876,-0.8375859656512736,0.7343371881008148,2.6693118559733033
1789337808331197400,10.163197509765626,-0.592920884719491,0.989622447246313,2.7217127820789813
1789337808341223400,10.173223388671875,-0.4656856669038534,1.2294254750996827,2.76495541921705
1789337808351249400,10.18324951171875,-0.40477030269205566,1.4068646934986113,2.75223563837558
1789337808361275400,10.193275390625,-0.25359891349375246,1.4588321966230868,2.7502041325479745
1789337808371301400,10.20330126953125,-0.12917349240183829,1.3539578636974094,2.5285557700663803
1789337808381328600,10.21332861328125,-0.05208966819941997,1.1775094099014998,2.163463543898612
1789337808391354600,10.223354736328124,0.18334113591909407,0.8856552922934293,1.8330960096314548
1789337808401380600,10.233380615234376,0.6387468163490295,0.6738333272993564,1.5186460293337702
1789337808411406600,10.243406494140626,1.2445616694331167,0.6988473570466042,1.1431458063982427
1789337808421433300,10.253433349609375,1.7429378920614718,0.7836188131421804,0.940352804903686
1789337808431459300,10.263459228515625,2.0117069021582603,0.817952459898591,0.972081091467291
1789337808441485300,10.2734853515625,2.166650795632601,0.9187450764685868,1.1427670362137257
1789337808451511300,10.28351123046875,2.314562306252122,1.0230869099527597,1.3874081517480312
1789337808461538600,10.29353857421875,2.348952067109942,0.9572744213491677,1.7564010386161506
1789337808471564500,10.303564453125,2.455054480525851,0.8232114033401012,2.0194944872945544
1789337808481590500,10.313590576171874,2.4386978044867513,0.6507771536216139,1.8469300353251397
1789337808491616500,10.323616455078126,2.1421078905284405,0.47339434158504007,1.3378057703197002
1789337808501642500,10.333642578125,1.6848025139570235,0.3007373890265822,0.7571588223703205
1789337808511669500,10.34366943359375,1.166199495857954,0.08995324264764785,0.37163901746273037
1789337808521695500,10.353695556640625,0.629448826649785,0.04869038114994764,0.11800576330795884
1789337808531721500,10.363721435546875,0.0756032302558422,0.13384265325665473,0.14037176276445387
1789337808541747500,10.37374755859375,-0.25971301245987416,0.2912923920720816,0.45692134568989273
1789337808551774500,10.3837744140625,-0.1094224977493286,0.4098699639186263,0.8131924058899282
1789337808561800400,10.393800537109374,0.40705461423695083,0.23437954149991272,1.1608180950805544
1789337808571826400,10.403826416015624,0.7489917363971471,-0.08229162197858095,1.446368874760717
1789337808581852400,10.413852294921876,0.7992676331728696,-0.30987083581388,1.605679000620544
1789337808591878400,10.42387841796875,0.5440121846437453,-0.429768258087337,1.6039920704469084
1789337808601905700,10.43390576171875,0.13324001118838785,-0.6035132981434465,1.559177507817
1789337808611931600,10.443931640625,-0.12209551683962344,-0.7790200871750712,1.589256419738382
1789337808621957600,10.45395751953125,-0.3701876496106386,-0.8929147619023918,1.5130045163154602
1789337808631983600,10.463983642578125,-0.7931792531698941,-0.9248357945591211,1.3697386395446955
1789337808642010400,10.47401025390625,-1.4071212986081838,-0.9613082069098949,1.0868920042566954
1789337808652036400,10.484036376953124,-1.9413123464614153,-1.0320447079122066,0.7698188358485698
1789337808662062300,10.494062255859374,-2.176674176996946,-1.0647641974702478,0.4168415564969182
1789337808672088300,10.50408837890625,-2.193799499320984,-1.1388643296867609,0.15231091462224722
1789337808682114600,10.514114501953125,-2.2251205202579496,-1.219963819271326,0.00011368950754404068
1789337808692141600,10.5241416015625,-2.415654198029637,-1.2047402389153838,-0.0343181569263339
1789337808702167600,10.53416748046875,-2.6193536468446252,-1.086735206259787,-0.08104863618016242
1789337808712193500,10.544193603515625,-2.7897856168299913,-0.934593802985549,-0.2603881352424621
1789337808722219500,10.554219482421875,-2.989998392572999,-0.7970826903492212,-0.49505175438076254
1789337808732246300,10.564246337890625,-3.175424518072605,-0.6037292789816856,-0.7895777215465902
1789337808742272500,10.5742724609375,-3.3881624288678167,-0.30987288164049387,-1.1781770800299942
1789337808752298500,10.584298583984374,-3.635913200855255,0.030236440570652483,-1.57752433476001
1789337808762324500,10.594324462890626,-3.830594061434269,0.36033173376768823,-1.9995491391137241
1789337808772350500,10.6043505859375,-3.8146617482870817,0.6727922938138247,-2.3808904892928897
1789337808782377500,10.61437744140625,-3.565283667358756,0.9094543932929634,-2.6852444613814352
1789337808792403500,10.624403564453125,-3.209218651124835,1.0471648278936743,-2.9380267977952954
1789337808802429400,10.634429443359375,-2.6978257105350494,1.1846806167051196,-3.108670364704728
1789337808812455400,10.644455322265625,-2.0214760165005923,1.2801216431140898,-3.177318953517079
1789337808822482700,10.654482666015625,-1.429557002300024,1.4115850000187753,-3.3653163908094164
1789337808832508700,10.6645087890625,-0.9626169514209032,1.5375255018487572,-3.6009430097609756
1789337808842534700,10.67453466796875,-0.4487327785372734,1.5703344232559202,-3.7533120843112466
1789337808852560600,10.684560546875,0.22007658312022685,1.5089403356164692,-3.9701904559120536
1789337808862586600,10.694586669921875,0.940102921795845,1.3344053142264485,-4.220052228704095
1789337808872613400,10.70461328125,1.5518120936155317,1.0066627216354012,-4.42536145080328
1789337808882639400,10.714639404296875,2.024154295799136,0.6143082484021782,-4.603531321564317
1789337808892665300,10.724665283203125,2.372282089293003,0.3166990743987262,-4.740284309309721
1789337808902691600,10.734691650390625,2.7917577936857936,0.10091302807927131,-4.859858783239126
1789337808912718600,10.744718505859375,3.3412802661836145,0.01859875587746501,-4.976362179160118
1789337808922745000,10.7547451171875,3.874878608840704,-0.055132250765711065,-4.769688682970404
1789337808932771000,10.76477099609375,4.360609869429469,-0.2557563837885857,-4.026194374945759
1789337808942797000,10.774797119140626,4.881152915680408,-0.4223202801689505,-3.157839469282329
1789337808952823000,10.784822998046875,5.389360211971402,-0.5800047775883227,-2.428897710484266
1789337808962850000,10.79485009765625,5.8395934581995,-0.7941597886398434,-1.9438599851176142
1789337808972876000,10.8048759765625,6.095242874482274,-1.017692284367606,-1.6529381799235938
1789337808982902000,10.814902099609375,6.120381407392025,-1.125594513747096,-1.3878691933885217
1789337808992928000,10.824927978515625,5.815563763314485,-1.1707389659184961,-1.0250663933321833
1789337809002955000,10.834955078125,5.338775103116035,-1.1852203496050089,-0.5877807453520596
1789337809012981000,10.84498095703125,4.760428102672099,-1.1187776002738623,-0.17546061180233954
1789337809023007200,10.85500732421875,4.122008034059405,-1.0740510081883519,0.2763901526249945
1789337809033033200,10.865033203125,3.4616555351018903,-1.0272875765129923,0.7496803031831979
1789337809043059200,10.87505908203125,2.8269565328389406,-0.9331541986364871,1.087601613830775
1789337809053086000,10.8850859375,2.2500971406042574,-0.9458233452692627,1.3997377642281352
1789337809063112000,10.89511181640625,1.75472828309834,-1.0674793016478419,1.6790819443531333
1789337809073138000,10.905137939453125,1.4448808281600474,-1.2766343855202198,1.8292580389037727
1789337809083164000,10.915163818359375,1.210925941812992,-1.4611232301697135,1.9066750405833124
1789337809093191200,10.925191162109375,0.8831289886862039,-1.6202512774609028,1.958478585317731
1789337809103217200,10.935217041015624,0.5279594599872828,-1.7436133071050046,2.0235101526767014
1789337809113243100,10.9452431640625,0.16108078879415988,-1.84070502333045,2.110360168612003
1789337809123269000,10.95526904296875,-0.2532142980903387,-1.9059059559069573,2.19476659078747
1789337809133295000,10.965295166015625,-0.5621674345374107,-1.901603144146502,2.295951129284501
1789337809143322000,10.975322021484375,-0.8209446274518967,-1.8618937957011161,2.411023323358595
1789337809153348000,10.98534814453125,-1.151292434105277,-1.8149091955557464,2.5179820613428947
1789337809163373800,10.995373779296875,-1.5191022486686705,-1.7869031443856656,2.595066470067203
1789337809173399800,11.00539990234375,-1.8935808734714983,-1.7133670757927,2.5939514945626256
1789337809183426000,11.015426025390624,-2.3433412414908408,-1.649706796786934,2.5387661984354257
1789337809193453000,11.025453125,-2.801504111674428,-1.5236048207849264,2.460923664820194
1789337809203479000,11.03547900390625,-3.244568196925521,-1.407759742642194,2.438246553587913
1789337809213505000,11.045505126953126,-3.468452940157056,-1.2675346948720514,2.4211893280640244
1789337809223531000,11.055531005859375,-3.3915725295722483,-1.0311927672579884,2.487235625423491
1789337809233558000,11.06555810546875,-3.1438346170663833,-0.7679398902341723,2.6609558232992887
1789337809243584300,11.075584228515625,-2.85897956456542,-0.5101581380978226,2.8702929857403037
1789337809253610200,11.0856103515625,-2.601823250851035,-0.19136019172370433,2.910307893003523
1789337809263636200,11.09563623046875,-2.4380635982364414,0.1054778517767787,2.644303086923063
1789337809273663000,11.1056630859375,-2.3334160598039624,0.382900708450377,2.39291395843327
1789337809283689000,11.11568896484375,-2.1656775666862726,0.7406769125163555,2.1885747504100204
1789337809293715000,11.12571484375,-1.885133363121748,1.1615475783988833,2.1113900961816308
1789337809303741000,11.135740966796876,-1.4621259774714708,1.592030706757307,2.139987537373602
1789337809313767000,11.145766845703125,-0.9037655340015888,1.8725342860504983,2.1819138312160966
1789337809323794200,11.155794189453125,-0.4177490267306566,1.9942460642695425,2.1403841354757547
1789337809333820200,11.165820068359375,-0.08340484391748905,2.062555338124931,2.084594735975563
1789337809343846100,11.17584619140625,0.07415712310075759,2.022604436008632,1.936967010733485
1789337809353872100,11.1858720703125,0.23332652531564235,1.9520000369533896,1.6564122857749461
1789337809363899000,11.19589892578125,0.40282033766806125,1.7780562594547866,1.3971516932576893
1789337809373924900,11.2059248046875,0.5934527996391058,1.460655904918909,1.3078534073874353
1789337809383950800,11.215950927734376,0.9669581954956055,1.2144549927219748,1.2241650703534483
1789337809393976800,11.225976806640626,1.500529650145769,1.2729966135397552,0.925591289101541
1789337809404003000,11.236003173828125,1.8905436977326868,1.459745804336667,0.7713993830382824
1789337809414030000,11.246030029296875,2.0576187585055825,1.5119313341259955,0.931805633571744
1789337809424056000,11.25605615234375,2.2719255260527134,1.4170187155053018,1.225899931322038
1789337809434082000,11.26608203125,2.5401228737413883,1.2048331778958439,1.6274635469272731
1789337809444108000,11.27610791015625,2.753080564767122,0.8878507565110921,1.99652628416121
1789337809454135000,11.286135009765625,2.722892347252369,0.36707068663388487,2.1430776123434305
1789337809464161300,11.296161376953124,2.437540451145172,-0.21088176153451202,1.942138860413432
1789337809474187000,11.30618701171875,1.9646452912539243,-0.60787996892035,1.412936122366786
1789337809484213000,11.316212890625,1.2653969521909951,-0.8312903726384043,0.8673612184509635
1789337809494239000,11.326239013671875,0.5160743764042854,-1.0276029260724782,0.4791854922071099
1789337809504266000,11.336265869140625,-0.15258067147433757,-1.0951663499966262,0.22202888623178005
1789337809514292000,11.3462919921875,-0.5655985780298709,-1.1600751677587628,0.36742403011620045
1789337809524318000,11.35631787109375,-0.42647476949989793,-1.198717617624998,0.6468874527066946
1789337809534344000,11.366343994140625,-0.12986907345056534,-1.1596886526592076,0.9235217893511056
1789337809544370000,11.376369873046874,0.05438216305077076,-1.0731116084463894,1.1144406670480966
1789337809554397200,11.386397216796874,0.2926134115427732,-1.0056778022512793,1.1989464579448104
1789337809564423200,11.396423095703126,0.5654150381565094,-1.0158652881361543,1.1592045224040746
1789337809574449200,11.40644921875,0.834741097614169,-1.0952318164482713,1.0749702419251204
1789337809584475100,11.41647509765625,0.9403045818477869,-1.2320945481784642,1.0191498627647757
1789337809594502000,11.426501953125,0.908781900858879,-1.352445559438318,0.834729991698265
1789337809604527900,11.43652783203125,0.6773240920245647,-1.404477359970659,0.6009862638838589
1789337809614553900,11.446553955078125,0.03412321887612343,-1.4398486792117355,0.40808001176193354
1789337809624580000,11.456580078125,-0.7735305498480797,-1.35737936257869,0.23008213656693696
1789337809634606000,11.466606201171874,-1.4578870247274636,-1.2268041866853832,0.06957564052939415
1789337809644633000,11.476633056640624,-2.047425865793228,-1.1753813118316232,-0.09128741386085748
1789337809654659000,11.4866591796875,-2.360558333751559,-1.1230622187905013,-0.3219021959997713
1789337809664685000,11.49668505859375,-2.4685569361776114,-1.0886389940544963,-0.5924789861708879
1789337809674711000,11.5067109375,-2.544227970972657,-1.1365141132988035,-0.8609303086206317
1789337809684738000,11.516738037109375,-2.751907429334521,-1.0778666940189898,-1.0771065233014523
1789337809694764000,11.526763916015625,-3.0287141999363896,-0.9490529748402535,-1.1928634847693145
1789337809704790000,11.5367900390625,-3.2744086239159107,-0.7986286046169698,-1.3646348866648972
1789337809714816000,11.54681591796875,-3.486302485102415,-0.6339923152983188,-1.6231969755239783
1789337809724842000,11.556842041015624,-3.637552200233936,-0.47964507254287597,-1.8483724892184137
1789337809734869000,11.566868896484374,-3.6933950834870335,-0.26006898629069325,-2.196751334863901
1789337809744895000,11.57689501953125,-3.6089305013835427,0.0041638416811823845,-2.5729385171502828
1789337809754921000,11.5869208984375,-3.38972251779139,0.2148950888291001,-2.7838185251191256
1789337809764947000,11.596947021484375,-3.012771365395188,0.4032642820432782,-2.939298132905364
1789337809774974200,11.60697412109375,-2.574650581765175,0.6682566962108015,-3.086165687429905
1789337809785000200,11.617000244140625,-2.068641087779403,0.9508481876939534,-3.2599598273247476
1789337809795026200,11.627026123046875,-1.470022283679247,1.209290741826594,-3.373825275957584
1789337809805052200,11.63705224609375,-0.7839829702794552,1.371782566462457,-3.45266675748229
1789337809815078100,11.647078125,-0.0337409415602684,1.5075427437782287,-3.564518528205156
1789337809825105000,11.65710498046875,0.6275163972824812,1.6444272489488123,-3.6669004597932098
1789337809835131000,11.667130859375,1.1567910315215586,1.5942840386420487,-3.749866327771544
1789337809845157000,11.6771572265625,1.593981256303191,1.3125292902439831,-3.8269121580511327
1789337809855183000,11.68718310546875,1.9981372264891861,0.921688874835521,-3.9299847022518515
1789337809865210000,11.697210205078125,2.455761752012372,0.4169213437348604,-4.017792457303405
1789337809875236000,11.707236083984375,3.0402976702243087,-0.1448410171329975,-4.085062743499875
1789337809885262000,11.717261962890625,3.7553947358042,-0.43123833063989875,-4.16651528430581
1789337809895288000,11.7272880859375,4.478403889682888,-0.44526042625159024,-4.1674186628863215
1789337809905314000,11.73731396484375,4.944639591684937,-0.38717546316012735,-3.908768603482842
1789337809915341000,11.747341064453124,5.014452548101544,-0.49541751895323394,-3.253844559314847
1789337809925366500,11.757366455078126,4.889247959330678,-0.41494843622669575,-2.630913443996012
1789337809935392500,11.767392578125,4.539771089315414,-0.11013678349852561,-2.3483909260958433
1789337809945418500,11.77741845703125,3.7985762904047964,0.07360971835106611,-2.3547014244168993
1789337809955444500,11.787444580078125,2.926173862916231,0.23087664794549345,-2.6330332126289604
1789337809965471500,11.797471435546875,2.097900500011444,0.4516378523290157,-2.9816660330355167
1789337809975497500,11.80749755859375,1.4192916288733481,0.4102632010199129,-2.944341095508635
1789337809985523500,11.8175234375,1.0311492203772068,0.11534165866523981,-2.395975684091449
1789337809995549400,11.827549560546874,1.1249258207052946,-0.24128829797506332,-1.4236322884261607
1789337810005576700,11.83757666015625,1.6292676737397909,-0.5308934676125645,-0.4457064164534211
1789337810015602700,11.847602783203126,2.2163234658181667,-0.8995466011323034,0.4035501132473349
1789337810025628700,11.857628662109375,2.5746377222836014,-1.3051736667841671,1.028621455465257
1789337810035654700,11.867654541015625,2.61585762142241,-1.6312632314711808,1.278368369705975
1789337810045680600,11.8776806640625,2.2022622072398663,-1.8885012321196495,1.2404928125590085
1789337810055707400,11.887707275390625,1.6195125879228114,-1.987423963164538,1.0103829112023115
1789337810065733400,11.8977333984375,1.1236743593394756,-2.000597479122877,0.8907461856916546
1789337810075759600,11.907759521484374,0.6199398245483636,-2.0305676699727773,0.9448615144997835
1789337810085785600,11.91778564453125,0.18056582598686216,-1.9254921153865754,1.1519988288089633
1789337810095811600,11.9278115234375,-0.32093641970753667,-1.7803411555215716,1.4904282351091502
1789337810105838600,11.937838623046876,-0.8463333357304335,-1.6495537981823085,1.8326845062211155
1789337810115864600,11.947864501953125,-1.3143325402736663,-1.6139334726162253,2.1898387789964673
1789337810125890600,11.957890625,-1.5703379303872584,-1.6020098105885088,2.4973601290747522
1789337810136543500,11.96854345703125,-1.6840753687262535,-1.6345621268860995,2.6819690929725764
1789337810146569500,11.978569580078124,-1.7739777579694986,-1.708276620785892,2.748167658284306
1789337810156596700,11.9885966796875,-1.9598475355833769,-1.7608322990618646,2.6820637855187055
1789337810166622700,11.998622802734374,-2.2015262941807507,-1.790700344711542,2.5461679991245267
1789337810176648700,12.008648681640626,-2.456597618314624,-1.8243331497222184,2.4167969383239747
1789337810186674700,12.0186748046875,-2.6523767955243587,-1.749994532574713,2.3754399688020347
1789337810196701400,12.028701416015625,-2.830963430392742,-1.552746159595251,2.3814377479121087
1789337810206727400,12.0387275390625,-2.9000772986292835,-1.3131333936169742,2.386321720561385
1789337810216753400,12.04875341796875,-2.8714029928088185,-1.0930883746787905,2.3750737658381462
1789337810226779400,12.058779296875,-2.816581853818893,-0.8007090641528367,2.3592960587307807
1789337810236805400,12.068805419921874,-2.811985758200288,-0.4941399002328515,2.35064396571964
1789337810246832600,12.07883251953125,-2.8036750259727237,-0.24609599051773548,2.387424421106279
1789337810256858600,12.088858642578124,-2.509033907994628,-0.01246376025378704,2.3443036567822095
1789337810266884600,12.098884521484376,-1.9242232644945383,0.2463818217217922,2.188453754378855
1789337810276910600,12.10891064453125,-1.3624755166739224,0.4644999642506242,2.04213506590873
1789337810286936600,12.1189365234375,-0.8800544035464525,0.6081266371577978,1.84912535341233
1789337810296963300,12.12896337890625,-0.6220031868189573,0.7009779393345117,1.7533140323862433
1789337810306989300,12.1389892578125,-0.27966449812054633,0.7610849097728729,1.6945777657791972
1789337810317015600,12.149015625,0.31602760487794873,0.6962222692400216,1.6873893155798314
1789337810327041500,12.15904150390625,1.0774141279459,0.5170613416150212,1.6198954497605562
1789337810337068500,12.169068603515624,1.7990923254817723,0.2952712325751781,1.52858699311167
1789337810347094500,12.179094482421876,2.2608213637143373,0.09789543382376432,1.4805352021262048
1789337810357120500,12.18912060546875,2.6671365577608346,0.06478811399191618,1.400543089261651
1789337810367146500,12.199146484375,3.059258391281962,0.27394319786429405,1.1894283957540988
1789337810377172500,12.20917236328125,3.319395182111859,0.4735328732728958,1.103934178341925
1789337810387199700,12.21919970703125,3.334339653265476,0.3512932717874646,1.4089531902104615
1789337810397225700,12.229225830078125,3.3364754962503906,-0.0003387304350733757,1.8605647390544413
1789337810407251700,12.239251708984375,3.5599539967685936,0.012183482007682322,1.8934803357064722
1789337810417277700,12.249277587890624,3.680414605882764,0.19661796612143514,1.5424702647745607
1789337810427303700,12.2593037109375,3.2487510355681177,0.1141176698282361,1.1010206289827822
1789337810437330400,12.269330322265626,2.3118454485088584,0.09166501500159502,0.6451680815681815
1789337810447356400,12.2793564453125,1.4227929149925709,0.3200003079012036,0.11394377456605434
1789337810457382400,12.28938232421875,0.6032359425067901,0.3805255037516355,-0.1529670404434204
1789337810467408600,12.29940869140625,-0.08528115918338298,0.360798474496603,-0.117670686134696
1789337810478062600,12.3100625,-1.2022393620103597,0.1628556895121932,0.32006665113568306
1789337810488088600,12.320088623046875,-1.4456974052399396,0.08081102803200482,0.3891846110254526
1789337810498114600,12.330114501953124,-1.2840373552531004,-0.17197569229602813,0.4625163892179727
1789337810508140500,12.340140625,-0.8504168056517839,-0.4846969491049647,0.6003636019408702
1789337810518167600,12.35016748046875,-0.5889286002129316,-0.6589816489957273,0.8029547972530127
1789337810528193500,12.360193603515626,-0.5768365958809852,-0.6907678032264113,0.9358367887839675
1789337810538219500,12.370219482421875,-0.5657604905933141,-0.7308416010700166,1.0163058715105056
1789337810548245500,12.38024560546875,-0.6086322485923766,-0.7966989517286419,1.0997405260443687
1789337810558271700,12.390271728515625,-0.7709972319781779,-0.8391146365232766,1.133274546855688
1789337810568298500,12.400298583984375,-1.0269675507783889,-0.8625346750773489,1.1311115236029028
1789337810578324500,12.410324462890625,-1.3838304393917322,-0.9187335321612655,1.0077350270420313
1789337810588350500,12.4203505859375,-1.8380887033522129,-0.9577744798257947,0.8710612420126795
1789337810598376400,12.43037646484375,-2.3203093254715204,-0.9612083997972309,0.6452583902001381
1789337810608402400,12.44040234375,-2.7157126648813485,-0.959142845569551,0.29675737947970626
1789337810618429700,12.4504296875,-3.022193858256936,-0.9738517544016242,0.005815992802381515
1789337810628455700,12.46045556640625,-3.1106039631158113,-1.051269486733526,-0.3494739474058151
1789337810638481700,12.470481689453125,-3.0289181980758904,-1.1444169953778385,-0.5917053714498877
1789337810648507600,12.480507568359375,-2.9622131445467472,-1.1264715888425707,-0.9064967125311494
1789337810658534400,12.490534423828125,-2.879962146839499,-1.0824369245439767,-1.1445271777540444
1789337810668560400,12.500560302734375,-2.8724346739441153,-1.0344114370435475,-1.4416034139245748
1789337810678586400,12.51058642578125,-2.789776264479756,-0.9150283940330147,-1.8243848799094557
1789337810688612400,12.5206123046875,-2.6819091794788834,-0.7731490031845867,-2.213944753988087
1789337810698638300,12.530638427734376,-2.538914082473516,-0.6166022045582532,-2.5830431470572948
1789337810708665600,12.54066552734375,-2.3229911119014024,-0.3742277187816798,-2.857307831960916
1789337810718691600,12.550691650390625,-2.0743945367395877,-0.07932721921503544,-3.023402357263863
1789337810728717600,12.560717529296875,-1.6765741993159056,0.1289487437352538,-3.1439456762254236
1789337810738743600,12.57074365234375,-1.1253080980211496,0.2657197055287659,-3.2786396856144067
1789337810748770600,12.5807705078125,-0.4296072223067283,0.38833296263217926,-3.360356722575426
1789337810758796500,12.590796630859375,0.31582652934789657,0.5402256518423557,-3.5234383297979828
1789337810768822500,12.600822509765624,1.0848527535140513,0.6648045099303126,-3.6783427680447693
1789337810778848800,12.610848876953124,1.8202964415520428,0.7919127403654158,-3.9011481916069983
1789337810788874800,12.620874755859376,2.415975100547075,0.885912335794419,-4.135111261260509
1789337810798901500,12.630901611328126,2.8062866697758433,0.8251357955314218,-4.221304566852748
1789337810808927500,12.640927490234375,2.989062573027611,0.6905816330045461,-4.313322340814769
1789337810818953500,12.650953369140625,3.079773356044292,0.5987354162171483,-4.285161537474393
1789337810828979500,12.6609794921875,3.25081732044816,0.5442644058391451,-4.11053825327903
