time,seconds_elapsed,z,y,x
1789927429882107100,0.051107177734375,0.03756722185015678,-0.6195499484479426,-0.03729355600792914
1789927429892087300,0.06108740234375,0.2601537419646978,-0.5417652824997902,-0.23098873001784084
1789927429902067200,0.071067138671875,0.32449323540627956,-0.4376157567173242,-0.27483174420185386
1789927429912047000,0.081047119140625,0.3254372382581234,-0.25915011788010595,-0.21036431353166699
1789927429922027000,0.091027099609375,0.2388882510960102,-0.04460574218481779,0.012851006005704402
1789927429932007200,0.101007080078125,0.15126491270065306,0.06997340767532587,0.23976105187516658
1789927429941987300,0.1109873046875,0.19719488922655581,0.1950865187704563,0.19577424530629067
1789927429951967200,0.12096728515625,0.21701485746204852,0.20072949309349059,0.10355221747644246
1789927429961947100,0.130947021484375,0.12352817999124527,0.13832593615055083,0.11728495648643002
1789927429971927000,0.140927001953125,0.06301964301466942,0.0950274771720171,0.24426380665451286
1789927429981907200,0.1509072265625,0.023193244060873985,0.09497720828950404,0.34153719958979634
1789927429991887000,0.16088720703125,0.024998247656226158,0.0695341394752264,0.42484928718991577
1789927430001867000,0.170866943359375,0.04436579594910144,0.011604805336892603,0.5281829665448516
1789927430011847200,0.18084716796875,0.08267185346782208,0.009632043959200382,0.5621182251008228
1789927430021828000,0.190828125,0.1501566591978073,-0.018489888675510883,0.5534680317858234
1789927430031808300,0.200808349609375,0.23732114790976047,-0.04932663322687149,0.5212041405081749
1789927430041788200,0.2107880859375,0.3430371923565864,-0.08588935420960188,0.4780026390980929
1789927430051768000,0.22076806640625,0.4285200115919113,-0.1923369278013706,0.40443993822652846
1789927430061748200,0.230748291015625,0.48138650938272476,-0.2540057407289743,0.3907959917448461
1789927430071728000,0.24072802734375,0.5705892259240151,-0.27099983788877724,0.42216118061710145
1789927430081708300,0.250708251953125,0.5913625493615865,-0.25251404086649415,0.47178869648668914
1789927430091688200,0.260688232421875,0.44812487577199933,-0.19806261197179556,0.48562637544218445
1789927430101668000,0.270668212890625,0.25365327402949334,-0.11618395470827818,0.4531736835941672
1789927430111648000,0.28064794921875,0.06641220806241036,-0.008490472708642482,0.41077147933561353
1789927430121628200,0.290628173828125,-0.05138473480045795,0.07655541641414165,0.3826025657540187
1789927430131608300,0.3006083984375,-0.08654489550888537,0.11593611742705107,0.4128276446804404
1789927430141588200,0.310588134765625,-0.1095791496157646,0.13862784170657397,0.45114692700691517
1789927430151568100,0.320568115234375,-0.09734393742084503,0.21141163062751292,0.4956144297648221
1789927430161548000,0.330548095703125,-0.11489596072435378,0.23491993198692798,0.5642884452793747
1789927430171528200,0.340528076171875,-0.16485855376720426,0.15253186389654874,0.6665430972259492
1789927430181509400,0.35050927734375,-0.21829086874723433,0.042728550136089324,0.7917668290887028
1789927430191489300,0.3604892578125,-0.26296295416653154,0.037922611159086225,0.8210062945112585
1789927430201469200,0.37046923828125,-0.311877499461174,0.03036035921126604,0.6723689538352191
1789927430211449000,0.380448974609375,-0.28453064285218715,-0.03337269276976585,0.5020157481744885
1789927430221429000,0.390428955078125,-0.24983342348039148,-0.003738309745490551,0.3166072313968092
1789927430231409200,0.4004091796875,-0.1608878965705633,0.031789222970604894,0.23314711362812668
1789927430241389300,0.410389404296875,-0.036440263646841047,0.028795886373519895,0.130677850816492
1789927430251369200,0.420369140625,0.02961655510663986,0.06570259848833084,0.002955835864599794
1789927430261349000,0.43034912109375,0.10696809033453464,0.09785743990093469,-0.10732309605097398
1789927430271329300,0.440329345703125,0.1987982327699661,0.05388327361792326,-0.18634698493788018
1789927430281309200,0.45030908203125,0.3301379632949829,-0.002029460000991821,-0.17740814740723
1789927430291289000,0.4602890625,0.36015199328660963,-0.06823270148783922,-0.10600490785818546
1789927430301269000,0.47026904296875,0.34523616370558735,-0.11553162827938794,-0.031200901688635346
1789927430311249200,0.480249267578125,0.30627193453907964,-0.08878419886827468,0.08000742003154009
1789927430321229300,0.490229248046875,0.2098182239562273,-0.13824088821560143,0.20807704284470527
1789927430331209200,0.500209228515625,-0.04160685262978077,-0.2439373511791229,0.3045140397547744
1789927430341190100,0.510190185546875,-0.17591361626684665,-0.22169424744993446,0.34924744517356154
1789927430351170000,0.520170166015625,-0.217390705037117,-0.13335194713026285,0.286590954649169
1789927430361150000,0.53014990234375,-0.0007739069819450377,-0.04967267018556595,0.21532641118476167
1789927430371130000,0.540130126953125,-0.00027355624437332154,-0.04454875130057335,-0.20955949995480477
1789927430381110000,0.550110107421875,0.06856558670401573,0.11007570096105336,-0.5019510489078238
1789927430391090200,0.560090087890625,0.12265607333183288,0.1828162352621555,-0.4775200432129204
1789927430401070000,0.570070068359375,0.0656646045655012,0.16461539266109465,-0.3589788578540086
1789927430411050000,0.580050048828125,0.04325988053381443,0.18030337565839288,-0.05518874845961109
1789927430421030100,0.590030029296875,0.09731529584825038,0.2221770625308156,-0.061154232735279944
1789927430431010000,0.600010009765625,-0.215786776971817,0.27313100469857454,0.05906944408416748
1789927430440990000,0.609989990234375,-0.25468437064290045,0.23507453802675007,0.11624923849683254
1789927430450969900,0.619969970703125,-0.2785129899978638,0.28905981071442366,-0.03021028321608901
1789927430460950000,0.629949951171875,-0.32602351371347904,0.27110885122120376,-0.22234975221659986
1789927430470930200,0.63993017578125,-0.2787485523194074,0.23150661641210316,-0.326900333080627
1789927430480910000,0.64991015625,-0.18082009300887583,0.16624474742859602,-0.29412257399670777
1789927430490890000,0.659889892578125,-0.13967209006249903,0.08973696954846382,-0.2653890853349119
1789927430500871000,0.669870849609375,-0.08325812892317772,0.04302928664833307,-0.13930343941319734
1789927430510851000,0.67985107421875,-0.04882803605496883,-0.006790390792489051,-0.024097389826364814
1789927430520831200,0.689831298828125,0.04191197305619716,-0.021920155385136603,0.16844806615915148
1789927430530811100,0.69981103515625,0.04269114073514938,-0.09392068497389554,0.12290409327615051
1789927430540791000,0.709791015625,0.03000000146627426,0.02576923202872276,-0.09245572698786854
1789927430550771000,0.71977099609375,-0.10619885952770709,0.12106295892149209,-0.16253763653896747
1789927430560750800,0.729750732421875,-0.29233751721084117,0.10554477953314781,-0.20161434963662175
1789927430570731000,0.73973095703125,-0.3749129245668649,0.12022124740034341,-0.22771347120683638
1789927430580711200,0.749711181640625,-0.31565409539043904,0.1443427122220397,-0.3156430990723893
1789927430590691000,0.759691162109375,-0.3146972330570221,0.10941314539909362,-0.28126141192317006
1789927430600671000,0.7696708984375,-0.33406244326233864,0.02922960161566734,-0.03730195851009339
1789927430610651100,0.779651123046875,-0.5705418796509504,0.023429683165252208,0.4166876445768401
1789927430620631000,0.789631103515625,-0.7365548641502857,0.1609688528522849,0.020222338491305707
1789927430630611000,0.79961083984375,-0.3324292891025543,0.18566198008209467,-0.48970239270944144
1789927430640591000,0.809591064453125,-0.18963877475857732,0.31727702041715383,-0.6869387464575469
1789927430650571000,0.819571044921875,0.02097439896762371,0.26814298715293405,-0.5425322848169133
1789927430660551200,0.82955126953125,0.2864548889130354,0.053532268223166465,-0.12035692954398691
1789927430670532000,0.839531982421875,0.16153028612732886,0.028525837260484695,0.2694866568468511
1789927430680512000,0.849511962890625,-0.06996785471737385,-0.06503858162164687,0.36886809144467114
1789927430690492200,0.8594921875,-0.31372341958880423,-0.12655951051115988,0.40569914450738576
1789927430700472000,0.86947216796875,-0.5622048439383507,-0.08019757230877876,0.34028683420252054
1789927430710452000,0.879451904296875,-0.664040832081437,0.0015039748221635817,0.14186273197457194
1789927430720432000,0.88943212890625,-0.6031301440447568,0.04900894557982683,-0.04737078645136207
1789927430730412000,0.899412109375,-0.48700084213316436,0.1063534655675292,-0.10597692387271672
1789927430740392000,0.909391845703125,-0.3790191908419132,0.18467267678380012,-0.07271722649075091
1789927430750371800,0.919371826171875,-0.23223230033814907,0.23370529550015925,-0.08414952480494975
1789927430760352300,0.929352294921875,-0.019040800556540487,0.2626201320782304,-0.09479483745992183
1789927430770332200,0.939332275390625,0.18830080415308476,0.2954161940038204,-0.040036023116484284
1789927430780312000,0.94931201171875,0.24245909532010554,0.25105565875172614,0.07585154246110469
1789927430790292000,0.9592919921875,0.16661036587059497,0.20562632522433996,0.22670736290421337
1789927430800272000,0.96927197265625,0.04991641581356525,0.15342004490792752,0.3111403808256611
1789927430810252000,0.979251953125,-0.095005265340209,0.1639107515230775,0.27006968089919536
1789927430820232200,0.989232177734375,-0.20578853004872796,0.1951046389490366,0.18881799642760305
1789927430830213000,0.999213134765625,-0.27789105870723724,0.16197423050254584,0.08725139981042593
1789927430840193000,1.009193115234375,-0.2877268085449934,0.17501725194901227,-0.04497128756158054
1789927430850173000,1.0191728515625,-0.2787070512652397,0.19514350965470073,-0.12527929797489196
1789927430860152800,1.02915283203125,-0.2763590268343687,0.22386749983578919,-0.17689974122736601
1789927430870133200,1.03913330078125,-0.2677192087829113,0.24296704484224318,-0.18973072735834864
1789927430880113200,1.049113037109375,-0.22855390408635137,0.27606179745346304,-0.14979133301675318
1789927430890093000,1.059093017578125,-0.14293489125072956,0.30886019746661186,-0.09498254205174743
1789927430900073000,1.069072998046875,-0.027617490243911743,0.32610067060291764,-0.04370115802790969
1789927430910053000,1.07905322265625,0.0008095628172159195,0.33417584050893784,-0.021094116357155142
1789927430920033000,1.089032958984375,0.004208557605743408,0.3712102706566453,-0.013326733758673071
1789927430930013000,1.099012939453125,-0.010898995155096054,0.4198503829240799,-0.025863997640088197
1789927430939993000,1.1089931640625,-0.0866091929167509,0.4175602261602878,-0.07242255439311265
1789927430949973000,1.118972900390625,-0.17041034267544744,0.4145537378206849,-0.1309947530122474
1789927430959953200,1.128953125,-0.24067981068789956,0.43915655641853807,-0.169404782362096
1789927430969933000,1.13893310546875,-0.26979893766641616,0.4755222935244441,-0.18664569388981908
1789927430979913000,1.148912841796875,-0.2866021884292364,0.49037470248043535,-0.1671433402361348
1789927430989892900,1.158892822265625,-0.2789151410579681,0.49605274811685085,-0.18193068459928036
1789927430999874000,1.1688740234375,-0.3231605254977941,0.5048582781240344,-0.2203543040830642
1789927431009854000,1.17885400390625,-0.34242227532863617,0.5111880656674505,-0.20707922744639218
1789927431019834000,1.188834228515625,-0.3529214575111866,0.517496225900948,-0.16931582543700932
1789927431029814000,1.19881396484375,-0.19190028994977473,0.32529461491703987,0.2656753183977678
1789927431039794000,1.2087939453125,-0.09356617244780063,0.23525135589838025,0.10789097733311355
1789927431049773800,1.21877392578125,-0.3243032657921314,0.44689971789121624,-0.16556228158976882
1789927431059754200,1.228754150390625,-0.37832828596830365,0.44259676000028847,-0.07719696572069078
1789927431069734100,1.238734130859375,-0.3058072396367788,0.2883481553137302,-0.02572710992004722
1789927431079714000,1.248714111328125,-0.31824411188364027,0.2514151397138834,-0.07235295975562185
1789927431089694000,1.25869384765625,-0.28030747219920155,0.16293547675013542,-0.09403948904797434
1789927431099674000,1.268674072265625,-0.3941659065693617,0.14749708459973335,-0.3007224471857771
1789927431109654000,1.278654052734375,-0.37438100964725013,0.32592122238278387,-0.5199852297050878
1789927431119634200,1.28863427734375,-0.5210089101970196,0.3489189438715577,-0.5435024084907025
1789927431129614000,1.298614013671875,-0.8594570211976766,0.39828357102125883,-0.6805000917121767
1789927431139594000,1.308593994140625,-0.9170230749815702,0.4735694058910012,-0.797173437372595
1789927431149574100,1.31857421875,-0.9604401919037103,0.5309963434651493,-0.8489697486486285
1789927431159554000,1.328553955078125,-0.9873930807590484,0.5545215959593653,-0.8639603970315307
1789927431169535200,1.33853515625,-0.909643486124277,0.5190750195249915,-0.8546003749467432
1789927431179515100,1.34851513671875,-0.8547352533727883,0.45191403892189264,-0.7831469578467309
1789927431189495000,1.3584951171875,-0.7863409315824508,0.33636662855148314,-0.6551641365341841
1789927431199475000,1.368474853515625,-0.8045534646213054,0.29893501577973364,-0.6158407917317003
1789927431209455000,1.378455078125,-0.8335200313866138,0.3547802371203899,-0.648787148848176
1789927431219435000,1.38843505859375,-0.9053834905922412,0.42013738317191596,-0.6804685275301336
1789927431229415000,1.398414794921875,-0.9364005601465701,0.5559682876363397,-0.6863177650149911
1789927431239395000,1.40839501953125,-0.9636725979536771,0.7084937217921018,-0.6761939189508557
1789927431249375200,1.418375244140625,-0.9186264185249805,0.848146814893186,-0.7035092844430357
1789927431259355100,1.428355224609375,-0.8700310221821069,0.9014908670678734,-0.8320502510949969
1789927431269335000,1.4383349609375,-0.7313625562041998,1.0931056180745362,-1.0479547361623496
1789927431279315000,1.44831494140625,-0.5137888958156108,1.2654258860245347,-1.3491000484026967
1789927431289294800,1.458294921875,-0.2760498147547245,1.3388552793726325,-1.5812965467751026
1789927431299275300,1.468275146484375,-0.135630705717206,1.4332418282926083,-1.6477737828977406
1789927431309255200,1.478255126953125,-0.015934651234745977,1.5347498996555804,-1.6775898060992358
1789927431319235000,1.488235107421875,0.14914602085053918,1.650660882641375,-1.7604998522371054
1789927431329215000,1.498215087890625,0.3323778511762619,1.7489087831646204,-1.8582802813790738
1789927431339196000,1.50819580078125,0.446001307746768,1.7559402892366052,-1.9203237728379665
1789927431349175800,1.51817578125,0.47736616782546043,1.749532175759971,-2.03685683324486
1789927431359158800,1.52815869140625,0.5028180044680833,1.796235474745929,-2.198533980496973
1789927431369138700,1.538138671875,0.38921325259804723,1.7774688149556517,-2.424116029165685
1789927431379118600,1.54811865234375,0.022866496324539184,1.644434409341961,-2.800793333056569
1789927431389098800,1.5580986328125,-0.5815343983083963,1.3619928477235137,-3.248260621702671
1789927431399078700,1.56807861328125,-1.1951175473064184,1.3529375807389616,-3.654493982684612
1789927431409058600,1.57805859375,-1.8221119665414094,1.465443723717332,-3.694589261707663
1789927431419038700,1.588038818359375,-2.489861005491018,1.542995749953389,-3.409578141862154
1789927431429018600,1.5980185546875,-3.0445816311538216,1.534028599643707,-2.7878344827622175
1789927431438998800,1.607998779296875,-2.8816332949221133,1.5400331007555126,-1.9258736620500683
1789927431448978700,1.617978759765625,-2.003689015397429,1.668645890534669,-1.3399822375759483
1789927431458958600,1.62795849609375,-0.7310346394240855,1.3089279047511517,-0.22937110222075133
1789927431468938500,1.6379384765625,0.5845446860402822,0.7663318705156446,0.8822473104808479
1789927431478918700,1.647918701171875,1.4969938772350548,0.04273483374640345,1.7047877557568252
1789927431488898800,1.65789892578125,2.405133973059058,-0.3038891310557723,2.0208225210279225
1789927431498878700,1.667878662109375,2.7897569752573967,-0.48903059439510105,1.8922161609895527
1789927431508859600,1.677859619140625,3.0892993092805145,-0.37755715546533464,1.9942238524377345
1789927431518839600,1.687839599609375,3.0010043552339076,-0.024341975704580545,2.2031129788503048
1789927431528819500,1.6978193359375,2.493977793160081,0.4136696484625339,2.4560113428592683
1789927431538799900,1.7077998046875,1.8471663282990454,0.7813005993276834,2.6533640529960394
1789927431548779800,1.71777978515625,1.2340063731491564,1.0579301136665045,2.7291353332951664
1789927431558759700,1.727759765625,0.6605880612790584,1.3530712901212274,2.706568696700036
1789927431568739600,1.737739501953125,0.17462825263142584,1.5994104417450725,2.5683845071077345
1789927431578719500,1.747719482421875,-0.17029869899451733,1.8123899062111972,2.348108017501235
1789927431588699600,1.75769970703125,-0.46441783892512317,1.9172883506648242,2.17792534610182
1789927431598679800,1.7676796875,-0.8277017004966736,2.0357376199565826,2.153039911170304
1789927431608659700,1.77765966796875,-1.1363450403422117,2.053230022027343,2.293800673252344
1789927431618639600,1.7876396484375,-1.459434254169464,1.9608213490515947,2.427146482902765
1789927431628619800,1.797619873046875,-1.9019529804974793,1.801801730570942,2.5085274197772143
1789927431638599700,1.807599609375,-2.5037211885392665,1.6020844832599161,2.68020909756273
1789927431648579600,1.81757958984375,-3.3593840781509874,1.46431881134063,2.8940611070796844
1789927431658559500,1.8275595703125,-4.449692174461484,1.396478470171243,3.0728681067004797
1789927431668539600,1.83753955078125,-5.44171349954307,1.367639621438831,3.3503406477347015
1789927431678520600,1.8475205078125,-6.1794561121732,1.3414613702178,3.5338173927322027
1789927431688500700,1.857500732421875,-6.293503347113728,1.1678379107147454,3.5232878154113885
1789927431698480600,1.867480712890625,-5.74630668721497,0.8882058535590768,3.5573169262632724
1789927431708460500,1.87746044921875,-5.074043385711312,0.6220059632979333,3.559733047494292
1789927431718440700,1.887440673828125,-5.237912928441166,0.3892857333123684,3.537961360669136
1789927431728420600,1.897420654296875,-5.603953979766368,0.24179405554011463,3.212035754372179
1789927431738400800,1.90740087890625,-5.503583972522616,0.22274945559129117,2.70571383343637
1789927431748380700,1.917380615234375,-4.405617470413446,0.3205523888260126,2.6378891282275316
1789927431758360600,1.927360595703125,-2.0482740070551633,0.1646731141977012,3.0346134871080515
1789927431768340500,1.937340576171875,1.233119653442502,-0.3233366127170622,3.5362308836147185
1789927431778320600,1.947320556640625,4.913727736070752,-0.6894429843634367,4.230112434947491
1789927431788300800,1.95730078125,7.993634363105893,-0.6606948826543987,4.285458474594354
1789927431798280700,1.96728076171875,11.32893906201124,-0.22480010451078414,3.831891700029373
1789927431808260600,1.977260498046875,13.943671478796004,-0.06982128585353493,3.0230680107429624
1789927431818240800,1.98724072265625,14.246771797561644,-0.16157339461669326,2.121724297060817
1789927431828220700,1.997220703125,12.429437128424643,-0.2601974349759519,1.7038802855230868
1789927431838200600,2.00720068359375,9.541087092468143,-0.19074074465110896,1.7752260044649242
1789927431848180700,2.0171806640625,6.468270715954899,0.17921119650751352,1.8027357965506612
1789927431858161700,2.02716162109375,4.019244409677386,0.5435901598393916,1.4194171549491583
1789927431868141600,2.0371416015625,2.476692311838269,0.9183597304128109,0.5327254322800785
1789927431878121700,2.047121826171875,1.9090356322348117,1.3690915738128124,-0.643623263278976
1789927431888101600,2.0571015625,1.8245143515080213,1.6326719292253256,-1.8372089979082344
1789927431898081800,2.067081787109375,1.8006395549237728,1.8880789150543509,-2.748880190467834
1789927431908061700,2.077061767578125,1.3931705146670341,1.902831078506261,-3.0854183761939407
1789927431918041600,2.08704150390625,0.5277718284606934,1.588650270538777,-3.0117838156625627
1789927431928021800,2.097021728515625,-0.6469079109728336,1.2212285785101353,-2.907576129952073
1789927431938001700,2.107001708984375,-1.8780355138152838,1.0372691645622252,-2.7856796428158876
1789927431947981600,2.116981689453125,-3.0591239512473343,0.9643367609508335,-3.043768268944323
1789927431957961500,2.12696142578125,-4.104183039033413,0.7895283294469118,-3.3458459666639566
1789927431967942000,2.13694189453125,-4.864517422699928,0.6445386976234615,-3.553803949706256
1789927431977921800,2.146921875,-5.549630853426456,0.5220299238078295,-3.938376098500192
1789927431987901700,2.156901611328125,-6.325855464664102,0.38989918903559445,-4.486855491685867
1789927431997881600,2.166881591796875,-7.064044652017951,0.21978549121916294,-5.36918485442698
1789927432007861500,2.176861572265625,-7.583274862104654,0.004179039250314235,-6.4816796481043095
1789927432017841700,2.186841552734375,-7.7749957038342945,-0.2738666254967451,-7.569150475162267
1789927432027822800,2.19682275390625,-7.022433707734942,-0.5993745909035205,-8.307278287717699
1789927432037802800,2.206802734375,-5.117122648981213,-0.955231809605658,-8.292149107646942
1789927432047782700,2.21678271484375,-2.755933616110682,-1.138375084865093,-7.501039061966538
1789927432057762600,2.226762451171875,-0.5678799669653177,-1.2305091786831617,-5.9041802044004195
1789927432067742500,2.236742431640625,0.9124918612927198,-1.141911442297697,-3.7247289639055725
1789927432077722600,2.24672265625,1.9913170250803232,-0.8255550438567996,-1.9593977459892629
1789927432087702800,2.256702880859375,2.791276147648692,-0.3601714286394417,-1.036188456653431
1789927432097682700,2.2666826171875,2.9487025055885314,0.17419139558412133,-1.0763668839152902
1789927432107662600,2.27666259765625,2.720120544451475,0.6877566387116909,-1.7093692383281887
1789927432117642800,2.286642822265625,3.1550065839439627,1.063047018288821,-2.2329630504518745
1789927432127622700,2.29662255859375,4.289882720777392,1.4011017460577189,-2.193184728423506
1789927432137602600,2.3066025390625,5.445046443358064,1.6506038917571306,-1.6791997255139053
1789927432147582700,2.316582763671875,6.792390441873669,1.5191472568541764,-0.899545432088524
1789927432157562600,2.326562744140625,7.978601629146933,0.8655658594667911,-0.24617431645095347
1789927432167542800,2.336542724609375,8.075517696544528,0.25249372873082754,0.29728520274609327
1789927432177522700,2.346522705078125,7.082013439428806,0.05876125491783023,0.9823971721678971
1789927432187502600,2.356502685546875,5.495081517115235,0.12198884159475565,1.6492893020272255
1789927432197482500,2.366482421875,3.797635210162401,0.20075082814246414,2.126175869642198
1789927432207463700,2.376463623046875,2.391678279158473,0.35796631981059907,2.605354932108521
1789927432217443600,2.386443603515625,1.1207488272815942,0.4861024319887161,2.777232424727082
1789927432227423700,2.396423828125,-0.0659960284769535,0.5862174415580927,2.6819506805330513
1789927432237403600,2.406403564453125,-1.0696896711736916,0.616364011888206,2.527970955915749
1789927432247383600,2.416383544921875,-1.9327508543431757,0.6392177948616444,2.5669597350016233
1789927432257363500,2.426363525390625,-2.800074955654144,0.5670844326734542,2.692553907611966
1789927432267344000,2.43634375,-3.5649890683263536,0.4704268700815737,2.774200509685278
1789927432277323800,2.44632373046875,-4.148988395443558,0.560097788656503,3.0381688415020704
1789927432287303700,2.4563037109375,-4.61344773542285,0.738859341700375,3.583378126975894
1789927432297283600,2.46628369140625,-5.087676774266362,0.8886046436183154,4.320513713623583
1789927432307263500,2.476263427734375,-5.5810331229060886,0.90748397000283,5.229611548563837
1789927432317243600,2.48624365234375,-6.028273032537102,0.9112310475766658,6.199185479515791
1789927432327223800,2.496223876953125,-6.182151342606544,0.8100558614298701,6.959823230043053
1789927432337203700,2.50620361328125,-5.403708470797539,0.4018582146376371,7.191326047062874
1789927432347183600,2.51618359375,-3.978154274398088,0.030545360389351843,6.834193109336495
1789927432357163800,2.526163818359375,-2.1287258463859557,-0.19050971237421035,6.143204649096727
1789927432367142000,2.536141845703125,-0.17311667902469635,-0.42702246651053427,5.62674039659202
1789927432377122000,2.5461220703125,1.059705452775955,-0.5432102206110954,5.536205554664135
1789927432387103000,2.55610302734375,1.1331295854270458,-0.5908312189638615,5.656262843674421
1789927432397083100,2.566083251953125,0.3629880934953689,-0.31263927761390803,6.00548836927712
1789927432407063000,2.57606298828125,-0.5955424653947353,0.12145225050002335,6.432929937982559
1789927432417043000,2.58604296875,-1.5888368791520595,0.5822822940662503,6.68817252703011
1789927432427022800,2.59602294921875,-2.050822522494197,1.0617698379598557,6.860478474193811
1789927432437003000,2.6060029296875,-1.6531921546846626,0.9597412498541176,6.802810713601112
1789927432446983200,2.615983154296875,0.29500878224670884,0.3078941289134323,5.842614851847291
1789927432456963000,2.625963134765625,3.175235717502236,-0.25720380611792204,4.223044103996456
1789927432466943000,2.63594287109375,6.121605396229028,-0.39845322849974035,2.767996978870034
1789927432476923000,2.6459228515625,7.990490804383159,-0.6918767873816192,1.6478770971417427
1789927432486903000,2.655903076171875,8.360254091101885,-1.097250170533359,1.129472305028513
1789927432496883200,2.66588330078125,7.804707536008953,-1.449803379254043,1.0132476529836654
1789927432506863000,2.675863037109375,6.525206070619821,-1.9980422416821122,1.5704644793763756
1789927432516843000,2.685843017578125,4.58263641757369,-1.9576450571030377,0.8704412104181944
1789927432526823200,2.6958232421875,2.66192320702672,-1.6120929593160747,-0.4582843046061694
1789927432536803000,2.705802978515625,1.4882967760384083,-1.6111951336935162,-1.828559827506542
1789927432546783000,2.715782958984375,0.7916863842636347,-1.6323010500863193,-3.346154301960766
1789927432556763000,2.725762939453125,0.16636603572070596,-1.5458677982583642,-4.454529969881475
1789927432566744000,2.735744140625,-0.3616594752401113,-1.3611889839947222,-4.864491119214892
1789927432576724000,2.745723876953125,-0.8049655525535344,-1.147806930077076,-4.645030622166395
1789927432586704100,2.7557041015625,-1.3437152866244315,-0.9141901896432042,-4.202917846290767
1789927432596684000,2.76568408203125,-1.8663146808832882,-0.7130594222724437,-3.838894856789708
1789927432606664000,2.775663818359375,-2.327664948931336,-0.6158449564501642,-3.6334541172653436
1789927432616644000,2.78564404296875,-2.762434084045887,-0.5411641017362475,-3.65373351970613
1789927432626624000,2.7956240234375,-3.157451054486632,-0.6088873923972249,-4.040257679350674
1789927432636604200,2.805604248046875,-3.6131641934305425,-0.7231345338240266,-4.504536109805107
1789927432646584000,2.815583984375,-4.146334666064381,-0.7994768920093774,-4.777990062847733
1789927432656564000,2.82556396484375,-4.698872102469205,-1.0057267559595406,-5.055452082487941
1789927432666543900,2.8355439453125,-5.032967863479256,-1.2275769246235488,-5.359540243247151
1789927432676524300,2.845524169921875,-5.176330624753237,-1.3703561869211494,-5.563074272367358
1789927432686504200,2.855504150390625,-4.952395612639188,-1.5232982390537857,-5.481964261388779
1789927432696484000,2.865484130859375,-4.186811637881398,-1.5311653191670775,-5.22757390525639
1789927432706464000,2.875464111328125,-3.039226241600513,-1.2038975044809281,-4.600034127098322
1789927432716444000,2.88544384765625,-1.640841791677475,-0.5624687555715442,-3.9722079332143068
1789927432726424000,2.895424072265625,-0.2689075417846441,-0.041361499566584824,-3.8288486790716645
1789927432736404000,2.905404052734375,0.9744389066398144,0.4283230277150869,-3.890027662655711
1789927432746385200,2.91538525390625,2.156304758185148,1.252482963951677,-4.034079867498576
1789927432756365000,2.925364990234375,2.4859827027529477,1.9236374274305998,-3.7683164689585564
1789927432766345000,2.935344970703125,1.7140899832397698,1.8515090336784719,-3.16867299798578
1789927432776324900,2.945324951171875,0.6587403875857591,1.4786919123470783,-2.253818499214947
1789927432786305000,2.955304931640625,0.5141530529528856,1.3320967450231314,-1.8148270702302456
1789927432796285200,2.96528515625,1.109493858295679,1.2094894792690873,-2.064264041738957
1789927432806265000,2.97526513671875,3.233159498682618,0.6101724637717009,-2.9499913763552903
1789927432816245000,2.985244873046875,6.376065894988179,-0.5058236160248518,-3.885853591841459
1789927432826225200,2.99522509765625,8.799276207485795,-1.2555256926484406,-4.099239737412333
1789927432836205000,3.005205078125,9.406896064165235,-1.547661988198757,-3.470106260322034
1789927432846185000,3.01518505859375,8.309671320334076,-1.566480085915327,-2.2070745759576558
1789927432856164900,3.025164794921875,6.455585421904921,-1.5083780255585908,-1.055133760946244
1789927432866145000,3.03514501953125,4.490945391348004,-1.3556944782316684,-0.25837416507154704
1789927432876125200,3.045125244140625,2.7442922781556844,-1.1406441988408564,0.33366098632197827
1789927432886105000,3.05510498046875,1.3773878391236065,-0.9021548839345573,1.0166758738666772
1789927432896085000,3.0650849609375,0.2328746898949146,-0.6853472394824027,1.7434611852832138
1789927432906065000,3.07506494140625,-0.6588719050109386,-0.6439531528204679,2.362082474578917
1789927432916045000,3.085045166015625,-1.2246662978738545,-0.6397600850448012,2.822896736054122
1789927432926026000,3.09502587890625,-1.5642682550847529,-0.516660651859641,3.0691026166871187
1789927432936006100,3.105006103515625,-1.7495798142939805,-0.36047815650105475,3.1302064892083403
1789927432945986000,3.114986083984375,-1.9786030894577502,-0.26770284217000007,3.0722619575008747
1789927432955966000,3.124966064453125,-2.2859300860077143,-0.12706570646762846,3.054828884401917
1789927432965945900,3.13494580078125,-2.6870529721081255,0.08932517387717961,3.305978358916938
1789927432975926300,3.14492626953125,-3.1333383574932814,0.3005617401987314,3.8854429652139544
1789927432985906200,3.15490625,-3.5445804865479467,0.3894580211393535,4.629036641959845
1789927432995886000,3.164885986328125,-3.8559237330019474,0.21903920289650558,5.409333909463882
1789927433005866000,3.174865966796875,-4.007007443916797,0.005602788443118334,6.2514469971507785
1789927433015846000,3.184845947265625,-3.8119022204458712,-0.11310820052474736,6.761004539006948
1789927433025826000,3.194825927734375,-3.5612189021378753,-0.1410626676380634,6.7543620322525495
1789927433035806000,3.204805908203125,-3.2229718666672706,-0.16565350353717803,6.3730807416975495
1789927433045786000,3.2147861328125,-2.6832243537306786,-0.3057052405670285,5.760252794981002
1789927433055766000,3.22476611328125,-2.2543524599611757,-0.5443916854806244,5.149218745943903
1789927433065746200,3.23474609375,-2.1144296100080013,-0.7475863996438682,4.792559855470061
1789927433075726000,3.24472607421875,-2.09162273491621,-0.8824912753045558,4.696870699518919
1789927433085706000,3.2547060546875,-2.038008049106598,-0.8384164251260459,4.671125725148618
1789927433095686000,3.264685791015625,-1.960421536079049,-0.30485695317462086,4.814016192735731
1789927433105667000,3.2746669921875,-2.119844036272168,0.6696969581469893,5.1372150044173
1789927433115647000,3.28464697265625,-2.5564824723899364,1.059968487626314,5.529564216953515
1789927433125627100,3.294627197265625,-2.696311214318871,0.2969777442321181,5.859197153335809
1789927433135607000,3.30460693359375,-2.4510399841874837,-0.6367869144529104,5.827616604679823
1789927433145587000,3.3145869140625,-2.0096032078772783,-1.117849306447804,5.35750961420238
1789927433155566800,3.32456689453125,-0.5634902075737714,-1.5676909230098128,4.596136827398836
1789927433165547000,3.334547119140625,2.1147721398353574,-1.7392641719847917,3.9369165473416445
1789927433175527200,3.344527099609375,5.369920767486095,-1.5538272328302263,3.8021795755937693
1789927433185507000,3.354507080078125,8.536241357126832,-1.5002952568680048,4.146348694589734
1789927433195487000,3.364487060546875,9.09214388605058,-0.4439937673166394,4.833361821457744
1789927433205467000,3.374466796875,9.369067561030388,-1.6542457553908227,3.6096529704391953
1789927433215447000,3.384447021484375,9.52548211157918,-3.0389085539534686,2.569868023663759
1789927433225427200,3.39442724609375,7.275629301124811,-2.0077391675710676,1.6373650554776191
1789927433235407000,3.404406982421875,4.471235897749662,-1.1143661405071617,-0.05700915055349469
1789927433245387000,3.414386962890625,2.6678116805434224,-1.0799217268526553,-2.021519271120429
1789927433255367200,3.4243671875,1.6493910088360308,-0.9880079977869987,-3.627363691435754
1789927433265347000,3.43434716796875,0.784837541282177,-0.7294926706790924,-5.155605816632509
1789927433275327000,3.444326904296875,-0.29224691631793975,-0.2615945884227753,-6.166887137979269
1789927433285307000,3.454306884765625,-1.0297919605493544,-0.11642536224871873,-6.53388037546277
1789927433295288000,3.4642880859375,-1.4289298103123902,0.07454816824495791,-6.8595648664802304
1789927433305268000,3.47426806640625,-1.7887480415999888,0.2634279413297772,-5.813984969690441
1789927433315248000,3.484248046875,-1.83016784722507,-0.017458792062103747,-4.188901303637027
1789927433325228000,3.49422802734375,-1.906610450914502,-0.3054594491124153,-2.9579496418833733
1789927433335208000,3.5042080078125,-2.1628356212586164,-0.437129434505105,-2.2252529144659636
1789927433345188000,3.51418798828125,-2.295398756098747,-0.45960196307599543,-1.797368716559559
1789927433355168000,3.52416796875,-2.02716809066236,-0.438660589595139,-1.485829801402986
1789927433365147600,3.534147705078125,-1.7827268816143274,-0.5148521411329507,-1.6186287908256054
1789927433375127800,3.5441279296875,-1.8165701145052908,-0.5848349011585116,-2.323197886519879
1789927433385107700,3.554107666015625,-1.6935148127228021,-0.7584522231817244,-3.412962815864384
1789927433395087600,3.564087646484375,-1.1069605404257774,-1.0939572664678097,-4.367847127206623
1789927433405067800,3.57406787109375,-0.5338929416894912,-1.5234513837888837,-5.0646886973887675
1789927433415047700,3.584047607421875,-0.3726052321463823,-1.763956130170822,-5.427267625561356
1789927433425027600,3.594027587890625,-0.7510615284085274,-1.6660945986166595,-5.38800295214355
1789927433435007700,3.6040078125,-1.3994728296816348,-1.3946107766032219,-5.14568121946752
1789927433444987600,3.613987548828125,-1.9006325455486774,-0.9897937121599912,-5.016860193765163
1789927433454967800,3.6239677734375,-2.2521447207838294,-0.3169575792044401,-5.162964947223663
1789927433464947700,3.63394775390625,-2.627666132637858,0.4617977195546031,-5.6475148890733715
1789927433474927600,3.643927734375,-2.446043491074443,0.4677908224895596,-6.2374775085091585
1789927433484908800,3.65390869140625,-1.6368454155176877,-0.12367226463705301,-5.8526177749454975
1789927433494888700,3.663888671875,-0.4361953685253858,-0.6407032111138105,-4.607768520742654
1789927433504868900,3.673868896484375,0.8163923709750175,-0.5699801541149616,-3.5170085890114304
1789927433514848800,3.683848876953125,2.6201772381871935,-0.07921616005599498,-3.00855345543921
1789927433524828700,3.69382861328125,5.2800820911288255,0.05727554640471935,-2.993235767059028
1789927433534808600,3.70380859375,8.101540026551485,-0.4622457555830478,-3.232807031983137
1789927433544788500,3.71378857421875,10.115056608480215,-1.0031184731572866,-3.4427675870195027
1789927433554769000,3.723768798828125,10.64866196539998,-1.3924150201246142,-3.3439281503438947
1789927433564748800,3.733748779296875,9.36072468009889,-1.6032827531337737,-2.6598142520487307
1789927433574728700,3.743728759765625,7.120207268744707,-1.5379022262066602,-1.7131509488239884
1789927433584708600,3.75370849609375,4.6838861302614205,-1.2319623001009226,-0.9610650458037853
1789927433594688800,3.763688720703125,2.3533605312019583,-0.8680252353176474,-0.2406315145667642
1789927433604668700,3.773668701171875,0.5382534749865532,-0.642155163487792,0.5527405577614903
1789927433614648800,3.78364892578125,-0.6722586253285407,-0.4911489017233252,1.2829055747441946
1789927433624628700,3.793628662109375,-1.3188865503162144,-0.4602323699340224,1.8354323436245321
1789927433634608600,3.803608642578125,-1.596571857318282,-0.5648708482772111,2.2196227996245024
1789927433644588800,3.8135888671875,-1.6649568267583845,-0.7319806881025434,2.4636741325721143
1789927433654568700,3.823568603515625,-1.6187386809408664,-0.9158964090391993,2.6671850730776785
1789927433664548600,3.833548583984375,-1.6313164229631423,-1.043401968228817,2.7831737974748014
1789927433674528500,3.843528564453125,-2.0323633212178946,-1.1349635228559374,2.9459453158348796
1789927433684509700,3.853509765625,-2.703283391419053,-1.1066893222689629,3.2892271306023
1789927433694489600,3.863489501953125,-3.4673172141253947,-1.046328084808588,3.844146493707597
1789927433704469800,3.8734697265625,-4.361211926975846,-1.024891621287167,4.444093039280176
1789927433714449700,3.88344970703125,-5.036128373336791,-0.9699369190454482,4.706453351378441
1789927433724429600,3.8934296875,-4.992511934450269,-1.227175942607224,4.964149763318896
1789927433734409700,3.90340966796875,-4.918018711262941,-1.3615905505329369,5.156508318430185
1789927433744390000,3.913389892578125,-4.619252622309327,-1.1854784890845418,5.172428941139579
1789927433754369800,3.923369873046875,-4.063440694278478,-1.0743997485607861,4.9602498332709075
1789927433764349700,3.933349609375,-3.378848072555661,-1.0141086537271737,4.843260699659585
1789927433774329600,3.94332958984375,-2.672324774053693,-1.0887500532135366,4.735707502913475
1789927433784309500,3.9533095703125,-2.1615631171047687,-1.1854337731599807,4.684519167467951
1789927433794290000,3.9632900390625,-1.8975398402303456,-1.3458508373484015,4.6651808452695605
1789927433804269800,3.973269775390625,-1.7750486020714042,-1.6221762541741132,4.598030093799531
1789927433814249700,3.983249755859375,-1.8411866693675516,-1.79953451629132,4.3870431183248755
1789927433824229600,3.993229736328125,-2.0492975048840045,-1.7520038265705107,4.227023529021442
1789927433834209800,4.003209716796875,-2.163356430262327,-1.4357196165829895,4.174297901006042
1789927433844189700,4.013189697265625,-2.1816946355074642,-0.6459867044746875,3.9104859287947416
1789927433854169600,4.023169677734375,-1.9928227534681557,0.408208752708137,3.4312805628433822
1789927433864149800,4.033149658203125,-1.121784015548229,1.0539268693745136,3.150373371185362
1789927433874130700,4.043130615234375,0.5749176105171442,0.6866676744312048,2.9096435838758943
1789927433884110600,4.053110595703125,2.7313223219454286,-0.28682079961597917,2.5238252344131467
1789927433894090800,4.0630908203125,3.9228327846705913,-0.6831231336921453,2.1373726787000895
1789927433904070700,4.073070556640625,4.7044174616366625,-0.7705249382913112,1.8716751850031315
1789927433914050800,4.08305078125,6.004681729069352,-1.0333321173742414,1.877598583702743
1789927433924030700,4.09303076171875,7.471055427113175,-1.38132605535537,1.9660386453084646
1789927433934010600,4.1030107421875,8.286772090783714,-1.546673853944242,2.0393631169773636
1789927433943990800,4.11299072265625,8.43079419274926,-1.4640978620663285,2.1024999566309153
1789927433953970700,4.122970703125,8.018488818377255,-1.2997624553903937,2.0180742452330884
1789927433963950600,4.13295068359375,6.804556095963716,-1.0877984515771268,1.3507853711411355
1789927433973930500,4.142930419921875,4.983212775707244,-0.9475093986600637,-0.01099639111496508
1789927433983911000,4.152910888671875,3.175598121073842,-0.9983473132327199,-1.671857546057552
1789927433993890800,4.162890869140625,1.3550012352705,-0.8283855911076068,-3.0991216151148078
1789927434003870700,4.17287060546875,-0.3849363059312105,-0.5365107229724526,-4.103476644329726
1789927434013850600,4.1828505859375,-1.7082511940836906,-0.28254122260063885,-4.79907026027739
1789927434023830500,4.19283056640625,-2.6474007606774568,-0.1042357427611947,-5.264698059514164
1789927434033810700,4.202810791015625,-3.1845588416427373,0.06854834330826998,-5.29864884443283
1789927434043790800,4.212790771484375,-3.4941362474679947,0.2331602288380265,-4.974236273047327
1789927434053770800,4.222770751953125,-3.690255616417527,0.27469664658010007,-4.537438846975565
1789927434063750700,4.232750732421875,-3.5715099945276974,0.21658991004824638,-4.068035036331415
1789927434073730800,4.242730712890625,-3.2000317205846307,-0.03779986156225204,-3.767149763266742
1789927434083711700,4.252711669921875,-2.915386511442065,-0.32349457975775003,-3.8148032025843857
1789927434093692000,4.26269189453125,-2.7240000162333247,-0.5731506008446217,-4.06112423402965
1789927434103671800,4.272671875,-2.420546646246314,-0.8112655294805765,-4.319610042782128
1789927434113651700,4.282651611328125,-1.8670207833260297,-1.119080309547484,-4.575620985853671
1789927434123631600,4.292631591796875,-1.4032242911696433,-1.3515028717607258,-4.748073940272629
1789927434133611800,4.30261181640625,-0.9213695797532796,-1.6314434103436768,-4.795531564757227
1789927434143591700,4.312591796875,-0.4561790028899908,-1.8682545629046856,-4.745386600884795
1789927434153571600,4.322571533203125,-0.3885205941587686,-2.0453046358555556,-4.673637123447656
1789927434163551700,4.3325517578125,-0.6660241148531436,-2.2942777892448007,-4.688057570727169
1789927434173531600,4.34253173828125,-1.0802490591108798,-2.474161916577816,-4.90031208191961
1789927434183511800,4.35251171875,-1.6119652412831782,-2.539601187954843,-5.238320924720168
1789927434193491700,4.36249169921875,-1.9657523757129907,-2.420160569538176,-5.5495911059379575
1789927434203471600,4.3724716796875,-2.0784160473406312,-2.250679324406385,-5.6228714462041856
1789927434213451500,4.382451416015625,-2.029154296043515,-2.0228440899834035,-5.924317568022012
1789927434223432000,4.392431884765625,-1.4846008441299199,-1.9525684844911098,-6.556221971130371
1789927434233411800,4.402411865234375,-0.05090016615390777,-2.2819576752454043,-7.014524542045593
1789927434243391700,4.412391845703125,1.6323790837585925,-2.5723656856983896,-6.79451459442079
1789927434253371600,4.42237158203125,3.4445191068619487,-2.2826827746495604,-5.7783121832847595
1789927434263351600,4.4323515625,5.183817181116342,-1.7630241100177169,-4.777066810522974
1789927434273332500,4.44233251953125,6.5909419868558645,-1.6313234372258185,-4.33910472458601
1789927434283313000,4.45231298828125,8.003034059613942,-1.8635022538110613,-4.324773709155619
1789927434293292800,4.462292724609375,8.990555150666832,-2.2621157874390483,-4.2393180701881645
1789927434303272700,4.472272705078125,9.16460121949613,-2.534656425029039,-3.973436305965483
1789927434313252600,4.482252685546875,8.55681535860002,-2.6443013333573937,-3.599312485949695
1789927434323232800,4.492232666015625,7.254264441534876,-2.6175612104699013,-3.0764743144989013
1789927434333212700,4.502212646484375,5.717999461141228,-2.566774149301648,-2.341568971121311
1789927434343192800,4.51219287109375,4.358268274739385,-2.4197882290944457,-1.309746966049075
1789927434353172700,4.5221728515625,3.112705319309234,-2.256387180659175,-0.09133138086674734
1789927434363152400,4.53215234375,1.9209195467740297,-2.262223631727695,0.8664583513271064
1789927434373132500,4.542132568359375,0.9753115978211164,-2.4215327346742153,1.4235891799367963
1789927434383112400,4.552112548828125,0.3510521565079689,-2.6428508422881363,1.7301922461263834
1789927434393092400,4.56209228515625,-0.04744447274208068,-2.8571175700858236,1.8081350252456962
1789927434403072300,4.572072265625,-0.4678454752862453,-2.9341569706246253,1.9188219899728893
1789927434413052400,4.582052490234375,-1.000334979918599,-2.8531638640239834,2.0455413672208786
1789927434423032600,4.592032470703125,-1.7704104208767413,-2.697577873253822,2.205970414108038
1789927434433012500,4.602012451171875,-2.671758372342586,-2.5579031528428193,2.4568881256937978
1789927434442992400,4.611992431640625,-3.474849363195896,-2.315017064282298,2.9010882292374967
1789927434452972300,4.62197216796875,-4.142134291765093,-2.116860344286263,3.2819276212438937
1789927434462952400,4.631952392578125,-4.61741897714138,-1.9969389566153286,3.500769401872158
1789927434472932400,4.641932373046875,-5.07332033213377,-1.9381904150485991,3.64834305883944
1789927434482913500,4.65191357421875,-5.455130030477046,-1.9661729392126202,3.6827149917796254
1789927434492893400,4.6618935546875,-5.641098592290282,-1.8793267226696013,3.6354248328164216
1789927434502873300,4.671873291015625,-5.610859521371125,-1.8001330667063593,3.645581192910671
1789927434512853500,4.681853515625,-5.22723955873549,-1.7605089123263955,3.8154113976106045
1789927434522833400,4.69183349609375,-4.52155680271089,-1.788097176475823,4.081750257951021
1789927434532813300,4.701813232421875,-3.6450989623516796,-1.9047247832983731,4.2765027224615215
1789927434542793500,4.71179345703125,-2.9043425548583266,-2.0799358042538163,4.233195787915587
1789927434552773400,4.7217734375,-2.3821523259222506,-2.1631506785571575,3.930464010201394
1789927434562753500,4.73175341796875,-1.9541729970782995,-2.1309192647770048,3.30583485879302
1789927434572733400,4.7417333984375,-1.5807669699430464,-2.1780609551802277,2.266833902002126
1789927434582713300,4.75171337890625,-1.3431909704893827,-2.2239330640390516,0.9128530958205461
1789927434592693200,4.761693359375,-1.4567898771405219,-1.9813082567632196,-0.7389272923700511
1789927434602673400,4.77167333984375,-1.7836925117760896,-1.5462825165390968,-2.087978387064487
1789927434612653600,4.781653564453125,-2.0231243682295084,-1.649760134409368,-2.806246922287345
1789927434622633500,4.791633544921875,-1.8635732732206582,-2.1385823467507956,-2.7158430132627487
1789927434632613400,4.80161328125,-1.188314881554246,-1.8336548125579952,-2.1228414645224807
1789927434642593300,4.81159326171875,0.13352525787055491,-1.1324909952625632,-1.7757155415475367
1789927434652573400,4.821573486328125,2.019986654725671,-0.9436892558500171,-1.8112164785176514
1789927434662553300,4.83155322265625,4.878475220903754,-1.5429302835017442,-1.8461802398711442
1789927434672533500,4.841533447265625,8.028955267333984,-2.573775552496314,-1.7496425042666495
1789927434682513400,4.851513427734375,10.735659865373373,-3.504939088772237,-2.0212479068331417
1789927434692494300,4.861494384765625,12.351730788409709,-4.026516446506977,-2.8548519632413982
1789927434702474200,4.87147412109375,12.224940976274013,-3.948815951710939,-3.4581469424590465
1789927434712454400,4.881454345703125,10.536093570840357,-3.2153812654078004,-3.713271458084881
1789927434722434600,4.8914345703125,7.911836369863152,-2.3243965947851537,-3.750077047912776
1789927434732414500,4.90141455078125,4.942380999103189,-1.8158441383183002,-3.7708006869897246
1789927434742394400,4.911394287109375,2.1053297732293603,-1.2133454240448773,-3.981017262613773
1789927434752374500,4.92137451171875,-0.3092237700819969,-0.6573566781423985,-4.2700338187083595
1789927434762354400,4.9313544921875,-2.15939746350348,-0.3386320892654359,-4.716645659568906
1789927434772334300,4.941334228515625,-3.4507372507244347,-0.19647768086791037,-5.2565574231565
1789927434782314200,4.951314208984375,-4.1963171328514814,-0.21918124171569942,-5.584031135678291
1789927434792294400,4.96129443359375,-4.381584852918982,-0.4360162125661969,-5.575002610570192
1789927434802274600,4.971274658203125,-3.9869583431005475,-0.798063079688698,-5.181156437474489
1789927434812254500,4.98125439453125,-3.1772751143753526,-1.2940838252320885,-4.6827141638726
1789927434822234400,4.991234375,-2.342729247072339,-1.8902645885303615,-4.09421051107347
1789927434832214300,5.00121435546875,-1.613997039371729,-2.5266157419145108,-3.554483456403017
1789927434842194400,5.0111943359375,-0.9526666352927684,-2.9395453856647014,-3.2167896709010004
1789927434852174600,5.021174560546875,-0.6700450409322977,-3.214991973829269,-3.220794522628188
1789927434862154500,5.031154541015625,-0.6862719531118869,-3.5023107860952614,-3.438420497725904
1789927434872134400,5.041134521484375,-0.49939679784774776,-3.6918677277892824,-3.7873315505519507
1789927434882114300,5.0511142578125,-0.23949498481750486,-3.6326743650645015,-4.1243247865691774
1789927434892094500,5.061094482421875,-0.03273147225677967,-3.3622657710671424,-4.170881955082715
1789927434902074400,5.071074462890625,0.17588205208480356,-3.066002604845166,-4.138826774652302
1789927434912055600,5.0810556640625,0.40576866607964035,-2.7197674932301044,-4.013519310028851
1789927434922035500,5.091035400390625,1.0628174473166465,-2.320852054046094,-3.54562824203521
1789927434932015400,5.101015380859375,1.7656892375737427,-2.200508787701279,-3.0201436477288603
1789927434941995300,5.110995361328125,2.2799591949045657,-2.4759029150262473,-2.4332043216370045
1789927434951975400,5.120975341796875,2.6928081746339796,-2.7715751296177507,-1.8891364612832664
1789927434961955300,5.130955322265625,3.209125127622485,-2.9536379161641,-1.6832767656944692
1789927434971935500,5.140935546875,4.106829169628024,-3.0336975413069127,-1.5964957233421504
1789927434981915400,5.150915283203125,5.391224836799502,-3.195656574240327,-1.4512306355781852
1789927434991895600,5.1608955078125,6.440766038435697,-3.3720147194042798,-1.5175630564026534
1789927435001875500,5.17087548828125,7.1794707740962505,-3.4452713865339755,-1.5781189396522939
1789927435011855400,5.18085546875,7.446511937487125,-3.3798300693303345,-1.525824542661011
1789927435021835300,5.190835205078125,7.037434877511859,-3.0745804635763165,-1.166392534212023
1789927435031815400,5.2008154296875,6.044277826398611,-2.789286435136199,-0.5571078130602837
1789927435041795600,5.210795654296875,4.6367157982856035,-2.5239786714091896,-0.04104863422513008
1789927435051775500,5.220775390625,3.062989394503832,-2.0756965592488643,0.43273295311182736
1789927435061755400,5.23075537109375,1.6782003392130136,-1.717545384390652,0.7767829757727682
1789927435071735300,5.2407353515625,0.5710749636143445,-1.586004870596528,0.9384906642936169
1789927435081715500,5.250715576171875,-0.3834650643348694,-1.5421914478331804,1.0137537028096615
1789927435091695400,5.2606953125,-1.1094763226389883,-1.4931412934601307,1.0454160845302045
1789927435101675500,5.270675537109375,-1.5962246513158083,-1.5153165926501153,1.0304571464598178
1789927435111655400,5.280655517578125,-1.8866443522065877,-1.5545236906617879,0.9687835112266242
1789927435121635300,5.29063525390625,-2.013165868794918,-1.5900950625196097,0.8486775607690215
1789927435131616300,5.3006162109375,-2.040162012270093,-1.7044050400495527,0.7634586531668901
1789927435141596400,5.310596435546875,-1.9705062922418117,-1.7216750315412879,0.7579812446691095
1789927435151576600,5.32057666015625,-1.9584768317520618,-1.7211831563711166,0.78703724328354
1789927435161556500,5.330556396484375,-1.9856524234473705,-1.7792776179432868,0.8045674931466579
1789927435171536400,5.340536376953125,-2.019115717110038,-1.7628396933615207,0.854944804470241
1789927435181516300,5.350516357421875,-2.1018045217126606,-1.658415442290902,1.065748240071535
1789927435191496400,5.360496337890625,-2.2593232341110707,-1.548435895180702,1.3703824904061852
1789927435201476400,5.370476318359375,-2.599361244651675,-1.4060121683225035,1.5305919031932949
1789927435211456300,5.380456298828125,-3.0750048264682293,-1.261059215247631,1.5252949658289552
1789927435221436400,5.3904365234375,-3.6470968581706282,-1.1022829040035604,1.4572430277355015
1789927435231416600,5.40041650390625,-4.230290129601955,-0.9097630208507179,1.4024213042236864
1789927435241396500,5.410396484375,-4.611317737656831,-0.8026227888196706,1.4020898803122341
1789927435251376400,5.42037646484375,-4.690024194625019,-0.8104194340452552,1.494263283227384
1789927435261356300,5.430356201171875,-4.444834213036298,-0.8862111726105213,1.6187445261597633
1789927435271336200,5.440336181640625,-3.9330882212251423,-1.0205112142458557,1.6840195468857884
1789927435281316600,5.450316650390625,-3.3061563458323477,-1.11901308953017,1.6832514851227403
1789927435291296500,5.460296630859375,-2.599834707382321,-1.1701990868881345,1.7297414336189627
1789927435301276400,5.4702763671875,-1.876184917512536,-1.202462941633165,1.7543223326459525
1789927435311256300,5.48025634765625,-1.0725813009619711,-1.0726599191561341,1.7031933261722325
1789927435321236500,5.490236572265625,-0.48021746560335155,-0.866157395619154,1.75623444987759
1789927435331216400,5.50021630859375,-0.5072568636983633,-0.6881707724705338,1.807530191220343
1789927435341196500,5.510196533203125,-0.7581541170179843,-0.42347208055257796,1.9037366490438579
1789927435351177500,5.520177490234375,-0.6104325760126114,0.1361275493234396,2.1529640694551166
1789927435361157400,5.530157470703125,0.09198796334564685,0.9106894880458712,2.4638103261724114
1789927435371138300,5.54013818359375,1.1906447858065365,1.50446289794147,2.5711060410261153
1789927435381118500,5.550118408203125,2.547621705064177,1.838181934593618,2.563971074579656
1789927435391098600,5.5600986328125,3.7874101687461135,2.0431421971246597,2.5466937765643
1789927435401078500,5.57007861328125,4.668313882598281,2.1654648007184267,2.2912761232107877
1789927435411058400,5.580058349609375,5.322029720020294,2.2313842568278313,1.9038725503832101
1789927435421038300,5.590038330078125,5.807382210424542,2.1791052035361527,1.3384167418248951
1789927435431018200,5.600018310546875,5.83545445869863,1.9198194765776395,0.6427386624641717
1789927435440998400,5.609998291015625,5.533671067750453,1.6152052461177109,-0.2421746888881549
1789927435450978600,5.619978515625,5.037916425797343,1.3503726986870168,-1.2248201732613146
1789927435460958500,5.62995849609375,4.26241662170291,1.0692577094972133,-2.225466849477589
1789927435470938400,5.6399384765625,3.162087482115626,0.8333806229159235,-3.0875398983925577
1789927435480918500,5.64991845703125,2.038238350731134,0.6500409483015537,-3.525025306728482
1789927435490898400,5.6598984375,1.015598600023985,0.441883351033926,-3.765825821186602
1789927435500878300,5.66987841796875,0.09374912779927254,0.3944745341271162,-3.7992423530980943
1789927435510858500,5.6798583984375,-0.7680483190447092,0.5542448248445987,-3.66695598937273
1789927435520838400,5.68983837890625,-1.6170681173801422,0.6860322991371154,-3.562267826668918
1789927435530818600,5.699818603515625,-2.442836803987622,0.7484662512183189,-3.5535368232026694
1789927435540798500,5.709798583984375,-3.0717969703376293,0.740179776649177,-3.652918111670017
1789927435550778400,5.7197783203125,-3.354147346541285,0.6596560411259531,-3.711844347891211
1789927435560758300,5.72975830078125,-3.4859377434432504,0.5746048913061619,-3.6615351333677766
1789927435570738400,5.739738525390625,-3.5290935790807008,0.31945641028285027,-3.723480717410147
1789927435580719400,5.74971923828125,-3.44867564201951,-0.10334083974808454,-4.059947006943822
1789927435590699500,5.759699462890625,-3.2701042047202584,-0.6472305670559406,-4.441958657599986
1789927435600679400,5.769679443359375,-3.037392011910677,-1.1833175116583705,-4.694657115122675
1789927435610659300,5.779659423828125,-2.6388094579428434,-1.6080422226205466,-4.7035368794098495
1789927435620639200,5.78963916015625,-2.212346963402629,-2.0203902670904994,-4.5130981864452355
1789927435630619600,5.79961962890625,-1.8336486750781535,-2.5299428405106066,-4.542990051361918
1789927435640599600,5.809599609375,-1.334950965410471,-2.9786133674666284,-4.504994082705676
1789927435650579500,5.819579345703125,-0.7623620901018381,-3.161338417313993,-4.139021128180623
1789927435660559400,5.829559326171875,-0.16601298449933527,-3.2513997965112327,-3.643430736878514
1789927435670539300,5.839539306640625,0.3339589828878641,-3.1385183904796836,-3.1732030426308513
1789927435680519400,5.84951953125,0.7529904506444931,-2.820116165424883,-2.723520123761892
1789927435690499300,5.859499267578125,1.1283183857530354,-2.5069623624175787,-2.4772037684917447
1789927435700479500,5.8694794921875,1.5161854844391345,-2.1901687416031956,-2.4069752170115706
1789927435710459400,5.87945947265625,1.8331307886838912,-1.8138322139739989,-2.3531217540100213
1789927435720439600,5.889439453125,1.8105261581659315,-1.3950383543655276,-2.1842846520006653
1789927435730419500,5.89941943359375,1.8192407950192688,-1.035046520076692,-1.8620678370937704
1789927435740399400,5.9093994140625,1.985455439570546,-0.745543641769886,-1.2273480843037365
1789927435750379300,5.919379150390625,2.007971807283163,-0.4544947030648589,-0.31106779051348565
1789927435760359400,5.929359375,1.9281985978662965,-0.15179039787948131,0.7061218780942261
1789927435770339600,5.939339599609375,1.7947464052319526,0.16983780348449945,1.681765338218212
1789927435780319500,5.949319580078125,1.8144751880526542,0.45408992165625095,2.4988074052736162
1789927435790299400,5.95929931640625,1.9357126267582176,0.6392126802951097,3.178205088701844
1789927435800279300,5.969279296875,2.0801853951007128,0.7701862078562378,3.543163897748291
1789927435810260500,5.979260498046875,2.0472008248656985,0.8226257124066353,3.648018649190664
1789927435820240400,5.989240478515625,1.7725100235044955,0.7836673284590244,3.554108485610783
1789927435830220500,5.999220458984375,1.417333480542898,0.665477002364397,3.46843569676131
1789927435840200400,6.009200439453125,1.1265776795655489,0.489357049870491,3.4552754786759614
1789927435850180400,6.019180419921875,0.8080255246460437,0.33942426255643365,3.374942881810665
1789927435860160300,6.02916015625,0.23187808007299898,0.23241204081922767,3.0716414875149725
1789927435870140400,6.039140380859375,-0.605071341240406,0.15608546472489834,2.7748922913417218
1789927435880120600,6.04912060546875,-1.5248042597025633,0.13116203587055206,2.565418643039465
1789927435890100500,6.0591005859375,-2.443092240053415,0.16967676770389079,2.425629210207611
1789927435900080400,6.069080322265625,-3.1678871083050963,0.1258218438863754,2.34681578573361
1789927435910060300,6.079060302734375,-3.5531542536258693,0.16225713909715414,2.34766962608397
1789927435920040400,6.08904052734375,-3.585191898399591,0.20711101082414388,2.425903935495764
1789927435930020400,6.099020263671875,-3.4336171890974043,0.1695505109757185,2.525770815522969
1789927435940000500,6.10900048828125,-3.257898803141713,0.17360417028069494,2.675026726488769
1789927435949980400,6.11898046875,-3.0552333735495805,0.18454817362129688,3.0043089497372506
1789927435959960600,6.128960693359375,-2.6652567353636023,0.14563289816305042,3.4708529870361087
1789927435969940500,6.1389404296875,-2.029083568894863,0.07700184500738978,3.8797535214006897
1789927435979920400,6.14892041015625,-1.455833014807105,-0.01605097109079361,4.161722789332271
1789927435989900300,6.158900390625,-0.9821171861827372,-0.08128156815320253,4.4446810683012
1789927435999880200,6.168880126953125,-0.42848494027853007,-0.03965586469247937,4.835569852896034
1789927436009860600,6.178860595703125,-0.11965922960340976,0.0322280527792871,5.361611204302311
1789927436019840500,6.188840576171875,-0.1870306380867958,0.1464098738849163,5.65568708961308
1789927436029820400,6.1988203125,-0.47157706303000446,0.3537580544658005,5.739170843985677
1789927436039800300,6.20880029296875,-0.7555430577367543,0.5875128881961107,5.817976669675112
1789927436049781200,6.21878125,-0.7849211279124021,0.884535056091845,5.91870966501236
1789927436059761400,6.228761474609375,0.03294599179029464,1.1886040737591683,6.041219607871771
1789927436069741600,6.238741455078125,1.3581073845922946,1.483790989051759,5.875920909121632
1789927436079721500,6.248721435546875,2.6738538833171126,1.5437025830484925,5.619416921836137
1789927436089701400,6.258701416015625,4.202798311564326,1.278131638340652,5.614881031972169
1789927436099681300,6.268681396484375,5.341307251942157,0.7938279263369739,5.615360339921713
1789927436109661400,6.278661376953125,5.782201591938733,0.27991964192539454,5.352689646700024
1789927436119641300,6.288641357421875,5.524001906651258,-0.18068842945322394,4.651787695211172
1789927436129621500,6.29862158203125,4.736919801312685,-0.47607349766641854,3.7035730708912014
1789927436139601400,6.308601318359375,3.8718262355327604,-0.6119172616124153,2.7855326355606316
1789927436149581300,6.318581298828125,3.4498552071928974,-0.7703811459064484,1.8949793420925736
1789927436159561500,6.3285615234375,3.388601989328861,-0.8742220441311598,0.9497915182478726
1789927436169541400,6.338541259765625,3.537090423053503,-0.8964566722929477,0.052894116450101135
1789927436179521300,6.348521240234375,3.7100235622048374,-0.9841536604464054,-0.6084864103808999
1789927436189501400,6.35850146484375,3.5426451345711945,-1.021683034504205,-0.9016212885145097
1789927436199481600,6.368481689453125,2.947513003543019,-1.0100156853251159,-0.9898132205780595
1789927436209461500,6.37846142578125,1.8966729942679403,-0.9439226262144744,-1.0384754716120659
1789927436219441400,6.38844140625,0.6469786381214857,-0.7694687072366475,-0.9990930900987237
1789927436229421300,6.39842138671875,-0.5605097304582596,-0.5767234908953309,-0.8927744766488671
1789927436239401200,6.408401123046875,-1.761294802007079,-0.4217833968132734,-0.7734867107063531
1789927436249381400,6.41838134765625,-2.7951334075987337,-0.2775510130979121,-0.6533209928855299
1789927436259361500,6.428361572265625,-3.3922336238294837,-0.14073402020558715,-0.5978698123637587
1789927436269341400,6.438341552734375,-3.5307711569041014,-0.024442221208661793,-0.5884495845243335
1789927436279321300,6.4483212890625,-3.484084809052944,0.2091898629248142,-0.5750656406857073
1789927436289301500,6.458301513671875,-3.3715047240555283,0.375421020219475,-0.73719959179461
1789927436299281400,6.468281494140625,-3.1349481307774782,0.41947833474129437,-0.8128974415313452
1789927436309262600,6.4782626953125,-2.4315736516952513,0.4399715260632336,-0.8499787795607
1789927436319242500,6.488242431640625,-1.3347130650013685,0.3849403975844383,-1.0769016483791172
1789927436329222400,6.498222412109375,-0.11118658481240272,0.07899404173791408,-1.762996052967012
1789927436339202300,6.508202392578125,0.726585843321681,-0.3055341217838228,-2.6671888724699615
1789927436349182500,6.518182373046875,1.039291610300541,-0.723931821681559,-3.5306349633038043
1789927436359162400,6.528162353515625,0.6873159092068671,-1.0854254388354718,-4.412909380987286
1789927436369145000,6.53814501953125,-0.2307271564722061,-1.3974882317356765,-5.126709392493963
1789927436379125000,6.548125,-1.306677057084441,-1.5831033039361238,-5.454730217504501
1789927436389105200,6.558105224609375,-2.1732138074100016,-1.6752911737680434,-5.531731624120473
1789927436399085300,6.568085205078125,-2.6873382187902926,-1.7693752326101064,-5.445660775864124
1789927436409065200,6.578065185546875,-3.021946020975709,-1.8054679979935286,-5.088410349237918
1789927436419045000,6.588045166015625,-3.04119081967175,-1.664340740686655,-4.436554460468888
1789927436429025300,6.598025390625,-2.422625790607929,-1.350189743335545,-3.5931191842675205
1789927436439005200,6.608005126953125,-1.163467440545559,-0.9702642513036728,-2.6402526424884796
1789927436448985000,6.617985107421875,0.3941214829057455,-0.5231973601520061,-1.547951034273207
1789927436458965000,6.627965087890625,2.1498481293916702,-0.027333412605524063,-0.5776708547480404
1789927436468945200,6.637945068359375,3.7569326128959655,0.34816520289480685,-0.042669221164286134
1789927436478925300,6.64792529296875,4.737826394763589,0.5248538951873779,-0.002505553080141544
1789927436488905200,6.6579052734375,4.978736507076024,0.3820730254545808,-0.17689064460545778
1789927436498885000,6.667885009765625,4.506640973129868,0.15041706369966268,-0.3256825913213193
1789927436508865000,6.677864990234375,3.909912512820959,0.0007686462849378586,-0.27670111827030774
1789927436518845200,6.68784521484375,3.5909488544911143,-0.04602525359392166,0.11646963978186249
1789927436528825300,6.697825439453125,3.618583295869827,-0.013081892152130603,0.6221672913394868
1789927436538805200,6.70780517578125,3.765018304196,-0.0003805237501859665,1.1816582001440226
1789927436548785200,6.71778515625,3.8175381805062294,0.004265256229043007,1.7053877674765885
1789927436558766000,6.72776611328125,3.4460669208258388,0.1284030925512314,2.102960559879988
1789927436568746000,6.73774609375,2.6399627196311948,0.21781126853674648,2.236292779396474
1789927436578726100,6.74772607421875,1.618129609131813,0.18160218329727648,2.2182382133983074
1789927436588706300,6.757706298828125,0.5928378826111554,0.12287205417007208,2.3105044091634452
1789927436598686200,6.767686279296875,-0.34003801054060456,0.11143588339835404,2.558648710513115
1789927436608666000,6.777666015625,-1.2585574615597723,0.06311112069040536,2.869037432721257
1789927436618646300,6.787646240234375,-2.112557386395335,0.031989713978767396,3.2705478568345305
1789927436628626200,6.797626220703125,-2.8066239389061924,-0.006228080734610557,3.72424965595603
1789927436638606000,6.807606201171875,-3.26040289491713,-0.11302081450223922,4.131759612745046
1789927436648586200,6.817586181640625,-3.5658050608843563,-0.27150749514997,4.499417743878066
1789927436658566100,6.827566162109375,-3.861753754329681,-0.3199184748366475,4.962163557937741
1789927436668546300,6.83754638671875,-4.093348925808072,-0.3913330212309956,5.472553458964824
1789927436678526200,6.847526123046875,-4.176918604898453,-0.6299763576552272,5.89095598116815
1789927436688506000,6.857506103515625,-4.1544495834589,-1.1266235645338891,6.069920801699161
1789927436698486000,6.867486083984375,-4.085096645769477,-1.7656635186105964,5.936614739537239
1789927436708466200,6.877466064453125,-4.154661180382967,-2.1769678992465136,5.825472578388452
1789927436718446300,6.8874462890625,-3.6308208461523055,-2.284484855635464,5.622035579901933
1789927436728426200,6.89742626953125,-2.6554934662401672,-2.1733219439595937,5.512682055735588
1789927436738406100,6.90740625,-1.4709727162718773,-1.9119982814326881,5.481720515760779
1789927436748386000,6.917385986328125,-0.24830197612941263,-1.5918874988943337,5.241799414485692
1789927436758366200,6.9273662109375,0.7606511945307254,-1.1027081436783075,4.885646135446429
1789927436768346000,6.93734619140625,1.1740116309136153,-0.35154344715625047,4.681598311585188
1789927436778326300,6.947326171875,1.2056336806237697,-0.2693821735590696,4.906566758400201
1789927436788306200,6.95730615234375,1.0476496888011693,-0.7990539904221892,5.274883353441953
1789927436798286000,6.9672861328125,0.8485597796082496,-1.149382801091671,5.003399239167571
1789927436808266200,6.977266357421875,1.1261661761552095,-1.3934557613492011,4.083286089216172
1789927436818247200,6.9872470703125,2.3984376902908084,-1.7510361505821346,2.9693285295099017
1789927436828227300,6.997227294921875,4.635311776706576,-2.27030873850584,1.8044205347672104
1789927436838207200,7.007207275390625,6.908519159263372,-2.8569696860477327,0.9608212271105497
1789927436848187100,7.017187255859375,8.5140488145411,-3.2192917168498036,0.8388214987955986
1789927436858167300,7.027167236328125,8.839443382701278,-3.316870047548413,1.3076982168257236
1789927436868147200,7.037147216796875,7.853032298716903,-3.259577257747948,1.841270694389194
1789927436878127000,7.047127197265625,6.109824942064285,-3.08760098093003,2.0064405060626567
1789927436888107000,7.05710693359375,4.081913339558244,-2.7311896354764698,1.636270538239181
1789927436898087200,7.067087158203125,2.3189310228556392,-2.5159932256132365,0.9546421731494367
1789927436908067300,7.0770673828125,1.1215221497416497,-2.439763680152595,0.24045056850928812
1789927436918047200,7.087047119140625,0.2078834565013647,-2.230811425375938,-0.3741087685771286
1789927436928027100,7.097027099609375,-0.35312604017257687,-1.9874980513140559,-0.7605061600368469
1789927436938007000,7.107007080078125,-0.5788496892690658,-1.7836606553331016,-0.8824925174135714
1789927436947987200,7.1169873046875,-0.5705991627961396,-1.6059318063378334,-0.7943542882986366
1789927436957967400,7.12696728515625,-0.6168026955664158,-1.4141785236433146,-0.4966554632503539
1789927436967947300,7.136947265625,-0.8286813591837883,-1.2103130706116556,-0.1718837031636387
1789927436977927200,7.14692724609375,-1.2625041533589363,-0.9760144853934645,0.09114362147599459
1789927436987907000,7.156906982421875,-1.8119792795836924,-0.7549807476788759,0.2879902817867696
1789927436997887200,7.16688720703125,-2.345664716002345,-0.5803539563521742,0.314392916348204
1789927437007867100,7.1768671875,-2.7242396702080964,-0.5081643339321017,0.12162409993559122
1789927437017847000,7.186846923828125,-2.8227029670476913,-0.5435545040041208,-0.12333923329040407
1789927437027827200,7.1968271484375,-2.630452548485994,-0.678824851976335,-0.5346203791812062
1789927437037807000,7.20680712890625,-2.2928426418751475,-0.7898819651901722,-1.236995325832069
1789927437047787300,7.216787353515625,-1.9517185896635054,-0.9244570243746042,-1.9706075606591997
1789927437057767200,7.22676708984375,-1.4631395384281873,-1.1489458709791303,-2.5090946982711553
1789927437067747000,7.2367470703125,-1.1027730256080628,-1.32250386403054,-2.8022990614444017
1789927437077727000,7.24672705078125,-0.8528226977497338,-1.372434016108513,-2.808849798262119
1789927437087707400,7.256707275390625,-0.7759457942962646,-1.3356161513209341,-2.6010166106432675
1789927437097688300,7.266688232421875,-0.8286416116952896,-1.2479679707452653,-2.3267979568384587
1789927437107668200,7.276668212890625,-0.8362292903453111,-1.1167463136419653,-2.2605254495076834
1789927437117648100,7.286648193359375,-0.8531272336542606,-0.8978171469911932,-2.366551144425571
1789927437127628000,7.2966279296875,-1.032446858972311,-0.6648217533260583,-2.7492154137715694
1789927437137608000,7.30660791015625,-1.43836750074327,-0.7212126258507371,-3.1322654675647614
1789927437147588400,7.31658837890625,-1.8881775531232357,-0.9342676397711038,-3.0390707587778567
1789927437157568300,7.326568359375,-2.1539128946125508,-0.9250687265321612,-2.746859498295188
1789927437167548200,7.336548095703125,-2.16683842715919,-0.6686845662340521,-2.3811181605689224
1789927437177528000,7.346528076171875,-1.58283091673553,-0.3103995358631015,-1.6136403348885475
1789927437187508200,7.35650830078125,-0.39906712261438365,0.03896656725406646,-0.5024677297256886
1789927437197488000,7.366488037109375,1.0379980633586645,0.3477569143548608,0.7036904131636023
1789927437207468300,7.37646826171875,2.9918028116464614,0.4710653141155839,1.900938104366511
1789927437217448200,7.3864482421875,4.8814480992347,0.35379531773626804,2.8061726880073548
1789927437227428000,7.396427978515625,6.211603647062182,0.16869447866827247,3.2091315573632717
1789927437237408300,7.406408203125,6.839165637052059,-0.04311258101761341,3.147164053750038
1789927437247388200,7.41638818359375,6.991944461447,-0.28979426246881484,2.8867858553797006
1789927437257368000,7.4263681640625,6.696203857794404,-0.4789715571954846,2.7990964660108086
1789927437267348000,7.436347900390625,5.82133650149703,-0.47514586142748594,2.901982839989662
1789927437277328100,7.446328125,4.560265595811606,-0.3441480762079358,3.026045272988081
1789927437287308300,7.456308349609375,3.198136700618267,-0.16757979542464016,3.1883979814141985
1789927437297288200,7.4662880859375,1.786701630464196,0.0176481771543622,3.2754733305379746
1789927437307268000,7.47626806640625,0.6587701982021331,0.08389496552199124,3.252465964438021
1789927437317248000,7.486248046875,-0.5102858561307192,0.15550474222749472,3.286641790284216
1789927437327228200,7.496228271484375,-1.485147372096777,0.41441725195944307,3.113969932417571
1789927437337208300,7.506208251953125,-2.161638520428538,0.3783683257177472,2.8014187714785335
1789927437347188200,7.516188232421875,-2.546113638588786,0.32756372889280316,2.518908820798993
1789927437357168000,7.526168212890625,-2.721914442130923,0.3693757487058639,2.280351262962073
1789927437367145200,7.536145263671875,-2.6315596329450606,0.2785436773970723,2.074495951287448
1789927437377126100,7.546126220703125,-2.446599371391535,0.13675912522524594,2.142600496350974
1789927437387106300,7.556106201171875,-2.2500462871998548,-0.009846563492715359,2.515188338971138
1789927437397086500,7.56608642578125,-2.2640222055822607,-0.16954671158343554,3.0010075701043006
1789927437407066400,7.57606640625,-2.3215736463189125,-0.3040665334492922,3.659548927986622
1789927437417046300,7.58604638671875,-2.3847820899039505,-0.41469460759609933,4.427509568747878
1789927437427026200,7.596026123046875,-2.5968787801861763,-0.6509951802864671,4.9945560074985025
1789927437437006300,7.60600634765625,-2.8795892218738794,-0.9550140752017497,5.292441221964359
1789927437446986500,7.615986572265625,-2.955361378955841,-1.3151365501329302,5.446324208208918
1789927437456966400,7.62596630859375,-2.612826290902495,-1.780448123027384,5.530016636896133
1789927437466946300,7.6359462890625,-1.9006933358252047,-2.2220883129552007,5.495417617201805
1789927437476926200,7.64592626953125,-1.2293810514360666,-2.5739438948005438,5.306014989286661
1789927437486906400,7.65590625,-0.621418080407381,-2.768142817081511,5.079350259947777
1789927437496886300,7.66588623046875,0.01971300072968006,-2.8468633025750516,4.978901342248916
1789927437506866200,7.6758662109375,0.55981882558465,-2.777462434090674,5.025387199091911
1789927437516846300,7.685846435546875,0.8327379410982132,-2.587056182090938,5.239359035596252
1789927437526826500,7.695826416015625,0.7436626503288746,-2.4746064454749224,5.797108653691411
1789927437536806400,7.705806396484375,0.9926467635035514,-2.6360095980912446,6.61948535977304
1789927437546786300,7.715786376953125,1.8182547065913677,-2.9095813322946427,7.077552368366718
1789927437556766200,7.72576611328125,3.2427070792287584,-2.99023863106966,7.035569668161869
1789927437566746000,7.73574609375,5.100920871242881,-3.088908556397259,6.630892304450273
1789927437576726500,7.7457265625,7.058945867574215,-3.5646892085969446,6.118558283618092
1789927437586706400,7.75570654296875,8.406352994453906,-4.278028616854548,5.347593784865737
1789927437596686300,7.765686279296875,8.769490141031145,-5.151069926768541,4.060933387632668
1789927437606666200,7.775666259765625,8.345753856584428,-5.667103386640548,2.655570915390551
1789927437616646400,7.785646484375,6.932765127247571,-5.596980633622407,1.1744815865129232
1789927437626626300,7.795626220703125,5.205121250429749,-5.434425680622458,-0.21243673589155077
1789927437636606200,7.805606201171875,3.5026351957440376,-4.976099144309758,-1.0104614563312382
1789927437646586400,7.81558642578125,2.1626059041559693,-4.396205791206658,-1.6609483217693863
1789927437656566300,7.825566162109375,1.199793722423911,-3.816995451931655,-2.2612280448190867
1789927437666547200,7.835547119140625,0.6350012000799179,-3.3495866144970057,-2.70755069347471
1789927437676527400,7.84552734375,0.4242278673559427,-3.007959873460233,-2.950400249417126
1789927437686507300,7.85550732421875,0.6457803682476282,-2.7344094743058083,-2.9774814408272503
1789927437696487400,7.8654873046875,0.9900000483870506,-2.5623273990258575,-2.7638798989400266
1789927437706467300,7.87546728515625,1.402021929642558,-2.3849308507248757,-2.3184715886503455
1789927437716447200,7.885447265625,1.7545365599185228,-2.2661551259577273,-1.7458182698033748
1789927437726427400,7.895427490234375,1.5877525910466908,-2.1534712883248925,-1.1696605960972606
1789927437736407300,7.9054072265625,1.0747422783881426,-2.0290470362767574,-0.6097028734985739
1789927437746387200,7.91538720703125,0.47303661418855186,-1.8853993205815553,0.032609380247071384
1789927437756367400,7.925367431640625,-0.1637602371364832,-1.7559186619266867,0.6601487200137227
1789927437766347500,7.935347412109375,-0.7189297756105661,-1.6818237904071807,1.168479204292968
1789927437776327400,7.945327392578125,-1.0877712713092564,-1.681884872944653,1.504744637492299
1789927437786307300,7.955307373046875,-1.1696166108250616,-1.7023603824794291,1.5792995277389883
1789927437796287200,7.965287353515625,-1.0129156445503233,-1.6638438970804212,1.4395761458806693
1789927437806267100,7.97526708984375,-0.7213660628467797,-1.61020875300467,1.0259580814749
1789927437816247300,7.985247314453125,-0.4132043690383434,-1.568619143770635,0.43055188274569806
1789927437826227500,7.9952275390625,-0.2507224812746048,-1.4888070636481046,-0.010407623450068057
1789927437836207400,8.005207275390624,-0.18779402367472647,-1.3980612093180418,-0.18341157080680132
1789927437846187300,8.015187255859376,-0.2906143466800451,-1.258386488907039,-0.13048996356157586
1789927437856167400,8.02516748046875,-0.6258896728634834,-1.2135530754461883,-0.03211338145763148
1789927437866147300,8.035147216796876,-1.1511819594681263,-1.2533271596908568,0.011305146536882965
1789927437876127200,8.045127197265625,-1.6594284187257289,-1.3628054792806505,-0.10371233994159847
1789927437886107400,8.055107421875,-2.087364492949843,-1.526219971719384,-0.3073956778720021
1789927437896087300,8.06508740234375,-2.3070003465652467,-1.7509689305648206,-0.548318211274594
1789927437906067500,8.0750673828125,-2.080057969328761,-1.8975290265753864,-0.8170959161344915
1789927437916047400,8.08504736328125,-1.4908108046859503,-1.9277271809622645,-0.993820775718987
1789927437926027300,8.09502734375,-0.767457367414236,-1.8920427041187882,-1.140255857110396
1789927437936007200,8.105007080078124,-0.2630424491435289,-1.815163754838705,-1.2375704953715205
1789927437945987300,8.1149873046875,-0.12722060476839542,-1.782283521761,-1.4078659794956445
1789927437955967500,8.124967529296875,-0.200350138387084,-1.568279828813672,-1.6373589179977774
1789927437965948400,8.134948486328126,-0.22551263669431207,-1.1435197542771696,-1.8497488921381533
1789927437975928300,8.14492822265625,-0.4714367777764797,-0.6303761706277727,-1.8484005462691186
1789927437985908200,8.154908203125,-0.8483423374652862,-0.22006869207471608,-1.7059715587139128
1789927437995888000,8.16488818359375,-1.0349100342154502,0.06345335825681686,-1.466406577400118
1789927438005868500,8.17486865234375,-0.8913421057581901,0.13275631932467222,-1.2446895335964858
1789927438015848400,8.184848388671876,-0.21418635603785513,0.2977422988638282,-0.9517562424495816
1789927438025828400,8.194828369140625,1.0719798279374837,0.6185232357487083,-0.25971598986824973
1789927438035808300,8.204808349609374,2.7844080154448747,0.7646554617360234,0.619157734259963
1789927438045788400,8.214788330078125,4.247323097467422,0.6281500190109014,1.3747626051865518
1789927438055768300,8.224768310546875,5.186552743560076,0.44373482411950826,2.0852274809211493
1789927438065748500,8.23474853515625,5.330318824937939,0.33835838689059017,2.657411282560229
1789927438075728400,8.244728271484375,4.735569555747508,0.30893589305132624,2.8960554957672953
1789927438085708300,8.254708251953126,3.532934472417831,0.29420798725783825,2.8408877352967856
1789927438095688400,8.2646884765625,2.287413602563739,0.2636249252066016,2.5948233089610935
1789927438105668400,8.27466845703125,1.2511767036586998,0.26866058128625153,2.214449342509359
1789927438115648300,8.284648193359375,0.5433236178576946,0.2595347332835197,1.8014296823881566
1789927438125628200,8.294628173828125,0.08088204744160175,0.34978345174640413,1.3549411756463348
1789927438135608300,8.3046083984375,-0.24175357739925382,0.5256973602741957,1.0222034051164983
1789927438145588500,8.31458837890625,-0.5604904412358999,0.7482397489860654,0.8720211000207811
1789927438155568400,8.324568359375,-0.7351578568339348,0.928927740047872,1.0295990683257579
1789927438165548300,8.33454833984375,-0.6815782423377037,0.9992901470407843,1.2904773251727222
1789927438175528200,8.344528076171875,-0.7173743628621101,1.0253437489688395,1.4000722568795083
1789927438185508400,8.35450830078125,-0.830688607352972,0.9718740245878695,1.3491589389830827
1789927438195488500,8.364488525390625,-0.8188111225545406,0.8557163733646274,1.2192327285178004
1789927438205468400,8.374468505859374,-0.9111071289360523,0.7742477582067251,1.1668162395168096
1789927438215448300,8.3844482421875,-1.1275970857411621,0.7656003413707018,1.249646571481973
1789927438225428200,8.39442822265625,-1.4450485859423874,0.7713613891154527,1.5702574124969542
1789927438235408400,8.404408447265626,-1.8659967009752987,0.7610553914174437,2.002456550993025
1789927438245388300,8.41438818359375,-2.403810030978918,0.7746423104822635,2.545057992056012
1789927438255368200,8.4243681640625,-2.8885931970626113,0.7209902152717113,3.088848642903566
1789927438265348400,8.434348388671875,-3.16277020368278,0.5417972850732505,3.5040412631496785
1789927438275329300,8.444329345703125,-3.317047742202878,0.24338556251525878,4.113842263260484
1789927438285309400,8.454309326171876,-3.350830184817314,-0.1802425853818655,4.817589082786441
1789927438295289300,8.464289306640625,-3.254467075127363,-0.6585901654601096,5.338573443064093
1789927438305269200,8.474269287109376,-2.7382500753819943,-1.105775130033493,5.618868640303611
1789927438315249400,8.48424951171875,-1.6371464442908763,-1.514452523166686,5.785903953588009
1789927438325229300,8.494229248046874,-0.3734054426133632,-1.9190860477365552,5.871568559131026
1789927438335209500,8.50420947265625,0.4160404692471027,-2.310450340888649,5.882091706711053
1789927438345189400,8.514189453125,0.8648176714479923,-2.5739690292418,5.978148526930808
1789927438355169300,8.524169189453126,1.1254162345707417,-2.7313112160295248,6.2468205063939095
1789927438365149400,8.5341494140625,1.222615795084834,-2.857792985129356,6.671922818496823
1789927438375129300,8.54412939453125,1.2894547041267155,-2.9092595529943703,7.00555914530158
1789927438385109500,8.554109619140625,1.5930717402428387,-2.8872470431506634,7.286441787040233
1789927438395089400,8.56408935546875,1.990716721099615,-2.877060580179095,7.539936071115732
1789927438405069300,8.5740693359375,2.6898200987339016,-3.061257748405635,7.2944240179657935
1789927438415049500,8.584049560546875,3.9108226134032007,-3.375789269506931,6.618363077744841
1789927438425029600,8.594029541015624,5.52974308065176,-3.7036885139644142,5.738443114233017
1789927438435009500,8.604009521484375,7.072275304746627,-4.339305800116062,4.355910897958278
1789927438444989400,8.613989501953125,8.232067856171726,-4.963120420271158,2.745430634535849
1789927438454969300,8.62396923828125,8.708634982573985,-5.128510888957977,1.378032274506986
1789927438464949200,8.63394921875,8.454974694281816,-5.121403687301278,0.38677020682748403
1789927438474929700,8.6439296875,7.4949682176202534,-4.924126965010166,-0.2716053843001835
1789927438484909600,8.65390966796875,6.150085640782118,-4.567055986604094,-0.6948820336122066
1789927438494889500,8.663889404296874,4.829351416772604,-4.234708530566096,-0.9496752714570611
1789927438504869400,8.673869384765625,3.605843056762218,-3.8011622152447697,-1.2096093793217093
1789927438514849500,8.683849609375,2.520093062147498,-3.389599475933611,-1.5271270035617053
1789927438524829400,8.693829345703126,1.5976128908038139,-3.0361332440212365,-1.7508952808067202
1789927438534809300,8.703809326171875,0.9178302997112273,-2.7578146075516936,-1.8587671881131826
1789927438544789500,8.71378955078125,0.2978863835096359,-2.5879738814577458,-1.873107409763336
1789927438554769400,8.723769287109375,-0.3971878847390413,-2.472617025223374,-1.7254903520457445
1789927438564749600,8.73374951171875,-1.057045878177881,-2.3762781731918454,-1.4318002511821686
1789927438574729500,8.7437294921875,-1.7214409305244682,-2.383148643483221,-1.12592995624654
1789927438584709400,8.75370947265625,-2.5399615456998346,-2.339998068542778,-0.7480357508465647
1789927438594690600,8.763690673828124,-3.3960704255133867,-2.2545275242671368,-0.3642652007590979
1789927438604670500,8.77367041015625,-4.051201974952221,-2.268205921007693,-0.07307108142971992
1789927438614650400,8.783650390625,-4.388015178227424,-2.3213868915751577,0.1683105208519846
1789927438624630500,8.793630615234376,-4.532698374450207,-2.476955638949573,0.33767920898739245
1789927438634610400,8.8036103515625,-4.504406345945596,-2.687845291529596,0.45773711905218656
1789927438644590300,8.81359033203125,-4.254779258692264,-2.8371526404216882,0.5284095418423413
1789927438654570200,8.8235703125,-3.9769472366958856,-2.953542639096081,0.3885831745335832
1789927438664550700,8.833550537109375,-3.825177297082543,-3.112995242166519,0.035838498361408705
1789927438674530600,8.843530517578126,-3.6381770541340113,-3.3209906346097586,-0.39141426977366206
1789927438684510500,8.853510498046875,-3.31812560056746,-3.481808096292615,-0.842837310308218
1789927438694490400,8.863490478515626,-2.8133757512539623,-3.4973140007212757,-1.1840377156917006
1789927438704470300,8.87347021484375,-2.28493055357635,-3.3090403768360614,-1.2707839059263466
1789927438714450400,8.883450439453124,-1.9953776986479759,-2.922237107989192,-1.235827451096475
1789927438724430600,8.8934306640625,-1.941217653915286,-2.5572829751178623,-1.215520795322582
1789927438734410500,8.903410400390625,-2.0239730940133334,-2.5421520414814354,-1.199115530901402
1789927438744390400,8.913390380859376,-1.9553128147631882,-2.5863296213820575,-1.1585092336162923
1789927438754370600,8.92337060546875,-1.6296850223690271,-2.2043927895277737,-1.1430446841113269
1789927438764350500,8.9333505859375,-1.015370636487007,-1.7055848974838852,-1.1157139018543063
1789927438774330400,8.943330322265625,-0.08135200304090977,-1.3267045305907725,-0.728130150154233
1789927438784310300,8.953310302734375,1.0120575664162634,-0.9592375381156801,0.3041119800262153
1789927438794290400,8.96329052734375,2.058227830314636,-0.683563863196969,1.5125991503849625
1789927438804270600,8.9732705078125,3.1426720030277964,-0.42492958588451146,2.6821438650175926
1789927438814250500,8.98325048828125,4.0387651027053595,-0.19859131202101707,3.6055361827701327
1789927438824230400,8.99323046875,4.764178395116329,0.0014428922846913337,4.027715300902724
1789927438834210300,9.003210205078124,5.374334492275119,0.22368103735297917,3.728790806517005
1789927438844190500,9.0131904296875,5.830578377094865,0.47023134750947354,2.9048242008954284
1789927438854170600,9.023170654296875,6.245113117954134,0.5630963859505951,1.7559096018373965
1789927438864150500,9.033150634765626,6.4509162610501045,0.5046216928891837,0.5066401200395078
1789927438874130400,9.04313037109375,6.309969913268089,0.5302896565005183,-0.6835974732056259
1789927438884110300,9.0531103515625,5.761443466070294,0.7454403275258839,-1.7616281256146729
1789927438894090500,9.063090576171875,4.909488783326744,1.1268249323248862,-2.439436201763898
1789927438904070400,9.0730703125,3.7846202457666394,1.6515484791308641,-2.73218712208122
1789927438914050600,9.083050537109376,2.6106793420016765,2.1385510748296976,-2.6642946123331783
1789927438924031500,9.093031494140625,1.6664719074964522,2.4244221725054085,-2.339059472518414
1789927438934011400,9.103011474609374,0.8401905951917171,2.545378602312505,-1.8491117632783949
1789927438943991300,9.1129912109375,0.042568975660204886,2.583939219114184,-1.24499392337054
1789927438953971500,9.122971435546875,-0.6111123749703169,2.5428490838348865,-0.6906451997600496
1789927438963951400,9.132951416015626,-1.1225222666949033,2.396266483731568,-0.24084749540500341
1789927438973931500,9.142931640625,-1.500923033377528,2.2822534433215855,0.05650412364080548
1789927438983911400,9.152911376953124,-1.7094582317858933,2.124556744007766,0.34567703934088345
1789927438993891600,9.1628916015625,-1.8002964405745268,1.931382634729892,0.745471599446982
1789927439003871500,9.17287158203125,-1.8298995516777037,1.7603826555982232,1.3594026850998402
1789927439013851400,9.182851318359376,-1.8944781145721672,1.6258676560379564,2.0277089195407925
1789927439023831300,9.192831298828125,-1.8872113384395837,1.4625107390053569,2.7329747653275724
1789927439033811500,9.2028115234375,-1.8987562302827834,1.2734351510874926,3.3596842301413417
1789927439043791600,9.21279150390625,-2.026774707430601,1.050356317411363,3.9561747900411484
1789927439053771500,9.222771484375,-2.0150854386806487,0.6619301235377788,4.465053409722447
1789927439063751400,9.23275146484375,-1.9104963524371383,0.08042159032300114,4.7951375970035786
1789927439073731300,9.2427314453125,-1.9306623576313255,-0.5065221196830272,5.163628964090347
1789927439083711500,9.25271142578125,-2.007831522029638,-1.1028481366708873,5.331150015065074
1789927439093691400,9.26269140625,-1.699960335600376,-1.6876194710738956,5.439817895054817
1789927439103671600,9.272671630859374,-1.121305292120576,-2.1387208784386513,5.612108644649386
1789927439113651500,9.2826513671875,-0.4851473232209682,-2.457747372871637,5.848810783877968
1789927439123631400,9.29263134765625,0.14800620316565036,-2.6171549677565693,6.144979257553816
1789927439133611500,9.302611572265626,0.6082569855391979,-2.6606168006032704,6.554007802212238
1789927439143591400,9.31259130859375,0.9804647428005934,-2.6987586074709893,7.073336796498298
1789927439153571300,9.3225712890625,1.214307400944829,-3.0567309186309575,7.437244927448034
1789927439163551500,9.332551513671875,1.3562310693264006,-3.561424653843045,7.293930681490898
1789927439173531600,9.34253173828125,1.3645523229479788,-3.784315125340223,6.397023927342891
1789927439183511600,9.352511474609376,1.3615958112299442,-3.657989131323993,5.153115753382444
1789927439193491500,9.362491455078125,1.5706646781235933,-3.4650329025804996,4.019811980432272
1789927439203471400,9.372471435546874,2.1130250039070844,-3.3767972775056956,3.2309123042777177
1789927439213451300,9.382451171875,2.5870862849682568,-3.321512028135359,2.644996329884231
1789927439223431400,9.392431396484374,2.666075650531053,-3.2439044723197816,2.2695716564029453
1789927439233411600,9.40241162109375,2.4857617534786463,-3.177966896031797,2.0994486062362787
1789927439243391500,9.4123916015625,2.191067444008589,-3.143156279413402,1.827522155021876
1789927439253372400,9.422372314453124,1.8457418484538792,-3.129604431661963,1.380753516164422
1789927439263352300,9.432352294921875,1.6091513529062271,-3.016165976269543,0.8943658374935388
1789927439273332500,9.44233251953125,1.551054553246498,-2.79608179436475,0.4251893327992409
1789927439283312600,9.452312744140626,1.794376402875781,-2.665185131432116,-0.11670512903816997
1789927439293292500,9.46229248046875,2.0981629503399133,-2.589562611953914,-0.6650241440303624
1789927439303272400,9.4722724609375,2.4473417141914364,-2.4623370387494563,-1.1608354846067725
1789927439313252400,9.48225244140625,2.703777312415838,-2.4225652925923464,-1.6537702468335627
1789927439323232500,9.492232421875,2.745781055408716,-2.4222815072149038,-1.9851044341757893
1789927439333212400,9.50221240234375,2.5982465614080428,-2.3432538554683324,-2.027480225351453
1789927439343192600,9.512192626953125,2.3312398848086593,-2.2207962273180484,-1.9177233810812233
1789927439353172500,9.52217236328125,1.862723378393054,-2.0837758208081123,-1.7678388168230652
1789927439363152400,9.53215234375,0.945984965571761,-1.9044167402625083,-1.6271981739893555
1789927439373132300,9.54213232421875,-0.2811801633805036,-1.729819467291236,-1.4755492304071782
1789927439383112200,9.5521123046875,-1.5249363616496323,-1.5393813588485121,-1.4830682277351617
1789927439393092400,9.56209228515625,-2.6047172187268735,-1.415966576103866,-1.6894836575105785
1789927439403072300,9.572072265625,-3.330890974116325,-1.3152800502568482,-1.973470987266302
1789927439413052400,9.582052490234375,-3.764825996494293,-1.188266073976457,-2.2924787769988177
1789927439423032300,9.5920322265625,-3.975444430917501,-1.0924114983305335,-2.7255960532531143
1789927439433012200,9.60201220703125,-3.895583543217182,-1.0436784470826386,-3.358938964731991
1789927439442992000,9.6119921875,-3.5610394539177417,-1.0268953623250126,-4.138375231492519
1789927439452972300,9.62197216796875,-3.217784234896302,-0.9997963429972528,-4.8073982359007
1789927439462952400,9.631952392578125,-3.1334874105751513,-0.9615554596692323,-5.136138899618387
1789927439472932400,9.641932373046876,-3.1307524326533076,-0.8867144459575415,-5.145703431299329
1789927439482912300,9.651912353515625,-2.9457874949246645,-0.8239584223151206,-5.035232301279902
1789927439492892200,9.66189208984375,-2.5812884123444557,-0.7137383444473147,-5.0251054595410825
1789927439502872300,9.671872314453125,-1.9479536841720342,-0.45478725627064703,-5.236828640335798
1789927439512852200,9.681852294921875,-1.3332558519303799,-0.25834786158651113,-5.560392485937476
1789927439522832400,9.691832275390626,-0.8907289422959088,-0.17470453273802994,-5.648703222075104
1789927439532812300,9.701812255859375,-0.674084087190032,0.03566723344773054,-5.425673049846291
1789927439542792400,9.71179248046875,-0.3551408871263265,0.37465719624012706,-5.054063258478045
1789927439552772400,9.7217724609375,0.21575112113654613,0.6968718191899359,-4.567389748603105
1789927439562752300,9.731752197265624,0.8991302754163741,0.9701892863713204,-4.048061338838934
1789927439572732200,9.741732177734375,1.8470488393992184,1.1864463112033903,-3.6330733012542127
1789927439582712300,9.75171240234375,3.046660775515437,1.4416570438079535,-3.2121310314401983
1789927439592692500,9.7616923828125,4.264896748080849,1.649249262277782,-2.636131763166189
1789927439602673400,9.77167333984375,5.154451385900378,1.792846270699054,-2.046286340369284
1789927439612653300,9.7816533203125,5.538009389215707,1.6836198800437152,-1.661015687917173
1789927439622633200,9.79163330078125,5.759073229807615,1.5013235770024358,-1.3653285680174827
1789927439632613000,9.801613037109375,5.741466261446476,1.4104030967578292,-1.035203829530254
1789927439642593300,9.81159326171875,5.3214405219554894,1.3284582423903046,-0.6430400565635412
1789927439652573400,9.821573486328125,4.535287806421518,1.1297671232566238,-0.3147090696252882
1789927439662553300,9.83155322265625,3.616569033437967,0.9182426799044012,-0.18540815145149825
1789927439672533200,9.841533203125,2.6953262949347496,0.698171503611654,-0.045275750400871034
1789927439682513200,9.85151318359375,1.91179925172925,0.5854163543082773,0.21646906014755368
1789927439692493300,9.861493408203126,1.2683090402454138,0.5841821363382041,0.6314679113872349
1789927439702473500,9.871473388671875,0.6999924354285001,0.6021024084322154,1.2304556949302554
1789927439712453400,9.881453369140624,0.2518202133834362,0.5804654539026319,1.9529589451134204
1789927439722433300,9.891433349609375,-0.21847733123004434,0.591618131557852,2.655796833100915
1789927439732413200,9.9014130859375,-0.7822545390516519,0.5907623915113508,3.3069866591766472
1789927439742393300,9.911393310546876,-1.4694038595199583,0.58272580005005,3.845691092801094
1789927439752373200,9.921373291015625,-2.257938501754403,0.6466093664176762,4.237405222304165
1789927439762353200,9.931353271484374,-3.1308471251994368,0.6708315151348709,4.446125421890616
1789927439772333300,9.941333251953125,-3.9358869120329616,0.7589319695226847,4.466137697827816
1789927439782313500,9.9513134765625,-4.579904946783185,0.9602399931564927,4.4112890863090755
1789927439792293400,9.96129345703125,-5.050419349017739,1.0880537415124476,4.512148922896385
1789927439802273300,9.971273193359375,-5.277413164180517,1.1865347201392054,4.872011285586654
1789927439812253200,9.981253173828126,-5.029097159525752,1.248003480450064,5.393125701984763
1789927439822233000,9.991233154296875,-4.227878976806998,1.2326647492818534,5.97079757964611
1789927439832213500,10.001213623046874,-2.8702649286895987,1.12032314921543,6.538865178138018
1789927439842193400,10.011193359375,-1.5516092645198105,0.9428646415941416,6.821012140724062
1789927439852173300,10.02117333984375,-0.34437399391829965,0.5998299334555864,7.0205205675899975
1789927439862153200,10.0311533203125,0.9212088362336158,0.1685715829409659,7.209737317544222
1789927439872133400,10.04113330078125,1.6367594907999037,-0.16557751569151877,7.09217067630589
1789927439882113300,10.05111328125,1.819253654500842,-0.3654531684346497,6.561048952895402
1789927439892093200,10.06109326171875,1.618213195762038,-0.3319033655323088,6.003341420376301
1789927439902073300,10.0710732421875,1.1406617344975472,-0.4102548715829849,5.697453516718745
1789927439912053200,10.08105322265625,0.5360924975603819,-0.7256305884234607,5.659329245507717
1789927439922034200,10.0910341796875,-0.07842530193924903,-0.9552774023130536,5.72446836489439
1789927439932014300,10.101014404296874,-0.430585127428174,-0.9711706986241042,5.809696332585811
1789927439941994200,10.110994140625,-0.08167758173346519,-0.8978574790015816,5.598250215166807
1789927439951974400,10.120974365234375,0.9522434414446354,-0.9697957570090889,4.903487497085332
1789927439961954300,10.130954345703126,2.124544176787138,-1.0869511870980262,4.032921345113218
1789927439971934200,10.140934326171875,3.0616081692785024,-1.3105248185537755,3.268745483587682
1789927439981914400,10.150914306640624,3.568536531674862,-1.733445694964379,2.5613220213755965
1789927439991894300,10.160894287109375,3.7981747238665817,-2.163845528953522,1.795428250016272
1789927440001874200,10.170874267578125,3.942817003557086,-2.3792289858214555,0.8274075398556887
1789927440011854300,10.180854248046876,3.987078754609823,-2.5434657544285058,-0.19581033953297883
1789927440021834500,10.19083447265625,4.048524280175567,-2.6097370927155015,-1.2043243515908717
1789927440031814400,10.200814453125,3.9139994898736474,-2.509218616911769,-2.124597660540044
1789927440041794300,10.210794189453125,3.633825873187184,-2.241725325839221,-2.8076386689066886
1789927440051774200,10.220774169921874,3.1628315784811973,-1.9101275191247462,-3.378354151558876
1789927440061754000,10.230754150390625,2.4831425108909606,-1.5971888201728461,-3.882778129918873
1789927440071734300,10.240734375,1.6742711830705403,-1.315439770863205,-4.316944330704212
1789927440081714400,10.25071435546875,0.7774298953741788,-1.1008093243196606,-4.582135774575174
1789927440091694300,10.2606943359375,-0.15368658688962458,-0.8285152088366449,-4.39739470873028
1789927440101674200,10.27067431640625,-0.9920721784859895,-0.5503457715794444,-3.9806919761821624
1789927440111654400,10.280654296875,-1.8509639670163391,-0.3500705981247127,-3.6332884053096173
1789927440121634300,10.29063427734375,-2.7170500509649513,-0.1150216329306364,-3.307776348249614
1789927440131614200,10.3006142578125,-3.417316042637825,0.12387860086411237,-3.1766128510743377
1789927440141594400,10.310594482421875,-3.7481852428168057,0.21175167623683808,-3.2128558385834096
1789927440151574300,10.32057421875,-3.7355817818313835,0.42886064172312616,-3.238202169024944
1789927440161554400,10.330554443359375,-3.5667525708675383,0.6111668816365301,-3.30755043053925
1789927440171534300,10.340534423828124,-3.261155174589157,0.6157752522148191,-3.589487257505953
1789927440181514200,10.35051416015625,-2.855835421320796,0.5105047595784068,-4.082562743377685
1789927440191494100,10.360494140625,-2.495349666035175,0.40856867206171155,-4.554060311430693
1789927440201474300,10.370474365234376,-2.2312398799210786,0.1859342211522162,-4.999696877518296
1789927440211454500,10.380454345703125,-1.9677023407369851,-0.11251140367537736,-5.4290550935000175
1789927440221434400,10.390434326171874,-1.6755618074029683,-0.3019353666394949,-5.670165696820616
1789927440231414300,10.400414306640625,-1.5556103168547153,-0.38488077635169027,-5.796708840718865
1789927440241394200,10.410394287109375,-1.2385925318956374,-0.4039243533872068,-5.76493949149251
1789927440251374300,10.420374267578126,-0.6117325526952743,-0.4047098046764731,-5.74632597643733
1789927440261355500,10.43035546875,0.17788287051320076,-0.44018809142336246,-5.622076496434212
1789927440271335400,10.44033544921875,0.8510036656290292,-0.4964278650395572,-5.431408963149786
1789927440281315300,10.4503154296875,0.986703929451108,-0.6022833179570735,-5.428924160596728
1789927440291295200,10.460295166015625,1.172407702848315,-0.7494936945699154,-5.385722147729992
1789927440301275100,10.470275146484376,1.6985066296607254,-0.8239163367390632,-5.249886274829507
1789927440311255300,10.48025537109375,2.5021248592585326,-0.8483205640248954,-5.180982249951362
1789927440321235200,10.490235107421874,3.4842174955219027,-0.6993528223507106,-5.168126275509596
1789927440331215400,10.50021533203125,4.746978838512301,-0.5399336831584572,-5.251324783200025
1789927440341195300,10.5101953125,6.073862232801318,-0.5086243526592851,-5.169344419127702
1789927440351175400,10.520175537109376,6.900593626961111,-0.7335586049437522,-4.796452771255374
1789927440361155300,10.5301552734375,6.882143193513155,-1.0703443356901408,-4.1489328658640385
1789927440371135000,10.540135009765624,6.273687470531463,-1.3204752808123825,-3.2582571150600907
1789927440381115000,10.550114990234375,5.262289244806766,-1.4321429271399975,-2.3219179297119377
1789927440391095000,10.560094970703124,4.166137683165073,-1.3320076054349541,-1.4243648404844105
1789927440401075000,10.570074951171875,3.1578046902298924,-1.2202467278659344,-0.5711020342843607
1789927440411054800,10.580054931640625,2.3413012600958347,-1.0583303650304674,0.2222305097511038
1789927440421035000,10.590034912109376,1.7908435525745152,-0.8364794657140969,1.0066288924310356
1789927440431015000,10.600014892578125,1.4365835399359463,-0.7765703559353947,1.7494595489151774
1789927440440995000,10.6099951171875,1.1297831976085901,-0.7915987059801817,2.519904553838074
1789927440450975000,10.61997509765625,0.734454092478752,-0.93682053912431,3.260149796938896
1789927440460955000,10.629954833984375,0.1536900940209627,-1.2440858686149119,3.718434539936483
1789927440470934800,10.639934814453126,-0.6732008746147156,-1.487581028984487,3.8589837050944564
1789927440480915000,10.6499150390625,-1.6241320644170045,-1.5172934456810354,3.751522862806916
1789927440490895000,10.65989501953125,-2.583857386049628,-1.3523200333625078,3.537744210787117
1789927440500875000,10.669875,-3.4246658208787437,-1.2488032525256276,3.4363492444097994
1789927440510855000,10.67985498046875,-4.194518558996916,-1.138547226561606,3.466314759084582
1789927440520834800,10.689834716796875,-4.9336353825896975,-1.0473363850682973,3.6051164960533377
1789927440530815000,10.69981494140625,-5.529727883082628,-0.945500104664266,3.8426799282863735
1789927440540795000,10.709794921875,-5.8137745418101545,-0.8291767414852976,4.086534569618106
1789927440550775000,10.719775146484375,-5.674521553942561,-0.6300254574939608,4.224800300014019
1789927440560755000,10.7297548828125,-4.9793870799392455,-0.31812925333231684,4.3153059158474205
1789927440570735000,10.739735107421875,-3.9247237129837274,0.024553426498174664,4.580631507492066
1789927440580715000,10.749715087890625,-2.696926131346822,0.15681465578228235,5.032608967038989
1789927440590695000,10.75969482421875,-1.4955606295615433,0.05881327736601233,5.547812405827641
1789927440600674800,10.7696748046875,-0.49457916843295097,-0.2310160564161837,6.046061787205934
1789927440610655000,10.779655029296874,0.31005905186235905,-0.6526533227570355,6.376487335270643
1789927440620636000,10.789635986328125,0.7383698046177625,-0.9246692058205604,6.3441165130198
1789927440630616000,10.799615966796875,0.7936328421562909,-0.8778643461562693,6.037443596464395
1789927440640596000,10.809595947265626,0.5384931289613246,-0.7071805933669209,5.656219589054584
1789927440650576000,10.819575927734375,0.12181377728879451,-0.7543607160843908,5.147934551352262
1789927440660556000,10.82955615234375,-0.1966945384889841,-0.7965913997009396,4.612054527498781
1789927440670536000,10.839535888671875,-0.3902379194706678,-0.6023176586180925,4.2282323202893135
1789927440680516000,10.84951611328125,-0.34453532195985315,-0.5295005519494415,3.9089208714351056
1789927440690496000,10.85949609375,-0.09708674778938294,-0.4890808632776141,3.483651678332686
1789927440700476000,10.869475830078125,0.2948983076095581,-0.32187399281859397,3.085005119217932
1789927440710455800,10.879455810546874,0.9429261625230312,-0.17394699236899613,2.8213685035735367
1789927440720436000,10.88943603515625,1.7217033808529376,-0.21447189498096703,2.565220782379806
1789927440730416000,10.899416015625,2.5126935995459556,-0.437502359470725,2.2878315357148646
1789927440740396000,10.90939599609375,3.2051421954661605,-0.6050780632421374,1.9573102721907196
1789927440750376000,10.9193759765625,3.671436349657178,-0.7870125472337007,1.4392629882782697
1789927440760355800,10.92935595703125,3.784865744960308,-0.9570479191169142,0.7628248853079974
1789927440770336000,10.9393359375,3.681275022104382,-1.1395587416917086,-0.19491401174776254
1789927440780316000,10.94931591796875,3.584584580156207,-1.2794652250319718,-1.2790946381539106
1789927440790296000,10.959296142578125,3.6176813785940407,-1.2703764941692353,-2.401150894772261
1789927440800276000,10.96927587890625,3.445950600969791,-1.117573119854927,-3.4499826329648493
1789927440810256100,10.979256103515626,2.9574159733980894,-0.9579755553558468,-4.2142087633728975
1789927440820236000,10.989236083984375,2.3328642711400986,-0.7807967414587735,-4.701904894293844
1789927440830216000,10.9992158203125,1.579777374383807,-0.5860200192898511,-4.835757192161679
1789927440840195800,11.00919580078125,0.7344681210041045,-0.4363438370853662,-4.777059211738408
1789927440850175700,11.01917578125,-0.13462123641371726,-0.32422727794647216,-4.5845393285855645
1789927440860156200,11.02915625,-0.878242385688424,-0.1667065197214484,-4.178357113268971
1789927440870136000,11.039135986328125,-1.4967168138593434,-0.044506081202626224,-3.8139989004641768
1789927440880116000,11.049115966796874,-2.036355021202564,0.12073591892421245,-3.6133196762531994
1789927440890095900,11.059095947265625,-2.5426760653555394,0.35625527810901403,-3.6288729269549247
1789927440900076000,11.069075927734374,-3.020072628319263,0.5561360454186797,-3.9673783211007714
1789927440910056000,11.079055908203125,-3.402632852768898,0.7872963326111435,-4.6348669555485245
1789927440920036000,11.0890361328125,-3.7289164787232876,0.8864572563260793,-5.505730336901546
1789927440930016000,11.09901611328125,-4.057746282029152,0.7559153981804847,-6.586243599906563
1789927440939996000,11.108995849609375,-4.424885065463185,0.529346530431509,-7.509808059355616
1789927440949976000,11.11897607421875,-4.609505719798803,0.066700085093081,-8.08789611660242
1789927440959956000,11.1289560546875,-4.395780551531911,-0.5980801671788096,-8.180460418531299
1789927440969936000,11.138935791015625,-3.6590251963734626,-1.11380485336259,-7.787610270735621
1789927440979917000,11.1489169921875,-2.440738954925537,-1.4245295295268297,-7.3912833867400884
1789927440989897000,11.15889697265625,-1.0522621510326862,-1.784956248101592,-7.0045672116547815
1789927440999876900,11.168876953125,0.5500263303667307,-2.0005263135828075,-6.605591858977079
1789927441009857000,11.17885693359375,1.5729390527963638,-2.144393371117115,-6.206080499726533
1789927441019837000,11.1888369140625,1.7642577434659004,-2.2034939409919083,-5.688414470216632
1789927441029816800,11.19881689453125,1.5421341646879911,-2.028690185663104,-5.1911804033607245
1789927441039797000,11.208796875,1.2896581177443265,-1.8930714626446365,-4.81030798586756
1789927441049777200,11.218777099609374,1.1772890451490878,-1.818796850644052,-4.576038919004798
1789927441059757000,11.228757080078125,1.2833616479486227,-1.622806953293085,-4.41675290467292
1789927441069737000,11.238737060546875,1.4731465531796215,-1.2571511018931865,-4.281731270764768
1789927441079716900,11.248716796875,1.85668818988204,-0.8154325860321521,-4.336068717890978
1789927441089696800,11.25869677734375,2.6860136921882627,-0.7052329664304852,-4.565770330707728
1789927441099677000,11.268677001953124,4.0334588129907845,-1.1199804732576013,-4.607296519316733
1789927441109657000,11.278656982421875,5.4516889501124615,-1.609655210775137,-4.157580574961006
1789927441119637000,11.288636962890624,6.35362726868689,-1.9482070744112132,-3.1956910610318183
1789927441129617000,11.298616943359375,6.640551528677344,-2.1988988682866095,-1.8955569958500562
1789927441139597000,11.30859716796875,6.392048477017879,-2.331514902357757,-0.5887745421623811
1789927441149577000,11.318576904296876,5.745229413372278,-2.206355906294286,0.7289340869482607
1789927441159556900,11.328556884765625,4.885983404576778,-1.8952385775506495,1.789843289490789
1789927441169537000,11.338537109375,4.069599801430106,-1.5116577778816223,2.497315997672081
1789927441179517000,11.348516845703125,3.369887351986766,-1.1184575014740228,3.026852497717738
1789927441189497000,11.3584970703125,2.648319044566154,-0.9633031801193952,3.5019580271348354
1789927441199477000,11.36847705078125,1.7290911530166864,-1.0506798502773045,3.8480408707976337
1789927441209457000,11.378456787109375,0.7361094584703445,-1.2539809474244714,4.10001072178483
1789927441219436800,11.388436767578124,-0.34684944412112234,-1.3240753511309622,4.206569354535639
1789927441229417000,11.3984169921875,-1.397702897399664,-1.2617962973505257,4.219034868355095
1789927441239397000,11.408397216796875,-2.394842880669236,-1.2377610495075582,4.161253418254852
1789927441249377000,11.418376953125,-3.2829911588221785,-1.1976570026561617,3.9502462767750024
1789927441259357000,11.42835693359375,-3.991687125188112,-1.032664885637164,3.4859374511823056
1789927441269336800,11.4383369140625,-4.5141544174999,-0.9109501848086714,3.2497046830311414
1789927441279317000,11.44831689453125,-4.769233340418339,-0.7837327949106693,3.4025904749318956
1789927441289297000,11.458296875,-4.810179098790884,-0.6977540088519454,3.748228497436642
1789927441299277000,11.468277099609375,-4.907131991067528,-0.5840256306022406,4.223875586384534
1789927441309257000,11.478257080078125,-4.98564497129023,-0.4526557971999049,4.669619704499841
1789927441319237000,11.488237060546876,-4.816062896132469,-0.39374680437445636,5.030495335885882
1789927441329217000,11.498217041015625,-4.382174050983786,-0.408859617832303,5.362866757321357
1789927441339197000,11.508197021484374,-3.3669694187134502,-0.5033671627834438,5.51377920332253
1789927441349178000,11.51817822265625,-2.040665285617113,-0.53641763786152,5.295995699575543
1789927441359158000,11.528157958984375,-0.9041022186100482,-0.6165380532808602,4.963474640536308
1789927441369138000,11.538137939453126,0.20072014074325562,-0.7071921376742423,4.710051960392296
1789927441379118000,11.5481181640625,0.886612739148736,-0.6669168259091675,4.627969012728333
1789927441389098000,11.558097900390624,0.9854495454758405,-0.5088002937480807,4.681093869194388
1789927441399078100,11.568078125,0.536202387675643,-0.30175065772235393,4.76031528994739
1789927441409058000,11.57805810546875,-0.15595745443105696,-0.19746581512242553,5.010045253053307
1789927441419038000,11.588037841796876,-0.6646259384930133,-0.2117738880686462,5.385827361670136
1789927441429018000,11.59801806640625,-0.6258861657321453,-0.11370675093978642,5.603599759501218
1789927441438998000,11.607998046875,0.030177111598849296,0.0963622329071164,5.403244360417127
1789927441448978000,11.61797802734375,1.2638111443042754,0.29483137985318897,4.990890470728278
1789927441458958000,11.6279580078125,3.0410762533813713,0.38344139119833703,4.494288272035122
1789927441468938200,11.637938232421876,4.515050489556789,0.4686892326340079,3.9577097445234655
1789927441478918100,11.647918212890625,5.530256290870905,0.4701321249186992,3.591474047408998
1789927441488898000,11.65789794921875,6.138192958414554,0.33435163546726104,3.397283892956376
1789927441498878000,11.6678779296875,6.022462300431728,0.1048696567505598,3.093279026566446
1789927441508857900,11.67785791015625,5.356252892139554,-0.08574497730284929,2.585921917364001
1789927441518838000,11.687838134765625,4.356349289375544,-0.18118454240709542,1.7818021679848433
1789927441528818200,11.697818115234375,3.5303099691331385,-0.33870120897889133,0.8886518437609076
1789927441538798000,11.707798095703126,3.0853251449525354,-0.5137599619820714,-0.023412314188631714
1789927441548778000,11.717778076171875,2.782020243525505,-0.5454170830056071,-1.16251890764907
1789927441558758100,11.727758056640624,2.5971687030434607,-0.6641314329743385,-2.4174479495786128
1789927441568738000,11.737738037109375,2.524647656711936,-0.8424427580326795,-3.4515418451055884
1789927441578718000,11.747718017578125,2.296855384647846,-0.9573407645836471,-4.0470360874444244
1789927441588698000,11.757697998046876,1.7027216170072554,-1.0622808562219141,-4.219449002113938
1789927441598678000,11.767677978515625,0.725265408372879,-1.0394476776450872,-4.072188941140473
1789927441608658200,11.777658203125,-0.4029962787568569,-0.9858213013976812,-3.828001414592564
1789927441618638000,11.78763818359375,-1.5218348885029553,-0.9357643080696463,-3.618870588378608
1789927441628618000,11.797617919921874,-2.55457283937633,-0.8169409447684883,-3.569866903495788
1789927441638598000,11.807597900390626,-3.401114264899492,-0.7510778950214385,-3.8121889284327626
1789927441648578000,11.817578125,-4.095419302341342,-0.7639993359148501,-4.482637581729889
1789927441658558200,11.82755810546875,-4.684046289259195,-0.5584148040056228,-5.193281759554147
1789927441668538000,11.8375380859375,-5.1381461477875705,-0.34351854613274335,-6.047042614936828
1789927441678518000,11.84751806640625,-5.481652711221575,-0.27648499130159615,-6.725234721967578
1789927441688498000,11.857497802734375,-5.410199001860618,-0.19800854369699955,-7.044744908264279
1789927441698478000,11.86747802734375,-4.8688773714751,-0.0825201700374484,-7.0416785064309835
1789927441708458000,11.8774580078125,-3.9467011515140533,-0.17036065831482408,-6.918114670604467
1789927441718438100,11.887438232421875,-2.677251709061861,-0.44123277817070483,-6.880599471202492
1789927441728418000,11.89741796875,-1.2930138579130173,-0.5270312392264604,-6.713784522670507
1789927441738398000,11.90739794921875,0.09425824636518955,-0.5846221351906656,-6.199937174665927
1789927441748378000,11.917378173828125,1.0885071843683718,-0.8669427007779479,-5.529301182103157
1789927441758358000,11.92735791015625,1.576014222458005,-1.1196569403916596,-4.9816550248712295
1789927441768339200,11.937339111328125,1.8196335937291384,-1.0708592994749546,-4.557016823148727
1789927441778319000,11.947319091796874,1.7981915772497652,-0.7509978155225515,-4.184374181601405
1789927441788299000,11.957299072265625,1.6232371614038943,-0.6416802394524216,-4.146391949209571
1789927441798279200,11.967279052734375,1.4791513465523718,-0.6245721605241298,-4.275779961144924
1789927441808259000,11.977259033203126,1.3699819467812775,-0.6564990383997559,-4.304532300637662
1789927441818239000,11.987239013671875,1.58346453846395,-0.5840852518349886,-4.552007470554113
1789927441828219000,11.997218994140624,2.1975638202905654,-0.5895093227103352,-5.10754291973114
1789927441838199000,12.007198974609375,3.218703687828779,-0.9740312026217579,-5.623264829435945
1789927441848179200,12.01717919921875,4.520377822059393,-1.5443407348215579,-5.612561064592003
1789927441858159000,12.0271591796875,5.628764595896005,-1.9490142991408705,-4.987671508681774
1789927441868139000,12.037138916015625,6.104255617499351,-2.186137878651917,-3.721680974511802
1789927441878119000,12.047118896484376,5.859921960479021,-2.2197741907939315,-2.1884768429934978
1789927441888099000,12.05709912109375,5.062718858620524,-2.095382964232564,-0.8300630228005349
1789927441898079200,12.067079345703124,4.147234829774499,-1.8513003593638537,0.2077289235267788
1789927441908059100,12.07705908203125,3.556667230182886,-1.582319460082054,1.0082147733829916
1789927441918039000,12.0870390625,3.1375369782269,-1.302792616866529,1.6860308867082
1789927441928019000,12.09701904296875,2.6677783627957106,-1.106164713872969,2.3556322755262253
1789927441937999000,12.1069990234375,2.0101485668003556,-1.0356447782307863,3.0939953581422563
1789927441947979000,12.11697900390625,1.1679922244936227,-1.0550564579263328,3.793071847769618
1789927441957959000,12.126958984375,0.22473229997158048,-0.99298520167768,4.286237057751417
1789927441967939000,12.13693896484375,-0.7965712336957455,-0.837898684862256,4.60568820733726
1789927441977919000,12.1469189453125,-1.8116250593185423,-0.6775725138276815,4.90328759059906
1789927441987899100,12.156899169921875,-2.762301397576928,-0.43597471151202916,5.296850855100154
1789927441997879000,12.166879150390624,-3.6022763041913506,-0.17874737838804722,5.833263670656085
1789927442007859000,12.17685888671875,-4.40525565136373,-0.08519698803126811,6.361555139076709
1789927442017838800,12.1868388671875,-5.085267375037073,-0.1042883497312665,6.631442339548468
1789927442027819300,12.1968193359375,-5.568719000256062,-0.03805442084521055,6.412224419084191
1789927442037799200,12.206799072265625,-5.711392610222101,0.10811667584776878,5.885948966661095
1789927442047779000,12.216779052734376,-5.356524110296368,0.23385113371163604,5.509361971402168
1789927442057759000,12.226759033203125,-4.45863302128613,0.24129794258624312,5.729256183692812
1789927442067739100,12.2367392578125,-3.033586774408817,0.2692693608343601,6.539768848979473
1789927442077719000,12.246718994140625,-1.5324796166360377,0.3790697519853711,7.402705528986454
1789927442087699000,12.256698974609375,-0.14674480492770672,0.16348112793415784,7.831176440739632
1789927442097679000,12.26667919921875,1.056760631495714,-0.2852868680469692,7.583006566557287
1789927442107659000,12.276658935546875,1.9175614685177802,-0.7235287938386201,6.642502662745118
1789927442117639200,12.28663916015625,2.265961649212241,-0.8804038015060126,5.334204726460576
1789927442127619000,12.296619140625,1.827178017759323,-0.6374937475480139,4.142573267704249
1789927442137599000,12.306598876953124,0.9637591071933508,-0.4042793043047189,3.606840835627913
1789927442147579000,12.316578857421876,0.3409375897288322,-0.5597656340926885,3.8269837619826195
1789927442157559000,12.32655908203125,-0.2520569447487593,-0.6264619197934865,4.531492798052728
1789927442167539200,12.336539306640624,-0.5812573349326848,-0.4336453917816281,5.11157086007297
1789927442177519000,12.34651904296875,-0.36770927679836746,-0.24943477955162524,5.229170819059014
1789927442187499000,12.3564990234375,0.28108839344382286,-0.2931792287319898,4.90518845578432
1789927442197480000,12.36647998046875,1.4880495232790707,-0.5204638435348868,4.172534690725803
1789927442207459800,12.3764599609375,2.9639871684819457,-0.7604644397869705,3.152691877260804
1789927442217440300,12.386440185546874,4.180736117359996,-0.9511907175213098,2.0402989365227517
1789927442227420200,12.396420166015625,4.905405313405394,-1.1073048238188028,1.2405812214948235
1789927442237400000,12.406400146484375,5.049439690330624,-1.2705302234262228,0.9278253317639231
1789927442247380000,12.4163798828125,4.67068411886096,-1.4625979788973926,0.9481019577257335
1789927442257360000,12.42635986328125,3.8583109203994272,-1.6083236699104309,1.1362760667592287
1789927442267340000,12.436340087890626,2.9004899710834025,-1.591210038024187,1.107365541030094
1789927442277320200,12.4463203125,2.0645394976794718,-1.4850509259849787,0.7079136568818241
1789927442287300000,12.456300048828124,1.4430945292651653,-1.4305083116754889,0.12696571669187395
1789927442297280000,12.466280029296875,1.0024316599369048,-1.383862588095665,-0.5765434581533074
1789927442307260200,12.47626025390625,0.580001781913638,-1.2646557784348726,-1.4348888648472726
1789927442317240000,12.486239990234376,0.4851923314064741,-1.3143681961089373,-2.294405799538642
1789927442327220000,12.496219970703125,0.6207581551939249,-1.4631526901707053,-2.9604870514065027
1789927442337199900,12.506199951171874,0.7302782680988311,-1.656140190835297,-3.3661896665126085
1789927442347180000,12.516179931640625,0.46591012330949305,-1.7825719833135605,-3.47078547475785
1789927442357160200,12.52616015625,-0.023275077125430105,-1.847585138233006,-3.293506999878585
1789927442367140000,12.53614013671875,-0.7181564531505108,-1.8827613732933997,-3.010166151332855
1789927442377119700,12.54611962890625,-1.4770540820121765,-1.872769848372042,-2.789273575654626
1789927442387099600,12.556099609375,-1.9938076728522776,-1.6651105560153723,-2.687841492137313
1789927442397079800,12.566079833984375,-2.2511855203628537,-1.3813228404849767,-2.860190693920851
1789927442407059700,12.576059814453124,-2.429925299966335,-1.2348039532676338,-3.2399320615574716
1789927442417039600,12.58603955078125,-2.4679654000252484,-1.3340823658823966,-3.8440617380335924
1789927442427019500,12.59601953125,-2.4200030408889055,-1.0481494550168513,-4.575575977668166
1789927442436999700,12.605999755859376,-2.439701428571343,-0.22792262044548986,-5.127546427839994
1789927442446979800,12.615979736328125,-2.378577974566817,-0.04119067304432392,-5.576901137667894
