time,seconds_elapsed,z,y,x
1789927115841908500,0.051908447265625,0.20540683725476264,-0.25838380968272684,0.33652386493980885
1789927115851888400,0.061888427734375,0.245485165143013,-0.25329978441670536,0.370878846745193
1789927115861868500,0.07186865234375,0.25395313375890255,-0.21240020327344536,0.31915742733627556
1789927115871848700,0.0818486328125,0.2877075193226337,-0.25721798077374697,0.27146628635674713
1789927115881828600,0.09182861328125,0.22140637041926384,-0.2884310112915933,0.26193536468446255
1789927115891809500,0.1018095703125,0.15891805780231952,-0.18606895344778895,0.3291130041614175
1789927115901789400,0.11178955078125,0.12286883929967879,-0.09532382977008819,0.3993596758201718
1789927115911769300,0.121769287109375,0.13734160128831863,-0.09548150454983115,0.5036661457300186
1789927115921749500,0.13174951171875,0.12212123580276965,-0.11880027468651533,0.6258098856255412
1789927115931729700,0.141729736328125,0.054531216132640836,-0.13387670165672896,0.7127262447953224
1789927115941710600,0.151710693359375,0.009684943190217017,-0.12505772764608264,0.7316895962014794
1789927115951690500,0.1616904296875,-0.11148118384480475,-0.11312310583293438,0.732867115548253
1789927115961670400,0.17167041015625,-0.15263737009763717,-0.14692688349634409,0.6857642958506941
1789927115971650600,0.181650634765625,-0.007193126374483108,-0.2551733232036233,0.609140782636404
1789927115981631500,0.191631591796875,0.12730185331106186,-0.36361323965638875,0.5211725763261318
1789927115991611400,0.201611328125,0.2804945192039013,-0.4953825937703252,0.552681521050632
1789927116001591600,0.211591552734375,0.527371430966258,-0.4654918978974223,0.703922176092863
1789927116011571500,0.221571533203125,0.5499257926017046,-0.41124154453277584,0.8617857564061879
1789927116021551600,0.231551513671875,0.5854635544508695,-0.40306671364456415,0.8761006974846124
1789927116031532500,0.241532470703125,0.5947574524968862,-0.3833212719500065,0.7838707420766353
1789927116041512400,0.251512451171875,0.41061084541380405,-0.3907064137652516,0.6597858049854636
1789927116051492400,0.261492431640625,0.18125965346992015,-0.38041035293936726,0.5441802346870303
1789927116061472500,0.271472412109375,0.008186229065060615,-0.3199111683130264,0.5077709507003426
1789927116071452700,0.28145263671875,-0.19601181692183017,-0.29923136837780473,0.5844520393207668
1789927116081433600,0.29143359375,-0.22637656004726886,-0.3391112510845065,0.6352911229372025
1789927116091413500,0.30141357421875,0.07258125208616256,-0.37018180439174175,0.5915887593328952
1789927116101393400,0.311393310546875,0.2328670911103487,-0.33286563469320535,0.542908899576962
1789927116111373300,0.321373291015625,0.20279986962676047,-0.2671887551680207,0.3893208046257496
1789927116121353500,0.331353515625,0.09781447754204273,-0.2013277512475848,0.19779870033860206
1789927116131334400,0.34133447265625,-0.016405775877833366,-0.1400479376375675,0.054956748068332666
1789927116141314600,0.351314453125,-0.22740531857311724,-0.017896891218423843,-0.1062555581510067
1789927116151294500,0.36129443359375,-0.46005438301861284,0.09047259034663438,-0.21385434760451316
1789927116161274400,0.3712744140625,-0.5361725770592689,0.13423223709613083,-0.35149873123168945
1789927116171254300,0.381254150390625,-0.6240116040319204,0.06128975048214197,-0.5549737236410379
1789927116181235200,0.391235107421875,-0.6797638863921165,0.01950081928372383,-0.668987056311965
1789927116191215600,0.401215576171875,-0.401317531889677,0.17875643847733735,-0.5895096149712801
1789927116201195500,0.411195556640625,0.028769582888484,0.4001595940262079,-0.3195394123911857
1789927116211175400,0.421175537109375,0.16920798114836216,0.47015258318483827,-0.06599485943317412
1789927116221155300,0.4311552734375,0.18213234465122222,0.4018088225379586,-0.1103378590285778
1789927116231136300,0.44113623046875,0.08004851922690868,0.38324674540907144,-0.38552258138656614
1789927116241116400,0.451116455078125,-0.046017070287466044,0.4418322053685784,-0.6663017627507448
1789927116251096600,0.4610966796875,-0.002797521764039993,0.5146963660493493,-0.8185375663101673
1789927116261076500,0.471076416015625,0.31821780839860436,0.5262386275440454,-0.8319412377625703
1789927116271056400,0.481056396484375,0.680275927567482,0.26341332828253505,-0.5477589699566364
1789927116281037300,0.491037353515625,0.9054811057478189,-0.10740765079557894,-0.19234277302026748
1789927116291017500,0.501017578125,1.1791758818089961,-0.2609671041741967,0.2265045703411102
1789927116300997400,0.510997314453125,1.1885206332594156,-0.2478641692340374,0.4961404264003038
1789927116310977500,0.5209775390625,1.1142770009189844,-0.10249562109559773,0.43962943462729454
1789927116320957400,0.53095751953125,0.7933914346158504,-0.17824001338779924,0.25421441504359243
1789927116330938400,0.5409384765625,0.35594811185598374,-0.3295797448903322,0.09682488198280334
1789927116340918500,0.55091845703125,-0.01809212152957916,-0.37716011897176505,0.05521510674357414
1789927116350898400,0.5608984375,-0.28581542196571824,-0.3651253977850079,0.17026304315924642
1789927116360878600,0.570878662109375,-0.45454292612075803,-0.2373781387940049,0.3019856355220079
1789927116370858500,0.5808583984375,-0.8523346219718456,0.06224281342327594,0.3754448394864797
1789927116380839400,0.59083935546875,-1.5906079804778097,0.4807894202724099,0.2527665543228388
1789927116390819300,0.6008193359375,-2.099151376855373,0.538322740830481,-0.19010756131410597
1789927116400799500,0.610799560546875,-2.6714988446235655,0.5782829952970147,-0.7383516844391822
1789927116410779400,0.620779296875,-2.969353079429269,0.40595542082339525,-1.2637649670749902
1789927116420760300,0.63076025390625,-2.525253805911541,0.158247611194849,-0.9236959768742322
1789927116430740500,0.640740478515625,-2.9174072036147116,0.5365314734995364,0.17564473619759083
1789927116440720400,0.650720458984375,-2.278892442455888,1.301641693265736,-0.15465338609516618
1789927116450700500,0.660700439453125,-1.3672393700748682,1.4703405558481812,-0.7274065120548009
1789927116460680400,0.670680419921875,-1.5651193189561365,0.7814388387545943,-0.9123778795242309
1789927116470661400,0.680661376953125,-0.7382078920543194,0.17363529607132075,-1.3781488866239786
1789927116480641300,0.690641357421875,-0.3140829005509615,-0.10212766456604003,-1.1592612210273743
1789927116490621400,0.700621337890625,-0.1380564715594053,-0.20506752229779956,-0.8298252685219049
1789927116500601600,0.7106015625,0.17763444871008396,-0.39948622480928897,-1.008242976564169
1789927116510581500,0.72058154296875,0.4395125302493572,-0.4760721824921667,-1.4410457800418137
1789927116520562400,0.7305625,0.9574801730543374,-0.29304917261153457,-1.5228250685840845
1789927116530542300,0.740542236328125,1.3459762172937393,0.09129048260077834,-1.1047796892553567
1789927116540522200,0.750522216796875,1.6286036568731068,0.11444120269417762,-0.6238549521654844
1789927116550502700,0.760502685546875,1.7364461919546126,-0.32468057467192407,-0.23047230492830276
1789927116560482600,0.770482666015625,1.574874404773116,-0.8568219965189695,0.16479542540311812
1789927116570463500,0.78046337890625,1.1112702203184366,-0.7777696487225592,0.8834674268603324
1789927116580443400,0.790443359375,0.8532698569953441,-0.6031080783434212,1.479563434484601
1789927116590423300,0.80042333984375,0.7314058108240366,-0.4911149994537234,1.7461609457612037
1789927116600403200,0.8104033203125,1.1790355965554713,-0.08792743590846658,1.3537766619116067
1789927116610383600,0.820383544921875,0.7545797656625509,0.16069252012893556,0.3764735980123281
1789927116620364500,0.830364501953125,0.07116495554745197,0.36380700866281984,-0.3094862204104662
1789927116630344400,0.840344482421875,-0.34579321306645866,0.5348030422717333,-0.38444998371899125
1789927116640324400,0.850324462890625,-0.6087427232295274,0.5966212005421518,-0.1908686088144779
1789927116650304300,0.86030419921875,-0.6915256358563899,0.6631304392382502,-0.11274959634542464
1789927116660284400,0.870284423828125,-0.40014848811030385,0.5666361043840646,-0.1844505584657192
1789927116670265300,0.880265380859375,-0.052691141223907466,0.3547906854491681,-0.14098375718295572
1789927116680245500,0.89024560546875,0.1145382333278656,0.2004958304680884,-0.2054348943054676
1789927116690225400,0.900225341796875,0.3718605512589216,-0.07299772393256425,-0.41835868306159973
1789927116700205300,0.910205322265625,0.49725160251259803,-0.1483433261655271,-0.2714525500923395
1789927116710185500,0.920185546875,0.2140618528753519,-0.17355850450806318,-0.2341296583920717
1789927116720166400,0.93016650390625,-1.2101602181375026,-0.0008459493048489094,-0.16285539725124834
1789927116730146300,0.940146240234375,0.11253858394324778,0.028653263032436368,-0.035981998485326766
1789927116740126500,0.95012646484375,0.13994623082876204,-0.21452187160253525,0.07906009271144866
1789927116750106400,0.9601064453125,0.5405541531443595,-0.08368344166316091,0.20474925012886522
1789927116760086500,0.97008642578125,0.2571960612028837,-0.16401326204948127,-0.06298164909183979
1789927116770067500,0.9800673828125,-0.22987959973216054,-0.13533493764102458,-0.28836744453608987
1789927116780047400,0.99004736328125,-0.1881108345389366,-0.1788148176010698,-0.2508873164474964
1789927116790027300,1.00002734375,-0.1936532710969448,-0.11991729601770638,-0.014723521879315376
1789927116800007400,1.01000732421875,-0.38271687631607054,0.14224647059515116,0.040239655929803844
1789927116809987300,1.0199873046875,-0.464744586661458,0.2883740934725851,-0.16708792025446892
1789927116819968500,1.029968505859375,-0.2976508211880922,0.3097262397114187,-0.3529021682888269
1789927116829948400,1.039948486328125,0.029994156247377394,0.3514092263173312,-0.22286182992458342
1789927116839928300,1.04992822265625,0.28260522774755953,0.34250476598031815,-0.07345277422368526
1789927116849908200,1.059908203125,0.23022797477841375,0.22774229544252156,-0.2014741739809513
1789927116859889400,1.069889404296875,-0.011256722551584244,0.11569617119133471,-0.3109031014710665
1789927116869869600,1.07986962890625,-0.10145897152423858,0.09093677379228174,-0.36424540008008477
1789927116879849500,1.089849365234375,-0.2537245857000351,0.22317652189694343,-0.3559089488893747
1789927116889829400,1.099829345703125,-0.34418110169470306,0.2101442410402,-0.32462416830956936
1789927116899809300,1.109809326171875,-0.5068097044527531,0.16982472480721772,-0.2223568030118942
1789927116909790500,1.11979052734375,-0.4682213228613138,0.18976729650907218,-0.185099962285161
1789927116919770400,1.129770263671875,-0.3236637988448143,0.16629918102957308,-0.1916881085038185
1789927116929750500,1.13975048828125,-0.1496604001134634,0.11524046331308782,-0.22246552408337592
1789927116939730400,1.14973046875,-0.010922376030683517,0.07318133687116206,-0.2644832956016063
1789927116949710300,1.15971044921875,0.10353402423262595,0.010489829832315445,-0.2654980256021023
1789927116959691500,1.16969140625,0.17819208259284494,-0.0836874602511525,-0.2219347782075405
1789927116969671400,1.17967138671875,0.2485825466364622,-0.0836509276330471,-0.10275544107556342
1789927116979651300,1.1896513671875,0.26333354104459283,-0.13872647977545857,-0.026165537869930266
1789927116989631500,1.199631591796875,0.21564941432774065,-0.24920118999145924,0.012364391532540321
1789927116999611400,1.209611328125,0.13117197274267672,-0.2349916089836508,0.09370587317943573
1789927117009592600,1.219592529296875,0.015245499926805496,-0.11416041299141942,0.18720774821937083
1789927117019572500,1.229572509765625,-0.029052491483092305,-0.1356949300598353,0.1677373240739107
1789927117029552400,1.239552490234375,-0.1267202540308237,-0.061018093933910125,0.18845804054141044
1789927117039532500,1.249532470703125,-0.22452362565696238,-0.0021140695445239542,0.15135200646221636
1789927117049512400,1.259512451171875,-0.23055647608041763,-0.09505173483043909,0.13088964866995811
1789927117059493600,1.26949365234375,-0.2829290528744459,-0.13749240793585776,0.23443127168715
1789927117069473500,1.2794736328125,-0.40986090382933615,-0.23732706619389354,0.22642741345167158
1789927117079453400,1.289453369140625,-0.5353945784240961,-0.36664310887157914,0.1192436345398426
1789927117089433600,1.29943359375,-0.640347821804881,-0.13455145911313593,-0.020814824491739273
1789927117099413800,1.309413818359375,-0.6389291871786117,0.13014876717478036,-0.15805881062448024
1789927117109394400,1.31939453125,-0.5210580100357532,0.09905366394817829,-0.22302198892235756
1789927117119374600,1.32937451171875,-0.2634054372370243,0.10072561574839055,-0.19489187298119068
1789927117129354800,1.339354736328125,0.05432955608069896,0.23207615992836653,-0.11111176601052283
1789927117139334700,1.349334716796875,0.33037937083542346,0.28006822008322924,-0.08119885830581187
1789927117149314600,1.359314453125,0.5771954923212528,0.24163027981314808,-0.19010113157331943
1789927117159295500,1.36929541015625,0.633898791795969,0.20725418215449898,-0.34727146892547606
1789927117169275600,1.379275634765625,0.5182207407832146,0.16325422384310512,-0.4633896649211645
1789927117179255800,1.389255859375,0.45892976290285586,0.17772154247164726,-0.5508645347565412
1789927117189235700,1.399235595703125,0.4558510861098766,0.24649562082719056,-0.5230237571507692
1789927117199215600,1.409215576171875,0.45611412096023557,0.2692194572780281,-0.41553368876874447
1789927117209196500,1.419196533203125,0.4516816914707422,0.15858882584795356,-0.36699206843972204
1789927117219176400,1.429176513671875,0.48901510456502434,0.129554966000095,-0.3125327484995127
1789927117229156600,1.439156494140625,0.4988204592645168,0.14431403411682694,-0.23750059612989424
1789927117239136800,1.44913671875,0.5103320333600044,0.14649335091728716,-0.24520401011407375
1789927117249117700,1.45911767578125,0.4444797972679138,0.12762805305812508,-0.2845668832093477
1789927117259097600,1.46909765625,0.3609638941913843,0.0409887207314372,-0.2879460042536259
1789927117269077500,1.479077392578125,0.27288462872207164,0.06985226551368832,-0.2820546081274748
1789927117279057700,1.4890576171875,0.15003566316664219,0.10144735415168106,-0.2730827816426754
1789927117289037800,1.499037841796875,-0.03059562927186489,0.02521240186356008,-0.20262159045040606
1789927117299018500,1.5090185546875,-0.03447217844426632,-0.07861921707615256,-0.08768705128133296
1789927117308998700,1.51899853515625,0.08458382456898689,-0.18307269424125552,0.08511340140104293
1789927117318978600,1.528978515625,0.17515899850726127,-0.22342976600565015,0.20725100381672382
1789927117328958700,1.538958740234375,0.11475333738327026,-0.30220271233879026,0.2720002471029758
1789927117338938600,1.548938720703125,0.12820669319629668,-0.3568473257180303,0.2542868957579136
1789927117348919600,1.55891943359375,0.2323649868071079,-0.3371023954801261,0.39820086117386816
1789927117358899700,1.568899658203125,0.298583718124032,-0.3378096669666469,0.567058713710308
1789927117368879600,1.578879638671875,0.303035436835885,-0.45278855673409996,0.6203039816856384
1789927117378859500,1.588859619140625,0.3609071955680847,-0.4669960919152945,0.5124783977389336
1789927117388839700,1.598839599609375,0.24916414591670036,-0.6467733978729695,0.4628969129681587
1789927117398820600,1.608820556640625,0.7205407179385424,-1.0514006388325243,0.7436158885776997
1789927117408800500,1.618800537109375,0.8297814293801784,-1.4222624613776802,0.7657043862670659
1789927117418780700,1.62878076171875,0.9251859231710433,-1.4008628227353095,0.7538222252935171
1789927117428760600,1.638760498046875,0.925128640025854,-1.4189194345600902,0.7221615971386433
1789927117438740700,1.64874072265625,0.5312088171720505,-1.8634787268050015,0.5983931786507368
1789927117448721700,1.6587216796875,-0.3607639877051115,-1.3123299682796001,1.3696364943444728
1789927117458701600,1.66870166015625,-1.7122423095464705,-0.7022596497081219,3.9068227301120757
1789927117468681500,1.678681396484375,-2.7420892151534555,-1.1374505904313177,5.682289849856495
1789927117478661600,1.68866162109375,-3.7919256003439425,-2.3176292926073074,6.245751415857672
1789927117488641800,1.698641845703125,-4.269940002945066,-3.0127891933128237,6.22250030412972
1789927117498622700,1.708622802734375,-3.4203210696727036,-2.36550835737437,7.605930930548906
1789927117508602600,1.7186025390625,-2.2537451417177916,-2.7199983793765306,7.297464116314053
1789927117518582500,1.72858251953125,-1.4215548976302146,-3.54349269131124,6.941983037447929
1789927117528562400,1.7385625,-0.8276514316141604,-4.000355584812164,6.948441419807076
1789927117538542800,1.74854296875,-0.6893710881710052,-3.9295626774474974,7.406323719483614
1789927117548523800,1.758523681640625,-1.1823790617644787,-3.81562474810034,7.92248928130269
1789927117558503700,1.768503662109375,-1.9295254625558853,-4.060288952249288,8.052675165617465
1789927117568483600,1.778483642578125,-2.7962995287686585,-4.456737709058821,8.004425806233286
1789927117578463500,1.78846337890625,-3.9785289529293775,-4.711064352305233,8.078387114500998
1789927117588443400,1.798443359375,-4.986043615218997,-5.078433729624748,8.36613730392158
1789927117598424600,1.808424560546875,-5.614311123129725,-5.396533464601635,8.260363391807674
1789927117608404700,1.81840478515625,-5.748738882797956,-5.8211617294520135,7.691475124582648
1789927117618384600,1.828384521484375,-5.461991148418187,-6.431953786426782,6.941053063121438
1789927117628364500,1.838364501953125,-4.877975454688072,-6.964780560189485,6.120057582265138
1789927117638345700,1.848345703125,-4.120299476575851,-7.58790778260231,4.995215348190069
1789927117648325600,1.85832568359375,-3.4630034425795078,-8.126224385952948,3.8924376464068886
1789927117658305500,1.868305419921875,-3.1188544895887373,-8.392310440576075,2.7651182085633277
1789927117668285700,1.87828564453125,-3.22103242303729,-8.78574511026144,1.7937135550528764
1789927117678265600,1.888265625,-3.5245781474828717,-9.194509451025723,0.8433627954870462
1789927117688246800,1.898246826171875,-3.9881735641092058,-9.312606253618002,-0.44092181252539153
1789927117698226700,1.908226806640625,-4.111799359256029,-9.480325457513333,-1.932841455236077
1789927117708206600,1.91820654296875,-3.736792618925869,-9.854849675023555,-3.3860090502262112
1789927117718186500,1.9281865234375,-2.791548534849286,-10.099717585051058,-4.64580336010456
1789927117728166700,1.938166748046875,-1.6804232759594917,-10.132176085585355,-5.607590874963998
1789927117738147800,1.94814794921875,-1.3070263089135288,-9.566727145159245,-6.09211626689434
1789927117748127700,1.958127685546875,-1.845138037341833,-8.743981021243334,-6.404887500324845
1789927117758107600,1.968107666015625,-2.183981285139918,-8.094012553656102,-6.754650786066055
1789927117768087600,1.978087646484375,-2.472917469474673,-7.497970322045683,-7.19633072348237
1789927117778067700,1.988067626953125,-2.5698969574972987,-6.903109993696212,-7.8480317139506335
1789927117788048600,1.998048583984375,-2.0378644028522075,-6.618828357169032,-8.751849854922295
1789927117798028800,2.00802880859375,-1.1916758824199438,-6.727136171674728,-9.116994834190606
1789927117808008700,2.0180087890625,-0.4681950193762779,-6.501830455729365,-8.648977509468793
1789927117817988600,2.027988525390625,-0.36024668583273883,-5.5289118905246255,-8.413122926980256
1789927117827968500,2.037968505859375,-0.6957938146948814,-4.762830487638712,-8.157791490605472
1789927117837949400,2.047949462890625,-1.883102149555087,-4.1839316985309125,-8.157623732823133
1789927117847929600,2.0579296875,-3.347268108421564,-4.014378264945745,-8.140911082953215
1789927117857909800,2.06790966796875,-4.638827675873041,-3.810291862639785,-8.336868539339303
1789927117867889700,2.0778896484375,-5.7548120652318,-3.1377924142926927,-8.651883167782426
1789927117877869600,2.08786962890625,-5.98043985273838,-2.836587115493417,-8.592285900431872
1789927117887850500,2.0978505859375,-5.792617772012949,-2.5883909378260372,-8.03685332710743
1789927117897830700,2.10783056640625,-5.91378331452608,-1.916213561040163,-7.6214511557638644
1789927117907810800,2.117810791015625,-5.473861618953943,-1.5103607238084078,-7.151497894543409
1789927117917790700,2.127790771484375,-5.79229862306118,-1.2214900059252978,-6.755244075784087
1789927117927770600,2.1377705078125,-5.168375281834602,-0.986248586899042,-6.821086375004053
1789927117937751600,2.14775146484375,-4.543357715630531,-0.6633411593794822,-7.106016830828786
1789927117947731700,2.157731689453125,-3.6816473625481128,-0.4698813650280237,-7.262105802685022
1789927117957711600,2.167711669921875,-2.2627403490781783,-0.5619704506605864,-6.69281538439989
1789927117967691800,2.17769189453125,-0.9175089588023722,-0.639366994073987,-5.486356943389773
1789927117977672700,2.187672607421875,-0.0010486322700977325,-0.19944997467696665,-4.655254494538903
1789927117987652600,2.197652587890625,0.6299522461272776,0.3088531832039356,-4.082617103913426
1789927117997632800,2.2076328125,1.3839711630366742,0.5584522134065628,-3.5717169152766464
1789927118007612700,2.21761279296875,1.829159693095833,0.5709539675831794,-3.209211052340269
1789927118017592600,2.227592529296875,1.4572960730969906,0.2699889072805643,-3.1746047261223196
1789927118027573500,2.237573486328125,1.1405496524251997,-0.26681962959468364,-3.0858079600334167
1789927118037553700,2.2475537109375,1.198523556357622,-0.5012994165986776,-2.920539656421542
1789927118047533800,2.257533935546875,1.5482991170585154,-0.5118897841960192,-2.74814252384305
1789927118057513700,2.267513671875,2.0882485823079944,-0.5805734443217515,-2.5415055602714416
1789927118067493600,2.27749365234375,2.6909377045869824,-0.6901642843753099,-2.329383881678432
1789927118077474600,2.287474609375,3.337522959476709,-0.9487702123761177,-1.9600795907735824
1789927118087455000,2.297455078125,3.759525551998615,-1.0933014329075812,-1.5115250914126634
1789927118097435100,2.30743505859375,3.6934780855953693,-1.0973895790040493,-0.8086449717186391
1789927118107415300,2.317415283203125,3.2715763230994344,-0.9874316592037677,-0.0545748360786587
1789927118117395200,2.327395263671875,2.756060457360744,-0.9979933852285147,0.21412768465317786
1789927118127376100,2.337376220703125,2.118093100951612,-0.9063140494406223,0.2976445375777781
1789927118137356000,2.34735595703125,1.280115067242831,-0.7765396685361862,-0.13570552451908588
1789927118147336200,2.357336181640625,0.635346067994833,-0.74717738045156,-0.7983487647622823
1789927118157316000,2.367316162109375,0.5149862889066338,-0.7910118460029363,-1.4589463245220482
1789927118167296300,2.377296142578125,0.6864777048170566,-0.589632949090004,-2.2019576713353395
1789927118177277200,2.387277099609375,1.0557309961870311,-0.19990414818525312,-2.7731489548057318
1789927118187257000,2.397257080078125,1.460743290941417,0.16805822659134864,-3.083317312261462
1789927118197237000,2.407237060546875,1.851516047941148,0.4258575143843889,-3.336815103468299
1789927118207217200,2.417217041015625,2.2258690005376933,0.5497071814149618,-3.439098250856995
1789927118217197000,2.427197021484375,2.371935175551474,0.5860626893877983,-3.3025080524578687
1789927118227178000,2.437177978515625,2.1688392455875873,0.5324906736761331,-3.1438451384603976
1789927118237158100,2.447158203125,1.8611524758145213,0.5989993278503417,-3.1173394088506696
1789927118247138000,2.457137939453125,1.4265361931741236,0.9160632900387048,-3.0516596067160364
1789927118257118200,2.4671181640625,0.9983154567897319,1.1926257304906844,-2.941625114548206
1789927118267098000,2.47709814453125,0.6789674753174185,1.2557219458729028,-2.816506450495124
1789927118277079000,2.4870791015625,0.2502452191516757,1.1952923193514347,-2.7158523656129834
1789927118287059000,2.497058837890625,-0.23868629878312347,1.2900941710740328,-2.8431664938837287
1789927118297039000,2.5070390625,-0.468075484649837,1.3994155465364455,-3.1840789491713046
1789927118307019300,2.517019287109375,-0.5359776390090585,1.6796306642770766,-3.1772470573246476
1789927118317000200,2.527000244140625,-0.6599687603369355,2.1413047574520108,-2.763516034063697
1789927118326980000,2.53697998046875,-0.48740708484649653,2.414281740632653,-1.9360164320103823
1789927118336960000,2.5469599609375,-0.07648118213415145,2.250152085661888,-0.941159298980981
1789927118346940200,2.556940185546875,0.28132132541686294,1.7964882804632185,-0.07821779666841029
1789927118356920300,2.56692041015625,0.29497517223805186,1.5664830085247754,0.6827367647230624
1789927118366901200,2.5769013671875,0.09514964224696158,1.4023223738938568,1.335158909072727
1789927118376881200,2.586881103515625,-0.25661796905398365,1.2088865449398756,1.635247478801757
1789927118386861000,2.596861083984375,-0.9712105922430753,0.9521832356899976,1.4121997709162533
1789927118396841000,2.606841064453125,-1.7461258744478225,0.7383487618297339,0.6456541115194558
1789927118406821400,2.6168212890625,-1.7645704626768826,0.3932107978016138,-0.013585457760095596
1789927118416802000,2.626802001953125,-1.694794038878381,0.11012567758262157,-0.5280943384133279
1789927118426782200,2.6367822265625,-1.4989239685148,-0.22791619070470331,-1.0400355605356395
1789927118436762000,2.64676220703125,-1.305942313069105,-0.3817991769492626,-1.183381516805291
1789927118446742000,2.656741943359375,-1.391531515288353,-0.3468523667305708,-1.1215100939776748
1789927118456722000,2.666721923828125,-1.4308227844521402,-0.37194530693292616,-0.7287433866817504
1789927118466703000,2.676703125,-1.3416566005289554,-0.6503191807210446,-0.23766411612853405
1789927118476683300,2.686683349609375,-1.104094629600644,-0.9078191933065652,0.5927415826298296
1789927118486663200,2.6966630859375,-1.0433306565582752,-1.0358470228046177,1.2899158918976783
1789927118496643000,2.70664306640625,-0.7379200150236487,-1.1486521487295627,1.3535305781960487
1789927118506623000,2.716623046875,0.5838029277622699,-0.9791337864577769,2.028510006790608
1789927118516604200,2.726604248046875,1.408271637687087,-0.7992711403042078,2.4126138074204326
1789927118526584000,2.736583984375,1.3625310462534428,-0.6731336545974016,2.2726468260645865
1789927118536564200,2.746564208984375,1.8728695093542336,-0.4696773668885231,1.972589674387127
1789927118546544000,2.756544189453125,1.7636492561787367,-0.15368541784584522,1.0256228581711648
1789927118556524000,2.76652392578125,1.3507652051359413,0.07396481539905071,0.6797530727371573
1789927118566505200,2.776505126953125,1.9081150102585553,0.2768950334072113,0.463668481862545
1789927118576485000,2.786485107421875,2.394147299620509,0.6828069073498249,0.10896627841442823
1789927118586465000,2.796465087890625,1.8282862712621688,0.6753940007448196,0.25761107174456116
1789927118596445200,2.806445068359375,0.8246089951783419,0.634370500960946,0.2282530214436352
1789927118606426000,2.816426025390625,0.054421326017379756,0.35018063437044616,0.13249445351809264
1789927118616406300,2.82640625,-0.509665093883872,0.09102350222766399,0.0512595009855926
1789927118626386200,2.83638623046875,-0.6658674629867076,0.3419628411233425,0.6005781214743853
1789927118636366000,2.846365966796875,0.47437926096916194,0.485336123791337,0.8561088798135519
1789927118646346000,2.856345947265625,0.833417155534029,0.4030260893732309,0.5781871337071061
1789927118656327200,2.8663271484375,0.9202560655534266,0.4049608568280935,-0.26553251239359377
1789927118666307300,2.876307373046875,0.3077332392632961,0.748164053401351,-1.2427459983132778
1789927118676287200,2.886287353515625,0.13289748136103152,0.9715455232858657,-1.7706911375142633
1789927118686267100,2.89626708984375,0.5502776747792959,1.2704635879307984,-1.3160508884988724
1789927118696247000,2.9062470703125,1.0879892979741095,0.8273165005713701,-0.7777927373372018
1789927118706228000,2.91622802734375,1.2051590488493442,0.980474679672718,0.26467005034536123
1789927118716208000,2.9262080078125,1.643463956874609,1.142873565328121,0.6450428477533161
1789927118726188300,2.936188232421875,1.83533385168612,0.6816665051430464,0.15619418579638003
1789927118736168200,2.946168212890625,1.413570328617096,0.2953974893033504,-0.520013031027466
1789927118746148000,2.956148193359375,1.1103759018272161,0.2810831327468157,-0.23577216490209102
1789927118756129000,2.96612890625,0.7997282364219427,-0.05702537103593349,0.0030059038177132603
1789927118766109200,2.976109130859375,0.3848614871293306,-0.21454408343434334,0.019676175850629807
1789927118776089000,2.986089111328125,-0.4289391137868166,-0.5425719227075576,0.5929940960861743
1789927118786069200,2.9960693359375,-0.8106085268765687,-0.7973667679876089,0.4077176081903279
1789927118796049200,3.006049072265625,-1.009634138661623,-0.5666448722124099,-0.1584507325515151
1789927118806030000,3.016030029296875,-1.1312667141646147,-0.6409136389940977,0.37731618631631136
1789927118816010200,3.02601025390625,-0.49966041721999643,-0.426133408716321,1.1844720885209739
1789927118825990100,3.035990234375,0.10961538997292518,-0.26314123334288597,0.8166882851816714
1789927118835970000,3.045969970703125,0.33603988081514835,-0.435917136105895,0.007681202152371406
1789927118845950200,3.0559501953125,-0.06005611703395843,-0.7886936321884394,-0.09160553989931941
1789927118855931100,3.06593115234375,-0.5872989531844854,-0.8887731320530176,0.12860723682120442
1789927118865911300,3.075911376953125,0.3783610191941261,-1.1929688448399305,-1.533504575769603
1789927118875891200,3.08589111328125,-0.43144963530302044,-1.0959604229837656,0.179442521045357
1789927118885871000,3.09587109375,-2.21376150637567,-1.361788118931651,1.5582929800674319
1789927118895852000,3.10585205078125,-3.1644132947146892,-0.9933177946329116,2.8262743957936762
1789927118905832000,3.11583203125,-2.009401547825336,-0.5795347489237785,1.2139575645938514
1789927118915812000,3.12581201171875,0.08705109146535396,0.2745247971445322,0.3299745894268155
1789927118925792300,3.135792236328125,0.3933528366208076,0.2571627434551716,-1.120162697956711
1789927118935772200,3.145772216796875,0.04239186552762985,0.14569792622327804,-2.2609729010142385
1789927118945753000,3.155753173828125,0.1616723249465227,0.10858312431573867,-2.0814298422038555
1789927118955733000,3.16573291015625,-0.18523323327600955,0.4225286622226238,-1.7528319479577241
1789927118965713200,3.175713134765625,-0.23204057715833185,0.779607823935151,-0.4164956656686961
1789927118975693300,3.185693359375,0.22407938902080057,0.7490770765930413,0.7389505271151662
1789927118985673200,3.195673095703125,0.05996083996593952,0.4834153848618269,1.2723486710250378
1789927118995654100,3.205654052734375,-0.6081318978548049,0.4939098908692598,1.5902907312221823
1789927119005634000,3.215634033203125,-0.07442892577946186,0.1677332324206829,1.7982411154799163
1789927119015614000,3.225614013671875,0.5282563971072435,-0.15217033710777758,0.5113436946205795
1789927119025594000,3.235593994140625,0.4250006052941084,-0.1543172860085964,-0.1326056588076055
1789927119035574300,3.24557421875,0.266997908771038,-0.16678163078427313,-0.5596225723601878
1789927119045555200,3.25555517578125,0.000052022448182106015,0.07098901445865631,-1.2371467170014976
1789927119055535000,3.26553515625,0.375539532032609,0.31574995698034763,-1.34305141588822
1789927119065515000,3.275514892578125,1.0217156215995549,0.2778659242659807,-1.757990207503736
1789927119075495200,3.2854951171875,1.9238199443906545,-0.22090835776925086,-1.9507614350691436
1789927119085475000,3.29547509765625,2.0374568449646233,-0.40086920360028744,-1.4026491216301917
1789927119095456000,3.3054560546875,1.6366630446881054,-0.9869856690019368,-0.6949784066587686
1789927119105436200,3.315436279296875,1.0024544562906026,-1.2375298711001872,-0.4039050641648471
1789927119115416000,3.325416015625,-0.054258828932046886,-0.7096312013894319,0.8407334698967636
1789927119125396000,3.33539599609375,-1.0598486606389284,-0.6979734968215227,0.8879729215860366
1789927119135376000,3.3453759765625,-1.4142629870563745,-0.1455547183603048,0.44017187094092364
1789927119145356800,3.355356689453125,-1.069032668569684,0.2776701094329357,0.24478724600672722
1789927119155337200,3.365337158203125,-0.1753968989163637,0.18228782747387884,-0.14572642166540026
1789927119165317000,3.375317138671875,0.7563520360320806,-0.04144143293499946,-1.3299186703316868
1789927119175297000,3.385297119140625,0.8310258764833212,0.1449666893392801,-1.794679331345111
1789927119185278000,3.39527783203125,0.37462475527524947,0.11876140398085117,-1.7354937135353683
1789927119195257900,3.4052578125,-1.162158111512661,0.2580196525454521,-0.703625823494792
1789927119205238000,3.415238037109375,-3.3516806641668078,-0.24098493111431596,1.9049604917503893
1789927119215218200,3.42521826171875,-4.230966421428323,-0.08021919961869717,3.3861317998230454
1789927119225198000,3.435197998046875,-2.2451380568921566,-0.4234428544580936,3.0980650917991994
1789927119235179000,3.445178955078125,-0.1369587394505739,-0.18947744671702385,1.573437503837794
1789927119245159000,3.455158935546875,1.1626777514725923,-0.02753916431069374,-0.05874927221909165
1789927119255139000,3.46513916015625,1.7976169922322034,-0.020317980885505675,-0.8496154261410236
1789927119265119000,3.475118896484375,1.7153239089488983,0.12200433142483234,-0.7322403619520366
1789927119275099100,3.48509912109375,1.0941069040715694,0.3664595689982176,-0.6515354246430098
1789927119285080000,3.495080078125,0.8071943345189094,0.2432505379587412,-0.12712810417935252
1789927119295060000,3.50506005859375,-0.39296763669550416,-1.0213824441224335,1.1398835897319017
1789927119305040100,3.5150400390625,-0.586318709975481,-0.7052256599068641,0.7855183631531893
1789927119315020000,3.52502001953125,-0.6545961273878812,-0.46337037569880485,-0.2406253040216863
1789927119325000000,3.535,-0.7461053673058747,-0.42022272336781025,-0.4496003551520407
1789927119334980900,3.54498095703125,-0.25836978115737436,-0.19642156676650047,-0.32333003684580325
1789927119344961000,3.5549609375,0.07347498605549335,-0.1546095469534397,-0.0653188598677516
1789927119354941000,3.56494091796875,0.672480159124732,-0.23185879085063932,0.06805120744109153
1789927119364921000,3.574921142578125,0.8625871359169482,-0.14037351633012293,0.3688220603458583
1789927119374901000,3.58490087890625,0.14579904851019382,-0.6355407137840986,0.5839058036148548
1789927119384882000,3.5948818359375,-0.4325888684660196,-1.0359329475224017,-1.4975786913856863
1789927119394861800,3.60486181640625,-0.2829991955012083,-1.1750970880627631,-0.7031298566713928
1789927119404842000,3.614842041015625,-0.01428980663716793,-1.2542173865288495,-1.3023011800877748
1789927119414822100,3.624822265625,0.06946750397980213,-0.844500859606266,-1.7840099071621893
1789927119424802000,3.634802001953125,0.6115823305696249,-0.26198738713264463,-2.1368664827436206
1789927119434783000,3.644782958984375,0.3699316290229559,0.14318623566329478,-1.5429367132425307
1789927119444763000,3.654762939453125,-0.33915421344339847,0.04029226289987564,-0.8868502011664211
1789927119454742800,3.66474267578125,-0.36594986591041084,0.08705693668425082,-0.9796125098854302
1789927119464723200,3.67472314453125,-0.14821896913349628,0.40815176182389257,-2.148817032778263
1789927119474704100,3.6847041015625,-1.1274345886558295,0.9050754475563764,-0.8116746948033571
1789927119484684000,3.69468408203125,-1.1837369061142204,0.6089478904128074,-0.7842476125650107
1789927119494664000,3.704663818359375,-1.7082552857369184,1.1941349660098552,1.3032058738425374
1789927119504643800,3.714643798828125,-0.2672989375442266,1.393702429586649,1.142859975194186
1789927119514624000,3.7246240234375,0.5520300714045763,1.6019009433865545,0.27972002770006654
1789927119524605000,3.73460498046875,0.35072248616218565,1.0070692566096782,0.5529249744176864
1789927119534585000,3.744585205078125,0.07681611317694187,0.2950596356511116,1.5673422557026147
1789927119544565000,3.75456494140625,-0.6640320642530918,-0.1860802054941654,2.4099758601322767
1789927119554545000,3.764544921875,-1.3815811991602183,-0.4017623530477285,1.6171161943055687
1789927119564524800,3.77452490234375,-1.124900686264038,-0.2572194420784712,0.638619098316133
1789927119574506000,3.784506103515625,-0.17239830162227152,-0.23416882135868072,-0.0002228489704430103
1789927119584486000,3.79448583984375,0.819759801581502,0.13199322599768637,-0.28519202937036753
1789927119594466000,3.804466064453125,1.9417688580572603,0.4789478840589523,-1.0756143850475548
1789927119604446000,3.814446044921875,3.067835665491223,0.33938977576494217,-1.6818026014886795
1789927119614427100,3.82442724609375,3.1243390584796664,0.09322072001099586,-1.3918075557507574
1789927119624407000,3.834406982421875,2.2013065139502284,-0.5716092166215181,-0.883727539101243
1789927119634387000,3.844386962890625,0.37735505702197547,-0.8882833027094602,0.8891009027026593
1789927119644367000,3.8543671875,-1.2064274613499641,-0.8968693447470665,1.6162281594246626
1789927119654347800,3.86434765625,-1.3157143500208854,-0.7764742020845413,0.8873935142628848
1789927119664328200,3.874328125,-0.6017454116880894,-0.14493863228857518,-0.05507189888060093
1789927119674308000,3.88430810546875,-0.18411796551048754,0.29198621955513954,-0.30583368925228716
1789927119684288000,3.8942880859375,0.14310790973007678,0.9587836568683386,0.15333528923392295
1789927119694268000,3.904267822265625,0.5293599744349717,1.4170511564701795,0.6691383013509213
1789927119704248800,3.914248779296875,1.0237532649070025,0.6558715541511774,0.686838647083938
1789927119714229000,3.92422900390625,-0.06590250497460365,0.0041477673292160035,-0.40401597719341514
1789927119724209200,3.934209228515625,-2.2157021190494297,0.21478373740911483,1.3542434026405215
1789927119734189000,3.94418896484375,-0.8515303198516369,0.022255086427927017,-0.23987346274107693
1789927119744170000,3.954169921875,-0.4049176022082567,-0.8380226035028696,-0.8135419499799609
1789927119754150000,3.96414990234375,-0.19539339276254175,-0.2688385682016611,0.15769450735673307
1789927119764130000,3.974130126953125,0.47584231925904746,0.08252280038595199,0.33529242344871163
1789927119774110000,3.98410986328125,1.2126020583316683,0.6461217290312051,0.369109937376529
1789927119784090000,3.994090087890625,2.3312843084722754,1.4557698864430189,0.22348712221607564
1789927119794071000,4.004071044921875,2.571362353874743,1.9048942946463823,-0.3463084691122174
1789927119804051000,4.014051025390625,2.6874522005587815,1.4694243177860975,-2.3018014627479015
1789927119814031000,4.024031005859375,1.8514526273161171,0.041380058136582375,-3.799847040992975
1789927119824011000,4.034010986328125,1.7622218537241219,1.891298900014162,-4.067195078375935
1789927119833992000,4.043991943359375,-2.126916751137376,0.07502864523828029,-0.9288155118450522
1789927119843971800,4.053971923828125,-3.7951480695217845,-0.5555225896954537,2.6599931157469747
1789927119853952000,4.063951904296875,-2.531561089362204,0.18783552472889423,1.693045880036801
1789927119863932000,4.073931884765625,-1.2679060124024748,-0.897847249868512,1.6434866070978342
1789927119873913000,4.0839130859375,0.11311609157025813,0.37951369636058807,1.3146046352133154
1789927119883893000,4.09389306640625,0.7778700403571128,-0.05907587382495403,1.693902642996609
1789927119893873000,4.103872802734375,0.4002124932572245,0.5178267730295658,0.6763048319794237
1789927119903853000,4.11385302734375,0.6628329175963997,0.568407205709815,-1.3112130930788815
1789927119913834000,4.123833984375,1.054179675091803,-1.2422159830898045,0.1800305500663817
1789927119923814100,4.133814208984375,0.39923195778727527,-2.750441448435187,0.8356832007698715
1789927119933794000,4.1437939453125,-0.8111845731988548,-2.0382897886574267,1.0227150079004466
1789927119943774000,4.15377392578125,-0.8706088220700621,-0.08972937076389789,-0.47424613610878585
1789927119953753900,4.16375390625,-0.3875894507884979,0.15751812787652014,-0.18435703496336936
1789927119963735000,4.173735107421875,-0.2576043497428298,1.4854495699137449,-1.0102907028742134
1789927119973715000,4.18371484375,0.3622343525186181,1.3687737400352955,-1.1097358503580093
1789927119983695000,4.193695068359375,0.7686635283336043,1.850005935639143,-0.03752732823118567
1789927119993675000,4.203675048828125,3.158546448507905,4.191984072083234,1.0367672063894569
1789927120003656000,4.213656005859375,2.402741232703626,-0.5267915852516889,-3.6291222255408764
1789927120013636000,4.223635986328125,-2.680754164224863,1.7231138321727513,-3.4710967326641082
1789927120023616000,4.233615966796875,-1.1344342382848263,5.622324918237328,3.065859689243138
1789927120033596200,4.24359619140625,-0.768757344096899,0.8857885632842779,3.651024845269322
1789927120043576800,4.253576904296875,-3.416718661266565,-2.0256436575740575,4.426011439144611
1789927120053557000,4.263556884765625,-2.7775065654933453,0.3373059552282095,0.7479213306866586
1789927120063537200,4.273537109375,-1.42538220083341,-2.6817589573532343,-3.3469588963419197
1789927120073517000,4.28351708984375,-0.8395112346254289,0.9293886355578899,0.9275392082989216
1789927120083498000,4.293498046875,0.32460458682626486,1.877730977910757,2.0332620236232875
1789927120093477600,4.3034775390625,0.7688628502979874,-1.280035718396306,-0.30357553506195545
1789927120103457800,4.313457763671875,0.3372013258099556,-3.603668635332584,-0.8861280243717133
1789927120113437700,4.323437744140625,0.5294377158463001,-2.687848506399989,-0.08569324711561202
1789927120123419000,4.3334189453125,0.817060041103512,-2.098981865507364,0.06606938597410916
1789927120133398800,4.343398681640625,0.4199721096076071,-2.722821035581827,-0.30969445633366705
1789927120143378700,4.353378662109375,0.1805842384263873,-3.741597096598148,-0.9251292245477437
1789927120153358600,4.363358642578125,0.8761926135517656,-4.57812390858531,-1.0005191043138504
1789927120163338800,4.3733388671875,2.070163036649674,-4.554377706816792,-0.37618703615590926
1789927120173320000,4.38331982421875,2.557859313701093,-4.4549663154721255,-0.6236287421941756
1789927120183299800,4.3932998046875,1.2311121130123734,-3.442659742730856,-1.1064493760332466
1789927120193279700,4.40327978515625,0.40529461882710455,-2.8256284991055725,-0.9045337418951094
1789927120203259600,4.413259765625,-0.3475555465638637,-2.354820082360506,-0.8418792789310217
1789927120213240800,4.42324072265625,-0.7464251007795334,-1.330679863962531,-0.3979170757964253
1789927120223220700,4.433220703125,-1.141170122411102,-0.2045797387808561,0.23496114078015087
1789927120233201000,4.443200927734375,-1.6025599918171762,0.9442091880708933,0.6582765694662929
1789927120243180800,4.453180908203125,-1.615614849831909,2.146165056964755,0.8457141809187829
1789927120253161700,4.46316162109375,-3.3264906933307645,6.649195438382029,3.4011472903862594
1789927120263142000,4.473141845703125,-2.4890496891081333,3.410700423890352,1.0031541289925574
1789927120273121800,4.483121826171875,-0.6149710962250828,0.7201543489694595,-1.132732110542059
1789927120283101700,4.493101806640625,-0.2668903567433357,1.8869816213369368,-1.4079559958666563
1789927120293082600,4.50308251953125,-0.08203297104239464,1.8539421060442924,-0.8405588439822197
1789927120303062800,4.513062744140625,-0.010792904432117938,1.551356751063466,0.5079594590097666
1789927120313042700,4.523042724609375,-0.2157151730403304,0.9439707031399011,0.09684314829185604
1789927120323022800,4.53302294921875,0.07436141350120305,-0.19949907451570034,0.061317369141429656
1789927120333003800,4.543003662109375,0.8043485896989703,-0.40755964114964005,0.5510938134677708
1789927120342983700,4.552983642578125,1.2556792757749557,-0.5656687206566333,0.08819938471764326
1789927120352963600,4.562963623046875,1.9451687296286224,-1.0532961702555417,0.0365155208401382
1789927120362943700,4.57294384765625,2.1267864027559757,-1.1281062043070793,0.20161285179927943
1789927120372924000,4.582923828125,1.7363626053243875,-0.8111193990081548,0.35140769194737076
1789927120382904800,4.59290478515625,1.0165200987830758,-0.24804011032283305,0.13029329021200536
1789927120392884700,4.602884765625,0.09953940163850784,-0.20588497616052626,0.057288552016764874
1789927120402864600,4.61286474609375,-0.4586477310910821,-0.5227595532566308,0.22986674025058745
1789927120412844500,4.622844482421875,-0.6032254211127758,-0.6264543210089206,-0.1127189089462161
1789927120422825700,4.63282568359375,-2.3823659686729313,1.3498995282173156,-1.5505552254222332
1789927120432806000,4.642805908203125,-0.36565000618100163,4.949497553110122,-2.966487753126025
1789927120442785800,4.652785888671875,0.500731553582847,3.2221851002037525,-0.6609913813829421
1789927120452765700,4.662765625,1.3091545531138777,2.3756132795423266,-0.6205775379300117
1789927120462747000,4.672746826171875,2.576809513364732,1.8195190274387596,-1.5592951428472994
1789927120472726800,4.682726806640625,2.6617802914246913,-0.06228256091177463,0.05017755096778273
1789927120482706700,4.692706787109375,1.8283800870254634,-2.374874443873763,0.9628552902214228
1789927120492686800,4.702686767578125,0.5096332374408841,-2.539282331264019,0.4422724964819848
1789927120502667800,4.712667724609375,-1.031933941014111,-1.7848311604171991,-1.1577235631313174
1789927120512648000,4.72264794921875,-1.878695146767795,-0.9398357952922582,-1.3989941062539815
1789927120522627800,4.7326279296875,-0.4401037741407752,0.43381051921546454,-0.30773342192638664
1789927120532607700,4.742607666015625,-0.3285913183748722,1.1291221033513545,0.41565804580077526
1789927120542587600,4.752587646484375,-0.8440507777512073,1.2930144424349068,-0.02288693632436916
1789927120552568600,4.762568603515625,-1.5681693541765211,1.887958357414603,-0.25382771728094666
1789927120562549000,4.772549072265625,-1.5247981222227216,1.005581063878536,0.12235284346840343
1789927120572529000,4.78252880859375,-0.3908509368024766,-0.0868400790631771,0.19924349231943486
1789927120582508800,4.7925087890625,0.03418883145824075,-0.6279074424266815,-0.83020966472961
1789927120592489700,4.80248974609375,-0.04193009323477745,0.016571780094504357,-1.3640822212181984
1789927120602469600,4.8124697265625,0.2851442447058856,0.4826216041356325,-1.3312123634040356
1789927120612449500,4.822449462890625,0.6050383157536388,0.36892800493836403,-0.9058503774516284
1789927120622430000,4.832429931640625,0.6141369834885001,-0.2327180380284786,-0.5140407516848295
1789927120632411000,4.842410888671875,1.0400327840566634,-0.31197862174808977,-0.17950294599570332
1789927120642390800,4.852390869140625,0.8088555457293987,0.2977081043332815,0.1848196840390563
1789927120652370700,4.86237060546875,-0.614316139447689,0.8430547524511813,0.692601740655303
1789927120662350600,4.8723505859375,-1.9273034025922418,1.530970381116867,1.3683835716739297
1789927120672331800,4.882331787109375,-1.4074023075066506,0.4602291550636291,1.2512374939352273
1789927120682311700,4.892311767578125,-0.04690203642845153,0.05724982744157314,1.2894130569420754
1789927120692291800,4.902291748046875,0.21828473126739262,0.39896249319612975,0.8693386560037731
1789927120702271700,4.912271728515625,-0.2355892095506191,0.25822189711928367,0.09925941565334796
1789927120712251600,4.922251708984375,-0.4268526629015803,0.23893501284718513,-0.09827522692158817
1789927120722232800,4.93223291015625,-0.21329086850285528,-0.2657014392197132,-0.03821954827904701
1789927120732212700,4.942212646484375,-0.04471826264858245,-0.6695271545380354,-0.18831293298229573
1789927120742192600,4.952192626953125,0.19755437018871305,-0.05053425545096397,0.07075272148475051
1789927120752172800,4.9621728515625,-0.07098200019598007,0.40191432873904703,0.34897944188714025
1789927120762154000,4.972154052734375,-0.10775880232080817,0.30514263824820514,0.38037396645173427
1789927120772134000,4.9821337890625,-0.03259177152514457,0.728269850885868,-0.013591449109464884
1789927120782113800,4.99211376953125,-0.011794336559623479,2.031982212945819,-0.05253244353085756
1789927120792093700,5.00209375,-0.16678382274135947,3.100302349331975,-0.07592398664280772
1789927120802074600,5.01207470703125,-0.7783360504336655,4.082846821016073,-0.35557357945516704
1789927120812054800,5.0220546875,-0.8758940689966082,3.9261680665731427,-0.45433162145763634
1789927120822035000,5.032034912109375,-0.12978987073451279,3.769471776473522,-0.3899389365240931
1789927120832014800,5.042014892578125,1.0860089378118514,0.49094168871343136,-1.3566373120397328
1789927120841994800,5.051994873046875,0.6996762090861797,1.472481951791048,-2.303689176190644
1789927120851975700,5.0619755859375,0.5473310999333858,0.42243923037350173,-1.6923533677279947
1789927120861955600,5.07195556640625,-0.19220365681052207,0.4824029929488897,-1.818551205319911
1789927120871935700,5.081935791015625,-0.5270683563664555,0.30157413211166856,-1.2064810912333428
1789927120881916000,5.091916015625,-2.8472178151011467,-2.106091405251622,-1.6070799534596503
1789927120891896800,5.101896728515625,0.6898334449857473,-1.4135685750514269,-1.1421372138775885
1789927120901876700,5.111876708984375,2.5414485693871973,-0.9980343017607927,0.4238457361705601
1789927120911856600,5.121856689453125,-1.1593638046190142,0.6188403388738631,0.48242622769400473
1789927120921836800,5.1318369140625,-1.0001289359524845,-1.4412602995753288,1.6872921388156712
1789927120931817700,5.141817626953125,0.8948319937005639,-2.9787738187253474,4.001446887180209
1789927120941797600,5.151797607421875,-0.4402908211454749,-4.491369169718027,3.6066000126093622
1789927120951777800,5.16177783203125,0.5637997119143605,-4.010760074448585,3.728335463964939
1789927120961757700,5.1717578125,0.689570994657278,-4.2228450742930175,3.656154024851322
1789927120971737900,5.18173779296875,-0.47552404709011314,-5.332703089725971,2.5440496917963027
1789927120981718800,5.19171875,-0.8433408759161829,-4.985787010109425,1.0319240041419864
1789927120991698700,5.20169873046875,-0.935945802116394,-3.107480278137326,-0.3796465289600193
1789927121001678600,5.2116787109375,-0.2532780109763145,-3.0982384025394913,-1.7253408605724572
1789927121011658800,5.22165869140625,0.036138942612707614,-3.1564450923144816,-2.547340550035238
1789927121021640000,5.231639892578125,-0.023092414034903048,-2.243373385307193,-2.524009651069343
1789927121031619800,5.241619873046875,0.4043611373692751,-1.5243325505375862,-1.808307897594571
1789927121041599700,5.251599853515625,0.664458765232563,-0.6432283456772565,-0.8592951086342334
1789927121051579600,5.26157958984375,0.6094231067091226,0.044430677878856656,-0.3095931879162788
1789927121061560800,5.271560791015625,0.4510577143535018,0.7886106300801038,-0.14501418174281716
1789927121071540700,5.281540771484375,0.5150327583968639,0.9329548036068678,-0.575772912172228
1789927121081521000,5.29152099609375,0.06461304968595505,0.9319383200407028,-0.7300146487265825
1789927121091500300,5.301500244140625,0.02502951957732439,1.0102578235179185,-0.711860714007169
1789927121101480200,5.311480224609375,0.04084638965129852,0.6997393374502658,-0.5066609436318278
1789927121111461000,5.321461181640625,-0.33764410114139315,0.39205285993814465,-0.24554383652769027
1789927121121441300,5.331441162109375,-0.5985036532878876,0.08982757044136523,-0.07838328942842782
1789927121131421400,5.34142138671875,-0.7497142054527998,0.22415186973512172,0.20034261266775427
1789927121141401300,5.3514013671875,-0.09321867418438196,0.5505763654649257,0.6797738963294774
1789927121151382300,5.36138232421875,0.18602642948031425,0.1212128887861967,0.2708988617323339
1789927121161362200,5.371362060546875,0.03637362815141677,-0.1988128458172083,-0.07634937244802713
1789927121171342300,5.38134228515625,0.10315437726527452,-0.19897475838065146,-0.22143983429744837
1789927121181322200,5.391322265625,0.09696078332215546,-0.1868728171765804,-0.2884367103800177
1789927121191303200,5.40130322265625,-0.2046741390660405,-0.2844219217807054,-0.25962679548114537
1789927121201283300,5.411283447265625,-0.24394524222463368,-0.22872867613136766,-0.026710458401590583
1789927121211263200,5.42126318359375,-0.9117690999761223,0.6440683036327361,-0.0245111217264086
1789927121221243100,5.4312431640625,-0.6533379440203309,0.6432651705563068,-0.3716553110104054
1789927121231223300,5.441223388671875,0.6035317105829715,0.15448153665959835,-0.4659167722459882
1789927121241204200,5.451204345703125,1.2621706836208701,0.2376771217405796,-0.21339593631252646
1789927121251184000,5.46118408203125,1.6451146466910838,0.40546003852188583,0.2861998912386596
1789927121261164300,5.471164306640625,1.7609540257453917,0.1673883645057678,0.8234459427483379
1789927121271144200,5.481144287109375,0.9211249573424458,-0.16969196527302263,1.1300976703852414
1789927121281125400,5.49112548828125,0.36603959002047776,0.2782195600092411,-0.44912002428919073
1789927121291105300,5.501105224609375,0.08679448635578155,-0.5662509044587611,-0.8507916303135454
1789927121301085200,5.511085205078125,-0.19121026185899972,-0.40772622988820073,-0.3059820847470313
1789927121311065000,5.521065185546875,-0.49507601203918455,-0.19150164602100847,0.03013948300220072
1789927121321045200,5.531045166015625,-0.7841551119759679,0.009958499434590339,-0.04913578682988882
1789927121331026400,5.5410263671875,-0.6258335587620735,0.048999300968647,-0.15517843288257718
1789927121341006300,5.55100634765625,-0.19929186150580644,0.1494417889267206,-0.08754296663552522
1789927121350986200,5.560986328125,-0.05785860698968172,0.1649047309964895,-0.11666041311360895
1789927121360966100,5.570966064453125,0.08052344326227903,0.05581248811483383,-0.13875870154462755
1789927121370947300,5.580947265625,0.2113622385278344,-0.05419570056796073,-0.11057371361106634
1789927121380927200,5.59092724609375,0.24260610257536172,0.003928571620583534,0.054223100031539795
1789927121390907400,5.600907470703125,0.26678368149846793,-0.02984919481873512,0.08328582064770161
1789927121400887300,5.61088720703125,0.20511194596141574,-0.04503916516602039,-0.02833389488495886
1789927121410868200,5.6208681640625,-0.023409224899113176,0.007775310176610946,-0.09732428287230431
1789927121420848400,5.630848388671875,-0.19662819525450467,0.004436521142721176,-0.21365919035859404
1789927121430828300,5.640828369140625,-0.22069705310612917,-0.1900192985087633,-0.312358195650205
1789927121440808200,5.65080810546875,-0.22510201006680725,-0.2301163310974836,-0.33011867407262324
1789927121450788400,5.660788330078125,-0.298788885307312,-0.15579846447706222,-0.300988221982494
1789927121460769300,5.670769287109375,-0.25981734961718317,-0.10930325528383254,-0.3086168902300298
1789927121470749200,5.680749267578125,-0.084352353900671,-0.06776596075892448,-0.38396402683295305
1789927121480729300,5.690729248046875,0.06107201607823372,0.002882277438044548,-0.37023463055752215
1789927121490709200,5.700709228515625,0.15084084206968545,0.011204700103402137,-0.35118849623873827
1789927121500690200,5.710690185546875,0.14372428806275128,0.030638299369812008,-0.37511407316215334
1789927121510670000,5.720670166015625,0.021346739411354065,0.10785539456307887,-0.36638986476287244
1789927121520650200,5.730650146484375,-0.05777618940323591,0.09793255096375941,-0.35844599308632313
1789927121530630400,5.74063037109375,-0.05005407071858644,0.0886655409246683,-0.34601248184032735
1789927121540610300,5.7506103515625,-0.059679977197945114,0.07680851439237595,-0.32417825117297466
1789927121550591200,5.76059130859375,-0.06356061802357435,0.08083528569042682,-0.27816015797220167
1789927121560571100,5.770571044921875,-0.122053431263566,0.1044382795959711,-0.22052096588686107
1789927121570551000,5.780551025390625,-0.2066223505243659,0.11507073276937008,-0.1875485244810581
1789927121580531500,5.790531494140625,-0.2261129406750202,0.10063245757222175,-0.16814290920011699
1789927121590512400,5.800512451171875,-0.2112906345963478,0.08197451885342598,-0.12313596580326557
1789927121600492300,5.8104921875,-0.1865823097974062,0.03332651554048061,-0.04918744395188987
1789927121610472200,5.82047216796875,-0.16469108824580908,0.0034989480316638946,-0.06269939808435737
1789927121620452000,5.8304521484375,-0.08771919998526573,-0.06915536929070949,-0.12137611652389169
1789927121630433300,5.840433349609375,0.025756080286204814,-0.12562953618466854,-0.09855952375568448
1789927121640413200,5.8504130859375,0.06802519621700048,-0.18394202442169189,-0.019261384504660962
1789927121650393300,5.860393310546875,0.03175648974478244,-0.23021979147195815,0.08801701388806105
1789927121660373200,5.870373291015625,-0.03944324485510588,-0.2796124756723642,0.14732362772896884
1789927121670353200,5.880353271484375,-0.1779223257407546,-0.2742150005429983,0.15917561275996267
1789927121680334300,5.890334228515625,-0.35155484533309933,-0.19258827221393585,0.17300101675577462
1789927121690314200,5.900314208984375,-0.39971915678232905,-0.03277881852984428,0.07091653374433517
1789927121700294100,5.910294189453125,-0.39787382117658854,0.16166940233707427,-0.04377988581992685
1789927121710274300,5.9202744140625,-0.29668957494050263,0.34439679027199743,-0.16316512078754603
1789927121720255500,5.93025537109375,-0.22355594966858625,0.4396627523750066,-0.27161234376393256
1789927121730235400,5.9402353515625,-0.15100275463312862,0.501253823891282,-0.3694708796434104
1789927121740215300,5.95021533203125,-0.16418576907217503,0.5331880082905293,-0.3931912893835455
1789927121750195200,5.9601953125,-0.18787147282510994,0.4710001399248838,-0.42203371831253167
1789927121760175000,5.970175048828125,-0.25605361316949127,0.40243221513330935,-0.4589882150918245
1789927121770156000,5.980156005859375,-0.3540867018982768,0.3241413532286882,-0.46712943597137924
1789927121780136400,5.990136474609375,-0.4380953569278121,0.27804303439855577,-0.4539751361701637
1789927121790116400,6.000116455078125,-0.525870086492598,0.24951193644106387,-0.376160951866582
1789927121800096300,6.01009619140625,-0.5915490118443966,0.2686725639849901,-0.22488975555561483
1789927121810077200,6.0200771484375,-0.5367196895480155,0.2408306173354387,-0.14429368544854224
1789927121820057000,6.03005712890625,-0.432936951251328,0.20576105751991272,-0.13835092446133493
1789927121830037200,6.040037353515625,-0.3683636490538716,0.1748439412087202,-0.07541187240220606
1789927121840017400,6.050017333984375,-0.3460501104369759,0.16932254743874073,-0.08518018302693962
1789927121849998300,6.059998291015625,-0.36602614601701494,0.1808165858775377,-0.06680785631649196
1789927121859978200,6.069978271484375,-0.4381117235407233,0.14694237332642077,-0.11261727520264685
1789927121869958100,6.079958251953125,-0.45561172439604997,0.09649170450568198,-0.1689712497830391
1789927121879938300,6.089938232421875,-0.325665494056046,0.09874912804365157,-0.1365468707140535
1789927121889919200,6.099919189453125,-0.2556777655944228,0.18457973780333994,-0.1615588546346873
1789927121899899100,6.109899169921875,-0.16503040320277212,0.21553952421247957,-0.3183430422134697
1789927121909879300,6.11987939453125,-0.04249240329265594,0.24432255110442638,-0.4141189265999943
1789927121919859200,6.129859130859375,-0.09513093754649161,0.3245896815180778,-0.47728791495747863
1789927121929840400,6.13984033203125,-0.2940384759098291,0.3974111721009016,-0.5125933293554932
1789927121939820300,6.1498203125,-0.4719625552162528,0.48080724819004533,-0.4659874993946403
1789927121949800200,6.15980029296875,-0.6178463594004512,0.4789613280624151,-0.4119968198794871
1789927121959780000,6.169780029296875,-0.599321399411559,0.41641807038784023,-0.2958399723738432
1789927121969761300,6.17976123046875,-0.6212088215708732,0.30009821434020995,-0.14444829148836433
1789927121979741400,6.189741455078125,-0.614950345697999,0.13775193565487862,0.05165215356498956
1789927121989721300,6.199721435546875,-0.544003709076345,0.05367781417369842,0.3037649201542139
1789927121999701200,6.209701171875,-0.40098756928294893,0.025929391026496884,0.41944406714551147
1789927122009682200,6.21968212890625,-0.4423667506366968,-0.08199380807578563,0.48752581585533916
1789927122019662000,6.229662109375,-0.44147272440642116,-0.36584114483892916,0.3567079172473401
1789927122029642200,6.239642333984375,-0.21635230190008878,-0.5609212338685989,0.1999437130106613
1789927122039622400,6.249622314453125,0.13109803072363138,-0.5982277589559555,0.17047942585628478
1789927122049603300,6.259603271484375,0.42728930075317617,-0.4774070843577385,0.16149981792382895
1789927122059583200,6.269583251953125,0.5104568287834524,-0.35973230656981464,0.12895732890050857
1789927122069563100,6.279563232421875,0.5052902398005128,-0.230979085406661,-0.050005409271270035
1789927122079543300,6.289543212890625,0.39092151782065626,-0.049860886234045027,-0.29128983478881415
1789927122089525000,6.29952490234375,0.056575581441819664,0.22872458447813987,-0.3511008544879034
1789927122099505000,6.3095048828125,-0.13997019622623919,0.41372517804205416,-0.33824944662339984
1789927122109485000,6.319485107421875,-0.17138152579516172,0.46424014427065846,-0.1935027567103505
1789927122119466000,6.329466064453125,-0.27386487193107606,0.38631051689386364,0.14221644078306853
1789927122129446100,6.339446044921875,-0.40703649405837056,0.17200959456562995,0.46946332227904347
1789927122139426000,6.349426025390625,-0.25129560498744247,-0.07924655519425869,0.5498313923165202
1789927122149406000,6.359406005859375,-0.2980114711940288,-0.22184943801164625,0.3779929530667141
1789927122159387100,6.36938720703125,-0.525443093252182,-0.3167874833345413,0.5329124792847783
1789927122169367000,6.379366943359375,-0.6980000925675034,-0.3764671682715416,0.7096974715586751
1789927122179347000,6.389346923828125,-1.1099743352890015,-0.2899889082580805,0.8215771532017737
1789927122189327000,6.3993271484375,-1.328857616971433,-0.031790392014384265,0.8744878554604947
1789927122199308000,6.40930810546875,-1.2967919151470064,0.29680969418883324,0.9741867585096508
1789927122209288200,6.4192880859375,-0.9815300339445471,0.5541425335139036,0.5611787522936239
1789927122219268000,6.42926806640625,-0.7810483781322837,0.7724252189546823,-0.014921782114484812
1789927122229249000,6.4392490234375,-0.667672174321115,0.8883908547371625,-0.3598525354159996
1789927122239229000,6.44922900390625,-0.5289458406761288,0.9762707982420921,-0.4657223456524312
1789927122249209000,6.459208984375,-0.5043044436335563,1.04604459169209,-0.6254382027689367
1789927122259189200,6.469189208984375,-0.5572425453558564,1.1077309402763842,-0.7046548742815851
1789927122269170000,6.479169921875,-0.6971852690532803,1.1530506759494543,-0.7635312800116837
1789927122279150000,6.489150146484375,-0.8409972353994846,1.1338625758767127,-0.718311789842695
1789927122289130000,6.4991298828125,-0.8978484189122915,1.1357967588096856,-0.6528853048820048
1789927122299110000,6.50910986328125,-0.8389867723599076,0.9761457105576992,-0.4287954675324261
1789927122309091000,6.519091064453125,-0.7864718644857406,0.7354360892534255,-0.3984135540764779
1789927122319071000,6.529071044921875,-1.0182163813069462,0.7644283749818801,-0.3312221783351153
1789927122329051100,6.539051025390625,-1.24455582421422,0.8081020970135927,-0.2807196331966668
1789927122339031800,6.54903173828125,-1.3617533398792148,0.7767723082482815,-0.19645552383502946
1789927122349012200,6.55901220703125,-1.574439812748134,0.7848077306658029,0.0021804858442395925
1789927122358992100,6.5689921875,-1.6371677793398498,0.8233622099876403,0.07477920052185655
1789927122368972000,6.578971923828125,-1.5746099086180327,0.792939014673233,0.017951927607599644
1789927122378953000,6.588952880859375,-1.4255015894293783,0.8309645016849041,-0.08466962142260745
1789927122388932900,6.598932861328125,-1.4953247749790548,0.9204501268208026,-0.23395280398782342
1789927122398913000,6.6089130859375,-1.6045087877973914,1.00824063847661,-0.4126300397491082
1789927122408893200,6.61889306640625,-1.7623662306308745,1.2922352747559547,-0.41027942150235175
1789927122418874000,6.6288740234375,-1.9133435585618017,1.3473404913842677,-0.4780596299823373
1789927122428854000,6.63885400390625,-1.7708303998544812,1.370417415589094,-0.5347163869015872
1789927122438834000,6.648833984375,-1.6159724310979247,1.3061007185012101,-0.39416532204747196
1789927122448815000,6.658815185546875,-1.48484283619225,0.963766121456027,-0.24655356155950575
1789927122458795000,6.668794921875,-1.4461375502228737,0.6369342139691114,-0.13544563147388397
1789927122468775000,6.67877490234375,-1.599117450147867,0.4521136531472206,0.024795930017158387
1789927122478755000,6.688755126953125,-1.9245128950908779,0.5808586910039186,0.21200619898717848
1789927122488736300,6.698736328125,-2.1587936523914335,0.6537701979577542,0.4891342374326661
1789927122498716200,6.708716064453125,-2.1311305694401264,0.786141025096178,0.6334500251151621
1789927122508696000,6.718696044921875,-2.0655821386002002,0.8839648549884557,0.8766155151389539
1789927122518677000,6.728677001953125,-2.0442378834068773,0.5831085157573223,1.0096160184830427
1789927122528657000,6.738656982421875,-2.055154706479609,0.2992646861255169,1.0418477975893765
1789927122538637000,6.748636962890625,-2.1557965164020656,-0.11948270399272441,1.0096262476161122
1789927122548617200,6.7586171875,-2.2458970585659146,-0.588948473957181,0.8627225988648831
1789927122558598100,6.76859814453125,-2.6067303121149537,-0.9449860176622867,0.6641938306860625
1789927122568578000,6.778578125,-3.3629180974960327,-1.181488834926486,0.4162206481195986
1789927122578558000,6.788557861328125,-3.791933783650398,-1.6039719044417142,-0.2183095734477043
1789927122588537900,6.798537841796875,-4.108756630559266,-2.089138516885042,-0.7372802558153867
1789927122598519000,6.80851904296875,-3.861346050311625,-2.5254443600475787,-1.1789261448316275
1789927122608499000,6.8184990234375,-3.9628529526308176,-2.7910113592326637,-1.5873906258665025
1789927122618479000,6.82847900390625,-4.501838249023258,-2.625774035280943,-1.838287002403289
1789927122628460000,6.8384599609375,-5.213123939621449,-1.8529174391716718,-1.7757435985982417
1789927122638440200,6.848440185546875,-5.512667442688346,-0.8726531873792409,-1.6480433936193584
1789927122648420000,6.858420166015625,-5.281036030852794,-0.4556383201420307,-1.8857421426698564
1789927122658400000,6.86839990234375,-4.76407405795902,-0.5308984360486269,-2.1976015219524503
1789927122668381000,6.878380859375,-4.013511711244285,-0.6640548606067895,-2.1852315774619577
1789927122678360800,6.88836083984375,-3.126373486916721,-0.9824427648752927,-2.0214099655270577
1789927122688341200,6.89834130859375,-1.9818214669823646,-1.4608710089743135,-1.690951245845109
1789927122698321200,6.908321044921875,-0.8270584341570735,-2.0023165580004454,-1.3922080993756651
1789927122708302000,6.918302001953125,0.8643480081096291,-2.1956594479739664,-0.89489512206465
1789927122718282000,6.928281982421875,1.7606576731473207,-2.1446429619640113,-0.10235957362577318
1789927122728262000,6.938261962890625,1.3387941968351602,-1.5487731643110514,0.6677755616303533
1789927122738243000,6.9482431640625,4.154679300561547,-0.7982271842092276,1.6501649158179759
1789927122748223000,6.958222900390625,4.687911732515692,-0.31379531578123565,2.068085207462311
1789927122758203100,6.968203125,4.554185399115085,0.3932733416438102,2.462486676353216
1789927122768183000,6.97818310546875,4.695039392438531,0.7811720045119523,2.3734021793641147
1789927122778164200,6.988164306640625,4.500459654146432,0.7394540927231311,1.4890771127611397
1789927122788144000,6.99814404296875,4.608686804631352,0.7896271136462688,0.4582515348477289
1789927122798124000,7.0081240234375,4.291065793082118,-0.11395663404762744,-0.9081883188799023
1789927122808104000,7.01810400390625,3.2541029179900884,-1.567380834147334,-2.3670151086755093
1789927122818084900,7.0280849609375,1.963472740343213,-2.5686235765606162,-4.10460769418627
1789927122828065300,7.038065185546875,0.36045419110357757,-2.6460283032804726,-5.504635527402162
1789927122838045200,7.048045166015625,-1.8752227944821118,-1.6590876424640417,-5.918993158128857
1789927122848026000,7.058026123046875,-3.1091876665771006,-0.7527864525049924,-6.174301798149943
1789927122858006000,7.068006103515625,-3.8316608138829467,-0.04298515524566173,-5.60885519581139
1789927122867986000,7.07798583984375,-3.4472909096628426,0.5853858130395412,-3.2817078410133718
1789927122877966000,7.087966064453125,-1.6017852080523967,0.651086657962203,-1.5110218180656432
1789927122887947000,7.097947021484375,0.37871523945927615,0.5054723183691502,0.13685101389293558
1789927122897927200,7.10792724609375,2.187150562825799,0.2612491359859705,1.22052525254637
1789927122907907000,7.117906982421875,3.6502486001998182,-0.0645405689716339,1.499077113249898
1789927122917887000,7.127886962890625,4.316157564240694,-0.24798048909008502,1.2699413176223635
1789927122927868200,7.1378681640625,4.337566847494244,-0.4120949464917183,0.4445831845771521
1789927122937848000,7.14784814453125,3.7656343902677296,-0.5776975966244936,-0.5587634347802027
1789927122947828000,7.157827880859375,3.235283651229739,-0.5881757360190153,-1.4088035526067018
1789927122957808000,7.16780810546875,2.898284569993615,-0.4704898523151874,-1.9783144817747174
1789927122967789000,7.1777890625,1.9210463880240916,-0.10530804816782474,-2.135466114426404
1789927122977769200,7.187769287109375,1.2037094345629213,0.5723270095020532,-1.8966219947330654
1789927122987749000,7.1977490234375,0.7284411157995462,1.3554460564285515,-1.742430965452641
1789927122997730000,7.20772998046875,0.33006080640554425,2.311391275000572,-1.7815341646984217
1789927123007710000,7.2177099609375,-0.2635176654398441,3.1860318368047476,-2.06583377527371
1789927123017689900,7.22768994140625,-0.9826742355436086,3.871105520042777,-2.460203826113045
1789927123027670300,7.237670166015625,-1.4970803864747284,4.354502784726024,-2.7078742263406514
1789927123037651000,7.24765087890625,-1.6689070256888865,4.597877241325378,-2.833844538787007
1789927123047631000,7.257631103515625,-1.635820748645067,4.666305465385317,-2.7136580704391
1789927123057611000,7.267611083984375,-1.6158067191421985,4.6637493511617185,-2.1272854383192956
1789927123067591000,7.2775908203125,-1.4977391426444053,4.455960587206483,-0.7151416353739798
1789927123077572000,7.287572021484375,-1.3558938001960514,3.961958926400542,1.1619682880289852
1789927123087551700,7.2975517578125,-1.2921464274287222,3.309816621905565,2.9991338851869105
1789927123097532000,7.307531982421875,-1.1656705035477877,2.6504221543252466,4.3788346774280065
1789927123107511800,7.31751171875,-1.1468167499959467,2.014655815091729,5.015575999173522
1789927123117492700,7.32749267578125,-1.8857640622407197,1.0691688621699809,4.633190546768904
1789927123127472600,7.33747265625,-2.638817641249299,-1.8411539361417293,3.7375714943438765
1789927123137452800,7.347452880859375,-2.0627607975691555,-9.374399569708109,2.783005162909627
1789927123147432700,7.3574326171875,-0.4663952764779329,-14.798324314582347,2.1668635616004464
1789927123157413600,7.36741357421875,1.750761133033037,-15.256538038170337,1.0623873853363097
1789927123167393800,7.377393798828125,1.598330683684349,-12.674725894212722,-2.082187382572889
1789927123177373700,7.387373779296875,2.506051677313447,-8.640521815812587,-4.1168166028961535
1789927123187355000,7.39735498046875,4.831258711698651,-5.009062087234854,-4.669736024355888
1789927123197334800,7.407334716796875,7.0124781309098,-2.7675702778905626,-4.159275980702042
1789927123207314700,7.417314697265625,9.838108968102931,-1.238542847535014,-2.9300284925177693
1789927123217294600,7.427294677734375,12.571143939185141,-0.2740484118044376,-0.8989297844082117
1789927123227274800,7.437274658203125,11.294188066625594,-0.5590250448584556,0.9829148393664509
1789927123237256000,7.447255859375,8.392087153214216,-1.985459531223774,2.0120394951134917
1789927123247235800,7.45723583984375,5.541680186682939,-3.646100248348713,3.3344188559815287
1789927123257215700,7.4672158203125,2.9277766219377517,-4.75406733546853,5.140953606423735
1789927123267196700,7.47719677734375,0.7967097653836012,-4.4309418812841175,6.558676963067055
1789927123277176800,7.4871767578125,-1.4331816225379705,-3.2521868552356956,7.651684381464123
1789927123287156700,7.49715673828125,-4.421214852517843,-2.286573644608259,8.397793840423226
1789927123297137000,7.507136962890625,-7.998978062221408,-1.4716197820037602,9.217220464527607
1789927123307117800,7.517117919921875,-9.930848042076825,-0.7059791086226701,8.626329624330998
1789927123317097700,7.52709765625,-9.53603448525369,0.27133213858306404,7.725019082266092
1789927123327078000,7.537077880859375,-7.349337511414289,1.447832079181075,6.805064045485854
1789927123337057800,7.547057861328125,-3.8431794022411108,1.8385948993086814,5.072832256355881
1789927123347038700,7.557038818359375,-0.3304647110313177,1.3544652286976575,3.010813217064738
1789927123357018600,7.5670185546875,2.4005361238747835,0.3493646418124437,0.908175751659274
1789927123366998800,7.576998779296875,4.239256110867857,-0.7350462131530046,-1.1243771738465875
1789927123376979000,7.58697900390625,5.1497255264222614,-1.686691104182601,-3.0232839915812013
1789927123386960000,7.5969599609375,5.344217001909017,-2.1974814027041196,-4.196135346543788
1789927123396939800,7.606939697265625,4.849651862001418,-2.1861644743978976,-4.680906822189688
1789927123406919700,7.616919677734375,4.373573980420828,-1.5860633227854966,-3.931061099311709
1789927123416899600,7.626899658203125,3.9526311260849236,-0.7947136231303215,-2.1736884391844273
1789927123426880800,7.636880859375,3.142788322883844,-0.07721300354003906,-0.14911946163717657
1789927123436860700,7.646860595703125,2.1514462122380733,0.6299813260912894,1.643920468470454
1789927123446840800,7.6568408203125,1.156398817333579,1.2486281882196664,2.9539664174661038
1789927123456820700,7.66682080078125,0.28176176266074177,1.8102186996519565,3.815879891905188
1789927123466801700,7.6768017578125,-0.4883335520416498,2.219923536136746,4.387560127936303
1789927123476781800,7.68678173828125,-1.1058727451890706,2.299765134614706,4.726488131408393
1789927123486761700,7.69676171875,-1.5821511177778242,1.9179279637426137,4.6594911091953515
1789927123496742000,7.706741943359375,-1.8229226984024047,1.1613099702507257,4.377193924483657
1789927123506722800,7.716722900390625,-1.9707149665564296,0.15823592075705528,3.922141295275092
1789927123516702700,7.72670263671875,-2.0981547670334577,-0.8395289164125919,3.121635644739866
1789927123526683000,7.736682861328125,-2.0720050112545487,-1.8138199390143155,1.966521606519818
1789927123536662800,7.746662841796875,-1.7202619498729705,-2.931881134647131,0.45387759407982226
1789927123546643700,7.756643798828125,-1.2825690362662077,-4.242325435310602,-1.1466755148943513
1789927123556623600,7.76662353515625,-0.8524187931239604,-5.641399621063471,-2.2217773473098874
1789927123566603800,7.776603759765625,-0.29407120913565155,-6.594066840878129,-2.354866990242153
1789927123576584000,7.786583984375,0.219503751668334,-5.60544451058507,-0.9561426408402621
1789927123586564900,7.79656494140625,-0.06077917061150074,-3.530111231690645,1.0527908510819077
1789927123596544800,7.806544677734375,-1.0338947196930646,-2.5512995167940855,1.9644385166354477
1789927123606524700,7.816524658203125,-1.997770146742463,-2.733068873351812,1.5750541452541946
1789927123616504600,7.826504638671875,-2.025890910333395,-3.1537200512647625,0.0715077959020622
1789927123626485800,7.83648583984375,-0.7172726560533046,-2.8909944129854437,-2.7139339647710323
1789927123636465700,7.846465576171875,1.5367621162608265,-1.7196826886802912,-5.055443314659596
1789927123646445800,7.85644580078125,4.2246494933664795,0.040030981615185736,-5.90621141796708
1789927123656425700,7.86642578125,5.842431896495818,1.9514777666449545,-5.3055479562968015
1789927123666407000,7.876406982421875,5.463318013107776,3.9633436587572097,-2.8782588500529527
1789927123676386800,7.88638671875,3.6197149302482603,5.6948786977946755,0.3703139063388109
1789927123686366700,7.89636669921875,0.9992419239848852,6.5645502390146255,2.883142530441284
1789927123696347000,7.906346923828125,-1.718629087974131,6.660959525933861,4.9062464404046535
1789927123706327600,7.91632763671875,-3.796732123842835,5.972377542313933,5.939165593063831
1789927123716307700,7.9263076171875,-5.16244822987318,5.03141361977458,6.288526727744936
1789927123726288000,7.936287841796875,-5.700777108183503,4.122641071265936,5.998944646722078
1789927123736267800,7.946267822265625,-5.968891453763843,3.255379513797164,5.219541989970207
1789927123746248700,7.956248779296875,-6.303446064457297,2.4630343733638522,3.9328476904675362
1789927123756228600,7.966228515625,-6.154692257794737,1.693753882175684,2.019549432352185
1789927123766208800,7.976208740234375,-6.191003926625847,1.0318021313279866,-0.14589501969795673
1789927123776189000,7.98618896484375,-6.299587635463475,0.71467036460042,-2.5220988490119574
1789927123786169900,7.996169921875,-5.472724139356613,0.669165920010209,-4.617354387472569
1789927123796149800,8.006149658203125,-3.608654607051611,0.6590729805409908,-5.90944031688571
1789927123806129700,8.016129638671876,-0.7771607230439782,0.624956191405654,-6.40043928874433
1789927123816109600,8.026109619140625,2.08309982124269,0.4613631275296211,-6.477731787261367
1789927123826090800,8.0360908203125,4.012259957617521,0.24071254391372202,-5.941462764090299
1789927123836070700,8.046070556640625,5.101282105770707,-0.08869652058482169,-4.906406014880537
1789927123846050800,8.05605078125,5.527205086606741,-0.402138200622797,-3.6883670261919494
1789927123856030700,8.06603076171875,5.335249267077446,-0.6943377706676721,-2.9794340361997484
1789927123866012000,8.076011962890625,4.682911732271314,-0.9958668945938348,-2.5454373467624185
1789927123875991800,8.08599169921875,3.6211706820145246,-1.273767305651307,-2.2098681521989403
1789927123885971700,8.0959716796875,2.1467174301505088,-1.2923106780797242,-1.5047440529704093
1789927123895952000,8.105951904296875,0.7729325839549303,-1.0994430044025183,-0.49704194181729106
1789927123905932500,8.1159326171875,-0.3495812071725726,-0.7411684954255819,0.4898721963183954
1789927123915913000,8.125912841796875,-1.458542858287692,-0.29027357041835783,1.1720549438878893
1789927123925892900,8.135892822265625,-2.312455689361691,0.24233751476705073,1.5848790814369915
1789927123935872800,8.145872802734376,-2.785291520281136,0.8194120110571383,1.8749027687475084
1789927123945853700,8.155853759765625,-2.987417143908143,1.4128291548609733,2.193156671372801
1789927123955833600,8.16583349609375,-2.9731878352865575,1.9229729721724986,2.471716276991367
1789927123965813800,8.175813720703125,-2.9249475359916683,2.2661358367353674,2.520245622360706
1789927123975794000,8.1857939453125,-3.020310528728366,2.549001176723838,2.3078334363885222
1789927123985774800,8.19577490234375,-3.1443413975447414,2.758504343381524,2.0355441432110966
1789927123995754800,8.205754638671875,-3.3031396283596752,2.878627683365345,1.4450541389003395
1789927124005734700,8.215734619140624,-3.4658278523504733,2.93882057852149,0.4766187835242599
1789927124015714600,8.225714599609375,-3.579164600934088,3.1151702481180426,-0.5867603893283754
1789927124025695700,8.23569580078125,-3.6532550885394213,3.3546342532753943,-1.473218449372053
1789927124035675600,8.245675537109374,-3.9185964622750875,3.4670641161471605,-2.449102440253645
1789927124045655800,8.25565576171875,-4.430244254408777,3.1913392955631017,-3.514592760041356
1789927124055635700,8.2656357421875,-5.219934788680076,2.3689666811347005,-4.784066752412915
1789927124065617000,8.275616943359376,-5.074145677042007,-0.21614158175885675,-6.150154614365101
1789927124075596800,8.2855966796875,-3.28803412142545,-4.9346413447618485,-6.846010972902178
1789927124085576700,8.29557666015625,-1.3614920585945247,-9.675812958300114,-6.884280790063738
1789927124095559000,8.305558837890626,-0.590421761380136,-11.439345894622802,-6.428056778988242
1789927124105539800,8.315539794921875,-0.7622352488517761,-7.363425657999515,-4.1109041639819734
1789927124115520000,8.32552001953125,-0.42138212253600354,-0.8815916961163281,-1.5459081302687525
1789927124125500000,8.3355,1.2134440621137619,3.533954463115334,-0.10922012531133368
1789927124135479800,8.345479736328125,2.470403148566186,6.361773165741562,0.6125182962454855
1789927124145460700,8.355460693359374,2.8536966557264325,8.191046694475412,0.9600460049543529
1789927124155441000,8.36544091796875,2.2829215518414974,8.51681184951365,0.7653383294336498
1789927124165420800,8.3754208984375,1.708940345391631,7.66774879655838,0.060103846899513154
1789927124175401000,8.38540087890625,0.8607333247438073,6.0368964839756485,-0.4572444036317989
1789927124185380900,8.395380859375,-0.5770762498557567,3.3627053315281867,-0.4222096594013273
1789927124195361800,8.40536181640625,-1.8484414628013968,0.7057137356847524,-0.12887671054550445
1789927124205341700,8.415341796875,-3.08110197429955,-2.163278688850999,0.09324098648088984
1789927124215321900,8.42532177734375,-4.1732662198707455,-4.431700590696931,0.3146691760063171
1789927124225302000,8.435302001953126,-5.0035564755558966,-4.979799752393364,0.59853156420812
1789927124235283000,8.445282958984375,-5.210539183825254,-4.049035152307153,0.9009750995654612
1789927124245262800,8.455262939453124,-4.683827385811507,-2.3936428572297093,1.2795371212244033
1789927124255242800,8.46524267578125,-3.6162379017874597,-0.8025684282839298,1.8138073717936873
1789927124265223000,8.475222900390625,-2.4534619506374,0.016440262669324874,2.3044347338609397
1789927124275203800,8.485203857421874,-1.5699834178611636,0.3446002038896084,2.413969459813088
1789927124285184000,8.49518408203125,-0.9846493350088595,1.014016883790493,2.080981221653521
1789927124295164000,8.505163818359375,-0.6533434969782829,1.938235423234105,1.1644180192686617
1789927124305143800,8.515143798828126,-0.8932295269399881,2.518975456294417,-0.29635992286102847
1789927124315125000,8.525125,-1.2327607570022343,2.4241969854474066,-1.8373282403737305
1789927124325105000,8.53510498046875,-0.6584855360418558,1.4532026663035154,-3.42639863602072
1789927124335084800,8.545084716796875,1.0618184994071722,-0.17548749980926512,-4.8863987073794
1789927124345065000,8.55506494140625,1.8832658156841993,-1.330576988109946,-4.856870999599993
1789927124355046000,8.5650458984375,1.6247195089161395,-1.743427721405029,-3.475269049912691
1789927124365026000,8.575026123046875,0.8088894479990005,-1.4380997897177934,-2.076587078347802
1789927124375006000,8.585005859375,0.11182079106271266,-0.8799754930913448,-1.4300897940024733
1789927124384985900,8.59498583984375,-0.6329056891053915,0.08356675648093223,-1.1270314877476542
1789927124394966800,8.604966796875,-1.3566913803145288,1.1199357573330402,-0.8747313088275491
1789927124404946700,8.61494677734375,-1.5094363024398683,1.757958351060748,-0.8584528125911951
1789927124414926800,8.6249267578125,-1.2922715151131152,1.9417402164846658,-0.5008718388363719
1789927124424907000,8.634906982421874,-0.5966428278520703,1.8083254332512617,-0.124965665448457
1789927124434888000,8.644887939453126,-0.2678065948054194,1.6264672293663025,-0.0440657170239836
1789927124444867800,8.654867919921875,-0.7627014050588011,1.5099129800409077,0.1883923183614388
1789927124454847700,8.66484765625,-1.6657856787979601,1.6241168668478727,0.15359598599672317
1789927124464827600,8.67482763671875,-2.343272267907858,1.7306728692501783,0.15048432024959474
1789927124474808800,8.684808837890625,-2.8503733565226197,1.508698343554139,0.45358124148175116
1789927124484789000,8.6947890625,-3.1147929392382503,1.2739379860430955,0.5300511715695262
1789927124494769000,8.704768798828125,-3.368387761078775,1.1429220806449651,0.3397424616601318
1789927124504748800,8.714748779296874,-3.3909152347072955,0.9529822771131992,-0.22515070804674178
1789927124514728700,8.724728759765625,-3.336002033519745,1.027267995029688,-0.8009280406657606
1789927124524710000,8.7347099609375,-3.3098025933802124,1.4333628243237733,-1.269980626719445
1789927124534689800,8.744689697265626,-3.3492136895313855,1.890196491730213,-1.5478800148636103
1789927124544670000,8.754669921875,-3.5944039633810516,2.2506080127358437,-1.5859464184075593
1789927124554649900,8.76464990234375,-3.8774654104635116,2.6781758381694556,-1.4284114855267107
1789927124564631000,8.774631103515626,-4.195127923066914,2.8312364021152256,-1.460506559576094
1789927124574611000,8.78461083984375,-4.2144519244790075,2.8004198235690594,-1.5731953656449913
1789927124584590800,8.7945908203125,-4.013099623312056,2.5739292817533013,-1.6425130858905612
1789927124594570800,8.80457080078125,-3.8980622082903977,2.4039041390031577,-1.400063781312108
1789927124604551700,8.8145517578125,-4.149926260815561,2.3077596404999494,-1.1118184287857265
1789927124614532000,8.824531982421876,-4.521764600242674,2.0554840845644473,-1.0292404641464352
1789927124624512000,8.834511962890625,-4.732891860970854,1.7200994527876377,-1.0164959872551262
1789927124634492000,8.844491943359374,-4.819462475442886,1.436043441709876,-0.832969046440348
1789927124644472800,8.854472900390626,-5.011093300801515,1.1058055251717567,-0.6161794491015374
1789927124654452700,8.86445263671875,-5.4909740817964074,0.45434126606881614,-0.6507952738001942
1789927124664432600,8.8744326171875,-5.539976889896392,-0.71467036460042,-0.6232007260404527
1789927124674413000,8.8844130859375,-4.579192414599657,-2.3131232133597135,-0.38705154451951385
1789927124684394000,8.89439404296875,-3.3989141245067116,-3.4881472361862658,0.4783408946091309
1789927124694374000,8.904373779296876,-1.9041876076817512,-3.5058600030094382,2.247222461950779
1789927124704353800,8.914353759765625,0.10023673625290393,-3.038452919140458,3.5297108341962096
1789927124714333700,8.924333740234376,1.294077103230357,-2.1602894439071414,4.217218466582894
1789927124724315000,8.93431494140625,1.4894184735447167,-0.9168155697107314,4.562279565982521
1789927124734294800,8.944294677734375,1.1703721053674816,0.6206289758563042,4.967328977876901
1789927124744275000,8.95427490234375,0.6082894265040755,1.8581418958216904,5.8009179828464985
1789927124754254800,8.9642548828125,-0.8611585644185542,1.1739999404758215,5.873047984033823
1789927124764234800,8.97423486328125,-1.038168743750453,-0.7919312989354134,4.961723412954807
1789927124774216000,8.9842158203125,0.2097954276025295,-2.929743538096547,3.583133796826005
1789927124784195800,8.99419580078125,0.7050146475046872,-5.432056028881669,0.24684943923354147
1789927124794175700,9.00417578125,0.5905442187160254,-6.906710064014792,-3.2448326930806037
1789927124804156000,9.014156005859375,0.6518897910386323,-7.5108426631003615,-6.602749329027533
1789927124814137000,9.02413720703125,2.2262498165488243,-6.841055980843305,-9.150117351591586
1789927124824117000,9.034116943359376,3.778535372895002,-5.730507645058632,-11.600843447524309
1789927124834097000,9.044096923828125,4.368356538033485,-3.518132040083408,-12.126612703990936
1789927124844076800,9.054076904296876,4.839871057221293,-1.4555530288219451,-11.103971784240006
1789927124854057700,9.0640576171875,6.193887957629561,-0.14796411758959294,-8.646714825233817
1789927124864038000,9.074037841796875,7.054059264576435,0.7527712549358606,-4.560150444999337
1789927124874018000,9.08401806640625,6.326446416294575,1.3257067517250776,-1.3185253157883883
1789927124883998000,9.093998046875,4.455452637684345,1.7182547017037868,0.6838586083598435
1789927124893979000,9.103978759765624,2.5831723263949153,1.570657663860917,2.0435225747443733
1789927124903958800,9.113958740234375,0.7341442958772182,1.2572387801766396,2.775559815339744
1789927124913939000,9.12393896484375,-0.8523252696216106,0.9951567004978656,3.2213597552955147
1789927124923918800,9.1339189453125,-2.2082406971275805,0.8210878353148698,3.34200653463155
1789927124933899000,9.14389892578125,-2.7911539825737472,0.9493412902623415,3.3998160417824983
1789927124943880000,9.1538798828125,-2.686246331900358,1.5164105253666638,3.2810634056299923
1789927124953859800,9.16385986328125,-2.2799159402847287,2.266120639166236,2.8690321720242498
1789927124963839700,9.17383984375,-1.1906518000692128,2.895224013379216,2.3517700471401213
1789927124973820000,9.18381982421875,-0.07392974408566952,3.506556168580055,1.8817925282612442
1789927124983800800,9.19380078125,0.337487741535902,4.016276207521558,1.144782467689365
1789927124993780700,9.20378076171875,0.30477322041392324,4.35870666615665,0.17669389819065107
1789927125003761000,9.213760986328126,0.008908113598823547,4.321113725343347,-0.9266321033913641
1789927125013740800,9.22374072265625,-0.5696189195871353,4.134982081922889,-1.755782906717807
1789927125023722000,9.233721923828124,-1.0938500067010521,3.6865783892095085,-2.1426149632677434
1789927125033702000,9.243701904296875,-1.5277017347097397,2.7552456338465214,-1.9175906946122645
1789927125043681800,9.253681884765625,-2.1745289816617963,1.5615426295131445,-1.5148900378011165
1789927125053661700,9.26366162109375,-3.4307641377538443,0.44970600748360157,-0.9525036998160182
1789927125063641900,9.273641845703125,-4.296668435394763,-0.6368979736119509,-0.32105869438033546
1789927125073623000,9.283623046875,-4.331565561252832,-1.6325082630962133,0.1885738854734227
1789927125083603000,9.29360302734375,-3.9806037133768197,-2.014559368979931,0.7262262162290513
1789927125093580800,9.303580810546874,-3.5420652888566253,-1.6608961531907318,1.0874517570313065
1789927125103560700,9.313560791015625,-2.7337153545618054,-1.27363111205101,1.1649266994431615
1789927125113541600,9.323541748046875,-1.7067641703963279,-1.7562521316647528,1.2079092974055559
1789927125123521500,9.333521484375,-0.6649725599735975,-3.3968758966773747,0.969348013241589
1789927125133501700,9.343501708984375,0.027049627228081224,-5.644301772245765,0.38568347103670236
1789927125143481900,9.35348193359375,-0.01621639078557491,-6.960383786535263,-0.9262912540644407
1789927125153462500,9.363462646484376,-0.5834089600086212,-5.884613334143161,-2.5464801338136196
1789927125163442700,9.373442626953125,-0.5259416904240847,-2.319490994825959,-3.4248978760689495
1789927125173422600,9.383422607421876,-0.2768736983582377,0.9563613981574773,-3.699729547205567
1789927125183402800,9.39340283203125,0.5535042356103659,2.2820628891855477,-3.107276864519715
1789927125193383700,9.4033837890625,2.207667281153798,2.0953385405689477,-2.3154532637424765
1789927125203363600,9.413363525390626,3.709934714877605,1.137534542387724,-1.1866142151162027
1789927125213343700,9.42334375,4.637590827554464,-0.9604255788564682,0.30642993811238556
1789927125223323600,9.43332373046875,4.6770682669401165,-3.517813475653529,1.3116938623331487
1789927125233304800,9.443304931640625,4.278050244164467,-5.013331435117125,2.306061312149465
1789927125243284700,9.45328466796875,3.956037719658017,-5.292933389395475,3.378189900907874
1789927125253264600,9.4632646484375,3.684404552301764,-5.001808755105734,4.5292362512975926
1789927125263244500,9.47324462890625,3.4001942274451253,-4.205521599048375,5.893203467833995
1789927125273224700,9.483224609375,2.88544437764287,-3.547444643807411,6.736147745648026
1789927125283205600,9.49320556640625,2.398524199530482,-2.674877381145954,7.209759529376029
1789927125293185800,9.503185791015625,1.2998632854163645,-1.2497352726787327,7.305758481928706
1789927125303165700,9.513165771484376,-0.40827509594261646,0.6607686785429716,7.077006424921751
1789927125313145600,9.5231455078125,-2.3928406009361147,2.7109330293893814,6.593671704080701
1789927125323126800,9.533126708984375,-4.1524119401514525,4.0264281837016345,5.620663122504949
1789927125333106700,9.543106689453126,-5.977216799038648,4.2682121562391515,4.084319523917138
1789927125343086600,9.553086669921875,-7.614566656947136,3.6866789269745346,2.6611718041375276
1789927125353066800,9.563066650390626,-8.611202197825909,2.4942507648825645,1.356376030755043
1789927125363047700,9.573047607421875,-6.184192493045329,0.43551147791445255,0.14143022230882196
1789927125373027600,9.583027587890625,7.619622771292924,-4.393377582043409,-0.874702813385427
1789927125383007700,9.5930078125,15.080439128464459,-7.059402379170059,0.2633057762548327
1789927125392987600,9.602987548828125,8.659636850649118,-4.085282523730397,2.003128166644275
1789927125402967800,9.6129677734375,3.436210128200054,-0.9748469029188156,1.3618852956958114
1789927125412948700,9.62294873046875,0.04589315164685249,1.6173142010957002,-0.27637437053397296
1789927125422928600,9.6329287109375,-2.6994498046055435,2.6066584159225226,-1.8648193277589975
1789927125432908800,9.64290869140625,-0.7142556463196873,1.900655341902375,-1.8722684747211633
1789927125442888700,9.652888671875,1.6315069770991801,1.1186252592563628,-0.8803786670647561
1789927125452869600,9.66286962890625,1.6485434520959854,0.33715514858067036,-0.07034395802076905
1789927125462849500,9.672849609375,0.19258008890748024,0.040725978142023084,0.4371729448532685
1789927125472829700,9.68282958984375,-1.4874310991197823,0.4451332927405834,1.0006333783432841
1789927125482809900,9.692809814453126,-2.6522350489661095,1.0687310552746057,1.3680726060286164
1789927125492790800,9.702790771484375,-3.196380796861648,1.6923416772902011,1.7030048178628086
1789927125502770700,9.712770751953125,-3.2196783780798315,2.3607570711940524,1.8571958471432326
1789927125512750600,9.72275048828125,-3.021760727536678,3.047417731362581,1.7839875491999089
1789927125522730500,9.73273046875,-3.032116701856255,3.5022190161585804,1.3802261312894522
1789927125532711000,9.7427109375,-3.6120822434127327,3.6553432929903265,0.9077355336111038
1789927125542691600,9.752691650390625,-4.485151902638376,3.803006381806731,0.6855587633412331
1789927125552671700,9.762671630859375,-5.266325952976942,3.5653497183322904,0.2773401833588257
1789927125562651600,9.772651611328126,-5.480965898001194,3.1678315787255764,-0.15547661211155353
1789927125572631600,9.782631591796875,-4.884885380207002,2.2574434117138384,-0.5903447506211698
1789927125582612700,9.79261279296875,-4.30291317500323,0.9906412689000368,-0.8628187527157366
1789927125592592600,9.802592529296875,-4.604611810277402,0.42692718944251534,-0.6512493742432445
1789927125602572800,9.81257275390625,-5.162158307015895,0.46188218296766276,-0.41637371978946025
1789927125612552700,9.822552734375,-4.909709148079156,0.7918085493385791,-0.7238939008239657
1789927125622533600,9.83253369140625,-4.161344019147753,1.445413327601552,-1.0974762343741953
1789927125632513800,9.842513671875,-3.9978970857441425,2.0102701473534106,-1.0284525286391377
1789927125642493700,9.85249365234375,-4.856383216083049,2.1028455551981926,-0.8677223068483173
1789927125652473600,9.8624736328125,-6.298385273936391,1.8570003245711326,-0.30818032544367013
1789927125662453800,9.872453857421876,-6.827479875433444,1.6538094098001717,0.7863490418236703
1789927125672434700,9.8824345703125,-6.171352885216474,1.290931206420064,1.90091209314242
1789927125682414800,9.892414794921875,-4.968402160066366,0.5055196646422148,3.05634367287904
1789927125692394800,9.902394775390626,-4.356296682405471,-0.4538654652506113,4.8496121145129205
1789927125702374700,9.912374755859375,-4.115879906567931,-0.7722749968290329,6.157593824455142
1789927125712355600,9.92235546875,-2.0935782528981566,-0.30270459744632244,6.722813047778606
1789927125722335500,9.93233544921875,-0.8302753503769635,0.48371115293800826,6.978265480184555
1789927125732316000,9.94231591796875,0.21632102997899055,0.8773089042305946,7.658858218616246
1789927125742295800,9.9522958984375,1.7476894705027342,0.2786480145543814,8.231513729420303
1789927125752276700,9.96227685546875,3.030308191129565,-0.9730494981080293,8.075970116487145
1789927125762256600,9.972256591796874,3.7721974020451303,-3.2422266022354362,7.091391508626938
1789927125772236500,9.982236572265625,3.99771471491456,-6.1941936625778675,5.800782373768091
1789927125782216700,9.992216796875,4.175908551073074,-8.40779968613088,4.674420382779837
1789927125792196900,10.00219677734375,4.148102260258794,-9.547661210161447,3.07373466040194
1789927125802177800,10.012177734375,3.3931635981559753,-9.613906244963406,-0.4892412414710968
1789927125812157700,10.02215771484375,2.222850237238407,-9.079069884943962,-5.39620788590908
1789927125822137600,10.0321376953125,2.1310797160357238,-7.5844848224163055,-8.99074862741232
1789927125832117500,10.042117431640625,2.8309154995977877,-4.86248094843626,-10.580032081288099
1789927125842098700,10.0520986328125,3.8963919369906184,-2.1569699440956116,-11.897283723878859
1789927125852078600,10.06207861328125,4.564351403820514,-0.33195991802513597,-12.559395049202442
1789927125862058800,10.072058837890625,4.608908922949433,1.0060784920066594,-11.18249996203184
1789927125872038700,10.08203857421875,4.0929543735325336,1.9425018485069274,-7.1869584995031355
1789927125882019800,10.092019775390625,3.4475153660684823,2.579444830304384,-3.007425328192115
1789927125891999700,10.101999755859374,2.622994633695483,2.4839701938867567,0.20496961488127707
1789927125901979600,10.111979736328125,1.3423708862781525,2.164960358327627,2.52860340860039
1789927125911959600,10.12195947265625,-0.21253858883082866,1.534424320963025,4.114256104758382
1789927125921940500,10.1319404296875,-1.5090058020681143,0.46275662771463394,4.751027529381215
1789927125931920600,10.141920654296875,-2.5999293999284503,-0.8661912978887557,4.532000455313921
1789927125941900800,10.15190087890625,-3.0432617807269096,-1.9800521192222833,3.7908594324171543
1789927125951880700,10.161880615234375,-2.591917942908406,-2.2930483935803174,2.841558474165201
1789927125961860600,10.171860595703125,-1.4386556700348854,-1.892106709265709,1.6335665399774908
1789927125971841500,10.181841552734374,0.1539174730360508,-1.0318144062876702,0.7857081866368651
1789927125981821700,10.19182177734375,1.6939204709142446,0.03130173171460628,0.398387944711186
1789927125991801900,10.2018017578125,2.6178075864464043,1.0566367128551006,0.18859269977174697
1789927126001781800,10.21178173828125,3.2734926781147715,1.9787118105292318,0.11191880807708948
1789927126011762700,10.2217626953125,3.1966847482442855,2.8660651389122007,-0.3481952327068895
1789927126021742600,10.23174267578125,2.409678630751371,3.6238363940924403,-1.1783837085179985
1789927126031722800,10.24172265625,1.2694611328899859,4.545632674825192,-2.0211367015436292
1789927126041702700,10.25170263671875,0.12220540695488452,5.56215598847866,-2.644830033406615
1789927126051682800,10.261682861328126,-0.756450235709548,6.135109605446457,-2.68675574272722
1789927126061663700,10.271663818359375,-1.876134648630023,6.047198097759485,-1.8276140710890292
1789927126071643600,10.2816435546875,-3.4088325841918587,5.3473266583621495,-0.5488763931466266
1789927126081623600,10.29162353515625,-5.378037438446283,4.588559377881884,1.3599251015387475
1789927126091603700,10.301603759765625,-7.342804894775152,4.109984418788552,3.104341687850654
1789927126101585000,10.3115849609375,-8.824377330994606,3.6788702990502116,3.695503746204078
1789927126111564800,10.321564697265625,-9.364622272059322,2.2553175056010484,3.2466239604115485
1789927126121545000,10.331544921875,-8.700673209914564,-0.9240022663444281,2.86060219733119
1789927126131524900,10.34152490234375,-6.5583449546337125,-4.872648122185469,3.6792674816742537
1789927126141505800,10.351505859375,-4.552918740180134,-7.558692794033885,5.054890356951952
1789927126151485700,10.361485595703124,-3.087450466543436,-8.903772354748845,6.042348904162645
1789927126161465900,10.3714658203125,-1.4219482808619737,-8.958640840011835,4.932076462709904
1789927126171445800,10.38144580078125,0.16424539030492305,-8.251466384124756,1.357914492368698
1789927126181426000,10.391426025390626,3.050733724042773,-7.643567125982045,-1.4944557370595632
1789927126191406800,10.40140673828125,6.737136172163486,-6.886034355732798,-2.371791675427556
1789927126201386800,10.41138671875,9.982270770800113,-6.870385535702109,-1.7261325954720377
1789927126211367000,10.421366943359375,12.34719606758952,-7.207814240527153,-0.11121612143414095
1789927126221346800,10.431346923828125,13.738691342520713,-7.097702591469884,2.5164932840898633
1789927126231327700,10.44132763671875,12.556308773624897,-5.739477717977762,4.496919789582491
1789927126241307600,10.4513076171875,7.890204383769631,-4.096282056650519,3.7649744650542734
1789927126251287800,10.461287841796874,4.129311050549149,-2.4439029719144103,2.9448487527698277
1789927126261268000,10.47126806640625,2.6063784299373625,-1.0104629907011986,3.1905764944970607
1789927126271248000,10.481247802734375,1.807196136960387,0.07566285148859024,3.763287534880638
1789927126281228800,10.491228759765624,0.33836978506743903,0.5857265893012285,4.404325969298184
1789927126291208700,10.501208740234375,-2.9426871908217667,0.7180547463417053,4.419146229550242
1789927126301188600,10.511188720703124,-7.153852348715066,0.8751052567064762,4.3041424245372415
1789927126311169000,10.5211689453125,-11.065312675499916,1.6848843470215797,5.144939461189508
1789927126321150000,10.53114990234375,-13.665765222519635,2.4732635064333675,5.4292421405047175
1789927126331129900,10.5411298828125,-14.641728562247753,2.9435756640940904,5.717874957978725
1789927126341109800,10.55110986328125,-13.38320617200136,3.3913539183855055,5.636110282483696
1789927126351089700,10.561089599609375,-2.34244750752151,1.580023458099365,4.487170548984408
1789927126361070800,10.57107080078125,29.305077420151232,-5.921671437427401,0.9782079768497496
1789927126371050800,10.58105078125,22.628630986750125,-6.1443736928761,-0.10186283961739391
1789927126381031000,10.591031005859374,5.18913633031249,0.2069645880907774,-0.26382183601818976
1789927126391010800,10.6010107421875,-1.4461547936186194,3.686166885799169,-0.8367575520031154
1789927126400990700,10.61099072265625,-6.874760682046413,5.136847924670577,-0.8995293577365576
1789927126410972000,10.620971923828124,-5.317118567103147,3.251794056525826,-2.0833191630817947
1789927126420951800,10.630951904296875,-0.5444745414584875,0.5168728333055973,-2.5308979492783545
1789927126430931700,10.640931640625,0.34874504860937594,-0.4346674283057451,-1.2281816125184297
1789927126440912000,10.650911865234375,-1.9384338684156537,0.3189133894473314,0.3377200159218162
1789927126450892800,10.660892822265625,-4.118675674766302,1.9126058919370172,1.7315405919954179
1789927126460873000,10.670873046875,-5.592130270981788,3.421485437276959,2.533767659495771
1789927126470852900,10.680852783203125,-5.956826337438821,4.347956139561534,2.5305887371987104
1789927126480832800,10.690832763671875,-5.324347933834791,4.515221754470467,1.7472351508639752
1789927126490813700,10.700813720703126,-4.766675764890015,4.704270746642351,0.8789778603561222
1789927126500793600,10.710793701171875,-4.516581352385878,4.357821700015664,-0.36454226413480934
1789927126510774000,10.72077392578125,-4.0348213335156435,3.6358898199796674,-1.4577677822619677
1789927126520754000,10.73075390625,-3.4358398335829374,2.8766987611293793,-1.6779659459352492
1789927126530733800,10.74073388671875,-2.4067644968703386,0.2858949169427156,-2.74487796908915
1789927126540714800,10.75071484375,-3.432551313431561,-1.0289134241491555,-2.7763667478084564
1789927126550694700,10.760694580078125,-4.6675601416215295,-1.885817838254571,-2.2529176048524677
1789927126560674800,10.7706748046875,-4.933065473747253,-2.4614374595612287,-1.5409996077001094
1789927126570655000,10.780655029296875,-5.517804805576801,-1.835600393667817,-0.7732428189478814
1789927126580636000,10.790635986328125,-6.488444319933652,-0.7371060682922601,-0.6334836351238191
1789927126590615800,10.80061572265625,-7.607456532680988,0.18006605977118015,-0.7320000503901392
1789927126600595700,10.810595703125,-7.657942857336997,0.7993506352812051,-0.6795968592621385
1789927126610576000,10.820575927734374,-6.003422084397077,1.149718316656351,-0.32254089576210826
1789927126620555800,10.8305556640625,-3.429188559000194,1.255672846034169,0.6843631968811154
1789927126630536700,10.84053662109375,-1.3298197400018572,1.0544997008264063,1.8670909259527921
1789927126640516900,10.850516845703124,-0.24897622212916612,0.7570183909863233,2.7999618506684896
1789927126650496800,10.860496826171875,0.5722106896460056,0.9000169951230287,3.57340735258162
1789927126660476700,10.8704765625,0.7089817975699901,1.3735107054293154,4.344889153206348
1789927126670457900,10.880457763671876,0.4087649252861738,2.050180717459321,4.9483892996072765
1789927126680437800,10.890437744140625,1.0450696091800928,2.614986099284887,5.228679820671677
1789927126690417700,10.900417724609374,0.22346067260056732,2.641747849482298,5.409940058663487
1789927126700397800,10.910397705078125,-0.06091828682124614,1.9231255323857068,5.815075103014707
1789927126710377700,10.920377685546875,1.8443728981882332,-0.2526052262812853,6.372701386991142
1789927126720359000,10.93035888671875,3.929077232018113,-3.250037568247318,7.17521954639256
1789927126730338800,10.9403388671875,5.204799178868532,-6.021902328461408,7.6842895969927305
1789927126740318700,10.950318603515624,4.712779631790519,-8.539272103124857,7.413884510126709
1789927126750298600,10.960298583984375,2.015079593461752,-10.022670585727692,5.801126657161117
1789927126760279800,10.97027978515625,-0.7643027027755975,-8.855107984822988,2.7326620461165905
1789927126770260000,10.980260009765624,-1.4209452412992716,-6.325737391242384,-0.3800094805208966
1789927126780240000,10.990239990234375,-0.6359358505815267,-3.6000323246568438,-2.8537440019994973
1789927126790219800,11.0002197265625,0.7627619030743837,-1.4702975934892892,-5.205971145257354
1789927126800200700,11.01020068359375,1.537104353827238,-0.7134604042887688,-9.195742792212963
1789927126810180900,11.020180908203125,2.1168378401935097,0.7790443448334932,-9.963416432726383
1789927126820160800,11.030160888671874,2.288565695208311,1.8917992507517336,-9.52464156910181
1789927126830141000,11.040140869140625,2.484396310344338,1.6138725362092257,-8.516259476327896
1789927126840120800,11.050120849609375,2.990571808546781,1.563566828817129,-4.678521096096933
1789927126850101800,11.060101806640626,3.5605361805707214,2.097155819123983,-1.0048030652433633
1789927126860082000,11.07008203125,3.9889702674448486,2.205811424154043,1.3874533060640095
1789927126870061800,11.080061767578124,4.167873128655553,2.026153945183754,2.670927182215452
1789927126880041700,11.090041748046875,4.13311394996345,1.7423422642558812,2.8464041606307027
1789927126890022700,11.100022705078125,4.037500781857967,1.145546583929658,2.419340631457418
1789927126900002800,11.1100029296875,3.4865041451543566,0.6970306630134582,1.8500844077028333
1789927126909982700,11.119982666015625,2.5114590893149376,0.5490589466392993,1.3415204069286584
1789927126919963000,11.129962890625,1.5884388197451829,0.7218851182848215,0.7069586211793124
1789927126929942800,11.13994287109375,0.8066179959356784,1.1253285562872886,-0.19914744806643575
1789927126939923700,11.149923828125,-0.5041717571645975,1.8120739721298216,-1.0675946716558187
1789927126949903600,11.159903564453124,-2.4842864202290773,2.4437013118624686,-1.6217174044907092
1789927126959883800,11.1698837890625,-3.8690450803816314,2.743250075626373,-1.4017267460882663
1789927126969864000,11.179864013671875,-4.86417664643824,2.949445432910323,-0.2716593247108161
1789927126979844900,11.189844970703126,-5.190403573769331,2.7030443219661713,1.567627940776199
1789927126989824800,11.19982470703125,-5.505282008612156,1.8971967258810996,3.311158099642396
1789927126999804700,11.2098046875,-6.077538875487447,1.0376251383930444,4.5121074218422175
1789927127009784600,11.21978466796875,-6.20106997808814,0.3457482048809528,5.1481987552464
1789927127019765000,11.229764892578125,-5.978453647357225,0.06133680449426174,5.1993876752138135
1789927127029746000,11.239745849609376,-5.624444979131222,0.10136077184677124,4.935206577429175
1789927127039725800,11.249725830078125,-4.810407646849751,-0.6706792471826076,4.5557533790841696
1789927127049705700,11.259705810546874,-3.816199040856957,-2.8960084417551752,4.332845664191246
1789927127059685600,11.269685546875,-2.344985793827474,-5.948393440136313,4.667281032419204
1789927127069666800,11.279666748046875,-1.0432628520190714,-8.052242619419097,4.629969538895786
1789927127079646700,11.289646728515624,-1.0855518416941166,-8.708353827545046,2.6162013202935457
1789927127089627000,11.299626953125,-1.2055530166029929,-7.825866643893718,-0.9289788857132196
1789927127099606800,11.309606689453124,0.6448018786042928,-5.956548105019331,-3.1703327478915453
1789927127109586700,11.319586669921875,4.081712264028192,-4.2832285235852,-3.407529392638802
1789927127119568000,11.32956787109375,7.488871654310822,-3.0441870788782834,-2.4583219578891993
1789927127129547800,11.3395478515625,8.931628329923749,-1.8154940097063779,-1.2379254462890326
1789927127139527700,11.349527587890625,9.012152649968861,-0.9954314257860183,0.025073176055960357
1789927127149507800,11.3595078125,8.932486992579697,-0.9836620775371789,1.247169659974426
1789927127159488800,11.36948876953125,9.544173368045687,-1.752398378846049,3.223175864806771
1789927127169468700,11.37946875,10.48042136797905,-2.8355244546979663,5.6503533273696895
1789927127179448800,11.38944873046875,9.153469584628938,-3.835974000906944,5.9367556093126534
1789927127189428700,11.3994287109375,5.816144193550944,-4.413948076385259,4.318754594996571
1789927127199409000,11.409408935546875,2.4596324559658767,-4.855661916071176,2.7974092435762286
1789927127209389600,11.4193896484375,0.519038486906886,-4.748469953852892,1.864260817093402
1789927127219369700,11.42936962890625,-1.1603402484357357,-3.830972247096896,0.631672055657208
1789927127229350000,11.439349853515624,-2.973818826666474,-1.7951432955950497,0.010598514371179044
1789927127239329800,11.449329833984375,-4.3204543846517796,0.6506406677603721,-0.028972959973476826
1789927127249310700,11.459310791015625,-6.61547553960979,2.552840316495299,-0.22603351876325903
1789927127259290600,11.46929052734375,-9.469963053452968,4.220764760887622,0.9393787722397595
1789927127269270800,11.479270751953125,-11.212923157346248,5.656868992874026,2.3987884034246205
1789927127279251000,11.4892509765625,-7.410081610712409,6.499466064685583,5.390763649028539
1789927127289230800,11.49923095703125,7.331172909170388,4.298628337290883,9.408611635911464
1789927127299211800,11.509211669921875,15.683497376316785,-0.10366904878914356,7.189030629602074
1789927127309191700,11.519191650390624,8.054108413290978,0.731264941048622,2.975574438162148
1789927127319171600,11.529171630859375,2.302064935989678,2.9420483083963394,0.8363299742408097
1789927127329151700,11.53915185546875,-1.3712658491119742,3.861818636259436,-0.7995341020893305
1789927127339132700,11.549132568359376,-2.7231913301989437,3.7195220429122444,-1.3476777605146169
1789927127349112800,11.55911279296875,-1.7532611331552266,2.857801168435812,-0.6263768718585372
1789927127359092700,11.5690927734375,-0.733005354975164,1.7311200284957884,0.12059680271446704
1789927127369072600,11.57907275390625,-0.8842971556827426,0.7302765145331621,0.3114166770163923
1789927127379052500,11.589052490234375,-1.5629071958646177,0.1534720673561096,0.3618422113958746
1789927127389033700,11.59903369140625,-1.967155812770128,0.0002881692916154861,0.5253996194366365
1789927127399013600,11.609013671875,-2.1488640867903825,-0.3030330987483263,0.8401724750131369
1789927127408993800,11.618993896484374,-2.8731805238753556,-0.14865209985375402,1.6330846016794442
1789927127418973700,11.6289736328125,-4.224058249475061,-0.4157183976858854,2.106586933683604
1789927127428955000,11.638954833984375,-5.36258267968297,-0.7250596566677093,1.0881162122894077
1789927127438934800,11.648934814453124,-6.1367725702226155,-0.3143441818356514,0.3765010340085253
1789927127448914700,11.658914794921875,-6.943961059522628,0.4998977331072092,0.1856906581873074
1789927127458894800,11.668894775390624,-7.412530172908306,0.9733177936553955,-0.08704181218035519
1789927127468874800,11.678874755859376,-6.260218917149305,1.1320938126385212,0.7726569088187069
1789927127478856000,11.68885595703125,-4.66763496042341,1.3201748365610837,2.238566569547355
1789927127488835800,11.6988359375,-3.9055616241350766,1.4068921660274267,2.5469030354008075
1789927127498815700,11.708815673828125,-3.155069127786159,1.1049959623545407,2.360247806497663
1789927127508795600,11.718795654296875,-3.8331326400011774,0.5001145907282829,2.0339657879784703
1789927127518776600,11.728776611328126,-6.535570812767744,0.27554654140770435,1.4505895611956714
1789927127528756700,11.7387568359375,-7.9867586321175095,0.6053770461887121,0.7154966593567281
1789927127538737000,11.74873681640625,-6.510494823700189,0.7803823154389857,0.09522497250549494
1789927127548716800,11.758716796875,-3.437109122866392,0.7593301750600338,0.2668120673427358
1789927127558696700,11.76869677734375,-0.8418044601291418,0.5853565869450569,1.158889318975061
1789927127568677600,11.778677734375,0.3535787523761391,0.03114332628250122,2.250526764193177
1789927127578657800,11.78865771484375,0.406662692309916,-0.3591138824105263,3.0652848119646308
1789927127588638000,11.798637939453124,-0.6760521723926067,-0.25594869149029253,3.215234842674434
1789927127598617900,11.808617919921875,-1.7100386620223522,0.2059878520131111,3.2988518680378793
1789927127608598800,11.818598876953125,-2.1001190528437492,0.6208797357469796,3.6320372362047433
1789927127618578700,11.82857861328125,-2.3906942365571857,0.8241589133232832,3.7694630086451766
1789927127628558800,11.838558837890625,-1.0781284136950968,0.7628893288463353,4.234663814641535
1789927127638538800,11.848538818359375,1.0592734910994768,0.24479776740074155,4.938434307304024
1789927127648519000,11.858518798828126,2.8545433356836436,-0.768895291262865,5.398776275092363
1789927127658499800,11.868499755859375,4.0068315028280015,-1.8224024739205835,5.525598235931993
1789927127668479700,11.878479736328124,4.154440815630555,-2.7228812413364647,4.988136788105964
1789927127678459600,11.888459716796875,3.25036899215877,-3.3255174643844363,4.232252369585633
1789927127688439800,11.898439697265625,1.8898858183458447,-3.5003479615896937,3.099841161561012
1789927127698420700,11.908420654296876,1.6168918840304016,-3.2644758434444663,1.7729865549750625
1789927127708400600,11.918400634765625,1.0695938095837831,-1.5919734236121177,0.8607786251902579
1789927127718380800,11.928380859375,1.0569681367665529,-0.17955694120526314,-0.18128862383607774
1789927127728360700,11.938360595703125,-0.45536944007277486,0.6318325069159269,-3.0593112905129787
1789927127738340900,11.9483408203125,-1.7707810077548025,2.0000889450788497,-4.306406570076942
1789927127748321800,11.95832177734375,-0.8946849864453077,2.990157967048883,-4.565960300321877
1789927127758301700,11.9683017578125,0.11832476612925528,3.6318244702368974,-4.519454277473688
1789927127768281600,11.978281494140624,0.7865735712945461,3.6417204258292912,-4.481745601326227
1789927127778261800,11.98826171875,1.8593302288234232,3.575609831061959,-2.322210482917726
1789927127788243000,11.998242919921875,3.3945243651151653,3.32825244230628,0.14728055577222257
1789927127798222800,12.008222900390624,4.730431023815274,2.5231968733817336,1.2869606953538955
1789927127808202800,12.01820263671875,5.538442519935965,1.6073662230551242,1.8477755462385712
1789927127818182700,12.0281826171875,5.772586206853389,0.7312865683585404,2.0629611424468455
1789927127828162600,12.03816259765625,5.328129205939173,-0.01380523799061775,2.2506239409573374
1789927127838143700,12.048143798828125,4.302248865875602,-0.6771785460740327,2.4476868743672964
1789927127848124000,12.0581240234375,2.580516843450069,-1.1612982798129319,2.617837981584668
1789927127858103800,12.068103759765625,0.5473188249737024,-1.2982079194247722,2.2883114281862973
1789927127868083700,12.078083740234375,-1.073670849764347,-0.9428653722465038,1.5849930632054805
1789927127878063600,12.088063720703126,-2.9481483788371086,-0.44798868217170235,0.4860063512030989
1789927127888044800,12.098044921875,-4.2957741169035435,-0.25516309407055376,-0.9320088279936463
1789927127898024700,12.108024658203124,-5.058591549557447,0.39201837314665317,-1.9019250695772467
1789927127908004900,12.1180048828125,-5.157230787485838,1.1957920855671167,-1.5886106691807507
1789927127917984800,12.12798486328125,-4.679836854870617,1.904779143834114,-0.3577969545930624
1789927127927965700,12.137965576171876,-4.0499329779297115,2.079777983343601,0.8848097813799977
1789927127937945900,12.14794580078125,-3.3504473229795693,1.8712562289386987,2.4450785915650424
1789927127947925800,12.15792578125,-2.809730088227987,1.317494219174981,3.8071243385195728
1789927127957905700,12.16790576171875,-2.576014855855703,0.5651911662727594,4.534776349768042
1789927127967885800,12.1778857421875,-2.581041159585118,0.016650106027722357,4.559306687651574
1789927127977866800,12.18786669921875,-2.9921883038327097,-0.7886299193024635,4.025854767727852
1789927127987847000,12.197846923828125,-3.502587849470973,-2.6658056014180183,3.685818510752916
1789927127997826800,12.207826904296875,-3.27789705055356,-5.472969638550281,3.6169764451950788
1789927128007806700,12.217806640625,-2.5199855101197954,-7.476482128337025,2.614898713262379
1789927128017787600,12.22778759765625,-1.9853432113677263,-8.482087742134928,-0.011223989325761794
1789927128027767600,12.237767578125,-0.5956593697726726,-8.315434121644497,-2.9451591338932515
1789927128037748000,12.247748046875,2.235851173108816,-6.595988748851418,-3.999451037187874
1789927128047727900,12.257727783203125,5.437676791372895,-4.228035044151544,-3.61611602897346
1789927128057707800,12.267707763671876,7.659885223576426,-2.4219559285223484,-2.784868034172058
1789927128067688700,12.277688720703125,8.776938703471421,-1.7021540462523699,-1.254699324826896
1789927128077668600,12.287668701171874,9.307643078252672,-1.8703057963460683,0.24535116349980235
1789927128087648800,12.297648681640625,9.816791454786062,-2.905544916385412,1.9504713660813866
1789927128097629000,12.30762890625,12.69095572900176,-3.654522624257207,6.538280656248331
1789927128107609900,12.31760986328125,12.150627201306818,-4.53871602730453,8.50884715424478
1789927128117589800,12.32758984375,8.05855954748094,-5.015619838315248,6.192233760681748
1789927128127569700,12.337569580078124,4.092093372789025,-4.309755295982956,3.43887467123419
1789927128137549600,12.347549560546875,1.6140502308636904,-2.682529357203841,2.3177846292994917
1789927128147529700,12.35752978515625,0.40337329537570477,-1.0483084449708462,1.6809329790472984
1789927128157510700,12.3675107421875,-0.8542571144670248,0.7911416098624467,1.299333562453836
1789927128167490800,12.37749072265625,-3.4591531968921423,2.1861288185626266,1.4803301810733973
1789927128177470700,12.387470703125,-6.669364950707554,3.473680319416523,2.1651555886387825
1789927128187450600,12.39745068359375,-10.942276662939786,4.791898761212826,3.5851319849058982
1789927128197431800,12.407431884765625,-15.217176334118841,5.588872145968676,5.000705762299895
1789927128207411700,12.41741162109375,-14.732080448824167,5.7642065010428425,6.433569404929876
1789927128217391600,12.4273916015625,3.2588924903541803,2.4077777655661103,8.743058645701408
1789927128227371800,12.437371826171875,23.200358861315248,-4.6457671197474,7.104781151553988
1789927128237351700,12.4473515625,12.426136917835473,-3.310368410569429,3.512524137073755
1789927128247332900,12.457332763671875,3.0856887175679204,0.36821956440806386,1.4965876345217226
1789927128257312800,12.467312744140624,-3.9799800285205245,2.3905244329482316,-0.6020006285581737
1789927128267292700,12.477292724609375,-7.4359741768598555,3.1296494398474692,-1.8501172870591283
1789927128277272600,12.4872724609375,-4.184248509395123,1.1321043340325354,-3.148681472575664
1789927128287252700,12.497252685546876,-0.7740177488431335,-1.1106319224148988,-3.1934009042680263
1789927128297234000,12.50723388671875,-0.8690566241919994,-1.767255171716213,-2.109994550170004
1789927128307213800,12.5172138671875,-2.5461387730300427,-1.0425152485221625,-0.5892622891467064
1789927128317193700,12.52719384765625,-3.64069692800045,0.17066928587257862,0.5792910763610154
1789927128327173600,12.537173583984375,-4.0942087575078006,1.1615958014547825,1.4416731181599198
1789927128337154800,12.54715478515625,-4.244854077005386,2.1822873407036063,2.2965303904771805
1789927128347134700,12.557134765625,-4.892437695282697,3.364350760647654,2.4565274756878615
1789927128357115000,12.567114990234375,-5.506978291136026,4.038555259346961,1.4576741126291453
