time,seconds_elapsed,z,y,x
1789401731893285600,0.05328564453125,0.06823065566122531,0.3782333011612296,-0.3530762827467173
1789401731903298600,0.063298583984375,0.27253450011014935,0.3363379869788885,-0.19560060577243565
1789401731913311500,0.0733115234375,0.41602585619986054,0.2895373650982976,-0.07111903404649347
1789401731923324700,0.08332470703125,0.42892099360823627,0.2228320193082094,0.016265088765509427
1789401731933337600,0.093337646484375,0.4015793976962566,0.2592193837240338,0.04538878232128918
1789401731943349500,0.103349609375,0.33815000483691693,0.2584542445704341,-0.014886530421301721
1789401731953362400,0.113362548828125,0.21607143913209437,0.17595131792873142,-0.07342394998800009
1789401731963375600,0.123375732421875,0.0698176325917244,0.054391515401005744,-0.09707951433099805
1789401731973388500,0.133388427734375,-0.08425532326698303,-0.02923924622684717,-0.12355357016082852
1789401731983401500,0.1434013671875,-0.3441618124723434,-0.042592064274847505,-0.16320863113570958
1789401731993414700,0.15341455078125,-0.6067302143633365,-0.07633271357417107,-0.23829634961746632
1789401732003427600,0.163427490234375,-0.7272130353093147,-0.09768559046536683,-0.3429509753778577
1789401732013440500,0.1734404296875,-0.7547264806568622,-0.12380933502018451,-0.32808957939781247
1789401732023453400,0.183453369140625,-0.5783475849658251,-0.11190028603971004,-0.30835553588010367
1789401732033465900,0.1934658203125,-0.3157037797510624,-0.01830664106309414,-0.32667635159902275
1789401732043478800,0.203478759765625,-0.1303103874772787,0.11100772111415863,-0.28872882519438864
1789401732053491700,0.21349169921875,-0.04833119244873523,0.13825667030662298,-0.2136804523423314
1789401732063505000,0.2235048828125,-0.12835165462493897,0.1370525552138686,-0.19490568231083452
1789401732073517800,0.233517822265625,-0.2412187398701906,0.1520811975196004,-0.214630263880454
1789401732083529700,0.24352978515625,-0.30296470968723294,0.2038943868651986,-0.2550915266716853
1789401732093543000,0.25354296875,-0.3176642661690712,0.33489100304096936,-0.31778376436289396
1789401732103555800,0.263555908203125,-0.31922610865831375,0.3994645974993706,-0.412085484543629
1789401732113568800,0.27356884765625,-0.3789496327370405,0.3786082719534635,-0.47933286478854714
1789401732123582000,0.28358203125,-0.4207558073312044,0.2648766788333654,-0.4919083783211186
1789401732133594600,0.2935947265625,-0.3714478788048029,0.18976853861808776,-0.4725005345504731
1789401732143607800,0.30360791015625,-0.2495586981922388,0.16197832215577362,-0.470326113120839
1789401732153620700,0.313620849609375,-0.12324527139663695,0.15514818387478588,-0.48622693515121934
1789401732163634000,0.323634033203125,-0.11562485952079296,0.11816431487053632,-0.4856070496872067
1789401732173646800,0.333646728515625,-0.18857494491934776,0.11723667863160371,-0.4742127818284556
1789401732183659800,0.34365966796875,-0.2728840442001819,0.15693477503061293,-0.529196454436332
1789401732193673000,0.3536728515625,-0.3309866890788078,0.20288725564926863,-0.6231264917604625
1789401732203686000,0.363685791015625,-0.3502279806435108,0.20549597684293985,-0.6902873992983252
1789401732213698800,0.37369873046875,-0.29729367831349374,0.14940058013349772,-0.7433024387143552
1789401732223711700,0.383711669921875,-0.22758827392458914,0.05465484251230955,-0.7120788137372582
1789401732233724000,0.393723876953125,-0.16287585551738737,-0.0668587827861309,-0.6672912121795117
1789401732243736800,0.40373681640625,-0.10167758271098136,-0.1379158940449357,-0.6175268451225012
1789401732253749800,0.413749755859375,0.008301379877328872,-0.15591010815799236,-0.5857665194528177
1789401732263762700,0.4237626953125,0.16023381657600402,-0.14752689521610737,-0.5223560870222747
1789401732273775900,0.43377587890625,0.1900245592057705,-0.14519494513720274,-0.47578043300397693
1789401732283788800,0.443788818359375,0.04627016826570034,-0.12791209416389465,-0.5907577518688515
1789401732293801700,0.4538017578125,-0.2405658289194107,-0.10451631326824426,-0.6761775523379445
1789401732303815000,0.46381494140625,-0.4483873261004686,0.028860476042330264,-0.6292116568930447
1789401732313827800,0.473827880859375,-0.4030792808651924,0.3090583503872156,-0.6876331584624946
1789401732323840800,0.4838408203125,-0.31706454671025275,0.5753133318364619,-0.7321385090127587
1789401732333853700,0.493853759765625,-0.2804933501601219,0.7252393971487879,-0.5950046321909874
1789401732343867000,0.503866943359375,-0.22452947087585926,0.7056731114134192,-0.44625425959452986
1789401732353879800,0.5138798828125,-0.21192484084665775,0.5424579409390687,-0.3646369932135567
1789401732363892700,0.523892822265625,-0.23099603654146192,0.3533706625834107,-0.33249669178295876
1789401732373906000,0.533906005859375,-0.2604261291652918,0.1561871715337038,-0.34250597155671564
1789401732383917800,0.543917724609375,-0.2716132936120033,-0.01733458116054535,-0.2950424105216749
1789401732393931000,0.553930908203125,-0.2885270190119743,-0.13491905031651258,-0.24627023283978922
1789401732403943700,0.563943603515625,-0.2978980739474296,-0.1849783817321062,-0.22267629902353508
1789401732413956900,0.573956787109375,-0.2792728684544563,-0.18280688291192054,-0.13717393483752385
1789401732423969800,0.5839697265625,-0.2269055523574352,-0.12414163571447133,-0.06422735657030716
1789401732433983000,0.59398291015625,-0.28244331518411636,-0.034971944659948344,-0.031195695790555325
1789401732443995600,0.60399560546875,-0.33451018702983853,0.1048825162321329,-0.26099618413820863
1789401732454008800,0.6140087890625,-0.470291114872694,0.21775720026195047,-0.5630499895256013
1789401732464022000,0.62402197265625,-0.40698447161018847,0.19595161116719245,-0.6266422447964549
1789401732474034700,0.63403466796875,-0.19461773221492767,0.09364040672779082,-0.5144542278565466
1789401732484048000,0.6440478515625,-0.1324801327317953,0.054389761835336684,-0.3499931489743292
1789401732494060800,0.654060791015625,-0.1864507923722267,0.06848550720512867,-0.1680304252689704
1789401732504074000,0.664073974609375,-0.1827776568174362,0.05499240390360355,0.02195767438393086
1789401732514086700,0.674086669921875,-0.10638532201051712,0.04721943181455135,0.13175833952957763
1789401732524099800,0.684099853515625,0.10773439853191374,0.06031885962337255,0.13598090739436447
1789401732534111700,0.69411181640625,0.24832652604877947,0.045424657352268694,0.07563715079175308
1789401732544125000,0.704125,0.24897183821499347,0.010768062251806258,0.015817892987281083
1789401732554137600,0.7141376953125,0.07983107708394527,0.012544132013618946,-0.06850616640066727
1789401732564150800,0.72415087890625,-0.14021101924479007,-0.03480272557288408,-0.14390514278868213
1789401732574164000,0.7341640625,-0.2535503981769085,-0.1184814179956913,-0.09974224900053813
1789401732584177000,0.744177001953125,-0.23145605526864527,-0.09828443314135074,0.06911078123031184
1789401732594189800,0.75418994140625,-0.1319441261589527,0.1958370448768139,0.21265034210961312
1789401732604202800,0.76420263671875,0.014914076015353201,0.5902867368236184,0.3018062055681832
1789401732614216000,0.7742158203125,0.05763327380120754,0.8942080165833234,0.345482795410417
1789401732624228600,0.784228515625,-0.07092997774779797,1.0772054536312818,0.14051159136025235
1789401732634241800,0.79424169921875,-0.31840953157842156,1.0962199507027863,-0.22701734216883776
1789401732644255000,0.8042548828125,-0.5232803622603416,0.9508747834399341,-0.32954682900141924
1789401732654268000,0.814267822265625,-0.4888344873011112,0.585619329534471,-0.1708936144140549
1789401732664280800,0.82428076171875,-0.26152853744924065,0.20383827276378869,0.04218278935421258
1789401732674293800,0.834293701171875,-0.04797521861791611,-0.007294833183288574,0.2533428563734516
1789401732684306000,0.844305908203125,0.1395300512433052,-0.0724511959657073,0.43951768134851005
1789401732694318800,0.85431884765625,0.286589913469553,0.010001461793482304,0.5556590755566955
1789401732704331800,0.864331787109375,0.3009370032519102,0.19965835673063992,0.5648797257034107
1789401732714344700,0.8743447265625,0.09483926112353801,0.37005496314167974,0.5119065526677296
1789401732724358000,0.88435791015625,-0.11523147628903388,0.49438276907801626,0.3589749853964895
1789401732734370800,0.894370849609375,-0.1989472858518362,0.5256505985230208,0.3066375895136967
1789401732744383700,0.9043837890625,-0.19128478839993476,0.4247968994155526,0.3575967558458447
1789401732754397000,0.91439697265625,-0.056981531894206995,0.24858926863819358,0.4417255666563287
1789401732764409900,0.924409912109375,0.155528415364027,0.13856237525492907,0.5324057718716562
1789401732774422800,0.9344228515625,0.36028292618989943,0.09380816451013088,0.6136972768969834
1789401732784435700,0.944435791015625,0.48332536849081514,0.165618139962852,0.6450080687008798
1789401732794449000,0.954448974609375,0.4468447728335857,0.27741788823753594,0.6467931254867464
1789401732804461800,0.9644619140625,0.2851771240621805,0.3856201965421438,0.6535426728121936
1789401732814474800,0.974474853515625,0.03520984506905079,0.4843135027453303,0.6368447090547531
1789401732824488000,0.984488037109375,-0.26069734732210637,0.5741910498082637,0.6347372884467244
1789401732834500900,0.9945009765625,-0.5562935740679502,0.6582759849444031,0.6153007665708661
1789401732844513000,1.004512939453125,-0.7575251714646816,0.7786237813338637,0.6481960510872304
1789401732854525700,1.014525634765625,-0.8668027077853679,0.9395920496642589,0.6985480087738484
1789401732864539000,1.024538818359375,-0.893238879290223,1.116316105531156,0.6621100832145661
1789401732874551800,1.0345517578125,-0.919285759216547,1.2210533680737017,0.5986410159319638
1789401732884565000,1.04456494140625,-0.8680366334944963,1.212837620653212,0.5706854163074866
1789401732894577700,1.05457763671875,-0.7897989630818366,1.0791142098620534,0.5893541686812416
1789401732904590800,1.0645908203125,-0.6983025826454162,0.9074158732026815,0.6484910885110498
1789401732914603800,1.074603759765625,-0.6732312697529792,0.7659516390264034,0.7262251202505081
1789401732924616700,1.08461669921875,-0.6534434502214193,0.7286126729741692,0.7865570585511624
1789401732934630000,1.0946298828125,-0.5479460169613362,0.7628571801424026,0.8044942817799746
1789401732944642800,1.104642822265625,-0.5112053090631962,0.7997118698090314,0.7784643529884516
1789401732954656000,1.114656005859375,-0.528203205615282,0.838687497152388,0.6928383258901536
1789401732964668700,1.124668701171875,-0.5706938553422689,0.8498635556831955,0.6039672159234062
1789401732974681900,1.134681884765625,-0.590112257039547,0.839875537893176,0.4996654952539131
1789401732984694800,1.14469482421875,-0.6460340507477521,0.8502744745716452,0.43680498832371084
1789401732994707000,1.15470703125,-0.7319687054038048,0.8747861077547073,0.44273233254607763
1789401733004719600,1.1647197265625,-0.8185106783032416,0.9303288390174508,0.4693712966140359
1789401733014732800,1.17473291015625,-0.8558540282696485,0.9981079515188932,0.4697064833851531
1789401733024746000,1.18474609375,-0.8558727329701185,1.043886829136312,0.4736490835310891
1789401733034759200,1.19475927734375,-0.8446563424289226,1.038373618672788,0.44640097458884115
1789401733044772400,1.2047724609375,-0.9198632668435573,0.9531795532509684,0.35971871643587944
1789401733054785300,1.214785400390625,-0.9891419702529907,0.8283470126628876,0.2906405405672267
1789401733064798500,1.224798583984375,-1.0372574741244316,0.6947212170273065,0.25855076374746855
1789401733074811100,1.23481103515625,-1.0851356621086596,0.5949331013247371,0.26458571479646487
1789401733084824300,1.24482421875,-1.0445108062535524,0.5591290897548198,0.3164581052497029
1789401733094837500,1.25483740234375,-0.8773580040693283,0.5795315340533852,0.3592013414982706
1789401733104850200,1.26485009765625,-0.6741618286013603,0.6237172972604632,0.41078576358929275
1789401733114863400,1.27486328125,-0.6174713886082172,0.7088631396263837,0.44530795518774535
1789401733124876300,1.284876220703125,-0.6337772112429142,0.86366557880342,0.4591949166450649
1789401733134889500,1.294889404296875,-0.7399421685010195,1.0060898901835083,0.4202896876567974
1789401733144901400,1.3049013671875,-0.8686702552229165,1.073564466780424,0.2962420503687113
1789401733154914300,1.314914306640625,-0.9755962599813938,1.075977665401995,0.21352926210230216
1789401733164927200,1.32492724609375,-1.009374610942602,1.016044297964871,0.17311956510152668
1789401733174940400,1.3349404296875,-0.8818336881786585,0.9624766661673784,0.22154546836270017
1789401733184953000,1.344953125,-0.641528556022048,0.9447998474404216,0.32666232307367027
1789401733194966300,1.35496630859375,-0.3584861059010029,0.9527119357392191,0.37569903344325717
1789401733204979500,1.3649794921875,-0.10592997945845127,0.98440617390275,0.43009222934469576
1789401733214992400,1.374992431640625,0.03244739461839199,0.9941928239017724,0.4994415137723088
1789401733225005300,1.38500537109375,0.012490648260712623,1.007237598913908,0.546536442424357
1789401733235018200,1.395018310546875,-0.24624621264338492,1.0179355185389518,0.5152035118538886
1789401733245031400,1.405031494140625,-0.5670581291884184,1.0611068440064788,0.4263463938798755
1789401733255044000,1.415044189453125,-0.794074740704894,1.1305337237149475,0.3155170615399256
1789401733265057300,1.425057373046875,-0.863176918503642,1.2128761990979313,0.21726561735272407
1789401733275070500,1.435070556640625,-0.9285983619630336,1.264118018296361,0.17326807019412516
1789401733285083400,1.44508349609375,-0.8356038519233465,1.2919006359741092,0.18431599056692793
1789401733295096300,1.455096435546875,-0.6322533626765012,1.31214350579679,0.2167426529245451
1789401733305108200,1.465108154296875,-0.4261965370804071,1.300970369875431,0.27705753049254417
1789401733315121400,1.475121337890625,-0.2928857987433672,1.2409884871214627,0.2967866421068087
1789401733325134300,1.48513427734375,-0.16903379362523555,1.1821177804797887,0.29476426943372935
1789401733335147300,1.495147216796875,-0.09703297177553176,1.1197153925806282,0.23857666439618913
1789401733345160200,1.50516015625,-0.08884382010102272,1.084955921627581,0.16515423051184042
1789401733355173400,1.51517333984375,-0.07968553113341331,0.9995891299873589,0.10427143512908368
1789401733365186300,1.525186279296875,-0.04999591079056263,0.8857306956171989,0.1235783758085221
1789401733375199200,1.53519921875,-0.06924538566172123,0.8176356490343809,0.14154979356788097
1789401733385212400,1.54521240234375,-0.08578677061796187,0.8085819894850254,0.10269560064710676
1789401733395225300,1.555225341796875,-0.08192366544902324,0.8124325274333357,0.05126863414011895
1789401733405238300,1.56523828125,0.04262333619594574,0.8731009311467408,0.02763710825983435
1789401733415251200,1.575251220703125,0.24911738416552542,0.9623732057929039,0.017314926612004636
1789401733425264400,1.585264404296875,0.3640671209037304,1.0806687458276747,-0.04602222138661891
1789401733435277300,1.59527734375,0.43814591807126996,1.1422066258519887,-0.06757617380786687
1789401733445290200,1.605290283203125,0.5174807360708713,1.137515545426309,0.013318002462945878
1789401733455302100,1.61530224609375,0.6897019275605678,1.072984621065855,0.1251269569573924
1789401733465315300,1.6253154296875,1.0301759914308786,1.014975499689579,0.24434406881649046
1789401733475328300,1.635328369140625,1.5106664287567138,0.9080281598821281,0.41001828634813425
1789401733485341200,1.645341064453125,2.0086732335507866,0.7238821373209356,0.5767794223336502
1789401733495354400,1.655354248046875,2.296460247850418,0.43594285506904124,0.6659541183568537
1789401733505367300,1.6653671875,2.4573580812931057,0.10057692799270153,0.7181044307023287
1789401733515380500,1.67538037109375,2.41859609670043,-0.23115911814868448,0.6707558195501565
1789401733525393200,1.68539306640625,2.0553601659238336,-0.5380068067491054,0.5000021798623725
1789401733535406300,1.69540625,1.4403496144711971,-0.7983379511073231,0.26232315842565146
1789401733545419300,1.705419189453125,0.7562211031287908,-0.9788853646546601,0.051449105273559684
1789401733555432200,1.71543212890625,0.11229483831524849,-1.0159314852401613,-0.12571063859686255
1789401733565445400,1.7254453125,-0.4705173248440027,-0.9286232041433453,-0.2518953244462609
1789401733575458300,1.735458251953125,-0.8263929559856653,-0.7263835987478494,-0.37166305592544374
1789401733585471500,1.745471435546875,-1.0141945784449578,-0.46161651776880025,-0.5084286839567125
1789401733595484200,1.755484130859375,-1.1818179207503794,-0.22702421030104158,-0.6316526203043759
1789401733605497300,1.765497314453125,-1.2968722869068383,-0.05936901155263185,-0.7548589479301124
1789401733615509200,1.77550927734375,-1.2968126656740904,0.053603579893708224,-0.8476596889633685
1789401733625522400,1.7855224609375,-1.1940396889418363,0.0743400784522295,-0.874908345894888
1789401733635535400,1.795535400390625,-1.0333376703321933,0.015841712254285812,-0.8849115612540394
1789401733645548300,1.80554833984375,-0.9068225834846496,-0.02480418638885021,-0.9083646983601152
1789401733655561200,1.815561279296875,-0.8174222985446452,-0.09950286902040242,-0.9485472172752022
1789401733665574400,1.825574462890625,-0.7453261996269226,-0.13441782279610634,-1.0072007740348576
1789401733675587300,1.83558740234375,-0.6376648663312197,-0.11807020684629678,-1.0767251227684318
1789401733685600300,1.845600341796875,-0.48052375507354733,-0.10294979460388422,-1.127791804595664
1789401733695613400,1.855613525390625,-0.16886311323344708,-0.062249243164062495,-1.1234192155346274
1789401733705626400,1.86562646484375,0.3033908261448145,-0.03366320014894009,-1.027095122680813
1789401733715639300,1.875639404296875,0.8883703964710236,-0.008844108451902866,-0.8575126821968704
1789401733725652200,1.88565234375,1.5360978071331977,-0.07761106294691562,-0.6452816249452531
1789401733735665400,1.89566552734375,2.0367565877407787,-0.2200304058909416,-0.46230450003296136
1789401733745678300,1.90567822265625,2.330257888033986,-0.45054596543908115,-0.32857560934908686
1789401733755691300,1.915691162109375,2.28144271146059,-0.6857464679330587,-0.21059702630899846
1789401733765704400,1.925704345703125,1.9893372494399546,-0.9272960471928119,-0.09102591338045894
1789401733775716400,1.93571630859375,1.4209259520769117,-1.0708651446938513,-0.0480669885545969
1789401733785729500,1.9457294921875,0.592146977737546,-1.0654454577326773,-0.09713084265943617
1789401733795742200,1.9557421875,-0.36901743678748605,-0.9688695820748805,-0.17265428567733615
1789401733805755400,1.96575537109375,-1.2175415605604647,-0.8461468732476234,-0.2053437454232946
1789401733815768300,1.975768310546875,-1.908192167147994,-0.7066872568920254,-0.24301658307239413
1789401733825781200,1.98578125,-2.4017986911565066,-0.4587929847806692,-0.28407230462543664
1789401733835794200,1.995794189453125,-2.7044652946799994,-0.16831629300564527,-0.3492660037435591
1789401733845807400,2.005807373046875,-2.8573411497086285,0.12349456998258829,-0.4046543481621891
1789401733855820500,2.015820556640625,-2.8649516247123477,0.36056846513301133,-0.40236864837780595
1789401733865833200,2.025833251953125,-2.7292361633211373,0.511752129290998,-0.3536824319463223
1789401733875846400,2.035846435546875,-2.5037743800312278,0.6615192046493291,-0.34453196095898747
1789401733885859300,2.045859375,-2.245314582502842,0.7374073893263936,-0.3692100367501378
1789401733895872300,2.055872314453125,-1.9969652601003645,0.7139841359019279,-0.3951175082057714
1789401733905885200,2.06588525390625,-1.778739857804775,0.5830430493056774,-0.4398404470294714
1789401733915898400,2.0758984375,-1.4755390012741088,0.3775184308901429,-0.45094899328202004
1789401733925910300,2.08591015625,-1.1310405041933058,0.2116267346829176,-0.4219488895732909
1789401733935923500,2.09592333984375,-0.7935609459638595,0.07288052729368209,-0.3387212288536131
1789401733945936400,2.105936279296875,-0.5049392344057559,0.008048574160039424,-0.24063370652385055
1789401733955949300,2.11594921875,-0.29899112988114357,-0.03582973053306341,-0.1703728967418894
1789401733965962500,2.12596240234375,-0.18703706782758234,-0.03512567391693592,-0.15677673492468894
1789401733975975200,2.13597509765625,-0.21879472661614416,0.07216478023976088,-0.21449757741149514
1789401733985988400,2.14598828125,-0.4412485602617264,0.25896160957068204,-0.3444907521657645
1789401733996001300,2.156001220703125,-0.7082797867804765,0.47294279842525716,-0.48688992910459633
1789401734006014500,2.166014404296875,-0.9259089767485856,0.6592001140519976,-0.5921555263701826
1789401734016027100,2.176027099609375,-1.0224871904939412,0.7988704505488275,-0.6305022081602364
1789401734026040300,2.186040283203125,-0.9657178400456905,0.9757292387112975,-0.66779799265787
1789401734036053000,2.196052978515625,-0.8338613921701907,1.115842350539565,-0.6913700069032609
1789401734046066000,2.20606591796875,-0.6933528512835502,1.1893296115547418,-0.7016731550570577
1789401734056079000,2.2160791015625,-0.6274100142985582,1.172227085584402,-0.6879252732768655
1789401734066092000,2.226092041015625,-0.7024556106716394,1.1097992709830402,-0.7438188638038933
1789401734076105200,2.236105224609375,-0.8394125965565442,1.0131202272117137,-0.7772502279583364
1789401734086118000,2.246117919921875,-0.9562509235203266,0.9425634666904806,-0.8316101791772991
1789401734096130000,2.256130126953125,-0.9281266527980565,0.9357090707510709,-0.8462685999311507
1789401734106143000,2.26614306640625,-0.7772761661171913,0.9662117610424756,-0.8130285936303436
1789401734116156200,2.27615625,-0.5158703782647848,1.0053235819861293,-0.7606339511349797
1789401734126169000,2.286169189453125,-0.19009236374497412,0.9927607452720403,-0.6823593097127973
1789401734136182000,2.29618212890625,0.10940262400507926,0.9264297857522964,-0.6519928130216897
1789401734146195000,2.30619482421875,0.36648119630813597,0.8183724388763308,-0.6161829562328756
1789401734156208000,2.3162080078125,0.5274503414213657,0.6424228745132684,-0.5826776500593871
1789401734166221000,2.326220947265625,0.6043617316663265,0.433818994782865,-0.539611282803677
1789401734176234000,2.33623388671875,0.7592115171164274,0.23627923764139414,-0.49081966976895924
1789401734186247200,2.3462470703125,0.8352455400049686,0.0599573328346014,-0.39458248801361767
1789401734196260000,2.356260009765625,0.5843365962475537,0.011314882479608058,-0.3325209494413808
1789401734206273000,2.36627294921875,0.1649625986635685,0.13638503121584652,-0.42307566511351613
1789401734216286000,2.376285888671875,-0.16633330249488354,0.4652753325372934,-0.6221285667642951
1789401734226299100,2.386299072265625,-0.2690484115600586,0.8269707558736205,-0.7977908386185765
1789401734236312000,2.39631201171875,-0.1261357321411371,1.0863087975412606,-0.8591741856683045
1789401734246325000,2.406324951171875,0.21993220621347426,1.1948968902930617,-0.780849202298373
1789401734256337000,2.4163369140625,0.5302969630241394,1.0756076630458236,-0.6161044111039489
1789401734266350000,2.42635009765625,0.7329314129561185,0.8149953636586665,-0.45367914889827365
1789401734276363000,2.436363037109375,1.0075929882228374,0.5430503538742661,-0.34475334862470625
1789401734286376000,2.4463759765625,1.4033955560833216,0.31934798147231336,-0.2561628274313174
1789401734296389000,2.45638916015625,1.8036381522178648,0.10324497815817595,-0.20585671818042173
1789401734306402000,2.466402099609375,2.1467846501678225,-0.05983224515020847,-0.22479928252687675
1789401734316415000,2.4764150390625,2.392069908824563,-0.207051097330451,-0.28789197251144794
1789401734326428000,2.486427978515625,2.5274106916844845,-0.31617285856753585,-0.3284069017186761
1789401734336441000,2.496441162109375,2.506062198707461,-0.4422057148560881,-0.2494471093102358
1789401734346454000,2.5064541015625,2.435533787497878,-0.5008382288277149,-0.07742743174200876
1789401734356467000,2.516467041015625,2.502929745900631,-0.43413697469085455,0.111191534982156
1789401734366480100,2.526480224609375,2.7274457727730272,-0.34705227321684357,0.3520656443994492
1789401734376493000,2.5364931640625,2.8071815727889535,-0.3562397882789373,0.5673088525464758
1789401734386506000,2.546506103515625,2.5796008976489304,-0.4431201993525028,0.736508906116709
1789401734396519000,2.556518798828125,2.1413485965937373,-0.5502779670402407,0.8081437441982329
1789401734406532000,2.566531982421875,1.5008184039592742,-0.6485913340151309,0.7560447236485779
1789401734416545000,2.576544921875,0.7628045731723309,-0.6936062415227293,0.7138035917032509
1789401734426557200,2.58655712890625,0.026859949874877928,-0.7373629656627774,0.7579030648663639
1789401734436569900,2.59656982421875,-0.6024877544879913,-0.760271547563374,0.818746459820494
1789401734446583000,2.6065830078125,-1.0460264715135097,-0.7331348265737295,0.918503230536729
1789401734456596200,2.61659619140625,-1.2608610623270273,-0.6204647252053022,0.9763242819949984
1789401734466609000,2.62660888671875,-1.3180623744517563,-0.43619010782837864,1.015433691785857
1789401734476622000,2.6366220703125,-1.2643833912342786,-0.2598921684190631,0.9690518067739904
1789401734486635000,2.646635009765625,-1.136349716517329,-0.20806465828716753,0.8767401644319296
1789401734496648200,2.656648193359375,-0.9257137464374303,-0.25551205363869667,0.8141556979641318
1789401734506660900,2.666660888671875,-0.7643775215774774,-0.3868205122426152,0.8152496306806802
1789401734516674000,2.676674072265625,-0.6728513305246829,-0.5440992784053087,0.8360865939389914
1789401734526687200,2.686687255859375,-0.6702741735130548,-0.6294827289193868,0.8175552042093127
1789401734536700000,2.696699951171875,-0.6965706442862749,-0.7117082999244332,0.7124792112316936
1789401734546713000,2.706713134765625,-0.7195540449887514,-0.7830988809213042,0.611989230870083
1789401734556726000,2.71672607421875,-0.6900269217312336,-0.8416220892995595,0.547758495032601
1789401734566739200,2.7267392578125,-0.6366594886809587,-0.8942582854658365,0.5356128242846578
1789401734576751900,2.736751953125,-0.6475497160077095,-0.9099982909113168,0.5799450102251023
1789401734586765000,2.74676513671875,-0.7558125223278999,-0.8577353119716048,0.6264644770767539
1789401734596777000,2.75677685546875,-0.851321061015129,-0.6817267108976841,0.6916746158730238
1789401734606790100,2.7667900390625,-0.922564342495799,-0.36527678895443677,0.7490822642248124
1789401734616802800,2.776802734375,-1.0639549269139765,-0.05311316602826118,0.7810078999914228
1789401734626816000,2.78681591796875,-1.296954704493284,0.18008388768881559,0.7921963796123862
1789401734636829200,2.7968291015625,-1.5478022734522818,0.3657192720249295,0.7791473668165505
1789401734646842000,2.806842041015625,-1.7803426168262957,0.4780728547900915,0.727352443780005
1789401734656855000,2.81685498046875,-1.9041753327220676,0.5167205653533339,0.6528313096724451
1789401734666868000,2.826867919921875,-1.91345870937407,0.5329840101510286,0.5623446177352219
1789401734676881200,2.836881103515625,-1.7820599421381949,0.5544815562099218,0.4622025740284472
1789401734686893800,2.846893798828125,-1.5698860949665308,0.556396449920535,0.40635117867533116
1789401734696907000,2.856906982421875,-1.3756366115421057,0.5164975702524185,0.3648493938552215
1789401734706920200,2.866920166015625,-1.2571499328494071,0.48385523758381604,0.3616297011563554
1789401734716933000,2.87693310546875,-1.2344225527346133,0.44798254469186066,0.37537813092581923
1789401734726946000,2.886946044921875,-1.285315704625845,0.42440848461985586,0.31724260669089854
1789401734736959000,2.896958984375,-1.335842361292243,0.4174398146510124,0.18324030589312315
1789401734746972200,2.90697216796875,-1.351347973459959,0.3806494223922491,0.0901695157468319
1789401734756984000,2.916984130859375,-1.2197428699970245,0.32368454937189817,0.08881948937736452
1789401734766997000,2.9269970703125,-0.9350684347599745,0.325876214197278,0.1860760407757014
1789401734777010000,2.937010009765625,-0.6040794075936079,0.3209682761505246,0.28409703720789403
1789401734787023000,2.947023193359375,-0.4283002313613891,0.3583458206474781,0.30713812291435894
1789401734797036000,2.9570361328125,-0.379463427478075,0.4065235761001706,0.2934059136273339
1789401734807049000,2.967049072265625,-0.4778080663740635,0.4384720812857151,0.2529126117300242
1789401734817062100,2.977062255859375,-0.5972317336559295,0.5107166487634182,0.23102186510246245
1789401734827075000,2.987074951171875,-0.6832166571944952,0.5915721004590392,0.20689861018247901
1789401734837088000,2.997087890625,-0.7392097625732421,0.6892647051870823,0.23990689008664337
1789401734847101000,3.007100830078125,-0.7142763968467712,0.8048281899094581,0.25881668467465785
1789401734857114000,3.017114013671875,-0.6715098527878522,0.9282578779622912,0.2245762691596523
1789401734867127000,3.027126953125,-0.6377279946953058,0.9953566069841384,0.14897336769737302
1789401734877140000,3.037139892578125,-0.6327309170603752,1.0706456567242741,0.10832849196754395
1789401734887153200,3.047153076171875,-0.6342156026601791,1.0724483222320675,0.09608275837861001
1789401734897166000,3.057166015625,-0.5757569839507342,1.043069959795475,0.09694383218735456
1789401734907179000,3.067178955078125,-0.5210772992581129,0.978460417240858,0.11313413868360221
1789401734917192000,3.07719189453125,-0.421655386519432,0.8972522065848112,0.15416699081771074
1789401734927204000,3.0872041015625,-0.22999124341309068,0.8082970350638031,0.18071688836272806
1789401734937217000,3.097217041015625,0.0663274523884058,0.7417553554028272,0.2164895914789289
1789401734947230200,3.107230224609375,0.32639468511343,0.6806634655803442,0.19079477639328687
1789401734957243000,3.117242919921875,0.48843935050368303,0.6618243250757455,0.13550218396671115
1789401734967256000,3.127256103515625,0.46697746028006076,0.6470908663243055,0.054186713543906806
1789401734977269000,3.13726904296875,0.37768414284586904,0.6364782868951558,-0.024887846084311604
1789401734987282000,3.147281982421875,0.3487064701646566,0.5950424069181084,-0.0852056462617591
1789401734997295000,3.157295166015625,0.4842863224774599,0.6265706408649683,-0.1970651984322816
1789401735007308000,3.16730810546875,0.5450836132675408,0.6872650558024644,-0.30069318455867466
1789401735017321200,3.1773212890625,0.5766822821021079,0.7345332951948046,-0.4231516894917935
1789401735027334000,3.187333984375,0.6555933217316866,0.7533508083894849,-0.5013276928450912
1789401735037347000,3.19734716796875,0.786926037994027,0.7296352940201759,-0.46878662859387693
1789401735047360300,3.2073603515625,1.1431728405356407,0.7406435947686434,-0.36443485823757943
1789401735057373000,3.217373046875,1.679365291339159,0.6415054674074053,-0.25147651451230046
1789401735067386000,3.22738623046875,2.2544068204969165,0.42989656064212317,-0.09492628181986511
1789401735077399300,3.2373994140625,2.8083903640568253,0.18679449124336242,-0.09748546478338539
1789401735087412200,3.247412109375,3.136759564113617,-0.1601993297845125,-0.18946802130155263
1789401735097424400,3.25742431640625,3.1364369080305097,-0.6365761943116783,-0.2838310066828504
1789401735107437000,3.26743701171875,2.978199818229675,-1.0983666073426603,-0.3546057573363185
1789401735117450200,3.2774501953125,2.7092800014853475,-1.555802916817367,-0.3448266330566257
1789401735127463200,3.287463134765625,2.2001555903494356,-2.0124375545203685,-0.29695312124751505
1789401735137476000,3.29747607421875,1.5633552318930626,-2.3374238341405986,-0.2607011467143893
1789401735147489000,3.307489013671875,0.8806137909948826,-2.4093571437120436,-0.2891925702486187
1789401735157502200,3.317502197265625,0.19956278740167616,-2.2304680187657473,-0.4001860436417162
1789401735167515100,3.32751513671875,-0.43027766891419883,-1.9085937336862087,-0.4879254096321761
1789401735177528000,3.337528076171875,-0.8996464082449674,-1.4994944618791342,-0.5938644491799175
1789401735187541200,3.347541259765625,-1.2963859646946192,-0.9908175022497773,-0.6989594391189515
1789401735197554200,3.35755419921875,-1.5642016195893287,-0.513191806705296,-0.8202537225782871
1789401735207567000,3.367567138671875,-1.649194609481096,-0.03334785058945417,-0.9378397261042147
1789401735217580000,3.377580078125,-1.6132582037031649,0.4111488978132605,-1.06209293243438
1789401735227593200,3.38759326171875,-1.5226462048858402,0.7215294367149472,-1.1084575009852646
1789401735237606100,3.397606201171875,-1.2134393859386443,0.9382973336786031,-1.0752597994562239
1789401735247619000,3.407619140625,-0.5570569596558809,0.9442866372212767,-0.8881197096455842
1789401735257632300,3.41763232421875,0.2473310852706432,0.7165621696963906,-0.6006882307853549
1789401735267645200,3.427645263671875,1.0206307489722966,0.4084995523482561,-0.3498737969109788
1789401735277657300,3.4376572265625,1.6228841101825235,0.03675765903294086,-0.16341507696062327
1789401735287670000,3.447669921875,1.9365841488957405,-0.4161398379683494,0.016079503065533934
1789401735297683200,3.45768310546875,2.0204495960623023,-0.8961796089172362,0.16581388173066078
1789401735307696000,3.467696044921875,1.900834205600619,-1.3492083310827612,0.27263306511379776
1789401735317709300,3.477709228515625,1.588559815776348,-1.7732643490031361,0.23699549615196883
1789401735327722000,3.487721923828125,1.1184136623322962,-2.2135168839648363,0.14007120891530067
1789401735337735200,3.497735107421875,0.6794903301477432,-2.3922414659991857,0.11442965838685631
1789401735347748000,3.507748046875,0.2598240716189146,-2.1152388805642723,0.10575889720786362
1789401735357761000,3.517760986328125,-0.21444705280065535,-1.5184782715514302,0.08198321361653506
1789401735367774200,3.527774169921875,-0.701290658545494,-0.895320361739397,0.06022851445879787
1789401735377787100,3.537787109375,-1.1143500661551953,-0.3514999002754688,0.05042637462969869
1789401735387800300,3.54780029296875,-1.4224655827343462,0.02883271125257015,0.031747502720728515
1789401735397813000,3.55781298828125,-1.6188427258372307,0.3108595545902848,-0.027781558231823145
1789401735407826200,3.567826171875,-1.7074936537146568,0.47529959068447347,-0.045963805730268356
1789401735417839000,3.577839111328125,-1.6650053420752287,0.5147036725729703,-0.03453607399333268
1789401735427852000,3.58785205078125,-1.5718109255492687,0.3909256094738841,-0.016006109035760163
1789401735437865200,3.597865234375,-1.5747598384827375,0.19285013802051543,-0.0615565847247839
1789401735447877000,3.607877197265625,-1.572092080578208,-0.07965338242948054,-0.0861609376925975
1789401735457890300,3.617890380859375,-1.499037950283289,-0.34203386053293944,-0.06369834599383176
1789401735467903200,3.6279033203125,-1.3880693921357392,-0.48228784213662146,-0.014053952054679393
1789401735477916200,3.637916259765625,-1.3245546590805053,-0.5003638893142343,0.05144442909844219
1789401735487929000,3.64792919921875,-1.254397419270873,-0.4137394988283515,0.07451543501913548
1789401735497942300,3.6579423828125,-1.2279530644595622,-0.24649755705595014,0.045182299963757395
1789401735507955200,3.667955078125,-1.2725970928281545,-0.04997895965576172,0.04266702920719981
1789401735517968100,3.677968017578125,-1.273644556054473,0.11336743598282337,0.008204495374113321
1789401735527981000,3.68798095703125,-1.2018489013880491,0.29844577095806596,-0.042381636394560336
1789401735537994200,3.697994140625,-1.105140923783183,0.529197477349639,-0.18659816495366394
1789401735548007200,3.708007080078125,-0.952674818599224,0.7570923330053687,-0.35070253935270007
1789401735558020000,3.71802001953125,-0.794192229604721,0.9351724796563387,-0.5107560309257358
1789401735568033300,3.728033203125,-0.6174421625137329,1.051895071285963,-0.6213308405153453
1789401735578046200,3.738046142578125,-0.42784196619987486,1.0881342594027519,-0.7050739764764905
1789401735588059100,3.74805908203125,-0.30303076066076756,1.0300646400108933,-0.7466556946650147
1789401735598072000,3.758072021484375,-0.25404315012991424,0.9161384011015296,-0.7592473190821707
1789401735608085200,3.768085205078125,-0.30124504628777504,0.756584383483231,-0.7809398762565106
1789401735618098200,3.77809814453125,-0.4040723835557699,0.6233268366381526,-0.8083322525076567
1789401735628110000,3.788110107421875,-0.5467068305552005,0.5438426732957363,-0.7801974603913724
1789401735638123300,3.798123291015625,-0.6457979039043188,0.5984063303932547,-0.8241608860846609
1789401735648136200,3.80813623046875,-0.6732061353117227,0.7475850844696164,-0.8728103507023304
1789401735658149000,3.818149169921875,-0.6494488276273012,0.8650564486399293,-0.930381592117995
1789401735668162000,3.828162109375,-0.5207745169192552,0.9452277174636721,-0.9908748584602027
1789401735678175200,3.83817529296875,-0.2508534141778946,1.0377911426097155,-0.9895473361834883
1789401735688188200,3.848188232421875,-0.024699556970596313,1.0517109468907118,-1.0433952462270855
1789401735698201000,3.858201171875,0.0996194811373949,1.1143015508383511,-1.117030391280353
1789401735708214000,3.868214111328125,-0.00878945565521717,1.219075930520892,-1.2431819055125117
1789401735718227200,3.878227294921875,-0.19122516716718674,1.391275786961615,-1.363115860404074
1789401735728240000,3.888240234375,-0.31232816583812234,1.527798180821538,-1.3907324738651514
1789401735738253000,3.898253173828125,-0.2939204024881124,1.5578741701334713,-1.3099126780048012
1789401735748266200,3.908266357421875,-0.09945113883316516,1.508105346097052,-1.1887267502907664
1789401735758279200,3.918279052734375,0.0643792409300804,1.4346335749119519,-1.1113654973864555
1789401735768292000,3.9282919921875,0.20480594875216482,1.3596475997716189,-1.1940583936423061
1789401735778305000,3.938304931640625,0.26154724214971065,1.2054872578904032,-1.287285689524561
1789401735788318200,3.948318115234375,0.3121861270189285,1.0140183450952172,-1.1558821730483322
1789401735798331100,3.9583310546875,0.34189503658413883,0.8212050319537519,-0.7819659313686191
1789401735808343300,3.96834326171875,0.3092062344253063,0.6301049524709582,-0.41078970911204815
1789401735818356200,3.978356201171875,0.3202729873627424,0.3981391941145062,-0.2232457877408713
1789401735828369200,3.988369140625,0.15293898339271544,0.34602439147382974,0.046735813016071916
1789401735838382300,3.99838232421875,0.007501169410347938,0.3252785405650735,0.009564531680941582
1789401735848395000,4.00839501953125,-0.1756149255812168,0.27032617641091344,-0.2105547946024686
1789401735858408200,4.018408203125,-0.21098785225749014,0.2318260576248169,-0.4353392631527036
1789401735868421000,4.028421142578125,-0.014050737184286117,0.1610579924404621,-0.487141419647634
1789401735878434300,4.038434326171875,0.2844365348279476,0.002007540430128574,-0.4321734195329249
1789401735888447000,4.048447021484375,0.6423614997148513,-0.20811434264779088,-0.33448936343751845
1789401735898460200,4.058460205078125,1.0655424883663653,-0.4449167273804545,-0.1877847443897277
1789401735908473300,4.068473388671875,1.6313631847143173,-0.578892359367013,0.056580549877882
1789401735918486000,4.078486083984375,2.1886223889440295,-0.6246832196831703,0.2865288309320807
1789401735928499200,4.088499267578125,2.7333792544752358,-0.6007336042970418,0.50971777391918
1789401735938512100,4.09851220703125,3.205531487044692,-0.6254378374427557,0.7379600547730922
1789401735948525300,4.108525390625,3.477682540795207,-0.7297808399707079,1.0104476470015942
1789401735958538000,4.1185380859375,3.5604297975867985,-0.9092997872531413,1.2375719566762446
1789401735968551200,4.12855126953125,3.389644776380062,-1.1437909724339843,1.3952376763299106
1789401735978563000,4.13856298828125,2.9302666851878163,-1.3299714234322308,1.4977651538684964
1789401735988576300,4.148576171875,2.1803812148213386,-1.4201856551036238,1.518275150194764
1789401735998589000,4.1585888671875,1.1812146941602228,-1.4787088634818792,1.517110636460036
1789401736008602000,4.16860205078125,0.15073065969347954,-1.46103613640815,1.5426447445586322
1789401736018615300,4.178615234375,-0.7857482263863086,-1.3428791280612349,1.4640155906103551
1789401736028628200,4.188628173828125,-1.5593132630258797,-1.0690639404907822,1.274949793434143
1789401736038642400,4.198642333984375,-2.1277701530963182,-0.7801517215535044,1.1312219982400535
1789401736048655600,4.208655517578125,-2.4552199002206323,-0.5135609322786331,1.0319242233376948
1789401736058668300,4.218668212890625,-2.4809125598818063,-0.24280191740840673,0.9334280471418053
1789401736068681500,4.228681396484375,-2.320582297194004,-0.03019786212593317,0.8482874654728919
1789401736078694400,4.2386943359375,-1.9285954882293939,0.10303250445127486,0.7781742109354585
1789401736088707300,4.248707275390625,-1.4806822093814611,0.12318418885916471,0.7456342426627874
1789401736098720300,4.25872021484375,-1.0934954941749573,0.042934301841259,0.7826450727391988
1789401736108733400,4.2687333984375,-0.7798387100815772,-0.12163462132960558,0.8004528243694454
1789401736118746600,4.27874658203125,-0.5913935290217399,-0.2983928717270493,0.8116836087621748
1789401736128759300,4.28875927734375,-0.5101379720926285,-0.5053603824272751,0.7956982502534985
1789401736138772500,4.2987724609375,-0.4837292731165886,-0.7002686220213771,0.79612918901667
1789401736148785400,4.308785400390625,-0.5085416428118944,-0.7871189302176237,0.8070522956997156
1789401736158797600,4.318797607421875,-0.6242834067106247,-0.7682473487481475,0.7329973177991806
1789401736168810200,4.328810302734375,-0.8817302278041839,-0.7402388133600354,0.6185698513694107
1789401736178823400,4.338823486328125,-1.1594348240286112,-0.696022070492804,0.5220240055236965
1789401736188836400,4.34883642578125,-1.3575263698339461,-0.6425751424655318,0.4585641444608569
1789401736198849500,4.358849609375,-1.4535925424039362,-0.6452361783683299,0.46267231043204665
1789401736208862200,4.3688623046875,-1.526378961673379,-0.6770356304720043,0.49639790829271074
1789401736218875400,4.37887548828125,-1.5400702178955077,-0.6470914508461952,0.5224209689520299
1789401736228888600,4.388888671875,-1.5538339548319577,-0.5561871910840273,0.5276390689264983
1789401736238901500,4.398901611328125,-1.6371610573381186,-0.45009617584496736,0.4844861558984965
1789401736248914400,4.40891455078125,-1.7325427547752856,-0.271971897791326,0.37662944616116584
1789401736258927400,4.41892724609375,-1.8166279821723699,-0.09017916035801171,0.2042906927064061
1789401736268940500,4.4289404296875,-1.840824265795946,0.11257248621284961,0.07387742937654257
1789401736278953200,4.438953125,-1.662277962937951,0.3011868863597512,0.07040558854751289
1789401736288966400,4.44896630859375,-1.4707014981150626,0.41992841659635305,0.13840630791038275
1789401736298979600,4.4589794921875,-1.3593857339650393,0.520377626556158,0.2114195947382599
1789401736308992500,4.468992431640625,-1.3195014673441647,0.6735477883562445,0.198640850251168
1789401736319005400,4.47900537109375,-1.3270067284077405,0.8360624093458056,0.15864019070900975
1789401736329018400,4.489018310546875,-1.3438386207431554,0.9671765144214034,0.09939487860128284
1789401736339030500,4.499030517578125,-1.3269447690874336,1.0898811030700801,0.032697716117650266
1789401736349043500,4.50904345703125,-1.2455156091570854,1.186080254369974,-0.03860584418289363
1789401736359056400,4.519056396484375,-1.1109680225014686,1.2403151179045437,-0.05982866495363414
1789401736369069300,4.5290693359375,-0.9839648598760365,1.2171627903759479,-0.025043182776495813
1789401736379082500,4.53908251953125,-0.9047586366921663,1.138285653015971,0.031045126605033873
1789401736389095400,4.549095458984375,-0.8384586568325757,1.019820601633191,0.06661087243966758
1789401736399108400,4.5591083984375,-0.7869307141691446,0.9719655022636056,0.06108027244992554
1789401736409121500,4.56912158203125,-0.7163660626024008,0.9966381712272763,0.05931823121346533
1789401736419134500,4.579134521484375,-0.5661988820105791,1.1080676248848438,0.04045753646418452
1789401736429147400,4.5891474609375,-0.3860422213464975,1.2497872951269149,0.034526831240952016
1789401736439160300,4.599160400390625,-0.10701660565137862,1.3474284619286656,0.05715491569973528
1789401736449173500,4.609173583984375,0.16106559122502803,1.4287205514758825,0.0492214192867279
1789401736459186400,4.6191865234375,0.4073234943062067,1.4804720737621186,0.10913915076330304
1789401736469199400,4.629199462890625,0.6458394049584866,1.5164499805942178,0.18925518226847052
1789401736479212500,4.639212646484375,0.8767173680782318,1.550329161581397,0.2644549462899565
1789401736489225500,4.6492255859375,1.0340022717207669,1.5665972825542092,0.3275838948979974
1789401736499238400,4.65923828125,1.1397568946123122,1.5037386753201485,0.349239627193287
1789401736509251300,4.669251220703125,1.1954168225139379,1.344493869781494,0.31473296195752914
1789401736519263500,4.679263427734375,1.2308616453826426,1.1837786994293331,0.25485994640551507
1789401736529276400,4.6892763671875,1.2087070967197417,1.0653004963040351,0.166776735413447
1789401736539289600,4.69928955078125,0.9857838919967412,0.9467097727149725,0.03853708979561925
1789401736549302300,4.70930224609375,0.6621908203005791,0.8141957377135753,-0.13297778005562721
1789401736559315500,4.7193154296875,0.35686171956956386,0.7836784343749285,-0.335353213725239
1789401736569328400,4.729328369140625,0.25173370414376256,0.8731427244618535,-0.5522384534582495
1789401736579341300,4.73934130859375,0.37542555026412006,1.0383858936324715,-0.7474059285104274
1789401736589354500,4.7493544921875,0.7511006913751364,1.19018155220896,-0.8691394801698624
1789401736599367400,4.759367431640625,1.1952531563848257,1.2423901706129312,-0.8959744417339562
1789401736609380600,4.769380615234375,1.393657421401143,1.2289672099381685,-0.8866403578080236
1789401736619393300,4.779393310546875,1.5686317109912633,1.099904192173481,-0.8463818510472774
1789401736629406500,4.789406494140625,1.717722786784172,0.899350640168786,-0.8048109465137123
1789401736639419400,4.79941943359375,1.919797849267721,0.6296697759240866,-0.7967324156068265
1789401736649432300,4.809432373046875,2.1518524549514053,0.29355127691477534,-0.8043957898415625
1789401736659445500,4.819445556640625,2.287494851106405,-0.05230974069088697,-0.7552187942184507
1789401736669458400,4.82945849609375,2.398431260550022,-0.4629191247999668,-0.6555088583186268
1789401736679471600,4.8394716796875,2.4237995105624197,-0.8357496901348233,-0.5114253815546631
1789401736689484300,4.849484375,2.2531606198281047,-1.1499556325435638,-0.3805247730992734
1789401736699496400,4.859496337890625,1.911064507713914,-1.4248565695241093,-0.2463641399346292
1789401736709509400,4.86950927734375,1.478526492652297,-1.5949629608169198,-0.1707839982934296
1789401736719522600,4.8795224609375,0.9399608829766511,-1.629137033097446,-0.18832170081064104
1789401736729535200,4.88953515625,0.31243513334393497,-1.5069219815313815,-0.32842516802772875
1789401736739548400,4.89954833984375,-0.17562544697523116,-1.2221581144452094,-0.4560357950270176
1789401736749561300,4.909561279296875,-0.5121703547030687,-0.8613891583040356,-0.5866876894183457
1789401736759574500,4.919574462890625,-0.7415215466469526,-0.47404286862164735,-0.7671376339405774
1789401736769587500,4.92958740234375,-0.8710936829775572,-0.048908407814800735,-0.9882844766408204
1789401736779600400,4.939600341796875,-0.8958002542108296,0.3597103869989514,-1.2096100369088352
1789401736789613600,4.949613525390625,-0.6977700832039118,0.6953700363248586,-1.2972722460098565
1789401736799626200,4.959626220703125,-0.27155016524791714,0.8910822857782245,-1.1640832343563436
1789401736809639400,4.969639404296875,0.24531740736067292,0.879536809413135,-0.8925076424062252
1789401736819652400,4.97965234375,0.7164438040137291,0.6996653954312205,-0.5800510278828441
1789401736829665500,4.98966552734375,1.1001993757277726,0.452663103723526,-0.2732646410156041
1789401736839678500,4.999678466796875,1.3392495393872261,0.14685381826013325,0.005533449533954262
1789401736849691400,5.00969140625,1.2827590058803557,-0.1899605540588498,0.2117996070317924
1789401736859704600,5.01970458984375,1.0839268708407879,-0.5527849814251065,0.3336404184579849
1789401736869717200,5.02971728515625,0.7401859141290187,-0.9367600411087273,0.4251987582147121
1789401736879729400,5.0397294921875,0.25014438912570475,-1.2541425677269697,0.4870625091925263
1789401736889742300,5.049742431640625,-0.31882045046687124,-1.4367933832943438,0.45454402209930117
1789401736899755500,5.059755615234375,-0.9131260675430297,-1.534575419871509,0.42646760910674925
1789401736909768400,5.0697685546875,-1.4482529349416493,-1.5342887118846178,0.39513058688305314
1789401736919781400,5.079781494140625,-1.8443033400833606,-1.416757434220612,0.29724530912712216
1789401736929794300,5.089794189453125,-2.163546984398365,-1.2742583040386437,0.12373758495822548
1789401736939807500,5.099807373046875,-2.4024790746361018,-1.1666849412873386,0.004106704666465521
1789401736949820400,5.1098203125,-2.4850001214563844,-1.0542533248499035,-0.06414236343428492
1789401736959833300,5.119833251953125,-2.487181557148695,-0.9692331546902656,-0.026541677705943584
1789401736969846500,5.129846435546875,-2.377979424151778,-0.8491223819270729,0.058021834727376695
1789401736979859500,5.139859375,-2.32886964854598,-0.7309151046976446,0.10452259687855839
1789401736989872400,5.149872314453125,-2.317611172428727,-0.6353302859038115,0.13247574881762264
1789401736999885300,5.15988525390625,-2.2738351590663193,-0.5271013818532229,0.13570727808475494
1789401737009898500,5.1698984375,-2.2193799307793376,-0.4536760801583528,0.09016995413824916
1789401737019911200,5.1799111328125,-2.189457670724392,-0.41104251482933757,0.03925181393623352
1789401737029924400,5.18992431640625,-2.168774948179722,-0.40398149040192366,-0.016429010622948406
1789401737039936300,5.199936279296875,-2.0995669719189403,-0.3719564128488302,-0.05845306575149297
1789401737049949400,5.209949462890625,-1.9664532174587248,-0.2779071330592036,-0.10702405830547213
1789401737059961300,5.21996142578125,-1.7999170858681202,-0.10017623823732137,-0.1571159768164158
1789401737069974500,5.229974609375,-1.645330919790268,0.1351864690810442,-0.2556851451832801
1789401737079987500,5.239987548828125,-1.444292214617133,0.36036797412484883,-0.358851797408238
1789401737090000400,5.25000048828125,-1.2613368631452322,0.5474404055267572,-0.43276897427327926
1789401737100013600,5.260013671875,-1.118942070120573,0.7185200257658958,-0.4817231939911842
1789401737110026200,5.270026123046875,-0.9200444686293602,0.847305687893927,-0.5159620751362294
1789401737120039400,5.280039306640625,-0.6928437327176332,0.9637947630286217,-0.543661325379461
1789401737130052400,5.29005224609375,-0.4472679666817188,0.9904738033786415,-0.5035157774738968
1789401737140065500,5.3000654296875,-0.2711000833928585,0.9784899355962872,-0.4557071475945413
1789401737150078200,5.310078125,-0.20873627393841743,0.9927776964068412,-0.4305400461774319
1789401737160091400,5.32009130859375,-0.23190613712370395,0.9956211031392216,-0.44979726596362885
1789401737170104600,5.3301044921875,-0.39947161176204676,1.0195122663363814,-0.6132677994385362
1789401737181995300,5.341995361328125,-0.4076286147326231,1.0342208829075097,-0.614138006401807
1789401737192008400,5.352008544921875,-0.46092648967802524,1.028097431591153,-0.726938675347343
1789401737202020400,5.362020263671875,-0.40482817035913465,1.0271288788199424,-0.7522263344042003
1789401737212033500,5.372033447265625,-0.21427052718997,1.0160767389297485,-0.7481324892193079
1789401737222046500,5.38204638671875,0.005534837773442268,0.985282664476335,-0.7474852042917162
1789401737232059400,5.392059326171875,0.2905874586731195,0.916180486677587,-0.7042771270103753
1789401737242072300,5.402072265625,0.5539578245967626,0.8179515831157564,-0.654127121636644
1789401737252085500,5.41208544921875,0.6877648220181465,0.7039040559142827,-0.6376048797722905
1789401737262098400,5.422098388671875,0.6764274354457854,0.606984773646295,-0.637590120594576
1789401737272111400,5.432111328125,0.532418192961812,0.543692158909142,-0.6428087320256978
1789401737282124500,5.44212451171875,0.3711544488161802,0.5480754885599017,-0.6969166081797331
1789401737292137500,5.452137451171875,0.3806394855201244,0.639734366081655,-0.7895625970426946
1789401737302150400,5.462150390625,0.6622919425874948,0.7399743172049522,-0.9086351858645677
1789401737312163300,5.472163330078125,1.0688520513057709,0.7244198974594473,-0.9844448254127055
1789401737322176500,5.482176513671875,1.430467102882266,0.5366296731770038,-0.9596099516246467
1789401737332189400,5.492189453125,1.6813655252456665,0.3150295337513089,-0.875624019883573
1789401737342202400,5.502202392578125,1.8315332903593777,0.15639701489210128,-0.8034476222712547
1789401737352215300,5.51221533203125,2.0001433056145905,0.0698871906965971,-0.7247817895743995
1789401737362228500,5.522228515625,2.3034230726003644,0.060572834384441374,-0.6280156520415097
1789401737372241400,5.532241455078125,2.7025328653126954,0.10466419730633497,-0.42504101036973296
1789401737382253300,5.54225341796875,3.171992790058255,0.19397154326587915,-0.21065394412800667
1789401737392266500,5.5522666015625,3.4932442670643327,0.24682138218283653,-0.09147029614709318
1789401737402279400,5.562279541015625,3.7383892404675483,0.28873247845619915,0.009489274487644434
1789401737412292600,5.572292724609375,4.003696711933612,0.3071969404295087,0.14076605931166558
1789401737422305300,5.58230517578125,4.131656152370572,0.24848083982765673,0.3201455250581726
1789401737432318500,5.592318359375,3.982655092948675,0.09317834217399358,0.5254255941281095
1789401737442331400,5.602331298828125,3.619650632840395,-0.13077303655296563,0.7890211836423724
1789401737452344300,5.61234423828125,3.078410250997543,-0.4211790011793375,1.083863450215757
1789401737462357500,5.622357421875,2.345773437073827,-0.6613268969476223,1.3166836334444583
1789401737472370400,5.632370361328125,1.491497617906332,-0.7846957947239279,1.3648667957246303
1789401737482383600,5.642383544921875,0.6318605639666318,-0.8765814667388796,1.3437602948099374
1789401737492396300,5.652396240234375,-0.15626023676991463,-0.9826678058028221,1.348744951354712
1789401737502409500,5.662409423828125,-0.8219342230111361,-1.0655822358548641,1.3677958349138497
1789401737512422400,5.67242236328125,-1.3934195209920406,-1.106306460431218,1.3551456121772527
1789401737522435300,5.682435302734375,-1.9053315170198677,-1.0905085873186589,1.294493282815814
1789401737532448300,5.6924482421875,-2.292615847381949,-1.0303308897316454,1.2434510778427124
1789401737542461400,5.70246142578125,-2.5031962878823277,-0.9297980931416153,1.1818879172466694
1789401737552474600,5.712474609375,-2.5407412979006767,-0.759581519472599,1.1185435723222792
1789401737562487300,5.7224873046875,-2.366761864566803,-0.5823544825196266,1.0787972528673708
1789401737572499500,5.73249951171875,-2.0753017147123813,-0.3812678465515375,1.0463432093124836
1789401737583137500,5.743137451171875,-1.792906330323219,-0.17901976558864116,0.9887639307208359
1789401737593150500,5.753150390625,-1.558503700208664,-0.10852233403921127,0.952022930561751
1789401737603163400,5.763163330078125,-1.3511264396637677,-0.16175971096903086,0.9628970104712993
1789401737613176300,5.77317626953125,-1.2097516373366117,-0.2467714055612683,0.9444438005443662
1789401737623189500,5.783189453125,-1.1185831736803054,-0.3941831499651074,0.9257174727644771
1789401737633202400,5.793202392578125,-1.1076900237441063,-0.5642722978621721,0.9104686118368059
1789401737643215400,5.80321533203125,-1.1661480579316614,-0.6770496589973568,0.853610487126559
1789401737653228500,5.813228515625,-1.2361936540603637,-0.7831304451033473,0.8247284568395465
1789401737663241500,5.823241455078125,-1.337684774288535,-0.8773883992075919,0.8303576218329369
1789401737673254400,5.83325439453125,-1.4586007259547709,-0.9095976011559367,0.8175426369886845
1789401737683267300,5.843267333984375,-1.5872119082987308,-0.8976631254732609,0.7942776428658515
1789401737693280500,5.853280517578125,-1.6764473580658434,-0.8362398117393255,0.7746112577568739
1789401737703293400,5.86329345703125,-1.718150072285533,-0.7297998369321227,0.7435230957277119
1789401737713306400,5.873306396484375,-1.6844067926377058,-0.559663927283883,0.7146793516244739
1789401737723319300,5.8833193359375,-1.667873006466031,-0.37103257600218054,0.6444571568198502
1789401737733332500,5.89333251953125,-1.7117413742870091,-0.17996084583103655,0.5101373875707388
1789401737743344400,5.903344482421875,-1.770548952564597,-0.0028267478585243225,0.3490598867122084
1789401737753357300,5.913357421875,-1.7966221359759569,0.12726736651957035,0.20983020665496588
1789401737763370500,5.92337060546875,-1.7911030802935362,0.18285306014120578,0.08952749151624739
1789401737773383400,5.933383544921875,-1.793126695075631,0.21145313168168067,0.0018146482065320014
1789401737783396600,5.943396728515625,-1.719953322315216,0.2106499986052513,-0.024268472076952458
1789401737793409300,5.9534091796875,-1.560700333470106,0.25015666408538817,-0.03025916385911405
1789401737803422500,5.96342236328125,-1.3574170642405747,0.3024272418096661,-0.04469911955669522
1789401737813435400,5.973435302734375,-1.12704178994596,0.39494712007492777,-0.07710230970717966
1789401737823448300,5.9834482421875,-0.9362836557686328,0.5002627670273184,-0.15170776109732687
1789401737833461500,5.99346142578125,-0.791609227374196,0.5656102684676647,-0.2456000236943364
1789401737843474400,6.003474365234375,-0.6585135930925607,0.5937701950252056,-0.3187871327191591
1789401737853487600,6.013487548828125,-0.488320108038187,0.6345812211021781,-0.3278068169336766
1789401737863500300,6.023500244140625,-0.29974925477206704,0.711037268795073,-0.29634258813373743
1789401737873513500,6.033513427734375,-0.116672907269001,0.7987137986823916,-0.2987551291681826
1789401737883526400,6.0435263671875,0.03644727790951729,0.9276207491025328,-0.35162498795986175
1789401737893539300,6.053539306640625,0.025068974804878234,1.0339952574580906,-0.4296691816270351
1789401737903552300,6.06355224609375,-0.048688335323333734,1.1236360731557011,-0.5461607409797609
1789401737913565400,6.0735654296875,-0.13913549896776675,1.2081491705760359,-0.6458141243867576
1789401737923577300,6.083577392578125,-0.11223054090738296,1.2967565515726804,-0.6647226768657565
1789401737933590500,6.093590576171875,0.026997897040843963,1.373951727195084,-0.6998985465999692
1789401737943603500,6.103603515625,0.3075286566019058,1.3993664466977118,-0.7338585377383977
1789401737953616400,6.113616455078125,0.6672071871578693,1.3932961868733167,-0.7609129872720688
1789401737963629600,6.123629638671875,1.0956062027186155,1.3124965570181608,-0.7946827896006405
1789401737973642200,6.133642333984375,1.415285900363326,1.204700491426885,-0.7894890203498304
1789401737983655400,6.143655517578125,1.576194839721918,1.048750928041339,-0.7398881732914596
1789401737993668400,6.15366845703125,1.623185723477602,0.835602975140512,-0.7159347585130482
1789401738003681500,6.163681640625,1.5578215631633996,0.7045423538178205,-0.8161732483316212
1789401738013694500,6.173694580078125,1.4953770896881817,0.737240508326888,-0.9936416928250342
1789401738023707400,6.183707275390625,1.4467852004766464,0.8662100025892258,-1.1551488172724842
1789401738033720600,6.193720458984375,1.505772226974368,1.0464350523144006,-1.2936321359418332
1789401738043733800,6.203733642578125,1.6204150897204874,1.1244123182252048,-1.3173324527420103
1789401738053746700,6.21374658203125,1.788201513633132,1.0697829024150967,-1.2720128631994128
1789401738063760000,6.223759765625,1.9980857885628938,0.8957014700114726,-1.2320467635139822
1789401738073772500,6.2337724609375,2.2336849349856376,0.5777879052564502,-1.1886764814082533
1789401738083785700,6.24378564453125,2.4339070630788804,0.13202625148445368,-1.1326904633574186
1789401738093799000,6.253798828125,2.5497195541262627,-0.3433709543555975,-1.0611031176794319
1789401738103811800,6.263811767578125,2.4332015451580284,-0.8166425463438034,-0.947412806417793
1789401738113824000,6.273823974609375,2.109669848260283,-1.271777593138814,-0.7978991212986409
1789401738123836700,6.283836669921875,1.6029285328686236,-1.541714477971196,-0.7663744675483554
1789401738133849900,6.293849853515625,1.0302426269263028,-1.5036302465096114,-0.8577440067347138
1789401738143862800,6.30386279296875,0.5066571442395449,-1.2019596682861446,-0.9898941768597811
1789401738153875700,6.313875732421875,0.06424070924222469,-0.7951549371570348,-1.077990174268186
1789401738163888600,6.323888671875,-0.26781390132904054,-0.26822715830504895,-1.225413609109819
1789401738173901800,6.33390185546875,-0.3625152152866125,0.3113312637552619,-1.3845726360611617
1789401738183915000,6.3439150390625,-0.22901392281353472,0.8916548249691725,-1.4646201323747634
1789401738193927700,6.353927734375,0.16784779871106148,1.3181278409034014,-1.4149883787214754
1789401738203940900,6.36394091796875,0.8139736193954944,1.4819889080658555,-1.202763824275881
1789401738213953800,6.373953857421875,1.5491268000543117,1.2773247058719397,-0.8724697936363518
1789401738223966700,6.383966796875,2.0487661744862793,0.7260778937995434,-0.5687559460822492
1789401738233979600,6.393979736328125,2.228933941066265,0.04907470429241657,-0.31163952598683536
1789401738243992800,6.403992919921875,2.0798329284012316,-0.6219277834951877,-0.0546835571501404
1789401738254005800,6.414005859375,1.6036597697526216,-1.195936754734814,0.1503895181056112
1789401738264018700,6.424018798828125,0.9878168591290711,-1.7231395511358976,0.26187757008261975
1789401738274031900,6.434031982421875,0.2424702012360096,-2.0929086830735204,0.3338714507348835
1789401738284044800,6.444044921875,-0.4590180257081985,-2.282567916098237,0.37522622829973695
1789401738294057700,6.4540576171875,-1.0269248806804419,-2.353369299030304,0.41994339496977623
1789401738304069600,6.464069580078125,-1.494776201185584,-2.3271330340117213,0.5144192296084016
1789401738314082800,6.474082763671875,-1.7960422902613877,-2.191267935016751,0.5935772297363728
1789401738324095700,6.484095703125,-1.9805273355185984,-1.9363138075217603,0.6393191363442688
1789401738334109000,6.49410888671875,-2.1313421663641927,-1.669769779998064,0.7285163729928433
1789401738344121600,6.50412158203125,-2.191636183807254,-1.4478352940514683,0.8635208365704864
1789401738354134800,6.514134765625,-2.194364147466421,-1.1931193592265248,0.9921842605583369
1789401738364148000,6.52414794921875,-2.256017178303003,-0.8748159183710813,1.0594877183720468
1789401738374160600,6.53416064453125,-2.4157038823902606,-0.6172083537578582,1.0166880757611245
1789401738384173800,6.544173828125,-2.5685920123785735,-0.48020665194839235,0.9145154030095786
1789401738394186800,6.554186767578125,-2.661763048028946,-0.3412342345878482,0.7976496765822172
1789401738404200000,6.564199951171875,-2.7013486239641904,-0.29938217502534387,0.701152346053347
1789401738414212600,6.574212646484375,-2.6549937000244856,-0.31569968809783455,0.6840577841937542
1789401738424225800,6.584225830078125,-2.5154110418111086,-0.35952450903803107,0.6433775448895991
1789401738434238700,6.59423876953125,-2.3249825779795645,-0.4017591381773352,0.5959733310926705
1789401738444251600,6.604251708984375,-2.1330817035079,-0.4446662597507238,0.4900794458609074
1789401738454264800,6.614264892578125,-1.9803291825979947,-0.42083384100347754,0.35513913356065746
1789401738464277800,6.62427783203125,-1.8058792091429232,-0.35700405064970253,0.19596498210541902
1789401738474291000,6.634291015625,-1.6174766981810331,-0.21712971601337194,0.03381407986171543
1789401738484303600,6.6443037109375,-1.4580962835639715,-0.09065992961227894,-0.05000372877083718
1789401738494316800,6.65431689453125,-1.264834057611227,0.07444938404560089,0.0061428136039525265
1789401738504328700,6.66432861328125,-1.0460124429881572,0.2779705536842346,0.10442227830924093
1789401738514342000,6.674341796875,-0.9207797971665859,0.5125897491589189,0.13169058978930115
1789401738524354800,6.684354736328125,-0.8374655541419982,0.790643012690544,0.09828384861946106
1789401738534367700,6.69436767578125,-0.7416407891124487,1.0547831939429044,0.06607376988828181
1789401738544380700,6.704380615234375,-0.5571598355084657,1.2645353669255972,0.015985723834857343
1789401738554393900,6.714393798828125,-0.3731716338574886,1.3930708536848424,-0.026541458510234952
1789401738564406800,6.72440673828125,-0.20059096140563487,1.401352359817922,-0.06864851574711502
1789401738574419700,6.734419677734375,-0.09139408910572529,1.3070122803881763,-0.1649357106566429
1789401738584433000,6.744432861328125,-0.055037996610999104,1.128008004629612,-0.2195226755645126
1789401738594445800,6.75444580078125,0.009956161347031593,0.9645561027899384,-0.24020437519587576
1789401738604458800,6.764458740234375,0.061028761458396905,0.819110690023005,-0.27127397865504027
1789401738614471700,6.7744716796875,0.10741349601447582,0.703025227253139,-0.24700382607765495
1789401738624484900,6.78448486328125,0.23341303455531595,0.6409823203161359,-0.23420403880253432
1789401738634497800,6.794497802734375,0.4197586129873991,0.6282648775622248,-0.25404263867326077
1789401738644510700,6.8045107421875,0.642585956120491,0.6585539251029491,-0.31481399130448695
1789401738654524000,6.81452392578125,0.8934054680287837,0.678992609758675,-0.38639951035156844
1789401738664536800,6.824536865234375,1.0933107852578163,0.6210355108305812,-0.3666570643316954
1789401738674549800,6.8345498046875,1.1946084287405014,0.48808776058703657,-0.22562051751557735
1789401738684562700,6.844562744140625,1.2136012985020874,0.334680867421627,-0.03981321067865938
1789401738694574800,6.854574951171875,1.2413514752149581,0.3326128289759159,0.0621432985715568
1789401738704587800,6.864587890625,1.2283464476913213,0.4749608602494001,0.06600395605508237
1789401738714600700,6.8746005859375,1.2107915017783641,0.7136383912041783,-0.0304066825710237
1789401738724613600,6.884613525390625,1.159472233429551,0.9015744536980986,-0.1637847139906138
1789401738734626800,6.894626708984375,1.1050690275907515,0.9732707396432757,-0.29676450334023685
1789401738744640000,6.904639892578125,1.1224521240681409,0.9646011109754442,-0.36491343553476036
1789401738754652700,6.914652587890625,1.2485463551551104,0.8054135885819792,-0.3102637806542218
1789401738764665900,6.924665771484375,1.4862106174141168,0.5898176580071449,-0.15621742054149507
1789401738774678800,6.9346787109375,1.8189473650306462,0.42039165019392966,-0.005991203238815069
1789401738784691700,6.944691650390625,2.1583979310721157,0.2937102668687701,0.12973013990391044
1789401738794704600,6.95470458984375,2.437344636312127,0.2837093895971775,0.20912505406029522
1789401738804717800,6.9647177734375,2.734275326532125,0.30873131038993595,0.26736918976884333
1789401738814731000,6.97473095703125,2.8617817625045774,0.33433190785348416,0.36815318464096636
1789401738824743700,6.98474365234375,2.919286441490054,0.33719723415672775,0.4570127868330106
1789401738834756900,6.9947568359375,2.9495319421499966,0.2832882415756583,0.5367801144983619
1789401738844769800,7.004769775390625,2.957636922672391,0.1374617205366492,0.6038734366927295
1789401738854782700,7.01478271484375,2.9000013107836247,-0.07976941002458333,0.6652303341269493
1789401738864795600,7.024795654296875,2.5049556987702846,-0.4101084488496184,0.7727425412755459
1789401738874808800,7.034808837890625,1.894303342527151,-0.8010320124968886,0.8882204666063189
1789401738884820700,7.04482080078125,1.17722883939445,-1.1444488518208265,0.9084607060804962
1789401738894834000,7.054833984375,0.36189854469299315,-1.3759125058740376,0.9009217619430273
1789401738904846600,7.0648466796875,-0.41953707919120786,-1.4875170238375663,0.9306642084516584
1789401738914859800,7.07485986328125,-1.0992711549669503,-1.4697127793386577,0.9166021461557596
1789401738924873000,7.084873046875,-1.6492179903566837,-1.3676158021718263,0.8965621054287999
1789401738934885600,7.0948857421875,-2.065874545675516,-1.189746960183978,0.8780557040099054
1789401738944898800,7.10489892578125,-2.2998276784569023,-1.0206856940299271,0.8295026124387979
1789401738954911700,7.114911865234375,-2.4241765271812676,-0.8547624336406588,0.7383641785945743
1789401738964925000,7.124925048828125,-2.4897014310151335,-0.7305082774624228,0.6123475062558427
1789401738974937600,7.1349375,-2.5405957519501445,-0.594724427010119,0.44770040328223254
1789401738984950800,7.14495068359375,-2.5228987672179937,-0.45341362982988354,0.2596491169108078
1789401738994964000,7.1549638671875,-2.3879864389032126,-0.36151714415997266,0.14246636042352764
1789401739004976600,7.1649765625,-2.0769009666025635,-0.3389627825245261,0.15386906731706113
1789401739014989800,7.17498974609375,-1.6197271074563264,-0.3890852423042059,0.26242424417994914
1789401739025002800,7.185002685546875,-1.2435364180386066,-0.457886975851655,0.3380108155619353
1789401739035016000,7.195015869140625,-0.9832499896049499,-0.524340684968233,0.3817578950908035
1789401739045028000,7.205028076171875,-0.7908136930823325,-0.6126642805874347,0.39319158164449036
1789401739055040800,7.215040771484375,-0.7016764429926872,-0.6662617230013013,0.3802639302060008
1789401739065054000,7.225053955078125,-0.764268215984106,-0.738549837359786,0.3574074072862044
1789401739075067000,7.23506689453125,-0.9322159679383039,-0.788255825293064,0.3608774580169469
1789401739085079000,7.2450791015625,-1.1982751345545053,-0.8061980169579386,0.3066341919802129
1789401739095091700,7.255091796875,-1.5289759924292563,-0.7761728810504078,0.24877719242572782
1789401739105105000,7.26510498046875,-1.824022184076905,-0.679688483068347,0.2006871152564883
1789401739115118000,7.2751181640625,-2.0107371803432703,-0.5368260725319385,0.18097382226586342
1789401739125131000,7.285131103515625,-2.060376532781124,-0.37927901082187887,0.14329378769099713
1789401739135144000,7.29514404296875,-1.9644260955452917,-0.22034341736286878,0.07793488807380199
1789401739145156900,7.305156982421875,-1.851701049119234,-0.043265725752711294,0.03316007293239236
1789401739155170000,7.315170166015625,-1.7735229999393223,0.10201923575550317,0.009107581693679093
1789401739165182700,7.3251826171875,-1.715924797451496,0.19069471355229614,0.015009060822427272
1789401739175196000,7.33519580078125,-1.69486155115664,0.25282266842424866,-0.016853227384388447
1789401739185208800,7.345208740234375,-1.6687322536438702,0.3649894964456558,-0.06965761972442269
1789401739195222000,7.355221923828125,-1.5653338384896516,0.4756117253735661,-0.11196984414458275
1789401739205235000,7.36523486328125,-1.398387372532487,0.5960018996000289,-0.10657054238431155
1789401739215248000,7.375247802734375,-1.2687521078377961,0.6858008284687995,-0.14710625865124166
1789401739225261000,7.385260986328125,-1.2485270659327505,0.7572276498228311,-0.2159272083558142
1789401739235273700,7.395273681640625,-1.2136802089571952,0.8211147233217955,-0.29188319757208225
1789401739245287000,7.405286865234375,-1.1776806748151778,0.8644760184034704,-0.37168453710488975
1789401739255299800,7.4152998046875,-1.0735188740730286,0.9185741038158536,-0.4004713633891195
1789401739265313000,7.42531298828125,-0.8999760785907507,1.0052791583225131,-0.4204494447957724
1789401739275325000,7.435324951171875,-0.7158756487369536,1.1276184207901359,-0.46532706272453067
1789401739285337900,7.445337890625,-0.5533931764513254,1.2401806778699158,-0.49555802340246735
1789401739295350800,7.455350830078125,-0.29553426742553707,1.3772142361223696,-0.5138968862347304
1789401739305364000,7.465364013671875,-0.12921207084655761,1.4700246217668056,-0.5427329584881663
1789401739315377000,7.475376953125,0.055712534871697424,1.5509844106197357,-0.5251351963467895
1789401739325389800,7.485389892578125,0.3228957370817661,1.5875608678668736,-0.43265280054770405
1789401739335403000,7.495403076171875,0.6130676006913185,1.634504405349493,-0.3802687159789726
1789401739345416000,7.505416015625,1.011724388939142,1.6653808973893522,-0.357822819686681
1789401739355428900,7.515428955078125,1.5204782131969927,1.6486147637665272,-0.40611156123317776
1789401739365441800,7.52544189453125,1.9867244365930556,1.5905150414973497,-0.5082481762906537
1789401739375455000,7.535455078125,2.1885294499635695,1.4778221437752246,-0.6219592746119946
1789401739385468000,7.545468017578125,2.100156754505634,1.2587588293507694,-0.7125149401322006
1789401739395480800,7.555480712890625,1.9458254399716852,1.0342299429967998,-0.770595884635672
1789401739405494000,7.565493896484375,1.8768910199552773,0.9537152675628662,-0.8070629632242023
1789401739415507000,7.5755068359375,1.8309218804627656,1.0320388626933097,-0.8874664333686232
1789401739425519900,7.585519775390625,1.7996715866744517,1.2056520930632948,-1.0220057636525481
1789401739435532800,7.59553271484375,1.7088497444987296,1.3180243805289267,-1.1219570340275764
1789401739445546000,7.6055458984375,1.6427537627786397,1.3138009176149963,-1.1654899593491106
1789401739455559000,7.615558837890625,1.7303122192442417,1.1822174414619804,-1.1735182944387197
1789401739465570800,7.62557080078125,1.9691957941651343,0.9808210088923572,-1.177185511709377
1789401739475583700,7.635583740234375,2.3054268136382103,0.6919225262194871,-1.1736298650544137
1789401739485597000,7.645596923828125,2.618818224793672,0.3088201577171683,-1.121794683072716
1789401739495610000,7.655610107421875,2.7263538858830927,-0.15457944407612084,-1.040413527002558
1789401739505622800,7.665622802734375,2.6198703641951084,-0.6168807292386889,-0.9083806265816092
1789401739515636000,7.675635986328125,2.4302882880598307,-1.1432739628225563,-0.7075318910226226
1789401739525649000,7.68564892578125,2.0689345177680254,-1.6041577824026345,-0.5064258197017014
1789401739535661800,7.695661865234375,1.5381284361779688,-1.8757789670601486,-0.4278435005698353
1789401739545674800,7.7056748046875,0.8772720793515443,-1.9061641684517263,-0.48098099732175464
1789401739555688000,7.71568798828125,0.2268582060843706,-1.6804419806599615,-0.5765955536667258
1789401739565701000,7.725701171875,-0.24484160654246806,-1.326358785893023,-0.6648403849612922
1789401739575713800,7.7357138671875,-0.5507189888060092,-0.8483037590205669,-0.7654810258399695
1789401739585727000,7.74572705078125,-0.6779547911435365,-0.2914493361994624,-0.9185432702861726
1789401739595740000,7.755739990234375,-0.6677431937307119,0.180271519215405,-1.0898024848759174
1789401739605752800,7.7657529296875,-0.6345148778676987,0.558166382202506,-1.1181185518432408
1789401739615765800,7.775765869140625,-0.40965164499282836,0.727464087460935,-0.9535504323899745
1789401739625779000,7.785779052734375,0.03426116604208946,0.6427700805157422,-0.6683967622686177
1789401739635792100,7.795792236328125,0.5211053563088178,0.30344051050543785,-0.329059812669456
1789401739645804800,7.8058046875,0.9245265824794768,-0.13995938257128,-0.08729695598520339
1789401739655818000,7.81581787109375,1.2180296363383531,-0.5687357070118189,0.0877818168926984
1789401739665831000,7.825830810546875,1.1682581819534301,-1.044535940694809,0.2339958759445697
1789401739675843000,7.835843017578125,0.8350409573435783,-1.4754413861185312,0.331060923358798
1789401739685855700,7.845855712890625,0.36636955262720583,-1.8475944905832409,0.38301403263173994
1789401739695869000,7.855868896484375,-0.22133681231439112,-2.123799788160622,0.43575273932442066
1789401739705881900,7.8658818359375,-0.8221715388983487,-2.232077792049944,0.4820450463566929
1789401739715895000,7.87589501953125,-1.3819114540278912,-2.187401907238364,0.5242421930298209
1789401739725907700,7.88590771484375,-1.81181619797647,-2.030223094318807,0.5873917460344732
1789401739735921000,7.8959208984375,-2.102486658757925,-1.7239555436939,0.683766984553635
1789401739745934000,7.90593408203125,-2.210208782330155,-1.3090876253575086,0.7943846103716641
1789401739755946800,7.91594677734375,-2.149555283924937,-0.9229594792932272,0.8351730592906474
1789401739765960000,7.9259599609375,-2.1265718832224607,-0.6041963119715452,0.8178290527146309
1789401739775972900,7.935972900390625,-2.1131033298403024,-0.36199440628290175,0.7434046569798142
1789401739785986000,7.945986083984375,-2.159618997299671,-0.2828358216330409,0.6441066628817469
1789401739795998700,7.955998779296875,-2.2367215262025595,-0.25984336084127424,0.5560740860983729
1789401739806012000,7.966011962890625,-2.2424720525532957,-0.268174843595922,0.501765353609994
1789401739816025000,7.976025146484375,-2.251239296376705,-0.37252398360371586,0.45486222120299935
1789401739826037800,7.986037841796875,-2.2338486011147496,-0.46958998086601494,0.5319461184706539
1789401739836051000,7.996051025390625,-2.171756594339013,-0.533693911986053,0.6003033231209963
1789401739846063900,8.00606396484375,-2.0639117211699483,-0.48805181249082086,0.6456570341289043
1789401739856077000,8.0160771484375,-1.9748972206771374,-0.3198345959454775,0.5818755398962646
1789401739866089700,8.02608984375,-1.8665292004168033,-0.07881137864738702,0.43570809646509584
1789401739876102000,8.036101806640625,-1.7503654117137193,0.1771884585082531,0.23979184887222943
1789401739886114800,8.04611474609375,-1.5541910977065563,0.32259879996180535,0.1481496302243322
1789401739896128000,8.0561279296875,-1.2899895416557787,0.43197424369901416,0.068062459487468
1789401739906141000,8.066140869140625,-1.0746885023742914,0.5388648848831653,-0.029504326903820037
1789401739916153900,8.07615380859375,-0.8813654861450195,0.5752157166808843,-0.06057970251664519
1789401739926167000,8.0861669921875,-0.6799135239958762,0.59372460231781,-0.017747838136553763
1789401739936180000,8.096179931640625,-0.5333323851972818,0.6111062374904751,0.009323489466682076
1789401739946193000,8.10619287109375,-0.46948213657736776,0.6637383420035242,-0.004401303698867559
1789401739956205800,8.116205810546875,-0.43545361024737356,0.739183751349151,-0.09968582437187433
1789401739966219000,8.126218994140626,-0.4545785819560289,0.8289064001113176,-0.17977862113192677
1789401739976232000,8.13623193359375,-0.5066688346773386,0.8928855358079075,-0.285112826654315
1789401739986244900,8.146244873046875,-0.5388128624349833,0.9369725148156285,-0.3756776983942836
1789401739996258000,8.156258056640626,-0.5480103143692017,0.9570271685898304,-0.4634264898002147
1789401740006271000,8.16627099609375,-0.48316287140548225,0.9601195816472172,-0.5426195612415671
1789401740016284000,8.176283935546875,-0.35240415563881394,0.9409577850595116,-0.5816331825077533
1789401740026296800,8.186296875,-0.1009223804295063,0.8567486390218139,-0.5556704737335443
1789401740036310000,8.19631005859375,0.2660240953028202,0.7350111418396235,-0.4933671622946858
1789401740046323700,8.20632373046875,0.6631026744484901,0.6395569636881351,-0.4759120234943926
1789401740056337000,8.2163369140625,1.0297937141150235,0.5819157988414168,-0.43464733536578715
1789401740066349800,8.226349853515625,1.2269412570685148,0.4571013784319162,-0.31938100695908067
1789401740076362000,8.236362060546876,1.3107383151739835,0.4263447133794427,-0.23893526857551187
1789401740086374700,8.246374755859375,1.3521569517552852,0.568560058183968,-0.2294484417732805
1789401740096387800,8.256387939453125,1.3805378275871276,0.8422577568545937,-0.2881703510614112
1789401740106400800,8.26640087890625,1.4531237558484076,1.0563602340012788,-0.35037739905156196
1789401740116414000,8.2764140625,1.5405390044510363,1.1300050236657262,-0.4102595477581024
1789401740126426600,8.286426513671875,1.6733792026668786,1.0629594861358405,-0.4220648806357756
1789401740136439800,8.296439697265624,1.7843524369895458,0.9821285843595862,-0.49408378613144155
1789401740146452700,8.30645263671875,1.8543273059695957,0.8203428621664642,-0.567302349740453
1789401740156465700,8.316465576171876,2.0551409702152013,0.5759361399099231,-0.5897185084816068
1789401740166478800,8.326478759765624,2.365135724669695,0.34166678078621626,-0.5088914791628718
1789401740176491800,8.33649169921875,2.738904155376553,0.15818448283076286,-0.3679198508091271
1789401740186505000,8.3465048828125,3.0953830131083726,0.0857423469543457,-0.19796390083767473
1789401740196517600,8.356517578125,3.5429847417891023,0.13622721030563115,0.032604411811009044
1789401740206530800,8.36653076171875,3.9237791256099936,0.1682806371703744,0.288440272310283
1789401740216543700,8.376543701171874,4.192708879226446,0.14277590129673481,0.45976606759652494
1789401740226556700,8.386556640625,4.354817257502675,0.09964169296920299,0.6558165360283106
1789401740236569900,8.39656982421875,4.285944212284684,-0.08986001140624285,0.8769131098460405
1789401740246582800,8.406582763671874,3.9436552079468963,-0.44443654264807697,1.0529099474169312
1789401740256596000,8.416595947265625,3.289512085023522,-0.8323007187247276,1.2223827900465578
1789401740266608600,8.426608642578126,2.35643511634171,-1.1673021964028476,1.3236270228415727
1789401740276620800,8.436620849609374,1.295181265079975,-1.3671993303254246,1.368757957944274
1789401740286633700,8.4466337890625,0.2662380303144455,-1.468986803151667,1.376496589372307
1789401740296647000,8.45664697265625,-0.6955056454032659,-1.5326017817109823,1.400444305062294
1789401740306659600,8.46665966796875,-1.4955530307769775,-1.5554533727273343,1.3791050183050333
1789401740316672800,8.4766728515625,-2.1107927148103713,-1.5309288800626992,1.3056769401311874
1789401740326685700,8.486685791015624,-2.5778683747678994,-1.4501757196977734,1.2135936266522853
1789401740336699000,8.496698974609375,-2.9396552757799626,-1.334206576783955,1.1106091991264373
1789401740346711800,8.5067119140625,-3.205512197822332,-1.199387187449634,1.049360949698463
1789401740356724700,8.516724853515624,-3.2749832089334725,-1.0356468240574002,0.9928775035195052
1789401740366738000,8.526738037109375,-3.1473774042397737,-0.8048214679077267,0.8499383744850755
1789401740376750600,8.53675048828125,-2.8767186348736287,-0.5779509868636727,0.6282378434248268
1789401740386763800,8.546763671875,-2.5956360866487023,-0.41200493012070655,0.4807448504783213
1789401740396776700,8.556776611328125,-2.262436982217431,-0.3803714822337031,0.4390151021212339
1789401740406790000,8.566789794921876,-1.8639637338429689,-0.48334027379900213,0.45397659747488794
1789401740416802800,8.576802734375,-1.4891045852899552,-0.6288982070297002,0.5445205725573002
1789401740426815700,8.586815673828125,-1.222643852135539,-0.7606798361033201,0.6126375387109816
1789401740436829000,8.596828857421874,-1.0386819539695977,-0.8613558405563235,0.6620063305791467
1789401740446841600,8.606841552734375,-0.9963076240986585,-0.919554054763913,0.6632208940006792
1789401740456854800,8.616854736328126,-1.0422820242881774,-0.8677069631487131,0.6156344555046409
1789401740466867700,8.62686767578125,-1.1329653347760438,-0.7110004439160227,0.5266084837697446
1789401740476881000,8.636880859375,-1.256469549369812,-0.5053203426778317,0.42684930190071463
1789401740486892800,8.646892822265626,-1.3416910873204468,-0.2821229971885681,0.3086958737503737
1789401740496905700,8.65690576171875,-1.4370359598785638,-0.06820464443713427,0.19880466251075266
1789401740506918700,8.666918701171875,-1.5202198545217513,0.06638035161942243,0.13827961279079318
1789401740516931800,8.676931884765626,-1.5544289981156587,0.14736673621833324,0.1403543001729995
1789401740526944800,8.68694482421875,-1.4911311226814985,0.21284984673708676,0.17637283127643166
1789401740536957700,8.696957763671875,-1.369544724407792,0.3219178319603205,0.20332915419787168
1789401740546971000,8.706970947265624,-1.2716373078852892,0.44743426315933466,0.15933810984529553
1789401740556983800,8.71698388671875,-1.2049813541948795,0.5494704500496387,0.09050064739733935
1789401740566996700,8.726996826171876,-1.1374433569729328,0.6619543811962008,0.05883782728537917
1789401740577009700,8.737009765625,-1.0590811833977698,0.7516326062947511,0.04083667197488248
1789401740587022800,8.74702294921875,-0.9898913273155688,0.8368269639775157,0.01854717182070017
1789401740597035800,8.757035888671876,-0.9584534020006656,0.8466562840744852,-0.01566927829682827
1789401740607048700,8.767048583984375,-0.9706021049559116,0.8188432712584733,-0.08846059293709695
1789401740617062000,8.777061767578125,-0.9303332229316233,0.7939975838154554,-0.14234540092498063
1789401740627074800,8.78707470703125,-0.7993494662374258,0.7414820914193987,-0.16412651316560803
1789401740637087700,8.797087646484375,-0.6852022780537604,0.6787400963023305,-0.16946451319269834
1789401740647100700,8.8071005859375,-0.5766945570617914,0.6655836776092648,-0.15183774415254592
1789401740657113900,8.81711376953125,-0.5149819049924612,0.6860992268934846,-0.1547789852362126
1789401740667126800,8.827126708984375,-0.4053302746623754,0.7676549358129501,-0.10821166065484285
1789401740677139700,8.8371396484375,-0.2804197004020214,0.919267054516077,-0.08884323557913303
1789401740687151600,8.847151611328124,-0.16834405779540537,1.1114093365281819,-0.03629311026111245
1789401740697164800,8.857164794921875,-0.10241466481387615,1.275143562440574,-0.04476838540062308
1789401740707178000,8.867177978515626,-0.09537935934960842,1.3700100038319825,-0.08068871682658792
1789401740717190700,8.877190673828125,-0.044434769532084466,1.423010941657424,-0.10278379038721322
1789401740727203800,8.887203857421875,0.07144727962017058,1.4085928324654697,-0.10249328300803899
1789401740737216800,8.897216796875,0.2702659706562757,1.3445844706743955,-0.11320917668119072
1789401740747229700,8.907229736328125,0.5610457370311022,1.2257593538075684,-0.1098625696670264
1789401740757242600,8.91724267578125,0.8596247789800167,1.1336147385954856,-0.14764087698459624
1789401740767255800,8.927255859375,1.0562111809194088,1.0368620450660586,-0.21823716579861938
1789401740777269000,8.93726904296875,1.089228484380245,0.8527578158199787,-0.2979839255999774
1789401740787281700,8.94728173828125,1.0370546450287104,0.6926388577952981,-0.32897849106155336
1789401740797294800,8.957294921875,1.0208645577281712,0.5832043773472309,-0.3839301976285875
1789401740807307800,8.967307861328125,1.0255454090207814,0.5996414251461625,-0.4564343658905476
1789401740817320700,8.97732080078125,1.2032593527078628,0.7367132695823907,-0.5894992397077381
1789401740827333600,8.987333740234375,1.3884528384953736,0.8995037849038838,-0.7247044134892523
1789401740837346800,8.997346923828125,1.496790463617444,0.9595052491411566,-0.8402274200707673
1789401740847360000,9.007360107421874,1.6055641420692204,0.9230991800248622,-0.8382214870758354
1789401740857372700,9.01737255859375,1.7444488811463117,0.8013339180529118,-0.7567620781376957
1789401740867385900,9.0273857421875,1.9614812742650507,0.5749190718218684,-0.586777559658885
1789401740877398800,9.037398681640624,2.184498587012291,0.2706146379634738,-0.45625835173651574
1789401740887411700,9.04741162109375,2.3033950155496594,-0.02347878300398588,-0.4115970799721777
1789401740897424000,9.057423828125,2.46419523383677,-0.33007308136522767,-0.3426014312878251
1789401740907436800,9.067436767578124,2.47943196593523,-0.7859791125327348,-0.1862785776104778
1789401740917449700,9.07744970703125,2.2549346437633035,-1.281956457325816,-0.019783874008804558
1789401740927463000,9.087462890625,1.8896815279453991,-1.6799650107979773,0.07428308756798506
1789401740937475600,9.0974755859375,1.398539932745695,-1.8555276216700671,0.04067227519340813
1789401740947488800,9.10748876953125,0.7673077298104762,-1.7759850061386822,-0.10354812582321464
1789401740957502000,9.117501953125,0.07790098580420017,-1.5088929893434047,-0.1935143010176718
1789401740967515000,9.127514892578125,-0.506878678035736,-1.132198442056775,-0.2968042142961174
1789401740977527800,9.13752783203125,-0.8887994355380534,-0.6418240318372845,-0.43558980384767054
1789401740987540700,9.147540771484374,-1.1850403899282216,-0.1415548350691795,-0.6256603210870176
1789401740997554000,9.157553955078125,-1.3234645257562399,0.35410803694725035,-0.807283254911378
1789401741007566600,9.167566650390626,-1.2368880660653114,0.8122165465950966,-0.8868911907639354
1789401741017579800,9.177579833984375,-0.7566846289873123,1.126484156063199,-0.8183328375183045
1789401741027593000,9.187593017578125,-0.07297521983981133,1.0886772802382707,-0.5741120662879199
1789401741037606000,9.19760595703125,0.6519283694833516,0.6608142712503672,-0.24831542013287541
1789401741047618800,9.207618896484375,1.284628891405463,0.14532207864820956,-0.07651406149044633
1789401741057632000,9.217632080078126,1.7124971610903739,-0.4290864133030176,0.0589203910022974
1789401741067645000,9.22764501953125,1.6773597967356442,-1.0356874483287333,0.1981312202285975
1789401741077657900,9.237657958984375,1.3718664453536271,-1.6183289310961961,0.37350948750972746
1789401741087670800,9.2476708984375,0.8881155449271202,-2.08864839528054,0.5737756739404052
1789401741097684000,9.25768408203125,0.23785189378559587,-2.3285285800233484,0.698649423321709
1789401741107695900,9.26769580078125,-0.4476210179030895,-2.3068653220087287,0.6994068175602703
1789401741117708800,9.277708740234376,-0.9896014044582844,-1.9758418080508708,0.6493163603540509
1789401741127722000,9.287721923828125,-1.3288041332185268,-1.5452379759222268,0.5369425385184585
1789401741137735000,9.29773486328125,-1.5524901390075683,-1.175304593333602,0.48128239142112433
1789401741147748000,9.307748046875,-1.6618372334331273,-0.8321277002453803,0.4804992051541805
1789401741157760800,9.3177607421875,-1.7041332373708487,-0.6499316427081823,0.47673386127129197
1789401741167774000,9.32777392578125,-1.7631331233501433,-0.5072077638596296,0.5330155012678355
1789401741177787000,9.337786865234374,-1.8316174615114926,-0.357961789765954,0.5885367513511329
1789401741188427000,9.348427001953125,-1.918356418287754,-0.2576660168021917,0.6013319355163723
1789401741198440000,9.35843994140625,-2.081912072762847,-0.16806231824457643,0.6230550339594483
1789401741208452900,9.368452880859374,-2.230372449436784,-0.13042320020198822,0.5719570802111178
1789401741218465800,9.3784658203125,-2.3195371720552442,-0.09795125566422938,0.4522331878736615
1789401741228479000,9.38847900390625,-2.4007167411386967,-0.11266893232464789,0.2976966330911964
1789401741238492000,9.398491943359375,-2.4306647201567886,-0.18518413343727588,0.13908552234619856
1789401741248504800,9.4085048828125,-2.3753730410456657,-0.2670207051247358,0.022830182902142403
1789401741258518000,9.41851806640625,-2.2487749520897866,-0.3501613451480865,-0.04791165186241269
1789401741268530000,9.428530029296875,-2.0424112525016067,-0.350106400090456,-0.03498809207715094
1789401741278543000,9.438543212890625,-1.774202798897028,-0.2171814462006092,-0.023220059002563357
1789401741288555800,9.4485556640625,-1.5292103857070207,0.019659224715828896,-0.06988302597813308
1789401741298569000,9.45856884765625,-1.3863292704701422,0.3021908027052879,-0.18104776428490876
1789401741308582000,9.468581787109375,-1.3116869942009448,0.5307540591418742,-0.3214670925181359
1789401741318594800,9.4785947265625,-1.1807535063892602,0.6904729119330644,-0.40335919378511603
1789401741328607700,9.488607666015625,-1.013514779487252,0.7525789472341538,-0.47263336714990434
1789401741338621000,9.498620849609376,-0.8880863188326358,0.7880442283689976,-0.5089247969105839
1789401741348634000,9.508634033203125,-0.8036053701162338,0.8171960885733366,-0.5310179707750677
1789401741358646800,9.518646728515625,-0.7418968097001314,0.8363122924536466,-0.6097177788067609
1789401741368660000,9.528659912109376,-0.6779962921977043,0.8924491902172564,-0.6861183699853718
1789401741378673000,9.5386728515625,-0.5660159266591072,0.9832727859586476,-0.7348095548529178
1789401741388685800,9.548685791015625,-0.45393502335548397,1.0566390509426593,-0.8200982397556305
1789401741398698800,9.55869873046875,-0.37725276569128036,1.0301672236025332,-0.9458278022486716
1789401741408712000,9.5687119140625,-0.3643447688013315,0.9799731598913669,-1.016513230650872
1789401741418725000,9.57872509765625,-0.24269231955409049,0.9557172550350427,-1.0554846202105284
1789401741428737800,9.58873779296875,-0.059926937696337695,0.9487018233150243,-1.0477951616864651
1789401741438751000,9.5987509765625,0.18480945490598677,0.9457420967265963,-0.9987216995030641
1789401741448764000,9.608763916015626,0.5083844064235687,0.9423007241010666,-0.9982963867630809
1789401741458776800,9.61877685546875,0.9019488399684429,0.9162216954708099,-0.9310284386541694
1789401741468789800,9.628789794921875,1.2060440149903298,0.8239829722344875,-0.839234025119245
1789401741478803000,9.638802978515624,1.3474644100248814,0.6649632076233625,-0.7179819733664393
1789401741488814800,9.64881494140625,1.385770467543602,0.4754845918625593,-0.5749419047081843
1789401741498828000,9.658828125,1.419694948977232,0.3716898708671331,-0.47497576555758714
1789401741508840700,9.6688408203125,1.4232500111103057,0.3719116969242692,-0.4877892890971154
1789401741518854000,9.67885400390625,1.4345698620259761,0.4470256823584437,-0.5261472959987818
1789401741528867000,9.6888671875,1.4298703060328959,0.4415916746109724,-0.4505676658142358
1789401741538879700,9.698879638671874,1.4499509710311889,0.4088488041773438,-0.3148883351823315
1789401741548893000,9.708892822265625,1.4655448460042475,0.3509334985643625,-0.19901242350991813
1789401741558905900,9.71890576171875,1.5132400786370037,0.28615473692268134,-0.12114311148561537
1789401741568919000,9.7289189453125,1.5757868434429168,0.19467092370688915,-0.0779430713802576
1789401741578931700,9.738931640625,1.6910019531190394,0.08794657900035381,-0.04557506214100867
1789401741589569800,9.74956982421875,1.9119553190737961,0.05191343484967947,-0.04499682386163622
1789401741599583000,9.7595830078125,2.1346108127713204,0.08039484844654798,-0.02474591686297208
1789401741609596000,9.769595947265625,2.380209959682822,0.1542225934624672,0.07918448627609759
1789401741619608800,9.77960888671875,2.5750071401178833,0.2730520942434668,0.2543067329695448
1789401741629622000,9.7896220703125,2.7056980513453484,0.40743659929186105,0.4710372205322608
1789401741639635000,9.799635009765625,2.766203665712476,0.4784752981111407,0.6470448352254927
1789401741649647900,9.80964794921875,2.8934324537873266,0.4110480677872896,0.8852281529225409
1789401741659660800,9.819660888671875,2.97477744256556,0.2018415459886193,1.0746890868961811
1789401741669674000,9.829674072265625,2.7994366577506065,-0.15250029971450565,1.1995637861255555
1789401741679687000,9.83968701171875,2.375529108390212,-0.5673337312594056,1.3400450736790894
1789401741689699800,9.849699951171875,1.6849404611229895,-1.0724220187470317,1.431618026483059
1789401741699713000,9.859713134765625,0.8853373123854398,-1.5028645228341222,1.3987830938518047
1789401741709726000,9.869725830078124,0.021502806755900383,-1.7326754412442444,1.3025107311852275
1789401741719739000,9.87973876953125,-0.772132958009839,-1.8083970371827482,1.219242300063744
1789401741729751800,9.889751708984376,-1.4579285257816315,-1.7531114955514668,1.1471112028978765
1789401741739765000,9.899764892578125,-2.0203490582972763,-1.5782418353796004,1.0596697969406843
1789401741749778000,9.90977783203125,-2.416514614251256,-1.327843179231882,0.9729445033635944
1789401741759790800,9.919790771484376,-2.6629683321654793,-1.0078966473445297,0.8878153929367661
1789401741769804000,9.929803955078125,-2.7768659295022484,-0.6556231323480606,0.745087568565458
1789401741779817000,9.93981689453125,-2.7627777829170226,-0.32918256226629017,0.5746121247645467
1789401741789830000,9.949829833984374,-2.6356477790415287,-0.0658703562706709,0.3888699921183288
1789401741799842800,9.9598427734375,-2.4175053788542744,0.14191314698755741,0.2291265894077718
1789401741809855000,9.96985498046875,-2.105645999571681,0.19195143561512232,0.20296112460307775
1789401741819868000,9.979867919921874,-1.7319553102761507,0.08722381768375635,0.3020926760930568
1789401741829880800,9.989880859375,-1.339257138171792,-0.12282061624377966,0.4830529812902212
1789401741839893800,9.999893798828126,-0.9958803385972976,-0.3115244482398033,0.6462106494236737
1789401741849907000,10.009906982421874,-0.7133586974799633,-0.4923679221242666,0.7342959793075918
1789401741859920100,10.019920166015625,-0.5923059676915406,-0.6417492130354047,0.7688289480283856
1789401741869932800,10.029932861328126,-0.5950052897781133,-0.7554749609366059,0.74140281563811
1789401741879946000,10.039946044921875,-0.7178279518485069,-0.8196727078199386,0.7321006612204015
1789401741889959000,10.049958984375,-0.957203109678626,-0.8271724159255623,0.6929287075873464
1789401741899971800,10.059971923828124,-1.2625240271031857,-0.7394727974236011,0.5688297419708221
1789401741909984800,10.06998486328125,-1.5924030472010373,-0.5676902896121144,0.4553739701174199
1789401741919998000,10.079998046875,-1.8593828357934952,-0.3731315941080451,0.3497811867240816
1789401741930011000,10.090010986328124,-2.0257588083863256,-0.18341916959136723,0.3130431091744453
1789401741940023800,10.10002392578125,-2.0475538760870693,0.053825113689899444,0.2998385404907167
1789401741950037000,10.110037109375,-2.0038567731797694,0.24649434218555688,0.215523376795277
1789401741960050000,10.1200498046875,-1.8955612336337566,0.3839011176645756,0.1371591573935002
1789401741970062800,10.130062744140625,-1.7544781077295541,0.4564721406176686,0.11318177721761166
1789401741980075800,10.14007568359375,-1.586853596380353,0.49162499480247496,0.08369045592583715
1789401741990089000,10.1500888671875,-1.4107067558795212,0.5173281758576631,0.12429025040492414
1789401742000102000,10.160101806640625,-1.2081494628369807,0.553237109106779,0.17891148290857672
1789401742010114800,10.17011474609375,-1.0569330654531717,0.5946475623816252,0.16875841074995696
1789401742020128000,10.1801279296875,-0.9597101240634918,0.6505369151249527,0.1457146581623703
1789401742030140000,10.190139892578125,-0.8295990585505962,0.7178358428940177,0.14050912540853022
1789401742040152000,10.200152099609374,-0.7454705765336751,0.8195385600462556,0.07737542756013571
1789401742050165200,10.210165283203125,-0.7316793670684099,0.9284145298287272,-0.025134806582704186
1789401742060178000,10.220177978515625,-0.724864426356554,1.0467384191751479,-0.1279988225992769
1789401742070191000,10.230191162109374,-0.6732341923624277,1.165117838101089,-0.17142039650082588
1789401742080204000,10.2402041015625,-0.5556289726793766,1.2481003649532794,-0.17777341878935693
1789401742090217200,10.25021728515625,-0.44176703117787836,1.3469164207533002,-0.15659239133372901
1789401742100230000,10.26022998046875,-0.3244377058267593,1.4391004911929368,-0.20123926924653351
1789401742110243000,10.2702431640625,-0.16441607069671152,1.519944252450764,-0.24734686736166475
1789401742120256300,10.28025634765625,-0.021558920857310294,1.5057137747853993,-0.2707943053793162
1789401742130269000,10.29026904296875,0.22429683116376398,1.4417603580519556,-0.25323972479254003
1789401742140282000,10.3002822265625,0.6997089423120021,1.3883163526341318,-0.22477679670043288
1789401742150295000,10.310294921875,1.2277356223165987,1.3884984312027693,-0.23230171231254934
1789401742160308200,10.32030810546875,1.6781319501519203,1.3670298189774155,-0.27525303835384546
1789401742170321000,10.33032080078125,1.928022656777501,1.2729963212788105,-0.30265220967195927
1789401742180334000,10.340333984375,2.1225544642746446,1.1698363910555838,-0.38162513555660843
1789401742190347000,10.350346923828125,2.2098294276237485,1.1278837937280535,-0.4999488787725567
1789401742200360000,10.36035986328125,2.1906600322514773,1.1409981268450617,-0.6655127312649041
1789401742210373000,10.370373046875,2.1481226207733153,1.1811229242235421,-0.8229703611258417
1789401742220386000,10.380385986328125,2.100434402403235,1.2041834818154573,-0.9054015377055853
1789401742230399200,10.390399169921874,2.081913826328516,1.1529618286222219,-0.9096315034255384
1789401742240412000,10.400411865234375,2.1204747353911397,1.0323194332003593,-0.9000690175712108
1789401742250424000,10.410424072265625,2.3007313492983577,0.8013941238075494,-0.8671239025637507
1789401742260437000,10.42043701171875,2.59136966137588,0.5300304210424422,-0.8053529444359242
1789401742270450200,10.4304501953125,2.90411283775568,0.276744519020617,-0.7564425638597458
1789401742280463000,10.440463134765626,3.0330250488728283,-0.11804711823165416,-0.6318646556198596
1789401742290476000,10.45047607421875,2.915336827081442,-0.624823504936695,-0.47618024597652253
1789401742300489200,10.4604892578125,2.6132366252690553,-1.1667875248789787,-0.3373663801785558
1789401742310502100,10.470502197265626,2.0913585310220717,-1.6561694169297814,-0.2692678264643997
1789401742320515000,10.48051513671875,1.420008252710104,-1.986917621077597,-0.3198520585369318
1789401742330528000,10.490528076171875,0.7036749233335257,-2.0765862015649676,-0.4578166870944202
1789401742340541200,10.500541259765624,-0.0015033903002738952,-1.9651725299984215,-0.5471392306230962
1789401742350554000,10.51055419921875,-0.6591074673324823,-1.7528639505311845,-0.6091654786862433
1789401742360567000,10.520567138671876,-1.2003940264046191,-1.4294047343477605,-0.6748210231624543
1789401742370580000,10.530580078125,-1.6203683279693126,-0.9986725996643304,-0.7720777937564999
1789401742380593200,10.54059326171875,-1.8136060040026902,-0.5110977570354939,-0.9088077659524977
1789401742390606000,10.550606201171876,-1.718932747095823,0.016032266390323638,-1.0626847608476877
1789401742400619000,10.560618896484375,-1.3781249212265014,0.4888631288737058,-1.1590974818330257
1789401742410632200,10.570632080078125,-0.8602852887153625,0.7685565608277917,-1.0798000732343642
1789401742420645000,10.58064501953125,-0.15821896962225437,0.7043427395924925,-0.8051543531239033
1789401742430658000,10.590657958984375,0.5186310751497745,0.3379994904503226,-0.49392852250449354
1789401742440671000,10.6006708984375,1.097341648209095,-0.09967384167313575,-0.27171945740021763
1789401742450684200,10.61068408203125,1.5077350514799355,-0.5771390859588981,-0.09762406953647731
1789401742460697000,10.620697021484375,1.5573258886009453,-1.060377068427205,0.030447964429482815
1789401742470710000,10.6307099609375,1.3777169249475,-1.4936208936706183,0.14674166312254963
1789401742480722200,10.64072216796875,0.9451298100471496,-1.919253074866533,0.269022911792621
1789401742490735000,10.650735107421875,0.36260815426707266,-2.2050126749917864,0.38895153292194007
1789401742500748000,10.660748046875,-0.3130734312474727,-2.1809669057548047,0.4717885138235986
1789401742510761000,10.670760986328125,-0.941434462660551,-1.8735858409300445,0.42428230095691977
1789401742520774100,10.680774169921875,-1.4884925908714532,-1.518767609886825,0.38385099491253494
1789401742530787000,10.690787109375,-1.8773855254739522,-1.162017826259136,0.34150691404938693
1789401742540800000,10.700800048828125,-2.2501094155639407,-0.8392901392206549,0.24551285686753688
1789401742550813000,10.71081298828125,-2.4615046795785425,-0.6638698594287038,0.1658435462165624
1789401742560826000,10.720826171875,-2.4732711052179335,-0.48677317085713145,0.13544460856057702
1789401742570839000,10.730839111328125,-2.423787820124626,-0.2841860671982169,0.12962014019079507
1789401742580852000,10.74085205078125,-2.3580326146662234,-0.1428819920197129,0.1397797882206738
1789401742590865200,10.750865234375,-2.2556027522832154,-0.08816519018709659,0.2236616020001471
1789401742600878000,10.760878173828125,-2.097595964106917,-0.06589665975570679,0.3343728974509984
1789401742610891000,10.77089111328125,-1.9451742825865745,-0.07080985849946737,0.3774551563955843
1789401742620904000,10.780904052734375,-1.8556331278711555,-0.08515256436765194,0.32740349682979286
1789401742630917000,10.790917236328125,-1.8471610676020382,-0.13944938722252845,0.18860950477607547
1789401742640930000,10.800929931640624,-1.7909739009559154,-0.19622750549912452,0.06790588068626821
1789401742650943000,10.81094287109375,-1.6879735452085733,-0.24688275698125361,0.008024681827798485
1789401742660956200,10.8209560546875,-1.5202654472291468,-0.261307880435884,-0.025594094657525417
1789401742670969000,10.830968994140624,-1.2896668855726718,-0.18798282424509524,-0.05438223611600697
1789401742680982000,10.84098193359375,-1.0842717387557028,-0.049103345865011215,-0.06890263663865626
1789401742690995000,10.850994873046876,-0.900788564017415,0.10892536188215017,-0.09822057412490248
1789401742701007000,10.861007080078124,-0.7594786436200142,0.2796852486476302,-0.1457362124070525
1789401742711020000,10.87102001953125,-0.6835095026612281,0.4003267672866583,-0.15221870629414916
1789401742721033200,10.881033203125,-0.6461568003445863,0.4661830950319767,-0.13595131597369908
1789401742731046000,10.8910458984375,-0.6778992615640163,0.5115308877557516,-0.15717939744144677
1789401742741059000,10.90105908203125,-0.7777145575344562,0.5884256191268563,-0.1739467731732875
1789401742751072300,10.911072265625,-0.8492331488251685,0.6579001373693346,-0.22905885793380437
1789401742761085000,10.9210849609375,-0.8225041318535804,0.7277306294426321,-0.30929595853537317
1789401742771098000,10.93109814453125,-0.7350853761196136,0.8137985550895332,-0.3816232358604669
1789401742781111000,10.941111083984374,-0.6654191346973181,0.8573495275244116,-0.43705936494357883
1789401742791124200,10.951124267578125,-0.6733131028175353,0.8869368565365672,-0.5083254427779466
1789401742801137000,10.961136962890626,-0.7027186455219984,0.8783400008440018,-0.5767359850507229
1789401742811150000,10.971150146484375,-0.663529959949851,0.8853311749055981,-0.6221366039402783
1789401742821163300,10.981163330078125,-0.4879717329919338,0.890007057762146,-0.693936423325166
1789401742831176000,10.991176025390626,-0.19434242240488528,0.8243111812755465,-0.7157381399624049
1789401742841189000,11.001189208984375,0.2795528544396162,0.7724386629581451,-0.6699468412548303
1789401742851202000,11.0112021484375,0.8014391319930553,0.7672267735287547,-0.626841566760838
1789401742861215200,11.02121533203125,1.1487848351985215,0.7508230434775353,-0.5670990457206965
1789401742871228000,11.031227783203125,1.374447694018483,0.6675894644737244,-0.49504645715113726
1789401742881241000,11.041240966796876,1.5058219113349913,0.607667495213449,-0.4270551997363567
1789401742891254300,11.051254150390625,1.6004723718881606,0.6255833833932877,-0.37200668173134327
1789401742901267000,11.061266845703125,1.7178426137715577,0.6725026632174849,-0.33306502972282465
1789401742911280000,11.071280029296876,1.7623258986204862,0.7146528289437294,-0.3120654597813263
1789401742921293000,11.08129296875,1.7224632593095301,0.6889572466731071,-0.3478759010920301
1789401742931306200,11.09130615234375,1.6088000552505253,0.6164563663467765,-0.3567430981585756
1789401742941318100,11.101318115234376,1.5594067865282297,0.5111833894923329,-0.37114590018354354
1789401742951331000,11.1113310546875,1.5925164444476365,0.4465177328363061,-0.3684294077664613
1789401742961344000,11.121343994140625,1.6481494843423365,0.3558066575586796,-0.3260676816487685
1789401742971357200,11.131357177734374,1.8390438121199606,0.365518781016767,-0.2536911218218505
1789401742981369900,11.141369873046875,2.0479881758511067,0.4744026418447494,-0.14898962471242994
1789401742991383000,11.151383056640626,2.3170482778489587,0.665452744705975,-0.021912538334261624
1789401743001396200,11.161396240234374,2.510581137436628,0.8352680440977215,0.13666930978363379
1789401743011409200,11.1714091796875,2.648185773575306,0.8979796440765261,0.31737379532251503
1789401743021422000,11.181422119140626,2.7924036903738974,0.8334379060611128,0.4887690208494663
1789401743031435000,11.19143505859375,3.0710411835342644,0.7086550498336553,0.6339834744047373
1789401743041448700,11.20144873046875,3.362152958342433,0.4583239059641957,0.7629450776215643
1789401743051461400,11.21146142578125,3.35122941326797,0.04706365673094988,0.9230079215448349
1789401743061474600,11.221474609375,3.1277216866552826,-0.43218145670890806,1.0960276430010796
1789401743071487500,11.231487548828126,2.638957341980934,-0.9326581587478517,1.2421044855393468
1789401743081500400,11.24150048828125,1.8603326838642358,-1.2727587131306528,1.246843204499036
1789401743091513600,11.251513671875,1.00617084646523,-1.4316206568315624,1.1000332984458654
1789401743101526500,11.261526611328126,0.24056758248507976,-1.4791235817626118,1.0404230254832654
1789401743111539700,11.271539794921875,-0.333535789039731,-1.3895502783432603,1.0524505862768738
1789401743121552400,11.281552490234375,-0.7670628151386976,-1.210433482120931,1.0798094986498354
1789401743131565600,11.291565673828124,-1.1978694763630628,-1.0300468120932578,1.059297164236009
1789401743141578500,11.30157861328125,-1.6101690055161713,-0.8457707334116101,0.9788349496416747
1789401743151591400,11.31159130859375,-2.021849525988102,-0.6929030616894364,0.8630325415968895
1789401743161604600,11.3216044921875,-2.3854086973696944,-0.600492781278491,0.6975501568429172
1789401743171616500,11.331616455078125,-2.6625819631963967,-0.5315662523075938,0.5197600061144679
1789401743181629400,11.34162939453125,-2.7955682918846607,-0.4467880742102861,0.33346995726190504
1789401743191642600,11.351642578125,-2.7019693862110374,-0.38197248768955466,0.19464491248279808
1789401743201655600,11.361655517578125,-2.3630028042942284,-0.42839463164657354,0.21155900320895016
1789401743211668500,11.37166845703125,-1.893486765447259,-0.5298316835999488,0.350402387362346
1789401743221681700,11.381681640625,-1.5277929201245306,-0.649126463805139,0.5152580185201019
1789401743231694300,11.3916943359375,-1.3042518757641315,-0.7342997786998748,0.5740167161546648
1789401743241707500,11.40170751953125,-1.1015905378252266,-0.748531425409019,0.6134806384716183
1789401743251720400,11.411720458984375,-1.090147937312722,-0.7012494497522711,0.5836160999532789
1789401743261733600,11.421733642578126,-1.2709417268365621,-0.6046697747021913,0.4423299257576465
1789401743271746600,11.43174658203125,-1.4847352841645478,-0.44457595111876724,0.24796843332611024
1789401743281759500,11.441759521484375,-1.5889526144862174,-0.23152269076406953,0.05010653155818581
1789401743291772700,11.451772705078126,-1.6229940002977847,0.004202712386846542,-0.016488047333806752
1789401743301785300,11.461785400390625,-1.5752274559944868,0.19685645105242727,0.06132540631741285
1789401743311798500,11.471798583984375,-1.4374053777128457,0.3786620479673147,0.17924053219985217
1789401743321811500,11.4818115234375,-1.3002695281296968,0.5270151648744941,0.24385160912442952
1789401743331824600,11.49182470703125,-1.1628262200325727,0.6345847282335162,0.30625670043732967
1789401743341837600,11.501837646484375,-1.1515022774636745,0.7219839024841785,0.2815219260228798
1789401743351850500,11.5118505859375,-1.1411942339390515,0.8834306019812822,0.17894487372152507
1789401743361863700,11.52186376953125,-1.0120248331904411,1.123390281701088,0.1402382360452786
1789401743371876400,11.53187646484375,-0.808364547342062,1.4190478832453488,0.20243980414271354
1789401743381889500,11.5418896484375,-0.5983370645493269,1.6425526872485876,0.2835325351929292
1789401743391902500,11.55190234375,-0.4218342502176761,1.7306705311626196,0.40078583616577085
1789401743401914600,11.56191455078125,-0.3345961117476225,1.7265028900891541,0.43295854202862827
1789401743411927600,11.571927490234375,-0.34120120910108087,1.611346232602,0.41440534232594073
1789401743421940500,11.5819404296875,-0.4389560654103756,1.484251884561777,0.3427441276941448
1789401743431953400,11.591953369140626,-0.48846273137927054,1.4242799386799334,0.25579448730926957
1789401743441966600,11.601966552734375,-0.3970546137481928,1.4165005368500947,0.15431414420343934
1789401743451979500,11.6119794921875,-0.21508184357285498,1.33687345790565,0.08207838108669965
1789401743461992400,11.621992431640624,-0.01883212624192238,1.1994184593707322,0.05079666924681514
1789401743472005600,11.632005615234375,0.1282008479773998,1.0158797550529242,0.008308284542150796
1789401743482018600,11.6420185546875,0.1996130562841892,0.7765314852297306,-0.02248593604173511
1789401743492031500,11.652031494140624,0.3174205205410719,0.5690215382158756,-0.004198054478038102
1789401743502044400,11.66204443359375,0.406129316085577,0.3995277258634567,-0.019069460395444184
1789401743512057600,11.6720576171875,0.41511107944250103,0.30446283929049966,-0.05437038128143176
1789401743522070500,11.682070556640625,0.38160920733511444,0.20138357308804988,-0.08935529502080752
1789401743532083500,11.69208349609375,0.3346469651520252,0.07759820346534252,-0.18383399746995419
1789401743542096600,11.7020966796875,0.2608282802253961,-0.047800446572899814,-0.301589183550328
1789401743552109600,11.712109619140625,0.17192542341351508,-0.1374170046120882,-0.42232254519127305
1789401743562122500,11.72212255859375,0.11965104629695415,-0.2520557757049799,-0.48613374044243246
1789401743572135400,11.732135498046874,0.08027180658876895,-0.3519786237031221,-0.4499663389202207
1789401743582148600,11.742148681640625,0.1777589518725872,-0.38742695370316504,-0.3725520041218027
1789401743592161500,11.75216162109375,0.3879518543601036,-0.3468248942017555,-0.3000967895681038
1789401743602174500,11.762174560546875,0.5993237374991178,-0.2639075415402651,-0.2806850002747029
1789401743612187600,11.772187744140625,0.6972504432439803,-0.179210319724679,-0.35786706068720664
1789401743622200600,11.78220068359375,0.6940875952988863,-0.12757482503354547,-0.4570879709610715
1789401743632213500,11.792213623046875,0.6211597217321395,-0.1308721130132675,-0.49143221217673266
1789401743642225400,11.802225341796875,0.6105132400333881,-0.16717676758170127,-0.4488301379645243
1789401743652238600,11.812238525390624,0.7240823360681533,-0.15942191567122935,-0.39631263627447183
1789401743662251500,11.82225146484375,0.9686977326393127,-0.10960311501324176,-0.3248501956177875
1789401743672264400,11.832264404296875,1.361955876713991,-0.13585457760095596,-0.26339813071340323
1789401743682277400,11.84227734375,1.689796084460616,-0.25365327402949334,-0.16468034765608608
1789401743692290600,11.85229052734375,1.9421008664906023,-0.40587797167301176,-0.19681323296520858
1789401743702303700,11.8623037109375,2.0598083775043485,-0.6750561470925808,-0.18250402750782668
1789401743712316400,11.87231640625,1.9313287125855683,-1.0793038872152567,-0.1431951130894944
1789401743722329600,11.88232958984375,1.530440804284811,-1.4890864651113747,-0.11098335385788231
1789401743732342500,11.892342529296876,1.1459013887166976,-1.7591823398977517,-0.060662814222835
1789401743742355700,11.902355712890625,0.7433598679900169,-1.913721744224429,-0.08018938900232314
1789401743752368400,11.912368408203125,0.1578735171854496,-1.8671587304919957,-0.1467292420323938
1789401743762381600,11.922381591796874,-0.436631421855092,-1.5868343071579931,-0.28534057099558413
1789401743772394500,11.93239453125,-0.817277337116003,-1.2171201202780007,-0.5085818286918103
1789401743782407400,11.942407470703126,-0.9859282689034938,-0.8452104691803455,-0.6556828266460448
1789401743792420600,11.952420654296875,-0.9540998829662799,-0.45146074219644067,-0.8016737444665283
1789401743802433500,11.96243359375,-0.7553174322873354,-0.149659231069684,-0.8319201949745416
1789401743812446700,11.97244677734375,-0.3828612532228231,-0.045154315978288645,-0.691982074386999
1789401743822459400,11.98245947265625,0.11071721373498439,-0.10895955641269683,-0.40149931819736956
1789401743832472600,11.99247265625,0.6038491059690714,-0.24225801979005335,-0.07629829984791577
1789401743842485500,12.002485595703124,1.0187813217133284,-0.3640758887320757,0.12051939009670168
1789401743852498400,12.01249853515625,1.239320846170187,-0.5256769020080566,0.20221775888986884
1789401743862511600,12.02251171875,1.2779834620416164,-0.6946890683233737,0.20908508737608789
1789401743872523500,12.0325234375,1.0408575444430113,-0.8017980284333228,0.23657917043603954
1789401743882536700,12.04253662109375,0.5985743804365397,-0.9082786275118588,0.2572431882802397
1789401743892549600,12.052549560546876,0.09326397463083266,-0.9969242946922778,0.29987894556634126
1789401743902562600,12.0625625,-0.39962943267226214,-1.0569722284197807,0.3538416045634076
1789401743912575500,12.072575439453125,-0.8367951075345277,-0.9569184475183486,0.3003195654733106
1789401743922588700,12.082588623046876,-1.1969874328315258,-0.7653641945272683,0.21010639324784278
1789401743932601300,12.092601318359375,-1.5046002605855464,-0.6477361784905195,0.12628244713544845
1789401743942614500,12.102614501953125,-1.698399662154913,-0.5820283193051815,0.07566149978172033
1789401743952627500,12.11262744140625,-1.743064148789644,-0.47781215802729127,0.06029920507483184
1789401743962640600,12.122640625,-1.799387509036064,-0.4396913939476013,0.05681392024233937
1789401743972653600,12.132653564453125,-1.7856512446284294,-0.39709845288991924,0.01903185006510466
1789401743982666500,12.14266650390625,-1.7611989404171704,-0.36678164055943485,-0.005721482919342815
1789401743992679700,12.1526796875,-1.7657301541060209,-0.3236415870130062,-0.03523300674892962
1789401744002692400,12.1626923828125,-1.7096160526961086,-0.287550282934308,-0.052765302438661454
1789401744012705500,12.17270556640625,-1.60720606405735,-0.2011696380764246,-0.058301236190646887
1789401744022718500,12.182718505859375,-1.5211936679899691,-0.11477847182452677,-0.06668791973125189
1789401744032731600,12.192731689453124,-1.5010504591494798,-0.05483399847149849,-0.11593374280687421
1789401744042743800,12.202743896484375,-1.4364561141639947,0.02537584879696369,-0.19380809633247553
1789401744052757000,12.212757080078125,-1.3609984298586844,0.06488543688654899,-0.26048659064825624
1789401744062770200,12.222770263671874,-1.2493985880702734,0.10745908872187138,-0.3539936167873442
1789401744072783000,12.232783203125,-1.1666150909215212,0.14064414996504782,-0.40593591240532695
1789401744082796000,12.242796142578126,-0.9983522816687822,0.23231062627136706,-0.4214864231606945
1789401744092809000,12.25280908203125,-0.7860989395201206,0.35876901449561116,-0.3721279700234532
1789401744102822100,12.262822265625,-0.6006476795792579,0.45430268762409687,-0.34435320685859766
1789401744112834000,12.272833984375,-0.4637029686540365,0.5210270303755998,-0.3889537614116445
1789401744122847000,12.282846923828124,-0.3800982182502746,0.5768348423153161,-0.4331714541269466
1789401744132860000,12.29285986328125,-0.25778233665823935,0.5709481223642826,-0.40925760417394336
1789401744142873000,12.302873046875,-0.18074176707565784,0.5101274506986141,-0.352335218588449
1789401744152886000,12.312885986328125,-0.1623082847625017,0.47987961195111273,-0.2981475917290896
1789401744162899000,12.32289892578125,-0.24611411069631575,0.49643619447648524,-0.26041874957643446
1789401744172912000,12.332912109375,-0.4024211092174053,0.5665320594877005,-0.2817272758692503
1789401744182925000,12.342925048828125,-0.5999088439106941,0.6731979520052671,-0.3592711918640882
1789401744192938000,12.35293798828125,-0.7703963434755802,0.7740642183333635,-0.4203534736080095
1789401744202951000,12.362950927734374,-0.8654612300485373,0.8300818736314773,-0.4762186782907694
1789401744212964000,12.372964111328125,-0.9687561848282813,0.9048480685412883,-0.5781343440739437
1789401744222977000,12.38297705078125,-0.9555833995223045,0.9728414083153009,-0.6747507344052195
1789401744232990000,12.392989990234375,-0.76851301394701,0.9509645075500011,-0.6792318984072655
1789401744243003100,12.403003173828125,-0.26011808612942694,0.8524415894776582,-0.5290027584951371
1789401744253016000,12.41301611328125,0.24119594351649282,0.7162824759721755,-0.37967502440214157
1789401744263029000,12.423029052734375,0.68570672044456,0.6381459278464316,-0.28404959960328413
1789401744273042000,12.4330419921875,1.052514079967141,0.5551987645685672,-0.22745363296056165
1789401744283055000,12.44305517578125,1.0244646280467509,0.4051140015631914,-0.19025402058009058
1789401744293068000,12.453068115234375,0.8727531406223773,0.3361427566677332,-0.16965444627422838
1789401744303081000,12.4630810546875,0.8417156128019094,0.41491058843433853,-0.22963084913548082
1789401744313094100,12.47309423828125,0.8214385484486818,0.5257727635979652,-0.2652955800988711
1789401744323107000,12.483107177734375,0.9603408231824636,0.6570797608971596,-0.3033975298802368
1789401744333120000,12.4931201171875,1.1172662458628415,0.7054559615314007,-0.31502160617318004
1789401744343133000,12.5031328125,1.2892770094722508,0.6879416398897766,-0.29403922482850026
1789401744353145000,12.51314501953125,1.417048233860731,0.6563856411531567,-0.21349154217410832
1789401744363158000,12.523157958984376,1.4427192662119865,0.5978694470375776,-0.17416856269780545
1789401744373171200,12.533171142578125,1.5388006363511084,0.607971446596086,-0.15547266658879816
