time,seconds_elapsed,z,y,x
1789571730188271400,0.079271240234375,0.06723404583930968,0.13930880970805884,0.1360810067679733
1789571730198317300,0.0893173828125,0.14741934318840502,0.0525961564168334,0.1692649720326066
1789571730208362000,0.099362060546875,0.180629538872838,0.035670594448596236,0.12620214844085276
1789571730218408200,0.109408203125,0.22732582359611986,0.04009118736982345,0.07475494286343455
1789571730228454100,0.1194541015625,0.2804249610990286,0.03348345966786146,-0.008386135551333426
1789571730238499000,0.1294990234375,0.2680669993072748,0.0062220893852412695,-0.01563647200576961
1789571730248545300,0.139545166015625,0.257585352781415,-0.032242227435112,0.061934843452647326
1789571730258591200,0.14959130859375,0.2019102273106575,-0.03369856372326612,0.08406776480562984
1789571730268636200,0.15963623046875,0.10522095440626143,0.004512070596963167,0.05928462120480835
1789571730278682000,0.16968212890625,0.04618775067925453,0.014810761771351098,0.0883050370492041
1789571730288728300,0.179728271484375,0.02293371634185314,-0.004517185163497924,0.1359717742398381
1789571730298773200,0.189773193359375,0.04647416640520095,-0.06361337112411856,0.16165573913790285
1789571730308819200,0.199819091796875,0.16054536674320696,0.06327566360235214,-0.015112228935956954
1789571730318864100,0.209864013671875,0.19003741868734358,-0.02023395586386323,0.14686368206702172
1789571730328910000,0.21991015625,0.18389175553917883,-0.08865238918215036,0.14593385387100277
1789571730338956000,0.2299560546875,0.14838555787205696,-0.040278672765940424,0.10120835776403546
1789571730349001200,0.240001220703125,0.14919453616738318,-0.018466069408506154,0.155824037309736
1789571730359047200,0.250047119140625,0.09636369421184063,-0.02423413141593337,0.1905946141786873
1789571730369093000,0.260093017578125,0.050533086407184596,0.0036908173419535157,0.16935228498987853
1789571730379138300,0.27013818359375,0.008684241715073584,0.01707461505010724,0.11482537970617412
1789571730389184300,0.280184326171875,-0.0061275429695844645,0.039526100832968945,0.10787694880776107
1789571730399230200,0.290230224609375,-0.033329438149929044,0.04710048161000013,0.14237185054048895
1789571730409275400,0.300275390625,-0.07670622306168079,0.051362230707705014,0.15956979970932006
1789571730419321300,0.3103212890625,-0.0829366418838501,0.039817046603560446,0.1565572469551116
1789571730429366000,0.320365966796875,-0.07150806989669799,0.031180443422496318,0.1536725583642721
1789571730439412200,0.330412109375,-0.03048573915660381,0.03636310675740242,0.18072949211597442
1789571730449458200,0.340458251953125,-0.04614040440618992,0.014195990873873233,0.18242102539949118
1789571730459503000,0.350503173828125,-0.0999070659071207,0.0005105798706412315,0.20031886646598576
1789571730469549000,0.360549072265625,-0.11653086844980716,-0.03533960892856121,0.24401465419903395
1789571730479595300,0.37059521484375,-0.11013269184529781,-0.05717018633410334,0.21739662332125007
1789571730489640200,0.38064013671875,-0.08046060715913772,-0.06001870763301849,0.17574293587505815
1789571730499686100,0.39068603515625,-0.028464462462067602,-0.08716872649565338,0.17365772709883748
1789571730509732400,0.400732421875,-0.028559739530086517,-0.08680778422877192,0.21768398889526724
1789571730519777300,0.41077734375,-0.0792243433624506,-0.13087182075232268,0.16893566701300441
1789571730529823200,0.4208232421875,-0.12022153966128825,-0.1465558582268655,0.12685900491438806
1789571730539869200,0.430869140625,-0.13412614637315273,-0.11799100413024424,0.12182692903131245
1789571730549914000,0.4409140625,-0.09287994374930858,-0.12346066771298646,0.0745129508011043
1789571730559960000,0.4509599609375,-0.1107119530379772,-0.12007350949272513,0.021260522432625294
1789571730570005200,0.461005126953125,-0.016541384956240652,-0.10574497828036546,0.01902655283547938
1789571730580051200,0.47105126953125,0.0848971283018589,-0.0957714274071157,0.05020151636525988
1789571730590097200,0.48109716796875,0.07237959203422069,-0.09402019982561469,0.11051051218174397
1789571730600142300,0.491142333984375,0.008454524612426757,-0.09570990647822618,0.15911818348430096
1789571730610188300,0.501188232421875,-0.054125557941198346,-0.06329685252085328,0.19544380777552722
1789571730620234200,0.511234130859375,-0.10477847133576869,-0.029559856483340263,0.17805771562345324
1789571730630279400,0.521279541015625,-0.18345570220947263,0.01025850529447198,0.1808287877719849
1789571730640325400,0.531325439453125,-0.18391279832720756,0.05058043268024921,0.16479644831642506
1789571730650371300,0.541371337890625,-0.10485387465953826,0.06571794218793511,0.09447802659571171
1789571730660416000,0.551416015625,0.024442951861023902,0.06687222678959369,0.11978563246205448
1789571730670462200,0.561462158203125,0.12966858244240284,0.07497326178923248,0.15685045774802564
1789571730680508200,0.571508056640625,0.17491116122603415,0.06570142944455147,0.14247728367634116
1789571730690553000,0.581552978515625,0.11914718842804431,0.06093932960927486,0.176326507916674
1789571730700599300,0.591599365234375,0.08918225827515125,0.0394204485014081,0.23724596378169951
1789571730710644200,0.601644287109375,0.14681202494502066,0.046792876965552566,0.23818068734854458
1789571730720690200,0.611690185546875,0.17574936561584473,0.07367255445420742,0.18083163731619714
1789571730730736000,0.621736083984375,0.1264104574292898,0.05244374233409762,0.15348967607803643
1789571730740781300,0.63178125,0.1122767181366682,0.042935617015510796,0.15714491064995526
1789571730750827300,0.6418271484375,0.0936024128049612,0.07661284568980335,0.10339973032847047
1789571730760873000,0.651873046875,0.10625438910722732,0.047747255080938335,0.022076588055863974
1789571730770918100,0.661918212890625,0.13417232360243797,0.0317541516572237,0.04662913777120411
1789571730780964000,0.671964111328125,0.10576982046067714,0.070796560626477,0.07208886545933782
1789571730791010000,0.682010009765625,0.019241291564702986,0.06237301567420363,0.017432926968485116
1789571730801055200,0.69205517578125,-0.020641806012392044,0.028083938711881636,0.03563471941761672
1789571730811101200,0.70210107421875,0.011962824994325638,0.006977145536243915,0.06759338067099452
1789571730821147100,0.712147216796875,-0.02260170790851116,0.01793839227259159,0.02238601933121681
1789571730831192300,0.7221923828125,-0.06202478675842285,0.010973813956975937,-0.005719765886291861
1789571730841238300,0.73223828125,-0.06698913116753101,-0.03339402781873941,0.0537910652898252
1789571730851283200,0.742283203125,-0.04145020076334476,-0.031838761200755836,0.09020824032202363
1789571730861329200,0.7523291015625,-0.012474866169691085,-0.007671119149774312,0.10962386554032563
1789571730871375000,0.762375,-0.01102817449271679,-0.012310469388216734,0.15122786862589419
1789571730881420000,0.772419921875,-0.04335749568939209,0.0064409928329288955,0.19144991583377122
1789571730891466200,0.78246630859375,-0.09104688310325146,0.019468378318846225,0.1573321768503636
1789571730901512200,0.79251220703125,-0.10220832858681678,0.03477773726209998,0.12352226170711218
1789571730911557000,0.80255712890625,-0.05546352854669094,0.03942103302329778,0.10373794930689036
1789571730921603300,0.812603271484375,-0.008875964894890785,0.05394917846098542,0.11172302977666258
1789571730931649300,0.822649169921875,0.002831424033641815,0.07155366260409354,0.08108852979913353
1789571730941694200,0.832694091796875,-0.06600538082718849,0.07927081285268067,0.049169250708073375
1789571730951740200,0.842740234375,-0.1933399673640728,0.09237944688126444,0.09309490167424082
1789571730961785000,0.85278515625,-0.27403379875719547,0.09892521526291966,0.0612008300896734
1789571730971831000,0.8628310546875,-0.25051497600376604,0.1253504269823432,0.052949061507731675
1789571730981877000,0.872876953125,-0.18390052336752413,0.26678397375941276,0.22586802600324152
1789571730991922200,0.882922119140625,-0.21731705527901649,0.015333908862620592,0.41820904545783993
1789571731001968000,0.892968017578125,-0.1338046593338251,-0.09471300439536572,0.30227884631492197
1789571731012014000,0.90301416015625,-0.09268763604760169,0.13983692523539065,0.2539369863416999
1789571731022059300,0.913059326171875,-0.06516776095926761,0.09531053189709782,0.27462131632156667
1789571731032105200,0.923105224609375,0.2476718615323305,-0.14706307709664104,0.292159311099723
1789571731042151200,0.933151123046875,0.13318798874020576,-0.2061013953901827,-0.19939736770689487
1789571731052196400,0.9431962890625,0.322942498832941,0.1542988735690713,-0.23824900334440172
1789571731062242300,0.9532421875,0.2856207761764526,0.13974851629957555,0.04918839379996061
1789571731072288300,0.963288330078125,0.3088911771267652,0.03154021664559841,0.18151333597004413
1789571731082333200,0.973333251953125,0.24752280845046043,-0.016923516141623258,0.0650711687169969
1789571731092379100,0.983379150390625,0.11178338166177272,0.09249065217077732,0.1248888008199632
1789571731102424000,0.993424072265625,0.07704758384525776,0.12003639235273003,0.14007307207882402
1789571731112470300,1.00347021484375,0.13297989894747733,0.09808131178468465,0.17602226427309214
1789571731122516200,1.01351611328125,0.20715514222681522,-0.01478606572151184,0.20583974877931177
1789571731132561200,1.02356103515625,0.2582762576550245,-0.038392420627921815,0.17399835723005233
1789571731142607000,1.033607177734375,0.2125058556050062,0.029731852049380537,0.10870309743359684
1789571731152653300,1.0436533203125,0.1294341891646385,0.07508081381693482,0.041655441011860965
1789571731162698200,1.0536982421875,0.09377601580619811,0.08665113236233592,0.014898951511457561
1789571731172744200,1.063744140625,0.08210077558159827,0.1227986966729164,0.03966156378090381
1789571731182790400,1.073790283203125,0.059120882010459896,0.13420447230637073,0.025821692868322133
1789571731192835000,1.0838349609375,0.025414427241683003,0.13543313731849194,0.0208359403450042
1789571731202881000,1.093881103515625,0.0032552024036645887,0.1451515443868935,0.016728797287121414
1789571731212927000,1.103927001953125,0.05021802910864353,0.13105652966946363,0.009237564748898149
1789571731222972200,1.11397216796875,0.15308336029946804,0.08546542970910669,0.022717662438377736
1789571731233018000,1.12401806640625,0.264815888556838,0.06783917212560772,0.08231609883271157
1789571731243063300,1.134063232421875,0.3392810546934604,0.042069355574995276,0.08763006039708852
1789571731253109200,1.144109130859375,0.3589730126351118,0.024611878687143325,0.03700798053219914
1789571731263155200,1.1541552734375,0.3227735720068216,0.027798253638297316,0.07261807696521282
1789571731273200400,1.164200439453125,0.16317746881246567,0.047603024304658174,0.10876549514532088
1789571731283246300,1.174246337890625,0.0041477673292160035,0.038038784884661433,0.05552497641034424
1789571731293292300,1.184292236328125,-0.059086979740858074,0.051011517573893064,0.07262399524934589
1789571731303337200,1.194337158203125,-0.14925006574690342,0.047484220230579376,0.16484328313283622
1789571731313383200,1.204383056640625,-0.2796118911504745,0.08828077939078212,0.09378777930922806
1789571731323429000,1.21442919921875,-0.3589899637699127,0.15186433989852666,0.00469787549264729
1789571731333474000,1.22447412109375,-0.3058680299133062,0.11099953780770301,-0.015161913296580313
1789571731343520300,1.234520263671875,-0.20067279447019098,0.09428265015408396,0.0871188960045576
1789571731353565200,1.244565185546875,-0.1394429574817419,0.07201864976733922,0.06585187076590955
1789571731363611100,1.254611083984375,-0.11534311996996402,0.0851658622406423,0.05001680744811892
1789571731373657300,1.2646572265625,-0.10906827748417854,0.06288578750193119,0.049195919519290324
1789571731383702300,1.274702392578125,-0.07079086153805256,0.02200783366858959,0.057655120306834576
1789571731393748200,1.284748291015625,-0.01918576198518276,0.032192250813543793,0.10322327778302133
1789571731403794200,1.294794189453125,-0.01573240666091442,0.02808613066896796,0.12380297834463416
1789571731413839000,1.304839111328125,-0.04562427157759666,0.027870295961201188,0.11861059733331203
1789571731423885000,1.314885009765625,-0.056657122245430944,0.028696517652273178,0.09235467776618897
1789571731433931000,1.324930908203125,-0.0581838934212923,0.07588350850194692,0.10865224402919411
1789571731443976200,1.33497607421875,-0.1507365049123764,0.07366524793058633,0.09966039766967295
1789571731454022100,1.345022216796875,-0.2148451122075319,0.0567209812618792,0.0905388605158776
1789571731464068000,1.355068115234375,-0.18871055399775505,0.08210282140821218,0.10476005889624357
1789571731474113300,1.36511328125,-0.1463759716153145,0.08185118473470211,0.1608019718527794
1789571731484159200,1.3751591796875,-0.044783729100227355,0.059332771195471284,0.16571728948839007
1789571731494204700,1.38520458984375,0.06787994252741336,0.06746215550675988,0.1590854502584785
1789571731504251000,1.3952509765625,0.13944412652552127,0.05360562572032213,0.10427497879303992
1789571731514296800,1.405296875,0.20385551615953446,0.03939122240692377,0.11958616436719893
1789571731524341500,1.415341552734375,0.22739362813532352,0.03025193040072918,0.13484854236356913
1789571731534387700,1.4253876953125,0.2172457436084747,-0.0065115738511085505,0.09896094416342675
1789571731544433700,1.43543359375,0.21347966907322405,-0.023336451923847198,0.130917340394482
1789571731554478600,1.445478515625,0.20529811618328092,0.0066834232866764065,0.14765147144384683
1789571731564524500,1.455524658203125,0.1354734693288803,0.029800971762835977,0.07719656386189162
1789571731574570800,1.46557080078125,0.04581657927930355,0.036461306434869764,0.040284737180545926
1789571731584615700,1.47561572265625,-0.034403789383172984,0.06860168093070387,0.03840864111036062
1789571731594661600,1.48566162109375,-0.06554536210000515,0.07701528901085257,0.010887889239192008
1789571731604706800,1.495706787109375,-0.11340367633998394,0.09424757884070277,0.0029665947206318375
1789571731614752800,1.505752685546875,-0.12701777567267417,0.0894512844748795,-0.04234473845027387
1789571731624798500,1.515798583984375,-0.06137070676386356,0.08792728977799415,-0.06903342341147363
1789571731634843600,1.52584375,0.0246346750408411,0.08511004040017724,-0.030752354203537106
1789571731644889600,1.5358896484375,0.08938391832709312,0.04679565344452858,-0.01748122308962047
1789571731654935600,1.545935546875,0.11065350084900856,0.11269129028692841,-0.061177010822668666
1789571731664980700,1.555980712890625,0.15228139626681803,0.09725713592022657,-0.003969415087625384
1789571731675026700,1.566026611328125,0.16851415366530417,0.0620987287774682,0.09072240038923919
1789571731685072600,1.57607275390625,0.11319675559103488,0.06781915225088596,0.13376710380241275
1789571731695117800,1.586117919921875,0.057661915373802185,0.11147913801819086,0.1414844001814723
1789571731705163800,1.596163818359375,0.03162088066637516,0.12027955345883964,0.1271495853587985
1789571731715209700,1.606209716796875,-0.007238134559988975,0.08899930292367934,0.13110796759575605
1789571731725254700,1.616254638671875,0.051259062594175335,0.07424874690696597,0.16244710871130227
1789571731735300600,1.626300537109375,0.1112836154460907,0.08549889358729124,0.1994341195207089
1789571731745345500,1.636345458984375,0.14475158528387547,0.06048617901429534,0.1967620507672429
1789571731755391500,1.6463916015625,0.1413999367684126,0.034657179622352124,0.22644283021651207
1789571731765437700,1.656437744140625,0.14040449599027632,0.04920081489011645,0.19492570218555627
1789571731775482600,1.666482666015625,0.08345745088756083,0.04920432202145457,0.1686276970423758
1789571731785528600,1.676528564453125,-0.012746668848395346,0.0540631602294743,0.13023936806768177
1789571731795574800,1.68657470703125,-0.010466448956727981,0.017018500948697328,0.10832176996581255
1789571731805619700,1.69661962890625,0.05403378800451755,0.011185118620097637,0.09176635648421942
1789571731815665700,1.706665771484375,0.08704173911511898,0.015164105253666639,0.07050605324730276
1789571731825711600,1.716711669921875,0.06104629711508751,-0.011240355938673018,0.044083544941619035
1789571731835756500,1.726756591796875,0.05357143118977546,-0.014658347688615321,0.012377324079349637
1789571731845802500,1.736802490234375,0.039136663123965264,-0.0025223580844700336,-0.005147884282469749
1789571731855847700,1.74684765625,-0.04193535393178463,0.026454291683435438,-0.004627952061593533
1789571731865893600,1.7568935546875,-0.12883563874959944,0.020162205801904202,-0.017525427557528016
1789571731875939600,1.766939697265625,-0.16496318318545816,0.00424509022384882,-0.03982026147395372
1789571731885984800,1.77698486328125,-0.10597498764395713,0.018608254358172416,-0.029227628854289648
1789571731896030700,1.78703076171875,-0.07066635837554931,0.0488629612378776,0.04920870593562722
1789571731906076700,1.79707666015625,-0.0935632498383522,0.046020285157859324,0.062323696639761325
1789571731916121600,1.80712158203125,-0.08716799584329128,0.014285568853467701,0.01859963266029954
1789571731926167800,1.817167724609375,-0.05948445462584495,0.04574979765340686,0.08080642492212355
1789571731936213800,1.8272138671875,-0.012348609441518783,0.019019319377094505,0.13875526747852562
1789571731946258400,1.837258544921875,0.01193476794362068,0.018824089065939187,0.13935286804549396
1789571731956304600,1.8473046875,0.004225508740544319,0.06858692175298929,0.13238536712042986
1789571731966349600,1.857349609375,-0.05664367824196815,0.04685980472192168,0.13875490215234457
1789571731976395500,1.8673955078125,-0.061949383434653275,0.039017274527996776,0.20266250698268412
1789571731986441700,1.877441650390625,-0.029634090763330456,0.04703150802701711,0.21847893866524098
1789571731996486700,1.887486572265625,0.00015548282265663146,0.07712517912611365,0.20239749937094748
1789571732006532600,1.89753271484375,-0.03793722420632839,0.11251023463159798,0.19023834808692336
1789571732016578600,1.90757861328125,-0.08002280026376248,0.10092501077800989,0.14339841710925103
1789571732026623700,1.917623779296875,-0.022202479457855223,0.10598433999419211,0.1904628775577992
1789571732036669700,1.927669677734375,0.004939794489741325,0.08100202055945992,0.2532069915667176
1789571732046715600,1.937715576171875,0.06731178725063801,0.07655395510941744,0.24225451265871523
1789571732056760600,1.947760498046875,0.07533610375225544,0.09442147410288453,0.1808824907205999
1789571732066806500,1.957806640625,-0.0019680852025747296,0.12338219564929603,0.17308189997225998
1789571732076852500,1.9678525390625,-0.08297112867534161,0.10015870258063077,0.22826807288229464
1789571732086897700,1.977897705078125,-0.1154442422568798,0.0825451583482325,0.262212428060174
1789571732096943600,1.987943603515625,-0.06836392665207386,0.07434402397498488,0.2396330050487071
1789571732106988500,1.997988525390625,-0.009846855753660202,0.08569763102978467,0.22492599591277537
1789571732117034800,2.00803466796875,-0.011373042407631873,0.07050532259494066,0.20448658060468733
1789571732127080700,2.018080810546875,-0.031956980752944945,0.06853212282583117,0.15832900586798787
1789571732137125600,2.028125732421875,-0.06726444097757339,0.09201149035170673,0.15212562118321657
1789571732147171800,2.038171875,-0.0877507641673088,0.08189400096312165,0.20763912635147572
1789571732157217800,2.0482177734375,-0.12056173140108585,0.10408552063554524,0.17154314609766005
1789571732167262500,2.058262451171875,-0.15055997930169104,0.11679156521260738,0.08198167924657464
1789571732177308700,2.06830859375,-0.11905892562270164,0.09377411611005664,0.06725516169257462
1789571732187353600,2.078353515625,-0.06584580635130405,0.07078866958096623,0.09618409986123443
1789571732197399600,2.088399658203125,0.017155717462301254,0.08351224981471896,0.0900771612882614
1789571732207445500,2.098445556640625,0.07911036159396172,0.09376096436753868,0.09893792861402034
1789571732217490700,2.10849072265625,0.0987573113501072,0.05972118599116802,0.12464154806062579
1789571732227536600,2.11853662109375,0.13151508709192275,0.06239084359183907,0.16208441287875175
1789571732237582600,2.12858251953125,0.13158932137191295,0.09031213908791541,0.17200835245661436
1789571732247627800,2.138627685546875,0.06627659898400307,0.08939677780866623,0.1637995462335646
1789571732257673700,2.148673828125,-0.017775310665369033,0.08133607481941581,0.18946334512643515
1789571732267719700,2.1587197265625,-0.09285422478616237,0.10210808308273553,0.21244382321946323
1789571732277764600,2.1687646484375,-0.10216624301075934,0.1399709268786013,0.20451646428629755
1789571732287810600,2.178810546875,-0.08570552207529544,0.13686740790531038,0.2121101342856884
1789571732297856500,2.1888564453125,-0.06314765330851077,0.11864493799433111,0.25314978148676454
1789571732307901700,2.198901611328125,0.0028629882156848904,0.10675795471519231,0.25368608032055195
1789571732317947600,2.20894775390625,0.05354162057340145,0.09445552250295877,0.22441212810650465
1789571732327992600,2.21899267578125,0.03499824814498424,0.12480083027556538,0.2061431156400591
1789571732338038800,2.229038818359375,0.054445291414856906,0.10428630390465259,0.2210415556948632
1789571732348084700,2.239084716796875,0.037142858958244325,0.11501374188512563,0.22797267013229428
1789571732358129700,2.249129638671875,-0.04055295966267586,0.1404711314857006,0.21507811724580822
1789571732368175900,2.25917578125,-0.07602291697263718,0.1377821846626699,0.23078217459507286
1789571732378221800,2.269221923828125,-0.0533826306194067,0.15548603752702472,0.24951120578870176
1789571732388266500,2.2792666015625,-0.07124094339311123,0.16630042313858864,0.22516287340857088
1789571732398312400,2.2893125,-0.0814203921020031,0.17922040272727607,0.20562954009473322
1789571732408358700,2.299358642578125,-0.052346273308992386,0.14822072269916534,0.23071597749106584
1789571732418403600,2.309403564453125,0.014283961418271063,0.14576543850153684,0.23560630681589245
1789571732428449500,2.319449462890625,0.09059913933575153,0.15009133887663484,0.23140593251660466
1789571732438494700,2.32949462890625,0.11544248869121074,0.15590338615626095,0.23890396012179552
1789571732448540700,2.339540771484375,0.12695581635236738,0.12539967295154927,0.22323146695457396
1789571732458586600,2.349586669921875,0.09746960962712764,0.11235095241665839,0.2205190661907196
1789571732468631800,2.3596318359375,0.0593126051902771,0.09161474611908196,0.21878742009252308
1789571732478677800,2.369677734375,0.007971709531545638,0.09248407629951834,0.18464856525585055
1789571732488723700,2.3797236328125,-0.06000351006388664,0.1393666773751378,0.17434519790634512
1789571732498769000,2.389768798828125,-0.16616028401553629,0.1474327871918678,0.18566015345118939
1789571732508814800,2.39981494140625,-0.24243629896640775,0.14394362990185616,0.17659290376789866
1789571732518860500,2.409860595703125,-0.2409054361373186,0.15618483344614506,0.16354316031970081
1789571732528905700,2.41990576171875,-0.2346048746883869,0.17061974764242768,0.16761304010711608
1789571732538951700,2.42995166015625,-0.21659984692037104,0.16169278321266173,0.16426044174358248
1789571732548996600,2.43999658203125,-0.21233517521321774,0.1836139615111053,0.21072094494961202
1789571732559042800,2.450042724609375,-0.20720658015310764,0.14079977891817688,0.1936774556901306
1789571732569088800,2.4600888671875,-0.14874854596555231,0.13153452244475483,0.17635368818454444
1789571732579133700,2.4701337890625,-0.07661094599366187,0.14541794023811816,0.1923482529129833
1789571732589179600,2.4801796875,-0.026548399707674978,0.11400412645116448,0.20966266806833445
1789571732599225900,2.490225830078125,0.015171850168704986,0.08794248734712601,0.22503157517910002
1789571732609270800,2.500270751953125,0.00265606746673584,0.11813611168935895,0.23053294907435773
1789571732619316500,2.51031640625,-0.04259761723279953,0.10620324344187974,0.22001118973381817
1789571732629361700,2.520361572265625,-0.10490940423905849,0.0826443809390068,0.24254582375548778
1789571732639407600,2.53040771484375,-0.11235270598232745,0.11751827205196022,0.28692550209946927
1789571732649453600,2.54045361328125,-0.05334580574035644,0.11377499387040733,0.3325277079757303
1789571732659498800,2.550498779296875,-0.01437865396440029,0.13332564364522695,0.34419863735139367
1789571732669544700,2.560544677734375,0.0018505963027477263,0.14401581835523247,0.3402777375806123
1789571732679590700,2.570590576171875,-0.007844283759593963,0.15109540135264396,0.3141216251261532
1789571732689635800,2.5806357421875,0.002561374920606613,0.16963935830295085,0.31105142390057444
1789571732699681800,2.590681884765625,-0.0644230800718069,0.20458543786928057,0.30171237153857944
1789571732709727700,2.600727783203125,-0.1554459977775812,0.22966902572140097,0.287715921824798
1789571732719772700,2.610772705078125,-0.21201544173955916,0.24589476885721087,0.2926269286114722
1789571732729818600,2.620818603515625,-0.23715105203986167,0.2669780350267887,0.24599983666688202
1789571732739863600,2.630863525390625,-0.23847499412000178,0.2769436948545277,0.22359262841716407
1789571732749909800,2.64090966796875,-0.18083178344666956,0.28775647303089497,0.19448935659490524
1789571732759955700,2.650955810546875,-0.06882043824791907,0.2603136087015271,0.1827175971932709
1789571732770000600,2.661000732421875,0.02070551889836788,0.2498071199953556,0.18329890421256423
1789571732780046600,2.671046630859375,0.06606967823505401,0.24287556716650724,0.16661832998134196
1789571732790092800,2.6810927734375,0.11164835710525511,0.2665459272198379,0.1640621426925063
1789571732800137700,2.6911376953125,0.10491817206740378,0.2855686075977981,0.16001074840985238
1789571732810183700,2.70118359375,0.07282733580172061,0.289082460937649,0.11782010454274713
1789571732820228900,2.711228759765625,0.05267419008910656,0.28398367649391293,0.09795001355521381
1789571732830274600,2.721274658203125,0.08032382903695107,0.28786826284229755,0.0496811457529664
1789571732840320500,2.731320556640625,0.11058569630980492,0.2729268604286015,0.01221175825409591
1789571732850365700,2.74136572265625,0.1892097356915474,0.2391279050707817,0.0028176147039979693
1789571732860411600,2.75141162109375,0.24106501061320304,0.25113603051155803,-0.003855360253900289
1789571732870457600,2.76145751953125,0.2564671624064445,0.2572438458673656,-0.02269683884605765
1789571732880502800,2.771502685546875,0.2348316691815853,0.27425051024779673,-0.03705445002242923
1789571732890548700,2.781548828125,0.14594517898261547,0.33206177096441386,-0.0642906858637929
1789571732900594700,2.7915947265625,0.09022446080446243,0.3763486564584076,-0.07354943953119218
1789571732910639900,2.801639892578125,0.05931903493106365,0.4266737992033362,0.00871478298380971
1789571732920685800,2.811685791015625,0.10820376960933208,0.6850975025050342,-0.010043985760957002
1789571732930730500,2.82173046875,0.16692951482236384,0.4302757692180574,-0.15284648280367255
1789571732940776700,2.831776611328125,0.2520569447487593,0.8267033371090888,0.6403600236993283
1789571732950822700,2.84182275390625,0.5976794774234294,1.1789796285845338,1.0697578410390765
1789571732960867600,2.85186767578125,0.65439329829216,1.1951355213545263,0.7874736619394272
1789571732970913500,2.86191357421875,-0.3395569490253925,1.237071605938673,0.7121984215289354
1789571732980959700,2.871959716796875,-1.1546025815665721,1.093481904041022,0.3335826238561421
1789571732991004700,2.882004638671875,-1.2094552847385405,1.0983676302559673,-0.06034991234876215
1789571733001050600,2.892050537109375,-0.8596756323844194,1.1353184737734496,-0.3561275600761175
1789571733011095800,2.902095703125,-0.6587286971479654,0.30096242995411154,-0.8810147730112076
1789571733021141800,2.912141845703125,-1.1007254454284905,-0.28022841561362144,-0.9285881328299641
1789571733031187700,2.922187744140625,-1.339717741420865,-0.33069691235199566,-1.407193779322505
1789571733041232600,2.932232666015625,-1.5546394259959457,-0.5419567134186625,-1.830199411407113
1789571733051278600,2.942278564453125,-1.2327934902280568,-0.3910911752991378,-1.9273615625202654
1789571733061324500,2.952324462890625,0.9466659335732459,1.0191184447132051,-0.9466052894271909
1789571733071369700,2.96236962890625,1.9617261889368294,1.8438216940462588,0.9688115682773292
1789571733081415700,2.972415771484375,0.9774310741931199,1.9867209294617174,2.5036571833923458
1789571733091460600,2.982460693359375,0.7338251469254493,2.1027242669060824,2.0597782746270297
1789571733101506800,2.9925068359375,0.36008126613795755,2.0330079027317463,1.9011431254193185
1789571733111552800,3.002552734375,-0.2984679827898741,2.1924127211377025,2.20902454098165
1789571733121597700,3.01259765625,-0.855802590343356,2.259660649371892,2.4102976394325495
1789571733131643600,3.0226435546875,-1.7502262955039738,2.0148244496569037,2.7201725668996573
1789571733141689900,3.03268994140625,-2.558342421042919,1.1161377532895653,2.621524853403866
1789571733151734500,3.042734619140625,-3.273901843437552,0.36533078416399656,1.5535606908485293
1789571733161780500,3.052780517578125,-3.706068687099218,0.2468003393948078,0.49788054806590076
1789571733171826700,3.06282666015625,-3.6058968327760694,0.08387553016915916,-0.3399164299875498
1789571733181871600,3.07287158203125,-3.1253608027428386,0.22036270658522844,-0.8914771303147077
1789571733191917600,3.08291748046875,-3.10409706543982,0.1280893504269421,-1.1568290254443883
1789571733201962800,3.092962646484375,-3.6140696178376674,0.014193214394897222,-1.6444368935599922
1789571733212008700,3.1030087890625,-4.119677545285224,0.24275807826668022,-1.8162071264117956
1789571733222054700,3.1130546875,-3.9138130273908374,2.174007880397141,-0.863407366258651
1789571733232099800,3.123099853515625,-4.594182478460669,3.564141511586308,0.8951303921252488
1789571733242145800,3.133145751953125,-4.245116527333855,-1.07401016472131,1.7585127700731158
1789571733252191700,3.143191650390625,-3.5742286058366295,-0.21953297776281833,2.3897996258050203
1789571733262236700,3.153236572265625,-3.5586826616585254,1.4568117967113852,1.9664163925796747
1789571733272282600,3.16328271484375,-2.5499668068856,2.115698607030511,1.2876359642669557
1789571733282327600,3.17332763671875,-2.26766085434556,2.007158737334609,1.7514222272902726
1789571733292373800,3.183373779296875,-2.593230779072642,1.2779925221309065,2.0883035273656247
1789571733302419700,3.193419677734375,-2.8784587565392252,0.8189236430183052,1.9391683201700447
1789571733312464600,3.203464599609375,-3.2207641274899244,0.5572609577953815,1.1419669718772172
1789571733322510600,3.213510498046875,-2.8797043726861475,0.8078054521545768,0.06670841453000903
1789571733332556800,3.223556884765625,-1.893102150043845,1.048545468597114,-0.8976002893701195
1789571733342601700,3.233601806640625,-0.8730915787965059,1.1272411119103432,-1.4153236020252107
1789571733352647700,3.243647705078125,-0.16243454149067402,1.2344647844411432,-1.5513189032711088
1789571733362692600,3.253692626953125,0.1049088197171688,1.390514008808881,-1.381330585400015
1789571733372738600,3.263738525390625,-0.08608779939115047,1.4766680053040384,-0.7681459342002869
1789571733382784500,3.273784423828125,-0.3126081518232822,1.4174375254392624,-0.14871011365130543
1789571733392829700,3.28382958984375,-0.9092074327945708,1.2604982203640043,0.30287220909819007
1789571733402875600,3.293875732421875,-1.8189380126804113,0.8497225397773086,1.1340808948025107
1789571733412921600,3.303921630859375,-2.3294921643584967,0.44030353449657555,2.521214175131917
1789571733422966800,3.313966796875,-2.28548994102478,-0.2826185256205499,3.5884660977646705
1789571733433012700,3.3240126953125,-1.3460130421727894,-0.9592061200641095,3.210965787053108
1789571733443057700,3.3340576171875,-0.5978793839097023,-1.7282044333100317,2.8274299955695867
1789571733453103900,3.344103759765625,-0.35270050823688504,-2.37730430136919,2.5412583075121042
1789571733463149800,3.35414990234375,-1.0835481006562708,-2.9386759093537926,2.319635810124129
1789571733473194500,3.364194580078125,-2.051943050956726,-2.936813914874196,1.8431794506199657
1789571733483240700,3.37424072265625,-2.4554694910675288,-1.3907958944901824,0.2731955943673849
1789571733493287000,3.384286865234375,-2.883275216910243,0.6372562855303288,-0.8366077682688832
1789571733503331800,3.394331787109375,-2.8607448206722736,0.9180041949734091,0.7994818604454398
1789571733513377800,3.404377685546875,-2.2109353430390355,-0.7639429295524954,1.8207000539168714
1789571733523423000,3.414423095703125,-2.419045009511709,-2.2491420318365094,1.063209953765571
1789571733533469000,3.424468994140625,-3.6394337761968374,-2.4082269706383346,-0.36883097430467604
1789571733543515000,3.434514892578125,-4.757454639819264,-2.2599232458308336,-1.9381278712064027
1789571733553560000,3.44456005859375,-4.966080439120531,-2.157459188917279,-4.0361557969897985
1789571733563606000,3.45460595703125,-4.292846831279993,-2.4078636902838944,-5.699730814000964
1789571733573652000,3.46465185546875,-3.5648856079518794,-3.1539699343726038,-6.026726387616992
1789571733583697000,3.47469677734375,-3.229475257211923,-4.186208411291242,-4.854661214596033
1789571733593742800,3.484742919921875,-3.2802976819545027,-6.1473851496517655,-1.4670505743920803
1789571733603787800,3.494787841796875,-3.5126965710312126,-7.429111889874934,0.738210230141878
1789571733613834000,3.504833984375,-3.5756411029830573,-7.982426740393042,1.6155980448275804
1789571733623880000,3.5148798828125,-3.171861857154965,-8.224879990494252,2.3869044888854027
1789571733633924900,3.5249248046875,-2.548801270237565,-8.120674350610376,2.8542098659455775
1789571733643971000,3.53497119140625,-2.2342092511206864,-7.913340344685316,3.3965181692808866
1789571733654017000,3.54501708984375,-1.856046384847164,-7.582695016390085,3.661583064162731
1789571733664062000,3.55506201171875,-1.2038637483417987,-7.140292025396227,3.429667574688792
1789571733674108000,3.56510791015625,-0.4870413202740252,-6.6306187482059,3.6350972082972524
1789571733684152800,3.57515283203125,0.3350812649160623,-6.144556648227572,4.340003719252348
1789571733694198800,3.58519873046875,1.391210612770915,-5.7623839617908,4.870879943469166
1789571733704244700,3.59524462890625,2.2196938190340996,-5.691447554302215,4.820685879758
1789571733714290000,3.6052900390625,2.5179683250784874,-5.54070871130228,4.900542091283202
1789571733724335900,3.6153359375,2.725232772898674,-5.395905688092112,5.160391297343373
1789571733734381800,3.6253818359375,2.9146482602953907,-5.232119147470593,5.611551595288515
1789571733744427000,3.635427001953125,2.853582089436054,-4.739774021700025,6.05183160277903
1789571733754473000,3.645472900390625,3.0229332784473892,-4.476158448843658,6.616321342784166
1789571733764519000,3.655518798828125,3.5906279519736763,-4.462672067543864,6.944377823629975
1789571733774564000,3.665564208984375,4.201722206765413,-4.464627877786755,6.616923400330543
1789571733784610000,3.675610107421875,4.851715224272012,-4.388309777259827,6.132235511314868
1789571733794654700,3.68565478515625,5.26589925199747,-4.2135389012873175,6.100013157624006
1789571733804701000,3.695700927734375,5.072974295175075,-3.7903251794099804,6.24031068610847
1789571733814747000,3.705746826171875,4.487224909520149,-3.273152486374974,6.223854056826234
1789571733824791800,3.715791748046875,4.383122730010748,-2.670561271512508,6.56879328341186
1789571733834838000,3.725838134765625,4.432236597269773,-1.8709481859028338,7.102082998511195
1789571733844884000,3.735884033203125,3.8551977568149565,-0.7667424971431493,7.42891665956378
1789571733854929000,3.745928955078125,2.96994753819108,0.13114450021386145,7.553639602297544
1789571733864974800,3.755974853515625,2.1465467497587203,0.8155272785782813,7.360229492306709
1789571733875020000,3.76602001953125,1.5480395893394947,1.4259475796312093,7.1248115476697675
1789571733885066000,3.77606591796875,1.3599410297602414,1.8842203399300574,6.80891312212944
1789571733895112000,3.78611181640625,1.23286246381104,2.387996960297227,6.521673804840445
1789571733905156900,3.796156982421875,0.8864707733947783,2.767454542556405,6.4236611743777985
1789571733915202800,3.806202880859375,0.5127390945017337,2.886369091272354,6.381169355607033
1789571733925248800,3.816248779296875,0.13739376986697316,2.983261193272471,6.248723709666729
1789571733935294000,3.8262939453125,-0.2965408141195774,3.1227666945964097,5.9435939309000965
1789571733945340000,3.83633984375,-0.8314609068997204,3.1798809129595753,5.841632270550727
1789571733955385000,3.846385009765625,-1.554670990177989,3.2881361204951998,5.7585448220193385
1789571733965431000,3.85643115234375,-2.273438853225112,3.6060552382081745,5.6177282380968325
1789571733975477000,3.86647705078125,-2.9441531717211005,3.9981595360726114,5.7308478367984295
1789571733985522000,3.87652197265625,-3.454551840576529,4.276529318207502,5.8149155285388225
1789571733995568000,3.886568115234375,-3.8053608359783886,4.419815507113933,5.8019075784057375
1789571734005614000,3.896614013671875,-4.018627739083767,4.376848472046852,5.6471150761008255
1789571734015658800,3.90665869140625,-4.054014694285392,4.309697428315878,5.497361737006902
1789571734025705000,3.916705078125,-4.1151083376735444,4.1537668618917465,5.438959816920757
1789571734035750000,3.92675,-4.1096833900153635,3.927323666349053,5.3669525653302665
1789571734045795800,3.9367958984375,-3.662452248212695,3.7623885402143,5.14040357132554
1789571734055842000,3.946842041015625,-3.5450068952664733,3.5907623920083043,5.155689987784624
1789571734065887000,3.956886962890625,-3.658569269299507,3.4682518646270033,5.146750894525647
1789571734075933000,3.966932861328125,-3.465715039625764,3.1994577200889585,5.274708581396937
1789571734085979000,3.976978759765625,-3.21817089612633,3.1648470099568367,5.086323606091738
1789571734096024000,3.987024169921875,-3.0127023918122053,3.0539445027828216,4.90548773099184
1789571734106070000,3.997070068359375,-2.828416083997488,2.796552042225003,4.799004793825746
1789571734116115000,4.007114990234375,-2.5582202559679743,2.6589877380967137,4.781265138995647
1789571734126161000,4.017160888671875,-2.3038731544554234,2.4996593459278342,4.751661151109635
1789571734136206800,4.027206787109375,-2.129171252065897,2.4648528209626672,4.580694928117096
1789571734146252000,4.037251953125,-2.2013070984721184,2.51822434566617,4.4188297109469765
1789571734156298000,4.047298095703125,-2.368399841032177,2.5460171924769877,4.576063468924165
1789571734166344000,4.057343994140625,-2.626385445177555,2.532753806278109,4.660197503899037
1789571734176388900,4.067388916015625,-2.83402515605092,2.270971001806855,4.480063055066764
1789571734186435000,4.07743505859375,-2.890026444736123,1.420420340642333,4.8006803258225315
1789571734196481000,4.08748095703125,-2.934838815408945,0.5080570741653442,5.138800812304019
1789571734206526000,4.09752587890625,-2.890130489632487,-0.36274785499870776,5.100899243932962
1789571734216572200,4.107572265625,-2.6190380050241946,-0.8741928180366754,4.627562185493112
1789571734226616800,4.117616943359375,-2.1678671856850382,-1.4291022442698478,5.227118562704325
1789571734236662800,4.127662841796875,-2.0866437774598596,-2.4459125581711527,6.159975751155614
1789571734246709000,4.137708984375,-1.9330426768966018,-2.918969046103954,6.488659423989057
1789571734256754000,4.14775390625,-1.7276989680059254,-2.7658459383159872,6.578389379274845
1789571734266799900,4.1577998046875,-1.3347089733481405,-2.3419693686157466,6.634265580275654
1789571734276845000,4.167844970703125,-0.6395294911593198,-1.6902315532684324,6.739499978685378
1789571734286891000,4.17789111328125,-0.18427410592027008,-0.3108843967705965,6.491681402158737
1789571734296937000,4.18793701171875,0.025470468277856706,1.0014590155124663,6.5423571119070045
1789571734306982100,4.197982177734375,0.1448842717528343,1.4067857830435038,7.612225062257051
1789571734317028000,4.208028076171875,0.3648590749990195,2.5405115807980296,6.795040664121508
1789571734327074000,4.218073974609375,0.7671200982838868,2.7248972573339936,6.14940876443386
1789571734337119000,4.228118896484375,0.6746225049156696,2.0409405954271556,5.641323048695922
1789571734347165000,4.2381650390625,0.39067627435531466,1.10233054253757,4.82844423879981
1789571734357211000,4.2482109375,0.27490404225308446,0.14644319163262842,4.050841909468174
1789571734367255800,4.258255859375,0.14876955222096294,-0.8334761922448873,3.3451983164101837
1789571734377302000,4.268302001953125,0.11013798907492309,-1.705520307815075,2.776533336547017
1789571734387347000,4.278346923828125,0.26119945162534713,-2.3344693682491777,2.305990877261758
1789571734397393000,4.288392822265625,0.39175650734007356,-2.8170255059331653,1.8902508522659538
1789571734407439000,4.298439208984375,0.5538572868317365,-3.2398557814508675,1.5759429107874632
1789571734417484000,4.308484130859375,0.7158487607300281,-3.453782025247812,1.2206336813569068
1789571734427530000,4.318530029296875,0.8467384093999862,-3.432352868250012,0.8243769399881362
1789571734437576000,4.328575927734375,0.9437690430879593,-3.4132974546462296,0.43167642979621884
1789571734447620900,4.338620849609375,1.2500000610947608,-3.41439694032073,-0.016272504886984823
1789571734457666800,4.348666748046875,1.6957050162434577,-3.219459474632144,-0.7236135495126247
1789571734467712000,4.3587119140625,2.1149474964022636,-2.975643119484186,-1.3064315578907728
1789571734477758000,4.368758056640625,2.3490134419083595,-2.811630953413248,-1.6735346854895352
1789571734487804000,4.378803955078125,2.4134254160642623,-2.6735353188872337,-2.0941168898195026
1789571734497848300,4.388848388671875,2.438386838841438,-2.5368998200416564,-2.4459411997437477
1789571734507894300,4.398894287109375,2.4499440056443214,-2.5545781000733374,-2.767805255690217
1789571734517940200,4.408940185546875,2.2602526239156724,-2.686686769144237,-3.1365397838830944
1789571734527985400,4.4189853515625,2.0188474215626715,-2.7521125965178013,-3.5424352912127968
1789571734538031400,4.42903125,1.8593769905745983,-2.8025460219427942,-3.922074075257778
1789571734548076300,4.439076171875,1.7363339637517927,-2.9055253349021077,-4.255758917379379
1789571734558122500,4.44912255859375,1.6351836197853087,-3.0594647275090217,-4.508431363677978
1789571734568168200,4.459168212890625,1.5599837096333502,-3.125373662224412,-4.722341240862011
1789571734578213000,4.469213134765625,1.7125731489360332,-3.1275130123406645,-4.8187902752697465
1789571734588259300,4.47925927734375,1.7809458434164522,-3.1530916902333495,-4.854020578604937
1789571734598305300,4.48930517578125,1.8326374522089957,-3.205922824449837,-4.866576693317294
1789571734608350200,4.49935009765625,1.6809072600841521,-3.2666546487882733,-4.856068743306398
1789571734618396200,4.509396240234375,1.5207016466893255,-3.182462453885376,-4.881455113497376
1789571734628441300,4.51944140625,1.5760627377748488,-3.0214672975480554,-4.817738135868311
1789571734638487300,4.5294873046875,1.6629858189463615,-2.95489726857543,-4.749055060264468
1789571734648533200,4.539533203125,1.6393348942458628,-2.9858088319286704,-4.6722342709124085
1789571734658578400,4.549578369140625,1.4491910925745963,-3.157609459918737,-4.507802418124675
1789571734668624100,4.5596240234375,1.385861652958393,-3.3448940727666017,-4.358447722959518
1789571734678670000,4.569670166015625,1.56601261453405,-3.424453054910898,-4.265211220857501
1789571734688715300,4.57971533203125,1.677337146512419,-3.515457852438092,-4.208806612068415
1789571734698761200,4.58976123046875,1.7160782344475387,-3.6894153662011027,-4.1231472672224045
1789571734708806400,4.599806396484375,1.6260814449191092,-3.9564749420315026,-4.004840036749839
1789571734718852400,4.609852294921875,1.461503607789427,-4.282858521229029,-3.994649482125044
1789571734728898300,4.619898193359375,1.5043806264854966,-4.602893608182669,-3.9935570107132192
1789571734738943200,4.629943115234375,1.650657083249092,-4.855694064775109,-4.013035033643246
1789571734748989400,4.639989501953125,1.7736147698760032,-5.032492647182941,-4.132896507820487
1789571734759035400,4.650035400390625,1.9028722872994839,-5.219808531951904,-4.16979912828207
1789571734769080000,4.660080078125,1.8078151456415652,-5.6715749790966505,-4.269499273440242
1789571734779126300,4.670126220703125,1.6303681823275982,-6.315511765304207,-4.374817258480191
1789571734789172200,4.680172119140625,1.8417032405875622,-6.885754369747638,-4.440602274554967
1789571734799217200,4.690217041015625,2.097285729113966,-7.294927291312813,-4.609896180421114
1789571734809263000,4.70026318359375,1.9811070351026951,-7.653821393492818,-4.5212709715068335
1789571734819308300,4.710308349609375,1.6528361808538437,-8.021300368666648,-4.250400605216622
1789571734829354200,4.720354248046875,1.3255927699565886,-8.198803299951553,-4.068191103675961
1789571734839400200,4.730400146484375,1.0422668267190456,-8.02097888162732,-3.6956612748533484
1789571734849445400,4.7404453125,1.1131692588727922,-7.5451716336816546,-2.9379841276973484
1789571734859491300,4.7504912109375,1.2102139941513537,-6.973575861063599,-1.9319927294522523
1789571734869537300,4.760537353515625,1.1563023712217808,-6.389695191890001,-0.9442313999027013
1789571734879582200,4.770582275390625,1.0498282749492673,-5.84651419737339,0.18650164577662945
1789571734889628200,4.780628173828125,0.9214357768572866,-5.269707412108779,1.3267606446921825
1789571734899673300,4.79067333984375,0.6622890199780463,-4.6498792312413455,2.268373386529088
1789571734909719300,4.80071923828125,0.4412801244437694,-3.9554496906369923,3.1029227609634398
1789571734919765200,4.81076513671875,0.326971023696661,-3.1388644274383783,3.7636055147886274
1789571734929810200,4.82081005859375,0.04489478825926781,-2.346371402966976,4.204612082988024
1789571734939856400,4.8308564453125,-0.33674539873600007,-1.572765449795127,4.494107070249319
1789571734949902300,4.84090234375,-0.683873002211377,-0.8204132970541715,4.504724910375476
1789571734959947300,4.850947265625,-0.9503834927916526,-0.179025610807538,4.3128643679142
1789571734969993500,4.860993408203125,-1.1260287404458968,0.3070890961408615,4.0452328374147415
1789571734980038100,4.8710380859375,-1.25093412707448,0.6186947929233312,3.620664778319001
1789571734990084000,4.881083984375,-1.3696610442638397,0.8053793940514326,3.1502298710614443
1789571735000130300,4.89113037109375,-1.5247018222413957,0.8622136264294386,2.692182736212015
1789571735010175200,4.90117529296875,-1.8189280758082866,0.9700608376860618,2.1813965293437243
1789571735020221200,4.91122119140625,-1.604220326244831,1.570064374142885,2.171262673342228
1789571735030267100,4.92126708984375,-1.4628583833992481,1.974547092065215,1.9722820697426795
1789571735040312300,4.931312255859375,-1.7301812863409518,2.0180811133652923,1.6407383313030004
1789571735050358300,4.941358154296875,-2.137010859650373,2.105337956535816,1.5273790786266326
1789571735060403500,4.951403564453125,-2.2325322578191757,2.564249014738202,1.376678229549527
1789571735070449400,4.961449462890625,-2.0053578253924846,3.1773049249917267,1.2865823635607958
1789571735080495400,4.971495361328125,-1.8614765932023525,3.6022862410634753,1.4073136063098908
1789571735090540300,4.981540283203125,-1.894168902492523,3.807627611866593,1.4361007248550652
1789571735100586200,4.991586181640625,-1.9628782815814017,3.9722400819182395,1.355661745005846
1789571735110632200,5.001632080078125,-1.9867875649571418,4.121968286570906,1.2121674663066864
1789571735120677000,5.011677001953125,-1.664400361919403,4.172200344204902,1.1331722555249928
1789571735130723300,5.021723388671875,-1.2984054878234863,4.046057597801089,1.0416793822199106
1789571735140768300,5.031768310546875,-0.915708485251665,3.7676650193125005,1.0224930357128381
1789571735150814200,5.041814208984375,-0.5894049855530261,3.347227191889286,0.9531436051547527
1789571735160860400,5.0518603515625,-0.32657588689923284,3.052010904371738,0.887023073515296
1789571735170905300,5.0619052734375,-0.06737899813479743,2.8853707278847693,1.041342697611451
1789571735180951300,5.071951416015625,0.11041033974289893,2.7818881415784356,1.3206564825981855
1789571735190997200,5.081997314453125,0.16912907069325447,2.728939810723066,1.6183312691837548
1789571735201042200,5.092042236328125,0.22256955071343107,2.781736750409007,1.9413065012425184
1789571735211088100,5.102088134765625,0.3426186746835708,2.916591795578599,2.379610240224004
1789571735221133300,5.11213330078125,0.38037528162598605,3.076538611906767,2.8822113870710133
1789571735231179300,5.12217919921875,0.3357154711663723,3.1835125474601984,3.3218875834494828
1789571735241225200,5.13222509765625,0.4278138726165518,3.3318899220257996,3.670143387237191
1789571735251270400,5.1422705078125,0.598508329463005,3.462130166876316,3.98135920791924
1789571735261316400,5.15231640625,0.6889058087468147,3.4549165822356938,4.250290715101361
1789571735271362300,5.1623623046875,0.7362135033667088,3.2867788606673476,4.527266412529349
1789571735281407200,5.1724072265625,0.8532394618570804,3.0873955214858055,4.735505842861533
1789571735291453400,5.182453369140625,1.019787283885479,2.9130694666713475,4.8503112026929855
1789571735301498000,5.192498046875,1.105167227268219,2.7613977267354723,4.971991124469041
1789571735311544000,5.2025439453125,1.1212988623797893,2.6697411873012777,5.10621839312911
1789571735321590300,5.21259033203125,0.8642425019085407,2.5881086137533185,5.239274279922246
1789571735331635200,5.22263525390625,0.4540519277334213,2.5027625726401803,5.365975244730711
1789571735341681200,5.23268115234375,0.20834581331610677,2.3581349059969186,5.485831458210945
1789571735351726300,5.242726318359375,0.0017909750699996946,2.0041718304783105,5.687490925630927
1789571735361772300,5.252772216796875,-0.19399580092430113,1.4050871624320744,5.912434822526574
1789571735371818200,5.262818359375,-0.3766495391011238,0.6892734730154275,6.129848323917389
1789571735381863400,5.272863525390625,-0.6819874076604843,0.053479076731204986,6.170901049795747
1789571735391909400,5.282909423828125,-0.8938438594460487,-0.3518617193251848,6.08517857658565
1789571735401955300,5.292955322265625,-0.8415963703364133,-0.5673351925641298,6.055847268161178
1789571735412000300,5.303000244140625,-0.7295154670327901,-0.7307271809101105,6.094281335973739
1789571735422046200,5.313046142578125,-0.6558160245716571,-0.7536305021136999,6.119552555352449
1789571735432091100,5.323091064453125,-0.6479781705528498,-0.542073325535655,6.256843303236365
1789571735442137300,5.333137451171875,-0.7043944697797297,-0.08815466879308223,6.465615233010054
1789571735452183300,5.343183349609375,-0.7561036142289638,0.4792354688286781,6.6510133014589545
1789571735462228200,5.353228271484375,-0.8463561320841312,1.1140548826009034,6.79792761773467
1789571735472274200,5.363274169921875,-0.9669862525463103,1.6766817513436079,6.791712981003522
1789571735482320400,5.3733203125,-1.1081874518722294,1.960582279598713,6.488716707134246
1789571735492365300,5.383365234375,-1.0691133325904607,1.886820877817273,5.967948619955778
1789571735502411300,5.393411376953125,-0.9031751668930054,1.5143986010223627,5.3150540357887746
1789571735512456200,5.403456298828125,-0.6884656637638807,1.0095324318528174,4.719325692433118
1789571735522502100,5.413502197265625,-0.3717477385342121,0.5384381839036941,4.239336774888635
1789571735532548000,5.423548095703125,-0.13943302060961724,0.042569560182094575,3.8105753557562827
1789571735542593300,5.43359326171875,0.01849895789795555,-0.4416641553252935,3.442235964360833
1789571735552639200,5.44363916015625,0.1660123999774456,-0.8105459830343723,3.0678315738379953
1789571735562685200,5.453685302734375,0.12573884177803993,-1.0783014321744442,2.6709540702223777
1789571735572730400,5.46373046875,-0.013256992990709841,-1.2322329337358473,2.3021581672310827
1789571735582776300,5.4737763671875,-0.07445873639583588,-1.2659803050369023,1.9433371302872895
1789571735592821200,5.4838212890625,-0.060201078462600706,-1.249242520725727,1.6591010864675044
1789571735602867500,5.493867431640625,0.09299388898517937,-1.1998019057303666,1.3653805904656648
1789571735612913400,5.503913330078125,0.3010942396402359,-1.217220658043027,1.1075661051034926
1789571735622958000,5.5139580078125,0.5803952382106333,-1.2832675399243831,0.85393036673069
1789571735633004300,5.52400439453125,0.8338510169066489,-1.4234095855861901,0.5764338602989911
1789571735643050200,5.53405029296875,1.0300433049619198,-1.6387977186292408,0.22779694823920726
1789571735653095200,5.54409521484375,1.2849509629666804,-1.8509651360601185,-0.08325812892317772
1789571735663141400,5.554141357421875,1.4557681328773497,-2.0503262634098527,-0.42396015633046624
1789571735673186300,5.564186279296875,1.4981810411930083,-2.168063585039973,-0.6821130798667668
1789571735683232300,5.574232177734375,1.5138288383103906,-2.244264196667075,-0.9048492375850677
1789571735693278200,5.5842783203125,1.4581927296757697,-2.3435464086741207,-1.0975000536412
1789571735703323400,5.594323486328125,1.36190210070014,-2.480247081710398,-1.3325170162618158
1789571735713369300,5.604369384765625,1.2746341516137123,-2.6151360291495918,-1.6072598400712013
1789571735723415300,5.614415283203125,1.1715702291108667,-2.733981312021613,-1.8957763376891612
1789571735733460200,5.624460205078125,1.1598903127111493,-2.889992834727466,-2.147224210628867
1789571735743506200,5.634506103515625,1.2657540950655937,-3.0562647624239325,-2.428129648721218
1789571735753551400,5.64455126953125,1.4267992280244826,-3.278001387710869,-2.734907779216766
1789571735763597300,5.654597412109375,1.653379786211252,-3.500927807304263,-3.086616353806853
1789571735773643300,5.664643310546875,1.8452115409694612,-3.7103055940166114,-3.4530829370677467
1789571735783688200,5.674688232421875,1.982231655218452,-3.910026202328503,-3.836470259991288
1789571735793734400,5.684734375,2.1186977888464926,-4.025125576670468,-4.146816896623373
1789571735803780400,5.6947802734375,2.208025593072176,-4.122211155416071,-4.425538560935855
1789571735813825300,5.7048251953125,2.2098764816358685,-4.208002017687261,-4.750834929418564
1789571735823871500,5.71487158203125,2.097653831773996,-4.249383244867623,-5.070663680145144
1789571735833916200,5.724916259765625,1.9183166707992552,-4.293298958961666,-5.414235125508904
1789571735843962000,5.734962158203125,1.7085526612482964,-4.368178258857131,-5.748809025424719
1789571735854008300,5.74500830078125,1.5465829607903956,-4.533500338482856,-5.983210486495494
1789571735864053200,5.75505322265625,1.4614438404262065,-4.697332764072716,-6.177874395939708
1789571735874099200,5.76509912109375,1.4327192657232284,-4.842892158608138,-6.285208981499076
1789571735884145200,5.775145263671875,1.3373324537195264,-5.0188008064389225,-6.362891356116533
1789571735894190300,5.7851904296875,1.2409613068535923,-5.235541523134708,-6.346314315325022
1789571735904236300,5.795236328125,1.135768117237091,-5.450730918735266,-6.130251059499383
1789571735914281500,5.805281494140625,1.1123263052426278,-5.611380330374836,-5.810633905696869
1789571735924327400,5.815327392578125,1.075271270698309,-5.83737578215003,-5.478927670171856
1789571735934373400,5.825373291015625,1.0318845489144324,-6.117974346250295,-4.959539054653048
1789571735944418300,5.835418212890625,1.0144750028215348,-6.476285095584392,-4.387241271245479
1789571735954464300,5.84546435546875,0.9680069738961755,-6.96079938159883,-3.9295425114423033
1789571735964510200,5.85551025390625,0.9542367341537028,-7.404680043929815,-3.6007197223991154
1789571735974555100,5.86555517578125,1.060998415195942,-7.762112841385602,-3.316704627853632
1789571735984601300,5.875601318359375,1.1021031635224818,-8.051258284556866,-3.0758599819928407
1789571735994646300,5.885646240234375,1.0812544367611407,-8.328718550631404,-2.9151953727841375
1789571736004692200,5.895692138671875,1.178730476129055,-8.499939625167846,-2.8003543571174143
1789571736014738400,5.905738525390625,1.4355425064504146,-8.373117079806327,-2.5763036096692082
1789571736024783400,5.915783447265625,1.4949042114794253,-8.007371212035418,-2.3486276574611664
1789571736034829300,5.925829345703125,1.4295640165627002,-7.304305360510945,-2.0899042405605317
1789571736044875300,5.935875244140625,1.3439128550231456,-6.405058765238523,-1.5449942302942274
1789571736054920200,5.945920166015625,1.0818109016001225,-5.354180177518725,-0.6056465107798576
1789571736064966100,5.955966064453125,0.6830840437907725,-4.218278497029841,0.389109207701683
1789571736075012000,5.96601220703125,0.22113047608733175,-3.273555221956968,1.2857166866421699
1789571736085057300,5.976057373046875,-0.1696888965331018,-2.4824933993324634,2.053171715968847
1789571736095103200,5.986103271484375,-0.5368026185911149,-1.9446461670592425,2.539128602007031
1789571736105148400,5.9961484375,-0.9326431803744286,-1.6512644014924764,2.8178794924139976
1789571736115194400,6.0061943359375,-1.0901157886087893,-1.4923884292662142,2.9347096360713243
1789571736125240300,6.016240234375,-1.036036992418766,-1.428971311366558,2.9525509977102278
1789571736135285500,6.026285400390625,-0.806707939241454,-1.4266180262386798,2.8756495443373917
1789571736145331500,6.03633154296875,-0.5819278546053915,-1.4020681068718432,2.67768250169456
1789571736155377400,6.04637744140625,-0.3766952048737556,-1.2882032427608967,2.394177110236883
1789571736165422000,6.056422119140625,-0.12289338921904563,-1.0047884521961212,2.2034254058003424
1789571736175468300,6.06646826171875,0.08715097164325415,-0.5481845018923283,2.1597803253412247
1789571736185513200,6.07651318359375,0.18992175641842185,0.04905775315761566,2.1545774960011244
1789571736195559200,6.08655908203125,0.12097513450756668,0.7319716280132532,2.1923305958122015
1789571736205605400,6.09660546875,-0.09042904346585273,1.4287082765161991,2.2578964161783457
1789571736215650300,6.106650390625,-0.30750052648596465,2.0818729097962376,2.2037907319813965
1789571736225696300,6.1166962890625,-0.5597860923588276,2.590683432677388,2.0406401511758565
1789571736235742200,6.1267421875,-0.7541711848616599,2.9676076970666645,1.8196143045067785
1789571736245787400,6.136787353515625,-0.8170517847318202,3.2464965346395966,1.5354080713033675
1789571736255833300,6.146833251953125,-0.8101778073091059,3.3982249731987713,1.2276876915216446
1789571736265878300,6.156878173828125,-0.6632102264761924,3.3749867209523914,0.9792413384854793
1789571736275924200,6.16692431640625,-0.3880593698551878,3.2955560413628815,0.8250228366762399
1789571736285970200,6.17697021484375,-0.12332823697235434,3.143428374353051,0.8068482975602149
1789571736296015400,6.187015380859375,0.12891984643433244,2.9720728597819805,0.9667676413595676
1789571736306061300,6.197061279296875,0.47212296994235364,2.949176552841067,1.27877899633348
1789571736316107300,6.207107177734375,0.8307774546802044,2.9844471881866452,1.6682406707346438
1789571736326152400,6.21715234375,1.1672446209967136,3.10146730145812,2.0658593481063843
1789571736336198400,6.227198486328125,1.4456465518355368,3.2512954593539236,2.4403964250981804
1789571736346243300,6.237243408203125,1.530058526968956,3.420594041395187,2.7142466839820143
1789571736356289300,6.247289306640625,1.4362708207249641,3.5964813541769978,3.0524037030816076
1789571736366335500,6.25733544921875,1.1924702476680278,3.7725101212561127,3.2581513165980573
1789571736376380200,6.267380126953125,0.823361040943861,4.015421636518836,3.3423879351645707
1789571736386426000,6.277426025390625,0.4960462818434462,4.238424920740723,3.4044372718423603
1789571736396472300,6.287472412109375,0.2947749369582161,4.378220929443836,3.497784833103418
1789571736406517200,6.297517333984375,0.21287004927489905,4.445350345864892,3.548686752822995
1789571736416563200,6.307563232421875,0.1595125530967489,4.31228452219963,3.5155554675936695
1789571736426608400,6.3176083984375,0.20862053860425947,4.030842493012547,3.473244266086817
1789571736436654300,6.327654296875,0.37275132608618583,3.7662224192887543,3.4724083997845647
1789571736446700300,6.3377001953125,0.5633499223202466,3.4828286715120074,3.6095670457214113
1789571736456745500,6.347745361328125,0.7032721877515316,3.307615896990895,3.823198690485954
1789571736466791400,6.35779150390625,0.6320891120254993,3.265368408370018,4.062865524739027
1789571736476837400,6.36783740234375,0.47334407270252704,3.2577555952787396,4.324102385765314
1789571736486882300,6.37788232421875,0.14573643160276115,3.150998517346382,4.510352102607488
1789571736496928000,6.387927978515625,-0.2747294528711587,2.9254063856750725,4.609584045732021
1789571736506973000,6.397972900390625,-0.4505149857789278,2.6085288859695193,4.75447883887887
1789571736517019100,6.40801904296875,-0.5545535254675895,2.0338024141103026,4.965198395588994
1789571736527065000,6.418065185546875,-0.5842910766053945,1.3445850551962852,5.0765340334832665
1789571736537110000,6.428110107421875,-0.5714852979809045,0.7584533922255039,5.027400292479991
1789571736547156000,6.438156005859375,-0.5243938764601945,0.2943535332083702,5.052592601403593
1789571736557202200,6.4482021484375,-0.47266836539804935,-0.03940378962755203,5.184125224152207
1789571736567247000,6.4582470703125,-0.45130116772055623,-0.2545236271232366,5.387957359436154
1789571736577293000,6.46829296875,-0.4181868336260319,-0.24394845709502697,5.739980991324782
1789571736587338000,6.478337890625,-0.4543664735753089,-0.03412263435423374,6.202594995698332
1789571736597384000,6.488384033203125,-0.5306265603046864,0.27404198206365105,6.607800767198205
1789571736607430000,6.498429931640625,-0.6148842947244644,0.6858627877891064,6.886224909868836
1789571736617475000,6.50847509765625,-0.7261660835396498,1.088079898867011,7.040068148624896
1789571736627521000,6.51852099609375,-0.8246955044180154,1.3029589133441448,7.0278937267065045
1789571736637567000,6.52856689453125,-0.7281815880805254,1.2691343851536512,6.8063675292998544
1789571736647612200,6.538612060546875,-0.45324755254797633,1.0375181708872319,6.3933765107512475
1789571736657658000,6.548658203125,-0.2781406495541334,0.7313783382952213,5.9896548403292895
1789571736667703000,6.558703125,-0.1860971566289663,0.45683659001588817,5.638298732438683
1789571736677749200,6.568749267578125,-0.21239362740218637,0.2841571333646774,5.308938767778873
1789571736687795200,6.578795166015625,-0.33717681242320685,0.10641104097366333,5.033216869804263
1789571736697839900,6.58883984375,-0.48986850652396674,-0.166405198687315,4.710563709306717
1789571736707886000,6.598885986328125,-0.5811971291780471,-0.3932277489364147,4.334849405229091
1789571736717932000,6.60893212890625,-0.5324076715677977,-0.5668330882608891,3.9377760867804286
1789571736727977000,6.61897705078125,-0.2757563847661018,-0.6935556803792715,3.509374148610234
1789571736738023200,6.629023193359375,0.10589258832382038,-0.7834434565752744,3.0071108554154633
1789571736748068000,6.639068115234375,0.5034101251423359,-0.850226251515746,2.435277766910195
1789571736758114000,6.649114013671875,0.9449942009687423,-0.8453571841746568,1.8352748149752616
1789571736768160000,6.659159912109375,1.485695653629303,-1.0778624562352894,1.4466133510410786
1789571736778205200,6.669205078125,1.8577987814724444,-1.2533137156873941,0.9242419203191995
1789571736788251100,6.679251220703125,2.1324784769177434,-1.417176828676462,0.4056283808261156
1789571736798296000,6.689296142578125,2.367414190995693,-1.4109633609890937,-0.08385843290388584
1789571736808342000,6.699342041015625,2.4461036968290806,-1.4405875148802996,-0.4894084877967834
1789571736818388000,6.709387939453125,2.384043838757276,-1.4950047492444514,-0.8428408174395561
1789571736828433200,6.71943310546875,2.255340301954746,-1.563967810833454,-1.1823650332391262
1789571736838479000,6.72947900390625,2.0639538067460057,-1.672319172219932,-1.5802900000810622
1789571736848525000,6.739525146484375,1.83988435459733,-1.8085995740175247,-1.9636264696002006
1789571736858570000,6.749570068359375,1.7525977008104323,-1.953474201159179,-2.2950550572276116
1789571736868616200,6.7596162109375,1.74049809769392,-2.144910088467598,-2.618147193664312
1789571736878661000,6.7696611328125,1.7885621636390685,-2.3434891255289316,-2.995468348416686
1789571736888707000,6.77970703125,1.8346762645602226,-2.5729315028876063,-3.4056028084903955
1789571736898753300,6.789753173828125,1.8655004418909549,-2.7926231783434745,-3.749708506861329
1789571736908798000,6.7997978515625,1.8498223957657813,-3.0330957760214803,-4.087672633737325
1789571736918844000,6.809843994140625,1.8072259475767611,-3.2376006960004564,-4.390347420567274
1789571736928889000,6.81988916015625,1.8597697892844676,-3.416394543878734,-4.609535530415177
1789571736938935000,6.82993505859375,1.900284170502424,-3.608639117221534,-4.749233923962712
1789571736948981000,6.83998095703125,1.8759259743154049,-3.6795477599203585,-4.879308164596558
1789571736959026200,6.850026123046875,1.8675731565117835,-3.7158255264818667,-4.883959205272793
1789571736969072000,6.860072021484375,1.813384470206499,-3.77654332229495,-4.853101710194349
1789571736979118000,6.8701181640625,1.6990882289409637,-3.8271865910783407,-4.870682375070452
1789571736989163300,6.880163330078125,1.6084826598644255,-3.923269422522187,-4.854558923265338
1789571736999209200,6.890209228515625,1.491936009323597,-4.063768026536703,-4.864548986881971
1789571737009254000,6.90025390625,1.3996622147738933,-4.221176264297962,-4.934250884139537
1789571737019300000,6.910300048828125,1.398663997516781,-4.390269094634056,-4.933280577802658
1789571737029346000,6.920345947265625,1.3955425044953822,-4.51935607779622,-4.854962827891111
1789571737039391000,6.930390869140625,1.42443542150259,-4.624162606182694,-4.607931602349877
1789571737049437000,6.94043701171875,1.463983003515005,-4.643028050172329,-4.312140729814767
1789571737059483100,6.950483154296875,1.4412217211306095,-4.564345558601618,-3.9165544350534676
1789571737069528000,6.960528076171875,1.2354922277927398,-4.48615085054785,-3.614998423120379
1789571737079574000,6.970573974609375,0.851323472167924,-4.698968840841949,-3.315978651666641
1789571737089619200,6.980619140625,0.436995652057603,-5.292442975530028,-2.991206014797091
1789571737099665200,6.9906650390625,0.25254392454810437,-6.1586371960282325,-2.814400418126583
1789571737109711000,7.000711181640625,0.20149759138915688,-7.10533644734919,-2.9952251873105764
1789571737119756000,7.010756103515625,0.18858429726958273,-7.776576251024007,-3.5701439668714996
1789571737129802000,7.020802001953125,0.2276419038079679,-8.267005314040183,-3.985551398912072
1789571737139847200,7.03084716796875,0.38557522488925605,-8.453447338584064,-4.183640606629848
1789571737149893000,7.04089306640625,0.6864542508762329,-8.315489651224016,-4.564254957708716
1789571737159939000,7.05093896484375,1.1182044034957885,-8.093259689462185,-4.797648703041673
1789571737169984000,7.06098388671875,1.839298663663864,-7.784073328781128,-4.690246312943101
1789571737180030200,7.0710302734375,2.598691967087984,-7.187549451133608,-4.385265587258338
1789571737190076200,7.081076171875,3.106980511921644,-6.502535973650216,-3.7057793487638233
1789571737200121000,7.09112109375,3.393464042407274,-5.8496063181698315,-2.795543157443404
1789571737210167300,7.101167236328125,3.400565983366966,-5.2193549429655075,-2.10359666582644
1789571737220212000,7.1112119140625,3.104195849639177,-4.794738660813867,-1.5424211649358273
1789571737230258000,7.1212578125,2.5068565639555453,-4.524201764261722,-1.0467951177984476
1789571737240303900,7.131303955078125,1.6808523150265215,-4.317922235825658,-0.7312287006914615
1789571737250349000,7.14134912109375,0.7756850975334644,-4.053346293504536,-0.38221009583771226
1789571737260395000,7.15139501953125,0.11826627740766853,-3.6874443583890795,0.06202069510519504
1789571737270441000,7.16144091796875,-0.4484533405413851,-3.254478765565157,0.4920230542093515
1789571737280486100,7.171486083984375,-0.937972924029827,-2.7823396847382185,0.873124896544218
1789571737290532000,7.181531982421875,-1.175466505897045,-2.2217735479176044,1.2616437371373175
1789571737300577300,7.191577392578125,-1.2519044334113598,-1.578065309768915,1.6133254237204788
1789571737310623200,7.201623291015625,-1.1973556816220283,-0.917515826934576,1.9605191512346267
1789571737320669200,7.211669189453125,-1.1068003814280032,-0.29175299532115456,2.310856437471509
1789571737330714000,7.221714111328125,-0.9663561379492283,0.271848855933547,2.648503753483295
1789571737340760000,7.231760009765625,-0.9275240107297896,0.735627227911353,3.0686838067531585
1789571737350805000,7.241804931640625,-1.1369570347607134,1.3059417285472155,3.2967800301998853
1789571737360851000,7.251850830078125,-1.4488333651781082,1.9341724115788936,3.2672324486762285
1789571737370897200,7.261897216796875,-1.705098283010721,2.404854571595788,3.1182068393349645
1789571737380942000,7.271942138671875,-1.7648901961505412,2.713991832438111,2.8456162251234054
1789571737390988000,7.281988037109375,-1.6518588602542876,2.8041701160132884,2.4091741883605717
1789571737401034200,7.2920341796875,-1.3407763105630874,2.7574107029259203,1.9775696547567843
1789571737411079200,7.3020791015625,-1.0184043050944804,2.5869243724048134,1.6220669485807417
1789571737421125000,7.312125,-0.7136065347611904,2.3696219301730395,1.3409884920090436
1789571737431170000,7.322170166015625,-0.4806172785758972,2.1425807687371967,1.1139841554522514
1789571737441216000,7.332216064453125,-0.23281389961838722,1.9994570769160984,1.0365677382946015
1789571737451262000,7.342261962890625,0.0008545710027217865,1.917573158955574,1.034149571236968
1789571737461307100,7.35230712890625,0.05992284604310989,1.9206787237554788,1.133268701636791
1789571737471353000,7.36235302734375,-0.09682955815792083,1.9565046548962592,1.275837682184577
1789571737481398000,7.37239794921875,-0.29359599283933635,2.1094179193258284,1.2953425931215286
1789571737491444200,7.3824443359375,-0.43237434893250465,2.30236859511137,1.4885457823634147
1789571737501490200,7.392490234375,-0.4842687868207693,2.4295126275122163,1.8479039949238298
1789571737511535000,7.40253515625,-0.5740495955109596,2.5470459510028363,2.2575813588798046
1789571737521581000,7.4125810546875,-0.6027279929846525,2.7339585156679154,2.698618906739354
1789571737531627300,7.422627197265625,-0.5752151321589947,2.961772999563813,3.1490754403293133
1789571737541672200,7.432672119140625,-0.5206166960090398,3.1660382655680177,3.6406454900741574
1789571737551718100,7.44271826171875,-0.5254173742890358,3.3559482584834095,4.1214702739208935
1789571737561763000,7.45276318359375,-0.5119868148297071,3.482500170210004,4.533669265308976
1789571737571809000,7.46280908203125,-0.36046295893192287,3.5598061127305027,4.990834941148758
1789571737581855000,7.47285498046875,-0.1573895330607891,3.5323470279186964,5.410193741163611
1789571737591900200,7.482900146484375,0.019036124381422995,3.4074978284567594,5.753959247794747
1789571737601946000,7.492946044921875,0.16833528996706007,3.2932039252787826,5.968295241436362
1789571737611991000,7.502990966796875,0.30666473324894905,3.174975020739436,6.099295364743471
1789571737622037200,7.513037353515625,0.3389998996645212,3.002206132239103,6.171160577514767
1789571737632083200,7.523083251953125,0.20469079793989658,2.7998189350664613,6.125503572711348
1789571737642128100,7.533128173828125,0.16379764653742312,2.702578458020091,6.061133099609613
1789571737652174300,7.54317431640625,0.15398412679778412,2.6087790613383053,5.9828293782234185
1789571737662220300,7.55322021484375,-0.028577841442357747,2.379811315754056,5.963050911042094
1789571737672265000,7.563264892578125,-0.20147242041528224,2.08768773355484,5.9220157208204265
1789571737682311200,7.573311279296875,-0.11661558759119361,1.8250977043539285,5.861185112282634
1789571737692356000,7.583356201171875,-0.0001730367456562817,1.6044979741424321,5.656868408352136
1789571737702402000,7.593402099609375,-0.04182254120707512,1.4426912091612816,5.448347822991013
1789571737712448000,7.603447998046875,-0.1752613263705745,1.363731654214859,5.401051818808913
1789571737722493200,7.6134931640625,-0.25044545443151145,1.4301140516608952,5.533246120336652
1789571737732539100,7.6235390625,-0.44071719333138315,1.557095586976409,5.795275008523464
1789571737742584300,7.633584228515625,-0.7106669741779565,1.7693863385260105,6.152707805979252
1789571737752630300,7.64363037109375,-1.070097667452693,1.983493199586868,6.553413927972317
1789571737762676200,7.65367626953125,-1.4241349772512912,2.143686099630594,6.9396198154479265
1789571737772721200,7.66372119140625,-1.67630473472476,2.1056115127801895,7.210266894376278
1789571737782767000,7.67376708984375,-1.7863310435861348,1.7913859888881445,7.14847474732995
1789571737792813000,7.68381298828125,-1.7333651770740746,1.3260066114544868,6.66458005451858
1789571737802858200,7.693858154296875,-1.5411545060008764,1.031734326788783,5.914235149946808
1789571737812904200,7.703904296875,-1.3149182312071324,0.952544470217824,5.156116104242205
1789571737822949000,7.71394921875,-1.1052712721645832,0.901422770267725,4.478806625264883
1789571737832995000,7.7239951171875,-0.8272218080252408,0.7933072634637355,3.9044764592468737
1789571737843041300,7.734041259765625,-0.4654384506771341,0.6292763926923275,3.4124709406942126
1789571737853086200,7.744086181640625,-0.1685024814938195,0.4094014696240425,2.937362196406722
1789571737863132200,7.754132080078125,0.1395253385355696,0.17388357174396513,2.522454530581832
1789571737873177000,7.764177001953125,0.44224984625875946,-0.07073474743664264,2.1422323936909438
1789571737883223000,7.77422314453125,0.6805822170376777,-0.3227092745989561,1.819231442669034
1789571737893269000,7.78426904296875,0.9061363547861575,-0.4524439080148935,1.5406038863807916
1789571737903314200,7.794314208984375,1.1727519862413405,-0.6029302375584841,1.466623873412609
1789571737913360100,7.804360107421875,1.3849164810627699,-0.6614975773394107,1.5484487546622752
1789571737923406000,7.814406005859375,1.4141899218201637,-0.5202373413026332,1.6471178032070397
1789571737933451300,7.824451171875,1.2682698772788048,-0.32808278433084487,1.6965560801148414
1789571737943497200,7.834497314453125,1.1663982333004475,-0.19391221429407596,1.6929653621464966
1789571737953542100,7.844542236328125,1.0819114393651486,-0.16702011571526526,1.615882122465968
1789571737963588400,7.85458837890625,1.0310323159992694,-0.2559463534027338,1.4567092131197452
1789571737973634300,7.86463427734375,0.9569172784745693,-0.4409381791383028,1.1226789185613393
1789571737983679000,7.874678955078125,0.9095639911472797,-0.6919932533681392,0.7198539047181606
1789571737993725200,7.88472509765625,0.9367267233610153,-1.0179513006299734,0.27115912010371684
1789571738003770000,7.89477001953125,0.9751637137830257,-1.4261170909792185,-0.22276479929089546
1789571738013816000,7.904816162109375,1.0180664514422415,-1.798423632439971,-0.719248924562335
1789571738023862000,7.914862060546875,1.0849439389288424,-2.1863190804377197,-1.0960761583179235
1789571738033907200,7.9249072265625,1.0830337213933467,-2.598196000264585,-1.3925263715445995
1789571738043953200,7.934953125,0.9446353045284748,-2.878239560830593,-1.7067454656958578
1789571738053999000,7.9449990234375,0.7219722120463847,-3.093340109103918,-2.0261416702240704
1789571738064044300,7.955044189453125,0.5365314369669184,-3.2806770366609093,-2.3754817621171473
1789571738074090200,7.96509033203125,0.4523614538958296,-3.4747818509176374,-2.6866712793141603
1789571738084135200,7.97513525390625,0.4941465857019648,-3.7052941955953833,-2.997573796263337
1789571738094181000,7.98518115234375,0.7242576926350593,-3.9688215056464076,-3.259500977641344
1789571738104227000,7.99522705078125,1.0638719248056412,-4.171849046549201,-3.465947094815969
1789571738114272000,8.00527197265625,1.3493430633783339,-4.331546272030472,-3.684470018753409
1789571738124318200,8.015318115234376,1.5059224491000174,-4.538016939124465,-3.8813855065166947
1789571738134364200,8.0253642578125,1.518107392412424,-4.7879362873226405,-4.011747331920266
1789571738144409000,8.0354091796875,1.4121803355634213,-5.061220729017258,-4.1194162640005345
1789571738154455300,8.045455322265624,1.1310206304490567,-5.296446365952492,-4.289907270696759
1789571738164500200,8.055500244140624,0.8444891691684723,-5.417508448091149,-4.437935101172328
1789571738174546200,8.065546142578125,0.6079530706891789,-5.497912356626987,-4.52797309949398
1789571738184592100,8.075592041015625,0.5223941905429587,-5.609464852142334,-4.502952640005946
1789571738194637000,8.085636962890625,0.6764870566785335,-5.697628873285651,-4.55738507193923
1789571738204683000,8.09568310546875,0.9510849190592765,-5.756683704322576,-4.655713928744197
1789571738214728200,8.105728271484375,1.2163526430368423,-5.821195047199725,-4.69319405683279
1789571738224774100,8.115774169921876,1.405802032703161,-6.057057812994718,-4.6053386632472275
1789571738234820000,8.125820068359374,1.5533178220033645,-6.390949575865268,-4.557317267400026
1789571738244865300,8.135865234375,1.7061738032877445,-6.664307667317986,-4.61934030059278
1789571738254911200,8.1459111328125,1.7190882299184798,-6.827873843187093,-4.727303247183561
1789571738264957200,8.155957275390625,1.474020413404703,-7.018173712202906,-4.750587092137336
1789571738275002400,8.16600244140625,1.2066413963615894,-7.283534375160932,-4.69205540819168
1789571738285048300,8.17604833984375,1.0744365734398365,-7.619076827847957,-4.64867628519237
1789571738295093000,8.186093017578125,1.0632441482961177,-7.820108518758416,-4.674699784243106
1789571738305139000,8.196138916015625,1.2204817056655883,-7.682986113178729,-4.687899457556009
1789571738315185200,8.20618505859375,1.518006854647398,-7.286593762731552,-4.42659070033729
1789571738325230000,8.21622998046875,1.6605109532654285,-6.713065560746193,-3.811391932836175
1789571738335276000,8.226276123046874,1.6392331874370574,-6.085561438423395,-3.0304987452656027
1789571738345321200,8.2363212890625,1.4162474388718604,-5.393406857013702,-2.21754803917706
1789571738355367200,8.2463671875,0.9039759618818759,-4.619524717248976,-1.578358155235648
1789571738365413000,8.2564130859375,0.2490133027365431,-3.921057591691613,-1.059459369060397
1789571738375458300,8.266458251953125,-0.19226561613082885,-3.3562788056120274,-0.5886521213591098
1789571738385504300,8.276504150390625,-0.35257421497609465,-3.0232924671486017,-0.17224515688717365
1789571738395550200,8.28655029296875,-0.282815071105957,-2.8296801125839353,0.08392389935553074
1789571738405595100,8.29659521484375,-0.09802779149916023,-2.760380366386473,0.13975450764894484
1789571738415641000,8.30664111328125,0.08714521775590256,-2.721101079921424,0.1550198813199997
1789571738425686000,8.31668603515625,0.3663058762738481,-2.5826325204297897,0.268415374353528
1789571738435732200,8.326732177734375,0.5925543894946574,-2.362936168798804,0.31600597756803034
1789571738445778200,8.336778076171875,0.7184627426207065,-2.075048616734147,0.35222120028734205
1789571738455823000,8.346822998046875,0.6727274118840694,-1.6460586495429277,0.28582302075028415
1789571738465869300,8.356869384765625,0.5002887782514095,-1.1083464418262243,0.16177344723343848
1789571738475914200,8.366914306640625,0.3309737930646166,-0.5906798277944326,0.09298165055811404
1789571738485960200,8.376960205078126,0.27954521912243213,-0.15252397285103797,0.1039630632996559
1789571738496006000,8.387005859375,0.31717794395685195,0.20401158350408077,0.1987339353621006
1789571738506050800,8.39705078125,0.39831308937668797,0.5586638103306293,0.4302548725605011
1789571738516096800,8.4070966796875,0.5393827712774276,0.8983096066832542,0.663567369350791
1789571738526142700,8.417142822265625,0.5676712926506996,1.10826110163033,0.9727437931597233
1789571738536188000,8.42718798828125,0.38060558325052257,1.2454068880856037,1.1902607549250126
1789571738546233900,8.43723388671875,0.10780219393796286,1.4140239176034926,1.3689263002485037
1789571738556279000,8.447279052734375,-0.11900398969822562,1.6204548372089862,1.566328694745898
1789571738566325000,8.457324951171875,-0.4006441626727581,1.7901731059670447,1.6676555643230675
1789571738576371000,8.467370849609376,-0.690100571489334,1.8825082753151654,1.7648434343993662
1789571738586416000,8.477416015625,-0.7935106770813465,1.9772914223372935,1.9648522120028733
1789571738596462000,8.487462158203124,-0.8120294995903968,2.16461958206594,2.1633108375549317
1789571738606508000,8.497508056640624,-0.7770213145732879,2.4251935952693224,2.3762287810921667
1789571738616552700,8.507552734375,-0.7281079383224248,2.636445066899061,2.709578107649088
1789571738626599000,8.517598876953125,-0.6619108343154192,2.822157023602724,3.0673762312859294
1789571738636643800,8.527643798828125,-0.6980740345865488,3.007818711423874,3.314042130646109
1789571738646689800,8.537689697265625,-0.8576736449122428,3.208711286124587,3.6289345940142868
1789571738656736000,8.547736083984375,-1.0337228702574968,3.3873440982222554,3.953382236713171
1789571738666781000,8.557781005859376,-1.254225569835305,3.5052047539710998,4.317994716539979
1789571738676827000,8.567826904296876,-1.5552122574478386,3.5786399925380943,4.580768870136142
1789571738686872000,8.5778720703125,-1.9054098429530857,3.690309392431378,4.787170563647151
1789571738696918000,8.58791796875,-2.2721353694111106,3.8446769473224878,4.991187992370128
1789571738706964000,8.5979638671875,-2.555284202516079,3.9112037216752764,5.192066538545489
1789571738717009000,8.6080087890625,-2.649190566703677,3.932771410360932,5.354178423953056
1789571738727054800,8.618054931640625,-2.6376106035470963,3.9016532185196873,5.478507398933172
1789571738737100800,8.628100830078125,-2.545382401704788,3.829888543513417,5.609183112591505
1789571738747146000,8.63814599609375,-2.349820082116127,3.7477562037497756,5.810884665587544
1789571738757192000,8.64819189453125,-2.2032944728970527,3.651963587424159,5.993752338775992
1789571738767236900,8.65823681640625,-2.1508342178195714,3.5051211673408744,6.14472849766314
1789571738777283000,8.668282958984374,-2.0581290461152792,3.358721230328083,6.248451322466135
1789571738787329000,8.6783291015625,-1.9891741678327322,3.0568682812750336,6.287553498798609
1789571738797374000,8.6883740234375,-1.8663035749673842,2.551370828464627,6.271590790513158
1789571738807420000,8.698419921875,-1.6405723270863293,1.8598299950391053,6.201906428912282
1789571738817466000,8.708466064453125,-1.4122066390484571,1.1860919448077678,6.095085053572058
1789571738827510800,8.7185107421875,-1.263752107593417,0.7195084522813558,5.842881978350878
1789571738837556700,8.728556640625,-1.137083364554122,0.47273792350292204,5.6168584695249795
1789571738847602000,8.738601806640625,-1.0645832879453896,0.320486337852478,5.57039891616702
1789571738857647900,8.74864794921875,-1.0445727655738593,0.2638403215229511,5.643016408610344
1789571738867693800,8.75869384765625,-1.104115745453909,0.295668707460165,5.927973167920112
1789571738877739000,8.768739013671874,-1.1109832931358365,0.3165875768482685,6.2944134476959706
1789571738887785000,8.778784912109375,-1.0555595120776444,0.32714228861033917,6.537250144156813
1789571738897831000,8.788830810546875,-0.9539496608406305,0.4604921899139881,6.656905866628885
1789571738907876000,8.7988759765625,-0.7697462820690125,0.675686261689663,6.692568131640553
1789571738917922000,8.808922119140625,-0.5124953488737345,0.8262509171664715,6.615944910687208
1789571738927966700,8.818966796875,-0.13470891469717025,0.824584445258975,6.443236812463402
1789571738938013000,8.829012939453126,0.175249014878273,0.7185936755239963,6.130685943785309
1789571738948059000,8.839058837890626,0.3482505430907011,0.6983154421269894,5.706876594102383
1789571738958103800,8.849103759765624,0.35218729801774024,0.7334282565623521,5.246981785559654
1789571738968150000,8.85914990234375,0.22727321662604807,0.7261819386959075,4.772096328634023
1789571738978195000,8.86919482421875,0.08549217158555984,0.680688015499711,4.247810004201531
1789571738988241000,8.879240966796875,-0.0747410970011726,0.5472749858319759,3.7172277944952246
1789571738998286800,8.889286865234375,-0.13626319493446498,0.3593465221226215,3.146777684780955
1789571739008332000,8.89933203125,-0.1382891478041187,0.14800795673131942,2.547456285369396
1789571739018378000,8.9093779296875,-0.048256994701363146,-0.049641690525412556,1.9573229855418204
1789571739028423700,8.919423583984376,0.17035711465086786,-0.2755447878420353,1.4136679437726736
1789571739038468900,8.92946875,0.37001459459867325,-0.5763643021941185,0.872556156745553
1789571739048514800,8.939514892578124,0.5734206499576568,-0.9015618864774704,0.4437140735924244
1789571739058560000,8.94956005859375,0.8510206167638301,-1.2586562457591295,0.2055225725889206
1789571739068606000,8.95960595703125,1.0605126775056124,-1.4802122537821532,0.017936054185032843
1789571739078652000,8.96965185546875,1.0411381149500607,-1.4217653255105018,-0.12454583260118961
1789571739088696800,8.97969677734375,0.9266355374574661,-1.291316990867257,-0.13833762658834456
1789571739098743000,8.989742919921875,0.8251800730645656,-1.1766606841176748,-0.1073620580881834
1789571739108789000,8.9997890625,0.7397089442670345,-1.1279080513864754,-0.18593056789040566
1789571739118834000,9.009833984375,0.6417945134818553,-1.1358084492474794,-0.3519669332653284
1789571739128879900,9.0198798828125,0.5761726155469193,-1.2123849084496496,-0.5048503870785236
1789571739138924800,9.0299248046875,0.606255582588911,-1.3848355247810482,-0.7310130121141671
1789571739148970800,9.039970703125,0.67988780503273,-1.678647206197679,-1.077018406626582
1789571739159017000,9.050016845703125,0.8166717724382877,-1.991520438697934,-1.4516753106057643
1789571739169062000,9.060061767578125,0.9894342311978339,-2.3525392779469487,-1.789887274762988
1789571739179107800,9.07010791015625,1.1594552092295138,-2.896910066770017,-2.05900349086225
1789571739189153800,9.08015380859375,1.324033265554905,-3.4175445906966924,-2.4013375033855437
1789571739199199000,9.090198974609375,1.4892062920987605,-3.750407595041394,-2.7779753520488737
1789571739209245000,9.100244873046876,1.619696127796173,-3.973762761440873,-3.079408614385128
1789571739219290000,9.1102900390625,1.738120262646675,-4.1371825145766135,-3.3719442845165726
1789571739229336000,9.120336181640624,1.875174279165268,-4.234597763668001,-3.618993630236387
1789571739239381800,9.1303818359375,2.049189952856302,-4.325843384213745,-3.8040374784201383
1789571739249427000,9.140427001953125,2.152388461524248,-4.416400437973439,-4.014540177509188
1789571739259473000,9.150472900390625,2.2618051140546798,-4.53032346201241,-4.2272780883044
1789571739269518800,9.160518798828125,2.3499919315516946,-4.658410328221321,-4.4123307043164965
1789571739279563800,9.170563720703125,2.387231821143627,-4.772832241693139,-4.544962812739611
1789571739289610000,9.18060986328125,2.2977181389570234,-4.87179618153125,-4.733536588615179
1789571739299655000,9.190655029296876,2.2644494910836217,-5.011508895865083,-4.900967038697004
1789571739309700900,9.200700927734376,2.256422836494446,-5.121577290302515,-5.1026481334269045
1789571739319747000,9.2107470703125,2.095703866750002,-5.340501196256279,-5.272251251372695
1789571739329792000,9.2207919921875,2.0029343976378438,-5.54328177666068,-5.462494421765208
1789571739339837700,9.230837646484375,1.9074527469575404,-5.727887233427166,-5.571395525988936
1789571739349884000,9.2408837890625,1.7600363263785839,-5.898863393291831,-5.668762844285369
1789571739359928800,9.2509287109375,1.5305319896996021,-6.1997472050517795,-5.731923357075453
1789571739369974800,9.260974853515625,1.2542051115691661,-6.717651134970784,-5.751888286739588
1789571739380020000,9.27102001953125,1.0046096615631133,-7.361728206431866,-5.808349594151974
1789571739390066000,9.28106591796875,0.816231042933464,-8.032248463660478,-5.962665711116791
1789571739400111900,9.29111181640625,0.7730991726934909,-8.607923030024766,-6.137956227049231
1789571739410157000,9.301156982421874,0.7224760699152946,-9.024429947739838,-6.25000731973648
1789571739420203000,9.311203125,0.6857248406231403,-9.146468765956163,-6.187089968052506
1789571739430249000,9.3212490234375,0.7866472210526466,-8.907439060562849,-5.785600586727261
1789571739440294000,9.3312939453125,1.1394482670545578,-8.420829263573884,-5.021796481123566
1789571739450339800,9.34133984375,1.4694061976075172,-7.905622317653894,-4.174381779897213
1789571739460384800,9.351384765625,1.7375988691210746,-7.404569569292664,-3.276973505967855
1789571739470431000,9.361430908203126,1.8965946683347223,-6.854355607399344,-2.190544881439209
1789571739480477000,9.371476806640626,1.721262651348114,-6.35372137671113,-1.072757242050767
1789571739490521900,9.38152197265625,1.2987795818328858,-5.955774782559275,0.03290682882368565
1789571739500569600,9.391569580078125,0.7572761651396751,-5.597660432580113,1.1879203292787075
1789571739510615600,9.401615478515625,0.11306169450189918,-5.137303267222642,2.263817038398981
1789571739520660700,9.41166064453125,-0.736289491212368,-4.4670708870247005,3.193618930932879
1789571739530706700,9.421706787109375,-1.5875906784832476,-3.4988059928447006,3.9682425367146728
1789571739540751600,9.431751708984375,-2.3503099114596844,-2.4330524920761585,4.589263726758957
1789571739550797800,9.4417978515625,-2.9644039325892924,-1.4351561374813318,4.962934542310237
1789571739560843800,9.45184375,-3.246240514051914,-0.4592775534272194,5.028053787952661
1789571739570888700,9.461888671875,-3.253192817407846,0.2805237452983856,4.752668574586511
1789571739580934700,9.4719345703125,-3.064603843963146,0.7240981181591749,4.2925078085839745
1789571739590980900,9.48198095703125,-2.6993302698791024,0.9651841715604066,3.669570555785298
1789571739601025500,9.492025634765625,-2.244176956775039,1.0239198536455631,2.9430753133565184
1789571739611071500,9.502071533203125,-1.8780209007680415,1.0256213968664407,2.3098364467740056
1789571739621116700,9.51211669921875,-1.477237621885538,1.050117540219426,1.6770459084808826
1789571739631162600,9.52216259765625,-1.1678466785430908,1.0473282017618417,1.0710369941294193
1789571739641208600,9.53220849609375,-0.9401227955400944,1.1419243017792702,0.5884755957484245
1789571739651253800,9.542253662109376,-0.6819640267848968,1.35367729319036,0.30599428664147854
1789571739661299700,9.5522998046875,-0.45403201745655386,1.6972803027361631,0.24995208142399786
1789571739671345700,9.562345703125,-0.2983796834519133,1.9872651193410158,0.20965864948034285
1789571739681390800,9.572390869140625,-0.330201091659069,2.177134780246019,-0.0031780455142259596
1789571739691436800,9.582436767578125,-0.5178571681678295,2.3054753289550542,-0.19617840566039085
1789571739701481500,9.5924814453125,-0.5530138582775369,2.4812276171803473,-0.2672036604762077
1789571739711527700,9.602527587890625,-0.5092985986590385,2.6419857498914,-0.41440906865298743
1789571739721573600,9.61257373046875,-0.502975204323791,2.6781401823341846,-0.5856412491053342
1789571739731618600,9.62261865234375,-0.36440731264352794,2.658663328447938,-0.6244640239745378
1789571739741664800,9.632664794921874,-0.01862286740541458,2.639048527395725,-0.5418301644295453
1789571739751709700,9.642709716796874,0.36501404636502266,2.627015559774637,-0.42309389488995075
1789571739761755600,9.652755615234375,0.5432440863480791,2.64735692153573,-0.2322521740823984
1789571739771801600,9.662801513671875,0.606098894189857,2.649625450989604,0.03982113825678825
1789571739781846800,9.6728466796875,0.6787585087418556,2.598132579639554,0.4031786495864391
1789571739791892700,9.682892822265625,0.6726116765499115,2.568417824855447,0.8088596373826265
1789571739801938700,9.692938720703125,0.5571580819427967,2.5516017146110532,1.2123036599069834
1789571739811983600,9.702983642578126,0.49885322902295737,2.5659201628208157,1.6211463266044854
1789571739822029600,9.713029541015626,0.46404608300328254,2.64983763243556,2.0244979946702717
1789571739832074800,9.72307470703125,0.36825229763388634,2.7343776178628203,2.4233429989665747
1789571739842120700,9.73312060546875,0.29477438896894453,2.8395225844234226,2.774280004662275
1789571739852166700,9.743166748046875,0.25989012259244915,3.013931641346216,3.250772312262654
1789571739862211600,9.753211669921875,0.24686463680267332,3.230930716717243,3.816928524175286
1789571739872257800,9.7632578125,0.29600776668880135,3.4863106684088705,4.451040081939101
1789571739882302700,9.773302734375,0.42943657844755795,3.7873213214188812,5.20435494223237
1789571739892348700,9.7833486328125,0.5981657996356486,4.076273287844658,5.912649926581978
1789571739902395000,9.793394775390626,0.6628361324667931,4.233530134436488,6.449297135415673
1789571739912439600,9.803439453125,0.586083732175827,4.2951095155149694,6.863602159172296
1789571739922485500,9.813485595703124,0.47226679885983464,4.349477065518498,7.136542901995778
1789571739932531700,9.82353173828125,0.34133860827777535,4.20734121569097,7.280345223730802
1789571739942576600,9.83357666015625,0.09717912051426246,3.8319916532725093,7.440304899540543
1789571739952622600,9.84362255859375,-0.12813888865709305,3.2922154987633228,7.688066777443885
1789571739962667800,9.853667724609375,-0.16571896998882293,2.655177239897847,7.938316965031623
1789571739972713700,9.863713623046875,-0.15111293700933456,2.07528476357758,8.028406985801459
1789571739982759700,9.873759765625,-0.21172785696983337,1.805385288146138,8.02720754688382
1789571739992804900,9.883804931640626,-0.531978047978878,1.6651222464531659,7.995265763700008
1789571740002850800,9.893850830078126,-0.8595897076666354,1.4671733239889144,7.961033239230513
1789571740012895500,9.9038955078125,-1.031449080106616,1.1543132432311773,7.907708476278185
1789571740022941700,9.913941650390624,-1.0414759686022996,0.8862327999204397,7.755580809268355
1789571740032987600,9.923987548828125,-1.071740758484602,0.8083259688973427,7.634624525591731
1789571740043032600,9.934032470703125,-1.2389584425985813,0.9204004424601793,7.565890012061596
1789571740053078500,9.94407861328125,-1.5181325268536805,1.2359721202641725,7.494628025880456
1789571740063124700,9.954124755859375,-1.7315034748554228,1.6183318537056446,7.44241677712798
1789571740073169700,9.964169677734375,-1.7701836263835429,1.77056239656806,7.273516839015484
1789571740083215600,9.974215576171876,-1.6796610594153403,1.5643196930110455,6.822318547147512
1789571740093260800,9.9842607421875,-1.3800509208530187,1.0401228004276752,6.087888420066237
1789571740103306800,9.994306640625,-0.9204816910028457,0.4169944089710712,5.294670588451623
1789571740113352400,10.0043525390625,-0.34878538061976433,-0.16075111844837664,4.597939785167575
1789571740123397600,10.014397705078125,0.05693769275248051,-0.7593132239252328,3.8566953018963335
1789571740133443600,10.024443603515625,0.3782914610892534,-1.378753866779804,3.108776163166761
1789571740143488800,10.03448876953125,0.6471522411227226,-1.9379338099390266,2.3722440953701733
1789571740153534700,10.04453466796875,0.8075070537298917,-2.3978601826637984,1.6811135963112114
1789571740163580700,10.05458056640625,0.8369260404378175,-2.6555758838266135,1.1165484529823064
1789571740173625600,10.06462548828125,0.8038736656636,-2.76865748860538,0.7828203562408685
1789571740183671800,10.074671875,0.7072136188536882,-2.7585657181799412,0.5181786552071571
1789571740193717800,10.0847177734375,0.5266033692032098,-2.580934776601195,0.31530104416906835
1789571740203762700,10.0947626953125,0.36177228796482086,-2.340767591610551,0.11245733540058135
1789571740213808600,10.10480859375,0.15705518653988837,-2.056862971702218,-0.05587561647891998
1789571740223853600,10.114853515625,0.06178045660853385,-1.7597762141376734,-0.12383096233010292
1789571740233899500,10.1248994140625,0.01764554680585861,-1.5250158566266296,-0.22485563409030437
1789571740243945500,10.134945556640625,0.022348609930276868,-1.3075482869610189,-0.2270844160556793
1789571740253990700,10.14499072265625,0.2685200037717819,-1.0966881527364254,-0.1739683274179697
1789571740264036600,10.15503662109375,0.5131026671171188,-1.038614441691339,-0.19932664055824278
1789571740274081800,10.165081787109376,0.6990496016204357,-1.089611053957045,-0.420333198004961
1789571740284127700,10.175127685546874,0.9077344376325607,-1.2805495131373406,-0.8106254780113696
1789571740294173700,10.185173583984374,1.057170965862274,-1.621035267445445,-1.2972183238655328
1789571740304219000,10.195218994140625,1.1280255402863024,-2.0290081655710934,-1.764273525556922
1789571740314264600,10.2052646484375,1.1556968065440654,-2.432689503982663,-2.1750778477162123
1789571740324310500,10.215310546875,1.1238156675063073,-2.788098102134466,-2.5473808820456263
1789571740334355700,10.225355712890625,1.1146914269387722,-3.0757223270878193,-2.8594921902626753
1789571740344401700,10.235401611328125,1.1468401308715344,-3.3587177231967447,-3.163286921033263
1789571740354446600,10.245446533203125,1.2419254757106304,-3.6717712806999683,-3.4628064587026834
1789571740364492500,10.255492431640626,1.3280384095430373,-3.9222055926829573,-3.772297939810157
1789571740374538800,10.265538818359374,1.4253250638186932,-4.1015971141934395,-3.9971266858935355
1789571740384583700,10.275583740234374,1.515751769196987,-4.203486001567542,-4.210696955859661
1789571740394629600,10.285629638671875,1.5920353829324245,-4.261877107998728,-4.314927145662904
1789571740404674800,10.2956748046875,1.640858158290386,-4.3287578103557225,-4.363313867691159
1789571740414720500,10.305720458984375,1.613169502506405,-4.498714856305718,-4.399253196078539
1789571740424766500,10.315766357421875,1.5802103589735925,-4.672103630270064,-4.36957877330482
1789571740434811600,10.325811767578125,1.5455062714695929,-4.910433955222368,-4.360539142280817
1789571740444857600,10.335857666015626,1.4160744203925133,-5.206562096887827,-4.399927734339237
1789571740454902500,10.345902587890626,1.3518996159933507,-5.480979342004656,-4.383268860483169
1789571740464948700,10.35594873046875,1.364167707544565,-5.690477247965336,-4.434239169263839
1789571740474994700,10.36599462890625,1.4041384834051132,-5.922169450077414,-4.496447495895624
1789571740485039600,10.37603955078125,1.5087807611405848,-6.203257258999347,-4.397864372068644
1789571740495084000,10.386083984375,1.690434820755571,-6.44532881630659,-4.348877930581569
1789571740505130000,10.3961298828125,1.927536772956699,-6.593885054570436,-4.343571640866995
1789571740515175200,10.406175048828125,2.149458837813139,-6.782044404426217,-4.194860504302382
1789571740525221000,10.41622119140625,2.268882505095005,-7.1195420828342435,-3.92195833992362
1789571740535266000,10.42626611328125,2.2936815769173204,-7.516393867486715,-3.6631484137833117
1789571740545312000,10.43631201171875,2.251898490937799,-7.784448007312417,-3.703810679039359
1789571740555358000,10.44635791015625,2.227104387551546,-7.959391317242384,-3.940042862668633
1789571740565403000,10.45640283203125,2.1525299158215523,-8.27193341809213,-4.177197421839833
1789571740575449000,10.466448974609374,2.0778280183196065,-8.535615334182976,-4.241330579054355
1789571740585494000,10.476493896484374,2.0430793610215185,-8.581162448871135,-4.209063801699877
1789571740595540000,10.4865400390625,2.0253508121073245,-8.201686161911487,-4.092534686815738
1789571740605586200,10.496586181640625,1.8934943642318247,-7.521749257040024,-3.7251042269587513
1789571740615631000,10.506631103515625,1.5660943014681339,-6.753975078761577,-3.2215678450882432
1789571740625677000,10.516677001953125,1.0756021100878714,-5.9675265951514245,-2.580578802770376
1789571740635723000,10.526722900390626,0.5849544358849526,-5.167022698181867,-1.5521920328438281
1789571740645768000,10.536767822265626,-0.09647175769619643,-4.529840354670584,-0.7101613627433776
1789571740655814000,10.54681396484375,-1.0613350998044013,-4.28925202165842,-0.43923371330797667
1789571740665859000,10.556859130859374,-2.120142726957798,-4.541878290727734,-0.7367816586434841
1789571740675905000,10.566905029296874,-2.850915500575304,-4.923654671323299,-0.7985124308913946
1789571740685951000,10.576950927734375,-2.590894445079565,-4.831371232162415,-0.04122983601093292
1789571740695996200,10.58699609375,-1.2974620694935322,-4.4286815351366995,1.1468243487805128
1789571740706042000,10.5970419921875,0.1976383952103555,-3.8492204359710214,2.456443889057636
1789571740716087000,10.607087158203125,1.1951613864481447,-3.0825077494442463,3.6246792746573684
1789571740726133000,10.617133056640625,1.3901310008406638,-2.083916398322582,4.3414404740571975
1789571740736179200,10.62717919921875,0.9826173907898366,-1.1039520062595605,4.548384019359946
1789571740746223900,10.637223876953126,0.020063421602547166,-0.3163531835705042,4.352011552432179
1789571740756269800,10.647269775390624,-1.0649180728577077,0.11040040287077427,3.6759424289047717
1789571740766315000,10.65731494140625,-1.9154652268908916,0.2547024908214807,3.008212094655633
1789571740776361000,10.66736083984375,-2.2223194913625717,0.6110106681615114,2.883679706057906
1789571740786407000,10.677406982421875,-1.8398435841955243,1.2929904770374296,3.2970565090537067
1789571740796452000,10.6874521484375,-1.2201261702261865,1.9316215580523013,3.6469226706475015
1789571740806498000,10.697498046875,-0.9732534231822937,2.259445983707905,3.5598943755358454
1789571740816544000,10.7075439453125,-0.9504080427110194,2.437197336795926,3.2585540521800516
1789571740826589200,10.717589111328126,-0.894718377258256,2.577046536991,3.047209057047963
1789571740836635100,10.72763525390625,-0.8404348522763698,2.6917922755897044,2.8594764081716537
1789571740846679800,10.7376796875,-0.843003314524889,2.815975704619288,2.902294390156865
1789571740856726000,10.74772607421875,-0.9170810157138853,3.0832734731197355,3.1666724718183277
1789571740866772000,10.75777197265625,-0.9501882624804973,3.430059788876772,3.312491394072771
1789571740876817000,10.76781689453125,-0.9950783745646476,3.6238568523585792,3.2962311641454694
1789571740886863000,10.777863037109375,-1.0730185233354568,3.5451848821818825,3.1990812879920005
1789571740896908000,10.787907958984375,-1.0979226629674435,3.433813588452339,3.200564220026135
1789571740906954000,10.7979541015625,-1.1532254479944706,3.4409909327358004,3.349640098249912
1789571740917000000,10.808,-1.230652386546135,3.5211207005053757,3.4998020181447265
1789571740927045000,10.818045166015626,-1.1962228781998157,3.562560964396596,3.6531519204258918
1789571740937091000,10.828091064453124,-1.2126561266064644,3.5405326724618673,3.8740450806260105
1789571740947136000,10.838135986328124,-1.2580816607415675,3.538611933532357,4.131772179965675
1789571740957182000,10.848181884765625,-1.280720193529129,3.6374200982868667,4.357499043932557
1789571740967228000,10.858227783203125,-1.3375497497320175,3.793045544284582,4.538852220904827
1789571740977273000,10.868273193359375,-1.42848265106678,3.9748470495462414,4.577264369146525
1789571740987319000,10.878319091796875,-1.4179226786077022,4.133824144059419,4.604705333779752
1789571740997365000,10.888364990234376,-1.4022200825631617,4.216338761138916,4.64243914436847
1789571741007410200,10.89841015625,-1.396083771765232,4.213043226724863,4.695545296134054
1789571741017456000,10.9084560546875,-1.3809049073338509,4.1625177391022445,4.777795124797523
1789571741027501000,10.9185009765625,-1.3276666536211967,4.002065895861387,4.86492483445704
1789571741037547000,10.928547119140624,-1.3148375671863555,3.7045869241088627,4.897353524374962
1789571741047593200,10.93859326171875,-1.3505308118581771,3.4038369678616522,4.884087215566635
1789571741057638000,10.948637939453125,-1.3523743938982487,3.2669781816542147,4.880101653061807
1789571741067683800,10.958683837890625,-1.3608511303424835,3.106208358505368,4.928870944666862
1789571741077730000,10.96872998046875,-1.4532488435328006,2.7704093007087707,5.082512523370981
1789571741087775000,10.97877490234375,-1.5254057327270507,2.338683186551928,5.269010077494382
1789571741097821000,10.988821044921876,-1.468293267929554,1.7997575113922357,5.509621499121189
1789571741107866000,10.9988662109375,-1.4148293887674808,1.065748240071535,5.776701240956783
1789571741117912000,11.008912109375,-1.2815864549696445,0.3381459131836891,6.01046615768969
1789571741127958000,11.0189580078125,-1.0417571236312388,-0.13094459372758865,5.973271860805154
1789571741138003200,11.029003173828125,-0.7135936752796173,-0.32857962793707846,5.931960191729664
1789571741148049200,11.039049072265625,-0.44182840597629547,-0.3534837675690651,5.914221121421456
1789571741158093800,11.04909375,-0.2462555649936199,-0.1755669947862625,5.940055235379934
1789571741168140000,11.05914013671875,-0.18969371981620786,0.25839140846729275,6.025190848612785
1789571741178186000,11.06918603515625,-0.3891407718837261,0.7103671144485473,6.207334299179911
1789571741188231000,11.07923095703125,-0.7429951263308525,0.9983914446353912,6.3798132648229595
1789571741198277000,11.089277099609374,-1.0943114867329597,1.014841059654951,6.387891357338428
1789571741208323000,11.099322998046874,-1.2646388273000717,0.717165688547492,6.180244047680497
1789571741218368000,11.109367919921874,-1.2325672802567482,0.14215397000610827,5.751573813962936
1789571741228414000,11.1194140625,-0.9673474870741366,-0.5858452472448349,5.291752070656418
1789571741238459100,11.129459228515625,-0.555173045605421,-1.17275315528512,4.7188937307566405
1789571741248505000,11.139505126953125,-0.17063596812486648,-1.533984175980091,4.062324257469177
1789571741258551000,11.149551025390625,0.15185178181105294,-1.705531413730979,3.491289041343331
1789571741268596000,11.159595947265625,0.44331776775121684,-1.74062844607532,3.058245999369025
1789571741278642000,11.169641845703126,0.66037997148633,-1.6146388444066047,2.665216987875104
1789571741288687000,11.17968701171875,0.7441945652484894,-1.3790502193778753,2.3989409636378287
1789571741298733000,11.189733154296874,0.7269862408161163,-1.166585280305147,2.2101433158785104
1789571741308779000,11.199779052734375,0.5866179851830006,-1.0011936425745487,1.9784470221132038
1789571741318824000,11.209823974609375,0.34519411466214805,-0.855752321460843,1.7043810746520758
1789571741328870100,11.2198701171875,0.024039047235250473,-0.709808311522007,1.3604688530266285
1789571741338916000,11.229916015625,-0.22368838040921835,-0.5899193648159503,1.0925544139325618
1789571741348961000,11.2399609375,-0.36599838122725487,-0.4573854560703039,0.9390402610003947
1789571741359007200,11.25000732421875,-0.34361933962609614,-0.3136445091336965,0.9031202218353748
1789571741369052000,11.260052001953126,-0.20843345506694166,-0.22063070987164973,0.9012924218863249
1789571741379097900,11.270097900390626,0.06540566136837005,-0.13350304603874683,0.9566028056979179
1789571741389144000,11.28014404296875,0.3482208055395633,-0.13652210159897804,0.9002893823236227
1789571741399189000,11.29018896484375,0.5310791263777762,-0.26398995912671086,0.7824795799791813
1789571741409235000,11.30023486328125,0.6748574096500873,-0.4701017297804355,0.5837760397553443
1789571741419280100,11.310280029296875,0.8223522292274982,-0.7279846042037009,0.2785240959137678
1789571741429326000,11.320326171875,0.9215409907974302,-1.0414023188441992,-0.04120762417912483
1789571741439372000,11.3303720703125,1.084281164171174,-1.4147685984909533,-0.4067395569384098
1789571741449417200,11.340417236328125,1.3159784077845513,-1.773389728948474,-0.7575631653875112
1789571741459463200,11.350463134765626,1.6051555612683295,-2.112486659246683,-1.136226966920495
1789571741469509000,11.360509033203124,1.9522810458518562,-2.3672663069576023,-1.5474311020523308
1789571741479554000,11.370553955078124,2.3448808721482752,-2.5885095957696436,-1.9184213002175092
1789571741489600000,11.38060009765625,2.762664385670423,-2.822434671500325,-2.2337445562183857
1789571741499645200,11.390645263671875,3.1086849777519703,-3.0781469238862393,-2.57740075725615
1789571741509691100,11.400691162109375,3.3373487719535824,-3.283986599600315,-2.905589924570918
1789571741519737300,11.4107373046875,3.5003859555125234,-3.484778052014112,-3.246126532283425
1789571741529782300,11.4207822265625,3.4791830084860322,-3.7449613123342393,-3.5115362950801847
1789571741539828200,11.430828125,3.4447195978701113,-3.9702386789679527,-3.657600716528296
1789571741549873400,11.440873291015626,3.396947792869806,-4.14561891901046,-3.7987569076687095
1789571741559919400,11.45091943359375,3.2489760764956475,-4.315871148514748,-3.973493881371617
1789571741569965300,11.46096533203125,2.9786779571354387,-4.444771084672213,-4.176134761044382
1789571741580010200,11.47101025390625,2.6256793427348137,-4.574082231979072,-4.359173114624619
1789571741590056200,11.48105615234375,2.2848249012447894,-4.741544538503885,-4.46325717395544
1789571741600102100,11.49110205078125,1.977646811646223,-4.9508635807663195,-4.605936629140377
1789571741610147300,11.501147216796875,1.7242485352911054,-5.1930689935863015,-4.8003293204277755
1789571741620193300,11.511193359375,1.5719690387204288,-5.454604545298219,-4.946702369433641
1789571741630238200,11.52123828125,1.5896236456155777,-5.663173061454295,-5.048599732375145
1789571741640284400,11.531284423828126,1.8054528004243968,-5.923734215176105,-5.0564457697004075
1789571741650330400,11.541330322265624,2.010931533871591,-6.295093831175565,-5.0966936089366675
1789571741660375300,11.551375244140624,2.0011282249987126,-6.7502195256203406,-5.0999458887308835
1789571741670421200,11.561421142578125,1.908220954851061,-7.239909168446063,-5.038109902542829
1789571741680466200,11.571466064453125,1.7508160780906676,-7.689267969927191,-5.061168122047186
1789571741690512100,11.58151220703125,1.465369635567814,-8.004373199263215,-5.156172218343615
1789571741700558000,11.59155810546875,1.1177284565471113,-8.215027289521693,-5.093852248030901
1789571741710603300,11.601603271484375,0.8135469914812594,-8.390503683415055,-4.891328857257962
1789571741720649200,11.611649169921876,0.595633870005235,-8.464901045012473,-4.746472058033943
1789571741730695200,11.621695068359376,0.4795858897015452,-8.303323997133969,-4.637153020659089
1789571741740740400,11.631740234375,0.5489572398304939,-7.859948946237564,-4.480335150006413
1789571741750786300,11.641786376953124,0.654768634410575,-7.32035457803607,-4.146555030816793
1789571741760831200,11.651831298828125,0.7090213989280164,-6.750080993932485,-3.6544524816304444
1789571741770877400,11.66187744140625,0.5792752942699939,-6.093897889614105,-3.123314391607046
1789571741780923400,11.67192333984375,0.2604828277885914,-5.475964728713035,-2.4453648611605168
1789571741790968000,11.681968017578125,-0.1847590398930013,-4.8732647927790875,-1.6348030960351227
1789571741801014300,11.69201416015625,-0.7496188553195446,-4.225269086569547,-0.9044219520837068
1789571741811059200,11.70205908203125,-1.3893804747343061,-3.518307688911259,-0.21463351528346536
1789571741821105200,11.712105224609376,-2.0314622807249427,-2.858050759282708,0.28212591979801654
1789571741831151400,11.7221513671875,-2.5374422563552854,-2.3838559149697423,0.655254883557558
1789571741841196300,11.7321962890625,-2.73607565395236,-2.0645196239352224,0.9110562755316496
1789571741851242200,11.7422421875,-2.6766157492458817,-2.032399561575055,1.024796636480093
1789571741861288200,11.7522880859375,-2.527297294437885,-2.147217196366191,0.9272744198828935
1789571741871333400,11.76233349609375,-2.176435692065954,-2.2668968842357398,0.9251981981307268
1789571741881379300,11.77237939453125,-1.6884779875993727,-2.355205282285809,0.8500403735548258
1789571741891424300,11.78242431640625,-1.2675392249166966,-2.2658991053700444,0.7948059775888919
1789571741901470200,11.79247021484375,-0.9462086913250386,-1.9575836823046207,0.8478145141988992
1789571741911516200,11.80251611328125,-0.7045905768737196,-1.505785086455941,0.9731851071864366
1789571741921561300,11.812561279296874,-0.5606989694200456,-0.9922919587165117,1.1788561483353375
1789571741931607300,11.822607177734374,-0.3608233166769147,-0.3866927942097187,1.4425386489480734
1789571741941653200,11.8326533203125,-0.11401333267092705,0.2994201689481735,1.718575019699335
1789571741951698200,11.8426982421875,0.12858911664262412,0.9566384615331888,1.9810545742630958
1789571741961744400,11.852744384765625,0.3132783061698079,1.4820090740710496,2.1487989125996827
1789571741971789300,11.862789306640625,0.4736652674809098,1.897744422891736,2.286530974510312
1789571741981835300,11.872835205078125,0.6508160243272781,2.20016611174345,2.3701672890961167
1789571741991881500,11.882881591796876,0.788348325882107,2.3633979410916566,2.2389649212151763
1789571742001926100,11.892926025390626,0.910326207691431,2.382945522126555,2.1472388236761093
1789571742011972000,11.90297216796875,0.9853146670497953,2.442848494425416,2.1779946119457483
1789571742022017300,11.913017333984374,1.1612160083569585,2.534378777131438,2.210499874231219
1789571742032063200,11.923063232421875,1.3433330093085765,2.5542197881549593,2.2307962278068065
1789571742042109200,11.933109130859375,1.4429590663172305,2.480767598453164,2.276659568837285
1789571742052154400,11.943154296875,1.5502502511262892,2.5112018996834755,2.4019921679019927
1789571742062200300,11.953200439453125,1.6575823524676263,2.570038119533658,2.5912328832536935
1789571742072246300,11.963246337890626,1.686235761630535,2.6758389196544883,2.825905562481284
1789571742082291500,11.97329150390625,1.7149438235901295,2.8517221407830715,3.2080665584802626
1789571742092337400,11.98333740234375,1.6832931323073803,3.035146278810501,3.5041204658657312
1789571742102382000,11.993382080078124,1.5583749592624603,3.1773762366622686,3.66109966455996
1789571742112428300,12.00342822265625,1.4552280346512794,3.331152839922905,3.894292334362864
1789571742122474200,12.01347412109375,1.4056784063234924,3.4965380479127166,4.207469225984812
1789571742132519200,12.023519287109375,1.2363117274820803,3.640331601819396,4.53276559446752
1789571742142565400,12.0335654296875,1.0414087485849857,3.7531110087811945,4.88967349126637
1789571742152610300,12.0436103515625,0.8045603327535092,3.8358331311315297,5.271378560191392
1789571742162656300,12.05365625,0.5631740542966872,3.7675925385981794,5.6274774786949155
1789571742172702200,12.0637021484375,0.3582616494953632,3.5806449026197193,5.885507652634382
1789571742182747400,12.073747314453126,0.13065123680420218,3.4675077682614326,6.022728842413425
1789571742192793300,12.08379345703125,-0.15426226788572966,3.509863393431902,6.131164667212963
1789571742202839300,12.09383935546875,-0.47786651856303214,3.575474221983552,6.33559301482439
1789571742212884200,12.10388427734375,-0.7641314378619194,3.624579905936122,6.569841915681958
1789571742222930200,12.11393017578125,-0.9872761763811111,3.630277240794897,6.776095725154876
1789571742232975400,12.123975341796875,-1.1607703834813088,3.4469513024449348,7.085723984384536
1789571742243021300,12.134021240234375,-1.3020038045763969,2.9385119509637354,7.349234051039814
1789571742253067300,12.1440673828125,-1.3179413784205913,2.179677450466156,7.452593303227424
1789571742263112200,12.1541123046875,-1.0069605355381965,1.4585457808971405,7.476157718688249
1789571742273158400,12.164158447265624,-0.4831961160879582,0.969909446516633,7.437179460996389
1789571742283203300,12.174203369140624,-0.09363452497627586,0.6225900467962027,7.376427762913703
1789571742293249300,12.184249267578124,0.10117376137468963,0.4336000913351774,7.271033790028095
1789571742303295500,12.19429541015625,0.13927867029812185,0.4027642235666513,7.117270046249032
1789571742313340200,12.204340087890625,-0.08798694754336028,0.49855216371715066,6.926895942953228
1789571742323386000,12.21438623046875,-0.4832616190722212,0.6152998897880315,6.741205613559484
1789571742333432300,12.224432373046875,-0.8873942449152469,0.7738684035003185,6.501109155717492
1789571742343477200,12.234477294921875,-1.2343641005456447,0.9553338086754083,6.238139771810173
1789571742353523200,12.244523193359376,-1.4892413634121417,1.021305287232995,5.889406413638591
1789571742363568400,12.254568359375,-1.56134564563632,0.9255243613451719,5.50422811564505
1789571742373614300,12.2646142578125,-1.3031015366852283,0.7205670214235782,5.000962951931357
1789571742383660300,12.274660400390625,-0.7700655040860176,0.4155564851224422,4.452647517135739
1789571742393705500,12.28470556640625,-0.13395256163822486,0.12098317168354987,3.925945363733172
1789571742403751400,12.29475146484375,0.44770869618654247,-0.16543606139421463,3.338055458918214
1789571742413797400,12.30479736328125,0.9351672189593314,-0.42426761484444137,2.7700381293088197
1789571742423842300,12.31484228515625,1.4043629398107529,-0.6108598615139722,2.2062743654906747
1789571742433888300,12.32488818359375,1.8000316521584987,-0.7855325378090142,1.6839380060821771
1789571742443933200,12.33493310546875,2.0292893206000326,-0.9705395611137151,1.246411681213975
1789571742453979100,12.344979248046876,2.084462341767549,-1.1173352194458246,0.8975175795227288
1789571742464025300,12.355025390625,2.1854946123123167,-1.200966857856512,0.5744184288233518
1789571742474070300,12.3650703125,2.3453648562729357,-1.3012696450829506,0.41430794636607166
1789571742484116200,12.3751162109375,2.5387106688559054,-1.4509773914694786,0.3926946649730205
1789571742494161400,12.385161376953125,2.7050889795362947,-1.53978614025712,0.38534605577588077
1789571742504207400,12.395207275390625,2.832147671741247,-1.4507634564578533,0.296530292725563
1789571742514253300,12.40525341796875,2.8045874646425246,-1.2627104895859955,0.37413258784413334
1789571742524298500,12.415298583984375,2.6559634218394756,-1.1129238327443598,0.3747539346128702
1789571742534344400,12.425344482421876,2.3929192191302775,-0.9549433480530977,0.2444341947853565
1789571742544390400,12.435390380859374,2.0575462777912614,-0.7567588632673025,0.1089262386649847
1789571742554435600,12.445435546875,1.7571033416666089,-0.6615262189120054,-0.04346855484843254
1789571742564481500,12.4554814453125,1.449734697932005,-0.7305038935482502,-0.2016524531573057
1789571742574526500,12.4655263671875,1.113036134012416,-0.9024380847901106,-0.4328413819223642
1789571742584572700,12.47557275390625,0.8487724725108593,-1.167844340455532,-0.8075269274741411
1789571742594618600,12.48561865234375,0.6538789190292358,-1.546345644903183,-1.3057143495321273
1789571742604663300,12.495663330078125,0.5135983416795731,-1.9928250915557144,-1.9347996035665274
1789571742614709500,12.50570947265625,0.29872100770287213,-2.4770567612364887,-2.5492308938264845
1789571742624754400,12.51575439453125,0.18333287954740224,-2.8776106152772902,-3.1267005269140005
1789571742634800400,12.52580029296875,0.2610393656928092,-3.294920666068792,-3.662670274877548
1789571742644846300,12.535846435546874,0.3583527618449181,-3.680698975782096,-4.071244646027684
1789571742654891500,12.5458916015625,0.4695254642624408,-4.027679645067453,-4.4448400582551955
1789571742664937500,12.5559375,0.5587503926355392,-4.254326546488702,-4.771241173109412
1789571742674983400,12.5659833984375,0.602580182011798,-4.29899746286422,-4.943984342646599
1789571742685028600,12.576028564453125,0.5965665477454662,-4.203267682641744,-5.000541511648893
1789571742695074600,12.586074462890625,0.5230899542547762,-4.081146739099919,-5.035032979315519
1789571742705119500,12.596119384765625,0.3537292667627334,-4.0468902492329475,-5.081721080732345
1789571742715165400,12.60616552734375,0.20646372589655218,-4.0836946700170635,-5.149774626260996
1789571742725211400,12.61621142578125,0.16667648990936576,-4.223973493801057,-5.208205772441625
1789571742735256300,12.62625634765625,0.28129180706143375,-4.405330762426555,-5.282454080957174
1789571742745302500,12.636302490234375,0.5851332995831966,-4.557472165700793,-5.392410247191786
1789571742755347500,12.646347412109375,0.8972212269246578,-4.684399925002455,-5.585726833680272
1789571742765393400,12.656393310546875,1.2024516895867883,-4.776632803019881,-5.858156704372167
1789571742775439600,12.666439697265625,1.5240309372425078,-4.821072833248973,-6.109821434932947
1789571742785484500,12.676484619140625,1.7974259997047484,-4.868989307416975,-6.296033157852292
1789571742795530500,12.686530517578126,1.9117162496209144,-5.005384860026836,-6.4594812602996825
1789571742805576400,12.696576416015626,1.917927379220724,-5.39898611845076,-6.42287499243617
1789571742815621400,12.706621337890626,1.8613608578681944,-6.116500182044506,-6.313968627515435
1789571742825667300,12.716667236328124,1.8095792327046394,-6.9461296357333655,-6.187945708099007
