time,seconds_elapsed,z,y,x
1789708522887427800,0.057427734375,-0.10414192699790001,-0.04741700021326541,0.025941665986180303
1789708522897416000,0.067416015625,-0.22607670031785965,0.009648702833056449,0.2070456174377352
1789708522907403800,0.07740380859375,-0.5869628530979156,0.22897826697826384,0.36814613384567196
1789708522917392000,0.087391845703125,-1.0329998166799546,0.3566571369081735,-0.035020898368209596
1789708522927380000,0.0973798828125,-0.9293068024933338,0.11281856992840766,-0.13735460690036416
1789708522937368800,0.107368896484375,-0.6368225702881812,0.07940612967014313,0.04345503777973354
1789708522947356700,0.117356689453125,-0.5438602089524269,0.2946311811059713,0.2792618356037885
1789708522957344800,0.1273447265625,-0.8154781787395476,0.4371557379901409,0.23575419085398314
1789708522967332900,0.137332763671875,-0.7956862675547599,0.9689216045230626,-0.1477553702097386
1789708522977320700,0.14732080078125,-0.4289040424734354,1.5873171222388744,-1.541909562151879
1789708522987309600,0.1573095703125,0.20429156948924063,1.6436211932629345,-3.1220673141553994
1789708522997297700,0.167297607421875,0.42637014008164403,1.9758122896954415,-3.653291036635637
1789708523007285800,0.17728564453125,1.48797645804286,2.099953925409913,-4.037518609775603
1789708523017273600,0.187273681640625,2.754487508955598,2.136169732651114,-4.543450070089102
1789708523027261700,0.19726171875,3.4311475841134786,2.522890583911538,-3.3805513693422076
1789708523037250800,0.207250732421875,3.569166646271944,2.1257553061425685,-2.808328404736519
1789708523047239000,0.217239013671875,3.6679677967637776,1.9444336933523416,-2.9249995584398505
1789708523057227000,0.22722705078125,3.975789883354306,1.9170801147416232,-2.685867561715841
1789708523067214800,0.23721484375,4.015065662688016,1.4414298109233379,-2.062319483542442
1789708523077202700,0.24720263671875,4.18305842282772,0.8974828004702925,-1.4723594944551586
1789708523087190800,0.257190673828125,5.024812029552459,0.16182634646445512,-0.6120329969465732
1789708523097180000,0.267179931640625,5.761718775880336,0.30705022543519733,0.18626871380358934
1789708523107167700,0.277167724609375,6.476928654184937,0.08082330299168825,0.7520999315455555
1789708523117155800,0.28715576171875,6.322980201488733,-1.5722499014884233,-1.1309595479115844
1789708523127144000,0.29714404296875,5.762440660414099,-2.8047473313793536,-1.693041349992156
1789708523137131800,0.3071318359375,4.391546274963021,-3.4635289277583357,-1.8052818277716636
1789708523147120600,0.31712060546875,1.5639187109947204,-4.0510079136848445,-0.8573308228239417
1789708523157108700,0.327108642578125,-0.9456249000877142,-4.21513756865561,0.02214168918132782
1789708523167096800,0.337096923828125,-2.783849212518334,-4.4616544149339195,-0.4780883446201682
1789708523177084700,0.347084716796875,-2.2615502625107764,-3.984899657005071,0.3642407239049673
1789708523187072800,0.35707275390625,-1.6742448795855045,-3.138828187081218,1.2979662196233868
1789708523197062000,0.367061767578125,-0.051372459840774536,-2.127252266702056,1.6254368634052574
1789708523207049700,0.3770498046875,-0.5453191755890846,-1.8267296894699334,0.9775723092947155
1789708523217037600,0.38703759765625,-3.0668636055886744,-1.8874176746666431,0.7652332616239785
1789708523227025700,0.397025634765625,-2.4455197594612836,-1.3046131102919578,0.8952218698009848
1789708523237013800,0.407013671875,0.49615270135998724,0.32621406784951684,5.446023763957619
1789708523247003000,0.4170029296875,1.1994207974582909,0.6168658239305019,8.072606193011998
1789708523256990700,0.42699072265625,-0.8467886782824993,-1.974215083631873,4.667753910627961
1789708523266978800,0.436978759765625,0.240330266597867,-3.2543317583099007,2.0533177003107963
1789708523276967000,0.446966796875,1.978258221542835,-1.847555035355687,0.9736169227324426
1789708523286954800,0.456954833984375,2.141131154450774,-0.6890685980930924,-0.1878941230483353
1789708523296943600,0.466943603515625,2.40248199724555,0.07147270632237196,-1.4401682665549218
1789708523306931700,0.476931640625,3.648811845394969,0.2974193505197763,-1.9323868433363736
1789708523316919800,0.486919921875,3.291618117392063,0.28848493343591686,-0.6609959114275872
1789708523326908000,0.496907958984375,2.2097353195995093,-0.05799567737281322,-0.9466706097483635
1789708523336895700,0.506895751953125,2.548581490007043,-1.0529098012864588,-1.5832015036135911
1789708523346884600,0.516884521484375,2.9457763890087603,-1.1265145512014627,-1.2324196884796024
1789708523356872700,0.526872802734375,3.6967408867835996,-0.7746610151827334,-0.5072799523130059
1789708523366860800,0.53686083984375,4.088831156122684,-0.7407850490659474,-0.45969665562212464
1789708523376848600,0.5468486328125,4.155906796529889,-0.4696107313930988,-1.2095660516366362
1789708523386836700,0.556836669921875,3.941221843320131,0.01009352399110794,-1.5500637886434792
1789708523396825900,0.566825927734375,3.292186857190728,0.07641454663872718,-2.0910154166728256
1789708523406814000,0.57681396484375,3.175836606004834,-0.1621077937543392,-2.8071237051218745
1789708523416801800,0.5868017578125,3.657944415399432,-0.5947212121397256,-3.5390216833770274
1789708523426790000,0.596789794921875,4.267735186377167,-1.4495435592740773,-4.23705246334374
1789708523436777700,0.60677783203125,4.497394421356916,-2.436810967826843,-4.354295863977074
1789708523446766800,0.616766845703125,4.123129147043824,-3.206939015755057,-4.210705431427061
1789708523456755000,0.6267548828125,2.97539352863729,-3.264388749682903,-3.5446368929103014
1789708523466743000,0.636742919921875,1.086557803866267,-3.176588301154971,-3.081191406148672
1789708523476731100,0.646731201171875,-0.716882195430994,-3.21441271263659,-3.026207185551524
1789708523486719200,0.65671923828125,-2.7077719350099563,-3.2362276540815826,-2.9972458794832226
1789708523496707800,0.666707763671875,-2.910945898646116,-1.9969488934874533,0.07884425800368189
1789708523506696000,0.676696044921875,-3.1953806799083946,-1.9920722273617981,0.4292686380021274
1789708523516684000,0.68668408203125,-3.99812504928112,-2.6956735009372235,-0.4720793134637177
1789708523526672100,0.696672119140625,-4.585938381728529,-2.6348399697899816,-0.6353321855999529
1789708523536660000,0.706659912109375,-4.744987956956028,-1.9632535446345805,-0.43679698768034575
1789708523546649000,0.716649169921875,-4.149737167984247,-1.5643611940652131,-0.09120324270874261
1789708523556637000,0.726636962890625,-3.199725431114435,-1.6935872934371232,0.0019090484917163848
1789708523566625000,0.736625,-1.293113226634264,-1.8675462685048578,0.4042440868608653
1789708523576612900,0.74661279296875,-0.2991121259123087,-2.1684873634099957,0.19324717451408505
1789708523586601000,0.75660107421875,-0.3916448636591434,-2.273783136618137,-0.40022316078171133
1789708523596590000,0.766590087890625,-0.3157517105460167,-2.0243559558510777,-0.5978055880211294
1789708523606578200,0.776578125,-0.0975152023345232,-1.421565419024229,-0.5177917017161846
1789708523616566000,0.78656591796875,-0.029743980878591536,-1.122688855433464,-0.7459252614986152
1789708523626554000,0.79655419921875,0.0957329950928688,-0.9720768536835909,-0.9615862201336771
1789708523636542200,0.806542236328125,0.25281039346456524,-0.7989876471877098,-0.8758120167363435
1789708523646531000,0.816531005859375,0.34058395398557184,-0.5240098455786705,-0.6302580972060561
1789708523656519000,0.826518798828125,-0.06304886910915375,-0.0669195730626583,-0.359512343676202
1789708523666507000,0.836507080078125,-0.6253577579438686,0.3995891006618738,-0.0672698843376711
1789708523676495000,0.8464951171875,-0.9363988065809011,0.48907063414454455,-0.10653234753208234
1789708523686483200,0.856483154296875,-0.9771797297805547,0.3922662104278803,-0.05813510410981253
1789708523696471000,0.866470947265625,-0.45009763714969153,0.32040801191926,0.014638336947048082
1789708523706460000,0.8764599609375,0.22555764487981794,0.012176760005950927,-0.33025804601069536
1789708523716448000,0.886447998046875,0.7704723313212394,-0.45338323469161984,-0.6429078815512359
1789708523726436000,0.89643603515625,0.6759364370584487,-0.8025017927885055,-0.45240174937359984
1789708523736424000,0.906423828125,0.5385106646180152,-0.7530968336284161,-0.07541373556572943
1789708523746413000,0.9164130859375,0.45464580197334287,-0.13874328477978706,0.01593055958151817
1789708523756401200,0.926401123046875,0.4799404022276401,0.05026946703493595,-0.36660379977449775
1789708523766389200,0.93638916015625,0.6303109964370727,-0.38892157617509365,-0.57589975342229
1789708523776377000,0.946377197265625,0.7894926736116409,-0.9434212525635958,-0.27912337698116896
1789708523786365000,0.956364990234375,0.782002610117197,-1.392158122754097,0.040746582538634536
1789708523796353000,0.96635302734375,0.34705227321684357,-1.7240052280545233,0.3983980642464012
1789708523806342100,0.976342041015625,-0.4212532354593277,-2.1107570589751004,0.9009394437301903
1789708523816330000,0.986330078125,-0.9259516468465327,-2.4038725748211145,1.2832935511484742
1789708523826318000,0.996318115234375,-0.5763216320961714,-2.3345593846201895,1.5505986261725424
1789708523836306200,1.00630615234375,0.0726712684571743,-1.8326941508322954,2.121584888590127
1789708523846294000,1.0162939453125,0.6030120706230402,-1.5265864669442175,1.8277903044387698
1789708523856283000,1.026282958984375,1.3247586572200059,-1.696027087804675,1.1355030365601182
1789708523866271000,1.03627099609375,2.071401200142503,-1.4267717554956674,0.631676951028034
1789708523876259000,1.046259033203125,2.222916872733831,-0.9691852238953113,-0.0076068217419087885
1789708523886247000,1.056246826171875,1.919194038155675,-0.5473246701925992,-0.14313618597649036
1789708523896235000,1.066235107421875,1.5317659154087304,-0.38122459193170066,0.28235877870582043
1789708523906224000,1.07622412109375,1.7974287761837242,-0.6058066697776318,0.9479168104171752
1789708523916212000,1.0862119140625,2.2807190733611584,-0.9310708895564078,1.1530511874061078
1789708523926199800,1.09619970703125,2.91159121081233,-0.7756926963180303,1.4972430296905337
1789708523936188000,1.10618798828125,3.452235964849591,-0.4102332442730665,1.6052575603380799
1789708523946176000,1.116176025390625,3.626170389997959,0.0032809213668107983,0.9328030471112578
1789708523956165000,1.1261650390625,2.972612958008051,0.3225818488270044,0.257747557605803
1789708523966153200,1.1361533203125,2.082439896029234,0.3482721704006195,-0.1543780032198876
1789708523976141000,1.14614111328125,1.5617986501008272,0.30465573151409625,-0.16487945042476057
1789708523986129200,1.156129150390625,1.2706161481440066,0.44345454587340355,0.3082706340756267
1789708523996117000,1.166116943359375,1.0167430938839912,0.5941968960046767,0.9908975817486643
1789708524006106000,1.176106201171875,0.5478665219843387,0.3806026606410742,1.3699094660669564
1789708524016094000,1.186093994140625,0.1864911243826151,0.12356500487029552,1.3863770551346242
1789708524026082000,1.19608203125,0.18901216729283332,-0.059063014343380925,1.3101295356258749
1789708524036070100,1.206070068359375,0.1622515861392021,-0.07084288398623466,1.4382801147207618
1789708524046058000,1.21605810546875,0.05708206965923309,-0.08959493072926998,1.4663003405466675
1789708524056046800,1.226046875,0.05926350535154342,-0.19372399824559688,1.3604700220704078
1789708524066035000,1.236034912109375,-0.03453004611134529,-0.23101707932949064,1.2033247460942715
1789708524076023000,1.24602294921875,-0.2515063251286745,-0.33196167159080503,0.9164256205450743
1789708524086011000,1.256010986328125,-0.5706166984528303,-0.27796003229022026,0.6245259102296083
1789708524095999000,1.2659990234375,-0.9825894798696041,0.044946226185560226,0.6742906426127999
1789708524105988000,1.275988037109375,-1.2471341502696276,0.0675432579189539,0.6269668736409395
1789708524115976200,1.28597607421875,-1.4562088623821734,-0.03248421949744224,0.6258662189226597
1789708524125964000,1.295964111328125,-1.3539210388183593,-0.24099603703022002,0.5487606212798506
1789708524135952000,1.305951904296875,-1.1753823347449301,-0.3662000412791967,0.44202772794067857
1789708524145940000,1.31593994140625,-0.981280150836706,-0.40924247967004773,0.2739154330745339
1789708524155929000,1.32592919921875,-0.9325362859338522,-0.5214613301396369,0.056192354277893895
1789708524165917000,1.3359169921875,-0.9857657718181609,-0.5581587834179401,-0.283796556423977
1789708524175905000,1.345905029296875,-1.038330656313896,-0.4873755206644535,-0.562957708132267
1789708524185893000,1.35589306640625,-1.1258622247725725,-0.43242578685879707,-0.6074644469220191
1789708524195881200,1.365881103515625,-1.3487638021856545,-0.4261310706287622,-0.5426236528947949
1789708524205869800,1.375869873046875,-1.4701052857875823,-0.6015028351038694,-0.4618252651486546
1789708524215858000,1.38585791015625,-1.431059808078408,-0.7879618107825517,-0.3797467744641006
1789708524225846000,1.395845947265625,-1.3866472503781317,-0.8779512937873601,-0.27011881727054715
1789708524235834000,1.405834228515625,-1.3510557125151157,-1.0521978536248207,-0.28768216568566857
1789708524245822000,1.415822021484375,-1.2744506117403507,-1.2908183936953543,-0.4481872734837234
1789708524255811000,1.42581103515625,-1.328878367498517,-1.5100813223451375,-0.5294892268378287
1789708524265799200,1.435799072265625,-1.6791308980613946,-1.7400287266165018,-0.5355838173858821
1789708524275787000,1.445787109375,-2.499751115864515,-1.9042898990124464,-0.41064211733490225
1789708524285774800,1.45577490234375,-3.713060737943649,-1.9268781629174947,-0.462324812168628
1789708524295763000,1.465762939453125,-4.6193069828450675,-2.170954630306363,-0.42297099916264413
1789708524305752000,1.475751953125,-5.162724708727001,-2.5123516542404887,-0.33781974996924397
1789708524315740200,1.485740234375,-5.28483016243875,-2.8420781141251323,-0.313562529938668
1789708524325728000,1.49572802734375,-5.3266474429488175,-3.0646324855357405,0.026467297295480963
1789708524335716000,1.505716064453125,-5.734778746506572,-3.094341395100951,0.17725100235044955
1789708524345704200,1.5157041015625,-6.197889009964466,-3.2987153821766375,-0.12082009007632731
1789708524355693000,1.525693115234375,-6.7099933136939995,-3.568631224220991,-0.25712138853147626
1789708524365681000,1.535680908203125,-7.436116800200939,-3.79135218437016,-0.04951894092857837
1789708524375669000,1.5456689453125,-8.141168272584677,-4.190167962571978,0.2285432365618646
1789708524385657000,1.555656982421875,-8.551004041972757,-4.657520685905218,0.613812573839724
1789708524395645200,1.565645263671875,-8.641528947028517,-5.210385454568266,0.9182230984210967
1789708524405634000,1.575634033203125,-8.583251530104874,-5.805251628136634,0.6941060077384114
1789708524415622000,1.585621826171875,-8.473807989567518,-6.042745794525742,0.42432402120679613
1789708524425610000,1.59560986328125,-8.318606906461715,-6.338432622164487,0.5612152483791113
1789708524435598000,1.60559814453125,-7.963157976299524,-6.839433348077535,0.8401599077925086
1789708524445586000,1.6155859375,-7.627812507489323,-7.559814491540193,0.9249477305009961
1789708524455575000,1.625574951171875,-7.558367799863219,-8.602141524013877,1.035557684469223
1789708524465563100,1.635563232421875,-7.4445806771636,-9.535867311993242,1.4554144971340894
1789708524475551200,1.64555126953125,-7.106855619740486,-10.514985316359995,1.541274332988262
1789708524485539000,1.6555390625,-6.9427838324368,-11.285806022727488,0.6957400386810302
1789708524495527000,1.66552685546875,-6.739139328679442,-11.665505597048996,0.043240006789565084
1789708524505516000,1.67551611328125,-6.04994885777235,-12.122772395175694,-0.2607008544534445
1789708524515504000,1.685504150390625,-4.752899168471992,-13.24717506878972,-0.8615174608588219
1789708524525492000,1.695491943359375,-2.6254388119772076,-14.432020812928675,-1.6747972527712582
1789708524535480000,1.70547998046875,-0.06487842262387275,-15.157615891647337,-2.3935329671144485
1789708524545468200,1.71546826171875,1.8826438843935727,-15.533295124411582,-2.69765678370893
1789708524555456000,1.7254560546875,2.8806071667447686,-15.585177287340164,-2.6839555906146764
1789708524565444900,1.73544482421875,2.603783152747154,-15.75948639101982,-3.1039170326977965
1789708524575433000,1.745432861328125,1.8976020918115972,-15.764777483165263,-4.151537495404481
1789708524585421000,1.755421142578125,1.4229238478958606,-15.56334305667281,-5.336123127302527
1789708524595409000,1.765408935546875,1.5440619178801773,-15.624382339525221,-5.915466153046489
1789708524605397000,1.77539697265625,2.4660569360554216,-15.907356400585174,-6.128966864907741
1789708524615386000,1.78538623046875,3.7812487235069274,-16.104377686810494,-5.976624678364396
1789708524625374000,1.7953740234375,4.989019416159391,-15.99682799719572,-5.47955486215949
1789708524635361800,1.80536181640625,5.813365961009263,-15.952204427093266,-5.310546787497401
1789708524645350000,1.815349853515625,5.557558139294386,-16.211925038337707,-5.837718311977386
1789708524655338000,1.825337890625,4.639974215559661,-16.223532474023102,-7.0846923032492395
1789708524665327000,1.8353271484375,4.135633823829889,-15.700415777891873,-8.085290902540088
1789708524675315200,1.845315185546875,4.1432051358669995,-15.401376717215776,-8.885196249094605
1789708524685303000,1.855302978515625,4.415989811345935,-15.167828658103941,-8.922851733750104
1789708524695291100,1.865291015625,4.840800447025895,-14.931251606559753,-8.599754921138286
1789708524705279200,1.875279296875,5.2635225859940045,-14.955954670661686,-8.474757837638258
1789708524715268000,1.88526806640625,5.703334391450881,-15.048170013022421,-8.616143745881319
1789708524725256000,1.895255859375,6.120094991666078,-15.055324560952185,-8.895818765395878
1789708524735244000,1.905244140625,6.360493647325039,-14.845287141287326,-9.486347786542773
1789708524745232100,1.915232177734375,6.873174289637803,-14.162143549329041,-10.111552984273434
1789708524755220000,1.925219970703125,7.512939343118667,-13.113021449887752,-10.716233864891528
1789708524765208800,1.935208740234375,7.725109098637104,-12.15055004441738,-11.243252829158305
1789708524775197000,1.945197021484375,7.84874833778739,-11.175883174240589,-11.642891614180803
1789708524785185000,1.95518505859375,7.719794625616073,-10.113297197592258,-11.85170387596488
1789708524795172900,1.9651728515625,7.529298941767215,-8.916395689478517,-11.850989590215683
1789708524805161000,1.975160888671875,7.37165923333764,-7.740448706588149,-11.691417452418804
1789708524815150000,1.985150146484375,7.156618306297063,-6.49471682433188,-11.523884126484393
1789708524825138200,1.99513818359375,6.846089883357286,-5.236921579316258,-11.474922234916686
1789708524835126000,2.0051259765625,6.338900239676237,-4.235591743141413,-11.396279490834473
1789708524845114000,2.015114013671875,5.998543080183864,-3.330477132618427,-11.145558178603649
1789708524855102000,2.02510205078125,5.828766943758726,-2.395975099569559,-10.928650288647413
1789708524865091000,2.035091064453125,5.798747068548202,-1.4191267937004566,-10.57919153881073
1789708524875079000,2.045078857421875,5.842182890170812,-0.5719587607115507,-10.178334610170126
1789708524885067000,2.05506689453125,5.733660556131601,0.049877837368845934,-9.803112473523615
1789708524895055000,2.06505517578125,5.598046217027306,0.3760509886860847,-9.542213466149567
1789708524905043200,2.075043212890625,5.550298377424478,0.6392296314299106,-8.97931187211871
1789708524915031800,2.08503173828125,5.5254164496242995,1.1554904703170061,-8.333134613507985
1789708524925020000,2.09502001953125,5.4315726292788975,1.5648323187083004,-7.862331457459926
1789708524935008000,2.105008056640625,5.354255580842494,1.9035773668289184,-7.536665086621046
1789708524944996000,2.11499609375,5.354136338376999,2.1635452308326957,-7.40375649934411
1789708524954984000,2.12498388671875,5.7339855503022665,2.430402269828319,-7.440738030260801
1789708524964972000,2.134971923828125,6.191009187322854,2.7852047187805176,-7.495269246393442
1789708524974961200,2.144961181640625,6.527332561254501,3.0570483140170572,-7.637402758133411
1789708524984949000,2.154948974609375,7.001541141831875,3.285457841196656,-7.806406156620382
1789708524994936800,2.164936767578125,7.306077630880474,3.5359687255471943,-8.048520384025574
1789708525004925000,2.174925048828125,7.351596688517928,3.7855174868673083,-8.174280268591643
1789708525014913000,2.1849130859375,7.414425777396559,4.093763936349749,-7.97752552434802
1789708525024902100,2.194902099609375,7.53057787566185,4.174725478768348,-8.007461812928318
1789708525034890000,2.204889892578125,7.860281539192795,4.2666012139111755,-8.10037624346912
1789708525044878000,2.214878173828125,8.268461942589283,4.313974374982714,-8.213518054002522
1789708525054866200,2.2248662109375,8.569512343087792,4.301722211652994,-8.359695288175343
1789708525064854300,2.234854248046875,8.68969413526058,4.286794691634178,-8.543926066410542
1789708525074843000,2.2448427734375,8.695020883241295,4.180237520188093,-8.703263226407765
1789708525084831000,2.2548310546875,8.746004051503538,4.347409027072787,-8.84150557592809
1789708525094819000,2.264819091796875,8.843196013233065,4.571898750460147,-8.982519143727421
1789708525104807200,2.27480712890625,8.701537133267522,4.518481048527359,-9.492104158112406
1789708525114795000,2.284794921875,8.479358609431982,4.54285561132729,-10.008117159718275
1789708525124783900,2.294783935546875,8.14944276445508,4.503274711567164,-10.367874016207455
1789708525134772000,2.30477197265625,7.5704492828011505,4.367773769709467,-10.477145707309246
1789708525144760000,2.314760009765625,6.904670082619786,4.157916382786631,-10.500210941076277
1789708525154748000,2.324747802734375,6.486840391868353,4.012140715152025,-10.390517225170134
1789708525164736000,2.334736083984375,6.060769526994228,3.9557162326186894,-10.171634820270537
1789708525174725000,2.34472509765625,5.810521677494049,3.6461136923521753,-10.27290089957118
1789708525184713200,2.354713134765625,5.935881749087572,3.3773049347668884,-10.390430715930462
1789708525194701000,2.364701171875,5.894571249055862,2.788488562756777,-10.809095688462257
1789708525204689200,2.374689208984375,5.691358122453093,2.01015967271626,-11.18270454469323
1789708525214677000,2.384677001953125,5.560643245828151,1.4527321261823176,-11.337759497326612
1789708525224664800,2.394664794921875,5.473003540819883,0.9235293881356715,-11.279218461030721
1789708525234654000,2.404654052734375,5.540505297684669,0.30722704330682754,-11.271454841291904
1789708525244642000,2.41464208984375,5.621710585731267,-0.423533455350995,-11.534461634600161
1789708525254630100,2.424630126953125,5.6475148890733715,-1.2252689399421215,-11.840682131212949
1789708525264618000,2.434617919921875,5.558803170919418,-2.0073218189418314,-12.114024440574646
1789708525274606000,2.444606201171875,5.3531040727198125,-3.1256033793270586,-12.704898914158344
1789708525284595000,2.454594970703125,5.2874692787706845,-4.189814911350608,-12.932970003163813
1789708525294583000,2.4645830078125,5.056463889878988,-5.229949986737966,-13.159579787445068
1789708525304571000,2.47457080078125,4.899118780481815,-6.2920513947397465,-13.146951776540279
1789708525314559000,2.48455908203125,5.047642285519838,-7.059339835327863,-12.948555694830416
1789708525324547000,2.494547119140625,5.006772514992952,-7.9300325362890955,-12.852420548677443
1789708525334536200,2.5045361328125,5.1003953860640525,-8.86053234795928,-12.660061409044266
1789708525344524000,2.51452392578125,5.09737808406949,-9.736883805334568,-12.415880896759033
1789708525354512000,2.524511962890625,4.919216981136799,-10.809062955236435,-12.19098376161456
1789708525364500000,2.5345,4.774790974545478,-11.720823579645156,-11.767454397916794
1789708525374488000,2.544488037109375,4.4406823540538545,-12.724030315607786,-11.53657292766571
1789708525384477200,2.554477294921875,4.152254703763127,-13.562956005430221,-10.912366677844524
1789708525394465000,2.564465087890625,4.026518200072646,-14.290072010105847,-10.383546217113732
1789708525404453000,2.574453125,3.847967805561423,-15.321624550586938,-9.821520236873626
1789708525414441200,2.584441162109375,3.461044709727168,-16.826860770988464,-9.563231704258918
1789708525424429000,2.594428955078125,2.779502123224735,-18.396563910603522,-9.058779961109162
1789708525434418000,2.60441796875,2.3908622866004703,-18.795079244554042,-7.46912475131154
1789708525444406000,2.614406005859375,2.0413935998916624,-18.652396282237767,-5.904711534798145
1789708525454393600,2.6243935546875,1.923555740496516,-18.268363062626122,-4.670293658238649
1789708525464381400,2.63438134765625,2.025700356197357,-17.682879049909115,-3.7463971903562543
1789708525474369500,2.64436962890625,2.0801637677907943,-16.78728980810046,-2.551382518902421
1789708525484357600,2.654357666015625,2.115841814893484,-15.825598154830931,-1.3713584958314895
1789708525494346500,2.664346435546875,2.1754934427797794,-14.907022005188464,-0.3502291496872902
1789708525504334300,2.674334228515625,2.074367648732662,-14.125385305774211,0.6715390788823365
1789708525514322400,2.684322509765625,1.780672287172079,-13.443078749161957,1.7013661107450722
1789708525524310500,2.694310546875,1.360245565664768,-12.94946404184699,2.4010662852287292
1789708525534298400,2.70429833984375,0.9974263989955187,-12.53088207142353,3.0786914060264823
1789708525544287500,2.71428759765625,0.46277299432754515,-12.188204944550991,3.7595804970562456
1789708525554275600,2.724275634765625,-0.2392997727726586,-12.033415364855527,4.238457069444656
1789708525564263700,2.734263671875,-0.8345254090368748,-11.84181727272272,4.92712088612914
1789708525574251500,2.74425146484375,-1.5037620561957359,-11.59574992377758,5.400679478365182
1789708525584239400,2.7542392578125,-2.3633576090812682,-11.575077722626924,5.855552659353614
1789708525594228500,2.764228515625,-2.938084080940485,-11.31560377961993,6.6314575371176
1789708525604216600,2.774216552734375,-3.3502877485036846,-11.408955432534217,7.219510523539781
1789708525614204700,2.78420458984375,-3.346479003870487,-11.751128701537846,7.884018973132967
1789708525624192500,2.794192626953125,-2.8020085540652273,-11.87719487557411,8.639760183790326
1789708525634180600,2.8041806640625,-1.9129693184219299,-11.84081072602868,9.31159970692396
1789708525644168700,2.814168701171875,-1.0458614902101457,-11.617690537428855,9.72449603292644
1789708525654157600,2.824157470703125,-0.5835469071745872,-11.379586714708804,9.959652111756801
1789708525664145400,2.8341455078125,-0.2947358105242252,-11.035571032708882,10.116675734114647
1789708525674133500,2.844133544921875,-0.237083247500658,-10.764852057588099,9.892329218590259
1789708525684121600,2.85412158203125,-0.14496500883884728,-10.419785405230522,9.803342775148153
1789708525694109400,2.864109375,-0.08014255418591201,-10.087243887925148,9.808782335853577
1789708525704098600,2.8740986328125,0.09380177130196243,-9.924875397408009,9.830690216279029
1789708525714086700,2.884086669921875,0.3227799652149901,-9.86713281801343,9.818588275074958
1789708525724074500,2.894074462890625,0.4468448093662038,-9.84973277040124,9.686237321680784
1789708525734062300,2.904062255859375,0.5794598935892805,-10.064481436496973,9.421302775180338
1789708525744050400,2.914050537109375,0.7109609886884689,-10.207792175322771,9.24011677146852
1789708525754039600,2.92403955078125,0.6807528974294662,-10.17332642661929,8.826285794964432
1789708525764027600,2.934027587890625,0.6544166791677475,-10.176840572220087,7.903807961708307
1789708525774015500,2.944015380859375,0.7764239332020282,-9.949854355841875,7.056950309842825
1789708525784003600,2.954003662109375,0.8406266485214233,-9.793638542735575,6.4398500926345585
1789708525793991700,2.96399169921875,0.793703569304943,-9.787354347899555,5.9804059504687785
1789708525803980500,2.97398046875,0.8064496536314487,-9.859012639921904,5.845733276128769
1789708525813968400,2.983968505859375,0.7592600324332713,-10.011405679869652,5.973177168259024
1789708525823956500,2.99395654296875,0.75816230032444,-10.432379513865708,5.959177284479141
1789708525833944600,3.003944580078125,0.9576303951799869,-10.813540392911433,5.802791375502943
1789708525843932700,3.0139326171875,0.9712626146912574,-10.98818618119955,5.463877985078096
1789708525853920500,3.02392041015625,0.8526374043107032,-11.130723013043403,4.945008424997329
1789708525863909400,3.033909423828125,0.751032302314043,-11.196217521739005,4.139221034666896
1789708525873897500,3.0438974609375,0.7401864986509085,-11.266835949319601,3.0514842501491306
1789708525883885600,3.053885498046875,1.032648519024253,-11.15737954930067,2.068028508839011
1789708525893873400,3.063873291015625,1.3560785091131924,-11.16825048740506,1.5728139651119708
1789708525903861500,3.073861572265625,1.5337328315675258,-11.472876408302783,1.5095838942170143
1789708525913850600,3.0838505859375,1.4467273328095673,-11.890060202366113,1.5855734934419392
1789708525923838700,3.093838623046875,1.4559668703198432,-12.299409065020084,1.3493833953887224
1789708525933826600,3.10382666015625,1.651856522166729,-12.635925331175326,0.6790531077742576
1789708525943814400,3.113814453125,1.62568864620924,-12.975822471940516,-0.2791518724232912
1789708525953802500,3.123802490234375,1.5675602823674677,-13.191426878082751,-1.4522247611820698
1789708525963791600,3.13379150390625,1.2942793478041887,-13.175928864699602,-2.6665660643965006
1789708525973779500,3.143779541015625,0.8591852185189723,-12.976937739706038,-3.7586914392620323
1789708525983767600,3.153767578125,0.3398193262886256,-12.909322585594653,-4.567234850302338
1789708525993755600,3.163755615234375,0.11027290403358637,-13.099046700549126,-5.414631431350112
1789708526003743500,3.173743408203125,0.303190335136652,-13.324901282548904,-6.425978219148516
1789708526013731600,3.183731689453125,0.821876355344057,-13.530848218029737,-7.473457812079787
1789708526023720400,3.193720458984375,1.5292472105860708,-13.994599702000617,-8.801935782083868
1789708526033708500,3.20370849609375,2.2701164308041335,-14.706777665263413,-10.257610975980757
1789708526043696600,3.213696533203125,3.0292969682604074,-15.172205558013916,-11.075502061080932
1789708526053684500,3.2236845703125,3.898323781836033,-15.332688380914925,-11.513344027769564
1789708526063672600,3.233672607421875,4.748578090402484,-15.36535614028573,-12.059085228163003
1789708526073661400,3.243661376953125,5.761680197435617,-15.105235716068744,-12.815343156170844
1789708526083649500,3.2536494140625,6.798814921963214,-14.217190313768386,-13.418588451027869
1789708526093637400,3.263637451171875,7.6419444932162754,-12.859396232908963,-13.713591972577571
1789708526103625500,3.27362548828125,8.253700426787137,-11.21343987469673,-13.92698922406435
1789708526113613600,3.283613525390625,8.702499840819835,-9.160334794223308,-14.046877001726626
1789708526123602700,3.293602783203125,8.739650883084535,-6.705531073588133,-13.764779723501205
1789708526133590500,3.303590576171875,8.143580009901523,-4.225960575965047,-13.207453299254178
1789708526143578600,3.31357861328125,7.287896077501774,-1.9523884517490864,-12.637097882086039
1789708526153566700,3.323566650390625,6.390693555277585,-0.2716010186523199,-12.424718867731094
1789708526163554300,3.33355419921875,5.610015471762418,1.0745441254675387,-12.255257788604498
1789708526173542400,3.34354248046875,4.970497086519003,2.122594796285033,-12.14338848222494
1789708526183531500,3.353531494140625,4.2306957877933975,2.6923984247893094,-12.242092017561196
1789708526193519600,3.36351953125,3.5792812130510807,3.0757518454432486,-12.337688234531878
1789708526203507500,3.373507568359375,2.899009961658716,3.3549966568469998,-12.144624161499738
1789708526213495600,3.38349560546875,2.17748783146739,3.527835687974095,-11.773376773703097
1789708526223483600,3.393483642578125,1.6827637016057968,3.6729005769908425,-11.270372306752204
1789708526233472500,3.403472412109375,1.4574632463574408,3.745698686698079,-10.808805765604973
1789708526243460400,3.41346044921875,1.5347452234804628,3.905764160969853,-10.559136592775582
1789708526253448400,3.423448486328125,1.946579473209381,4.251099108874797,-10.250087010216712
1789708526263436500,3.4334365234375,2.491332831609249,4.547935691070556,-10.032582907932996
1789708526273424600,3.443424560546875,3.0476071164548397,4.8596875183254475,-9.986749377518892
1789708526283412500,3.45341259765625,3.7019711886525153,5.365791704857349,-10.184415975910424
1789708526293401600,3.463401611328125,4.422427150917053,5.745704045146703,-10.645014548808335
1789708526303389400,3.473389404296875,5.0529731251537795,6.19273352689743,-10.918870068389177
1789708526313377500,3.48337744140625,5.43891656230092,6.489890427088737,-11.117105991101264
1789708526323365400,3.493365478515625,5.790194344258308,6.648655340155959,-11.446481737852096
1789708526333353500,3.503353515625,6.363672277361154,6.731783705219626,-11.832743154907226
1789708526343342600,3.513342529296875,6.824612211042642,6.745864253020287,-12.119683781510592
1789708526353330700,3.52333056640625,7.161485035550594,6.722940473550557,-12.436450222057104
1789708526363318500,3.533318603515625,7.431254747122526,6.5828048576295375,-12.583822218972443
1789708526373306600,3.543306640625,7.2210793802917,6.317845176687836,-12.41844227167964
1789708526383294500,3.55329443359375,6.465939058136939,5.844646065413952,-11.93236205152273
1789708526393282300,3.5632822265625,5.579429779362679,5.253802571490406,-11.303476119452714
1789708526403271400,3.573271484375,4.850117141425609,4.7462534468472,-10.615606083494423
1789708526413259500,3.583259521484375,4.328232617437839,4.353988405463099,-10.363630387288332
1789708526423247600,3.59324755859375,3.822146551084518,3.7967391381055116,-10.279045393675565
1789708526433235700,3.603235595703125,3.241190244925022,3.3933640891641375,-10.115254176878928
1789708526443223600,3.6132236328125,2.957215482389927,3.001816840660572,-10.054362193542719
1789708526453213000,3.623212890625,2.7310581180512905,2.4207991597026584,-10.0728962136209
1789708526463200800,3.63320068359375,2.6536744341194627,1.8100988726645708,-10.220997693854569
1789708526473188900,3.64318896484375,2.767825713956356,1.172778874248266,-10.099717585051058
1789708526483177000,3.653177001953125,2.7846190278470515,0.6614905630767345,-9.793732650759816
1789708526493165000,3.6631650390625,2.8752012160480023,0.1441401753872633,-9.77602689819932
1789708526503154000,3.67315380859375,2.7253976080715656,-0.5467886636197566,-9.814254629784822
1789708526513141800,3.683141845703125,2.641475462281704,-1.4452853173077105,-9.973217695772647
1789708526523129900,3.6931298828125,2.7721207808017727,-2.335450195980072,-9.843467864787579
1789708526533118000,3.703117919921875,2.7882676134824753,-3.1129701077252623,-9.689703536486626
1789708526543105800,3.713105712890625,3.0467958000719544,-3.945788128322363,-9.747841252678633
1789708526553094000,3.723093994140625,3.563831130462885,-4.638860409098863,-9.949337638491391
1789708526563083000,3.7330830078125,4.131567889565229,-5.05442800013721,-9.67339303767681
1789708526573071000,3.743071044921875,4.494903189063072,-5.585909789031744,-9.511706099683046
1789708526583059000,3.753058837890625,4.782899462199211,-6.601760317990183,-9.207682236331701
1789708526593046800,3.763046875,4.905267950761318,-7.48798084295094,-9.304014366361498
1789708526603035000,3.773034912109375,4.840914428794384,-8.232392265820502,-8.585733994570374
1789708526613024000,3.78302392578125,4.777267009270191,-8.808017147824168,-7.922318600910901
1789708526623011800,3.79301171875,4.5062955206930635,-9.332090706288813,-7.466635272583365
1789708526633000000,3.803,4.129995525681973,-9.66321241992414,-7.310628133791685
1789708526642988000,3.812988037109375,3.6267490666687485,-10.318889912807942,-7.753513939866423
1789708526652975900,3.822975830078125,3.0278210504889485,-12.093304308629035,-8.953584725666046
1789708526662964700,3.83296484375,2.4833365721583367,-13.914928199392556,-9.420167049148679
1789708526672952800,3.842952880859375,1.9152713117539881,-15.051721568024158,-9.213093155464529
1789708526682941000,3.85294091796875,1.6763970891833304,-15.805853005397319,-8.614759598046541
1789708526692928800,3.8629287109375,1.8918308149337768,-16.080834314137697,-7.631407317110896
1789708526702916900,3.872916748046875,2.177788275718689,-16.23687243258953,-6.578292348641157
1789708526712905000,3.882905029296875,2.4907763667702674,-16.084301697987318,-5.169958751633763
1789708526722894000,3.89289404296875,2.7216344561457633,-15.221608179086445,-3.582663256704807
1789708526732881700,3.902881591796875,2.987256400388479,-14.127982921051979,-2.0731378146767616
1789708526742869800,3.912869873046875,2.92496390260458,-12.982719830238818,-0.8717021702647209
1789708526752857900,3.92285791015625,2.5983435920417306,-11.748097371017932,0.20160276879668235
1789708526762846000,3.932845947265625,2.2391443694353104,-10.549689549994469,1.0241577540546656
1789708526772835000,3.9428349609375,1.8235773629188536,-9.592255554169416,1.4810790997445582
1789708526782823000,3.952822998046875,1.289043785238266,-9.057968644726277,1.574257149657607
1789708526792811000,3.96281103515625,0.6064578271627425,-8.883790473949908,1.7946347615510225
1789708526802799000,3.972799072265625,-0.10116320344805717,-9.104197311937808,1.861091393277049
1789708526812787000,3.982786865234375,-0.7730196777164936,-9.63357716011703,2.014958012908697
1789708526822775800,3.99277587890625,-1.3441034091591835,-10.358386056894064,2.52691560164392
1789708526832764000,4.002763916015625,-1.610837114036083,-10.98492104192376,3.4516906059265136
1789708526842752000,4.012751953125,-1.6420096664130688,-11.558849056881666,4.132169947111606
1789708526852739800,4.02273974609375,-1.346614515197277,-11.725876186859606,5.136402518990636
1789708526862728000,4.03272802734375,-0.9434873766023665,-11.668961290460825,5.8293625715643165
1789708526872716000,4.042716064453125,-0.16428586844578386,-11.487208885037898,6.281025558334589
1789708526882705000,4.052704833984375,0.7408604523897171,-11.205299822860956,6.681646340131759
1789708526892692700,4.062692626953125,1.369892368801683,-10.749000992983579,7.139595275303721
1789708526902680800,4.072680908203125,1.7723229764997959,-10.352289493584632,7.618258497202396
1789708526912669000,4.0826689453125,2.0749594771459696,-10.05102223546505,8.369304243519903
1789708526922657000,4.092656982421875,2.2116110503435134,-9.851762230402231,9.30117651258707
1789708526932646000,4.10264599609375,2.2376012316465377,-9.706934072750807,10.491900208848714
1789708526942634000,4.112634033203125,2.0356312369726597,-9.436786760038137,11.849799503648281
1789708526952621800,4.122621826171875,1.6414098008237779,-9.295196853655575,12.695150258082151
1789708526962610000,4.13260986328125,1.269032093822956,-9.378433939790725,13.257068686294556
1789708526972597800,4.14259765625,0.9777672473449259,-9.593040567067264,13.493491424059867
1789708526982587000,4.1525869140625,0.8483039051510393,-9.836383459484576,13.443185132145882
1789708526992575000,4.162574951171875,0.5732815337479115,-9.92802480134964,13.250394615358113
1789708527002563000,4.17256298828125,0.13285247317552565,-9.987674091148376,12.889250103902816
1789708527012551000,4.182551025390625,-0.0991185093453154,-10.073638556420802,12.38244624466896
1789708527022539000,4.1925390625,-0.13971125302910803,-10.07063995912671,11.844304997885226
1789708527032528000,4.20252783203125,-0.17295303116189314,-10.0625642046988,11.04163720088005
1789708527042516000,4.212515869140625,-0.039450533112417904,-10.182544336819648,9.996263055795431
1789708527052503800,4.22250390625,0.26687870283816006,-10.360863260662555,9.016398616975545
1789708527062492000,4.232491943359375,0.4020914388716221,-10.503986952483654,8.041960879379511
1789708527072480000,4.24247998046875,0.19968789335237816,-10.60787519698143,7.136961419668793
1789708527082467800,4.2524677734375,-0.016510368763469157,-10.618277348530292,6.358777491056919
1789708527092456700,4.262456787109375,-0.17860997921135274,-10.593698203068971,6.048071373462677
1789708527102444800,4.27244482421875,-0.2604150232493877,-10.441807851946352,5.941355796584487
1789708527112433000,4.282432861328125,-0.2591278695156798,-10.420657511889933,5.606370977780222
1789708527122420700,4.292420654296875,-0.23250410301685331,-10.474481456536054,5.082006327414512
1789708527132408800,4.302408935546875,-0.1100549869665876,-10.354322460716963,4.647095153480768
1789708527142398000,4.31239794921875,-0.03751576565755531,-10.187530308538674,3.984546605783701
1789708527152386000,4.322385986328125,-0.07323474755883216,-10.243926149499416,3.149315678825974
1789708527162374100,4.3323740234375,-0.43735918814036995,-10.438030671495198,2.1716420280486344
1789708527172361700,4.34236181640625,-0.930350758588314,-10.654776064366102,1.1226660590797661
1789708527182349800,4.352349853515625,-1.188006838518381,-10.71843166719675,0.32964462682008744
1789708527192339000,4.3623388671875,-1.303833358091116,-10.6782399420619,-0.5505132371008395
1789708527202327000,4.3723271484375,-1.2839537686228752,-10.740748712944983,-1.442815127801895
1789708527212315000,4.38231494140625,-1.008246483695507,-10.858515845191478,-2.1695044314980505
1789708527222303000,4.392302978515625,-0.6755307788670063,-11.345917084819078,-3.0308892058879136
1789708527232291000,4.402291015625,-0.1982581345438957,-12.195608498805761,-3.906077464702725
1789708527242280000,4.412280029296875,0.3305985665440559,-13.127938448512554,-4.679067331802845
1789708527252267800,4.422267822265625,0.8399065175533295,-14.016930776274203,-5.50137623334527
1789708527262255900,4.432255859375,1.3399731774866581,-14.603589677989483,-6.178527306890487
1789708527272244000,4.442243896484375,1.7924153319358824,-14.965121142935752,-6.902178850325941
1789708527282231800,4.452231689453125,2.2147943565547465,-14.758188703548907,-7.513132235342264
1789708527292221000,4.462220947265625,2.8465549672782418,-14.206700483936071,-7.753408725926279
1789708527302209000,4.472208984375,3.1968039907097814,-13.423463363587855,-8.016275818502903
1789708527312196900,4.48219677734375,3.215751852285862,-12.28895547554493,-7.959856012144685
1789708527322184700,4.492184814453125,2.948576248860359,-10.764038403117656,-7.7952762753188605
1789708527332172800,4.5021728515625,2.3563597130179406,-9.279121332645415,-7.845712915614246
1789708527342161000,4.512160888671875,1.7745313001990317,-8.001313227170705,-8.013537917971611
1789708527352150000,4.52214990234375,1.4486381348669528,-6.974292484900355,-8.30711111445725
1789708527362137900,4.532137939453125,1.5225345612049102,-6.13512246492803,-8.771032694298029
1789708527372126000,4.5421259765625,1.7052689634025096,-5.406749153667688,-9.47616950687766
1789708527382114000,4.552114013671875,1.6722154195845127,-4.657340653163194,-10.03490579792261
1789708527392102000,4.562101806640625,1.5533341886162757,-3.7834026866704225,-10.259226594483852
1789708527402090800,4.5720908203125,1.3761737871587276,-3.102186847904324,-10.290829354971647
1789708527412078800,4.582078857421875,1.1878431723892688,-2.8796552728474136,-10.559951416289806
1789708527422067000,4.59206689453125,1.1566367177426815,-2.6456512866616246,-10.682439147317409
1789708527432055000,4.602054931640625,1.2345664912499488,-2.227851991048455,-11.040087048828601
1789708527442043000,4.61204296875,1.286889237552881,-1.7666998759210109,-11.568479639536141
1789708527452031700,4.62203173828125,1.3715245000481604,-0.9454933826625347,-11.957577156800031
1789708527462020000,4.63202001953125,1.4820739560008047,0.0541927779585123,-12.28104338724613
1789708527472008200,4.64200830078125,1.7493629566729068,1.0406909557044506,-12.495031005841494
1789708527481996300,4.651996337890625,2.175111019333452,2.0382821898728607,-12.764714208173752
1789708527491984400,4.661984375,2.6014696151077747,2.6445366034179925,-13.392837923699616
1789708527501973500,4.671973388671875,3.2074083868324754,2.8660680615216494,-14.240968664240837
1789708527511961300,4.68196142578125,3.792131936571002,3.2035195627003907,-14.778756859803199
1789708527521949200,4.69194921875,4.057677308446169,3.876080385845899,-14.909382304579019
1789708527531937300,4.701937255859375,3.97452410120219,4.57812332406342,-15.010026452589035
1789708527541925000,4.711925048828125,3.50977337706089,5.022710673359036,-15.081059890711307
1789708527551914200,4.721914306640625,3.1620155859231946,5.419346769434213,-14.926376693999767
1789708527561902300,4.73190234375,3.0613702688694,5.914858834803104,-14.55038415750265
1789708527571890400,4.741890380859375,2.86770764542222,5.964378360253572,-14.283220244514942
1789708527581878300,4.751878173828125,2.7908909477233883,5.717018048888445,-13.905681063097715
1789708527591866400,4.761866455078125,2.836530416870117,5.555123605623841,-13.483878377062082
1789708527601855200,4.771855224609375,2.9161411292016504,5.486409550359845,-13.182024258965253
1789708527611843300,4.78184326171875,2.9629905586600302,5.409892127868533,-12.879801892077921
1789708527621831200,4.7918310546875,2.8156618163645266,5.300193151265383,-12.760852856570482
1789708527631819300,4.8018193359375,2.6856080339968202,5.124078459468484,-12.624378685766457
1789708527641807400,4.811807373046875,2.6767560344994066,4.7420969116896385,-12.494161237269639
1789708527651796200,4.821796142578125,2.6427123106002806,4.233762774148583,-12.294649887794256
1789708527661784000,4.8317841796875,2.6847663224756717,3.6828017932802437,-12.020686816185712
1789708527671772200,4.841772216796875,2.8759318684101105,3.1490818700700998,-11.793639809530973
1789708527681760300,4.85176025390625,3.1179999185860154,2.592465055397153,-11.620492735368012
1789708527691748400,4.861748291015625,3.5702716849043963,1.9555659127414224,-11.613230635410547
1789708527701737200,4.8717373046875,3.9931799940943717,1.2834545869290828,-11.602047562617063
1789708527711725300,4.881725341796875,4.365778796499967,0.5704822584182023,-11.660866831332445
1789708527721713400,4.89171337890625,4.660651385146379,-0.31300095053315163,-11.644250043052434
1789708527731701200,4.901701171875,4.95129320435524,-1.1803700600296259,-11.504424223732947
1789708527741689000,4.911689208984375,5.227905329167842,-2.121322876653075,-11.426176616448164
1789708527751678200,4.92167822265625,5.524139853817224,-2.9957500879675147,-11.139576181584596
1789708527761666300,4.931666259765625,5.9807332827270026,-3.73795727879107,-10.846996087789535
1789708527771654400,4.941654296875,6.4736009710669515,-4.380900962308049,-10.522128173851966
1789708527781642200,4.951642333984375,6.753853498208523,-5.165500018659234,-10.511551834779977
1789708527791630300,4.96163037109375,6.97032884196639,-5.99560293507874,-10.506453634858131
1789708527801619200,4.971619140625,7.266931615406274,-6.79673460855782,-10.407916103738545
1789708527811607300,4.981607177734375,7.618295906603336,-7.615300816440582,-10.139691868042945
1789708527821595100,4.99159521484375,7.699275569200515,-8.667489317715168,-10.086907203316688
1789708527831583200,5.001583251953125,7.53667443897128,-10.495960297894477,-10.613161612951755
1789708527841571300,5.0115712890625,7.604614587253332,-12.347079163211584,-10.858529873716831
1789708527851560400,5.021560546875,7.7670941369295114,-13.82883163217306,-10.833691200536489
1789708527861548300,5.03154833984375,8.050404882597922,-15.252808788514136,-10.852022976040839
1789708527871536000,5.0415361328125,8.388082009226084,-16.294955203723905,-10.556343747186661
1789708527881524200,5.051524169921875,8.59338830871582,-16.646124264609814,-9.806600900161266
1789708527891512300,5.06151220703125,8.783557244828343,-16.268097591936588,-8.729788829761743
1789708527901501200,5.071501220703125,8.643103064477444,-15.586485447329283,-7.560322441062331
1789708527911489300,5.0814892578125,8.447648296916485,-14.576816237354278,-5.995687690752744
1789708527921477400,5.091477294921875,8.099345731377602,-13.446191912746428,-4.892590840017795
1789708527931465500,5.101465576171875,7.528971609508991,-12.531882772898673,-4.0216134768962855
1789708527941453300,5.111453369140625,6.799796918737888,-11.848354565536976,-3.321913302412629
1789708527951442200,5.121442138671875,6.158030462306738,-11.4421118522048,-2.754232072889805
1789708527961430300,5.13143017578125,5.482069475328922,-11.389701281487941,-2.3287872309595343
1789708527971418400,5.14141845703125,4.678515543138981,-11.722953577411173,-2.0373896249473096
1789708527981406200,5.15140625,3.934250835263729,-12.141024675703047,-1.783863192167878
1789708527991394300,5.161394287109375,3.211213624334335,-12.870498641681671,-1.6596850238353014
1789708528001382400,5.17138232421875,2.458555182123184,-13.679473429876564,-1.3875281248658895
1789708528011371300,5.181371337890625,1.8993430902600288,-14.441045830905436,-1.0961533152073621
1789708528021359000,5.191359130859375,1.5575332477413117,-15.21445713828802,-0.801353791797161
1789708528031347200,5.20134716796875,1.1837070954978466,-15.978081211149691,-0.3764320969581604
1789708528041335300,5.211335205078125,1.4799872128546236,-16.18912751559615,0.5172241309612989
1789708528051323100,5.2213232421875,2.0108499930679797,-16.161158143174646,1.3059382214158772
1789708528061312300,5.231312255859375,2.5265561206817626,-15.731747320222853,2.422034838977456
1789708528071300400,5.24130029296875,3.0986008061110972,-15.051739103680848,3.313834040853381
1789708528081288400,5.251288330078125,3.7913013309657573,-14.263133734297751,4.228299832567572
1789708528091276300,5.2612763671875,4.345632665050029,-13.435866918087005,4.9053831015735865
1789708528101264100,5.27126416015625,4.640098426461219,-12.713545161950588,5.286446949985623
1789708528111253200,5.281253173828125,4.8428503652930255,-11.981346154922246,5.57787787374556
1789708528121241300,5.291241455078125,4.775369651216268,-11.265200457072257,5.87202682429254
1789708528131229200,5.301229248046875,4.152003943872452,-10.637850648528337,6.484079110461473
1789708528141217300,5.31121728515625,3.143798376709223,-10.260306790935992,7.2318135402739046
1789708528151205400,5.321205322265625,2.218631158238649,-10.199876579892635,7.914011375814676
1789708528161194200,5.3311943359375,1.359606098717451,-10.382315214014053,8.746235522171855
1789708528171182300,5.341182373046875,0.5975404342789202,-10.603423478269576,9.62811363401413
1789708528181170200,5.351170166015625,-0.10266659374833106,-10.56428856871128,10.47243913705349
1789708528191158300,5.361158203125,-0.8943079698264599,-10.469486132466793,11.322978107780218
1789708528201146400,5.371146484375,-1.7154618561148642,-10.330306794357298,11.935686812031268
1789708528211135500,5.381135498046875,-2.3684838660538197,-10.147278962171077,12.351190690183639
1789708528221123300,5.391123291015625,-2.6864567597806452,-9.929689519691467,12.526457240718603
1789708528231111200,5.401111083984375,-2.5576211210310458,-9.712250883859396,12.37996553376913
1789708528241099300,5.411099365234375,-2.2172972792863845,-9.681333767548203,11.797704574751853
1789708528251087000,5.421087158203125,-1.8940484909832476,-9.629908116215466,10.976166073060035
1789708528261076200,5.431076171875,-1.4708850379884242,-9.4541996671319,10.352640206718444
1789708528271064300,5.441064208984375,-1.08862291970253,-9.316744084075093,10.027552512550354
1789708528281052400,5.451052490234375,-0.9016244303196668,-9.251277047908305,9.647609192600846
1789708528291040300,5.461040283203125,-0.831598707935214,-9.326099356919526,9.219884715300799
1789708528301028400,5.4710283203125,-0.767103147149086,-9.424085099375247,8.839353950852155
1789708528311016400,5.481016357421875,-0.5659101281970739,-9.430765600052476,8.387229776310921
1789708528321005300,5.49100537109375,-0.3744786248028278,-9.459359826374053,7.866490915226936
1789708528330993200,5.5009931640625,-0.2752724006414413,-9.557799157816172,7.32757225432992
1789708528340981200,5.510981201171875,-0.3699357206761837,-9.671924718689917,6.6711641090840095
1789708528350969300,5.52096923828125,-0.6294482421278953,-9.55405178798139,6.085721597421169
1789708528360957400,5.53095751953125,-0.9870517199754715,-9.304695334362982,5.606850870251655
1789708528370946000,5.540946044921875,-1.4335036940991879,-9.142661190366745,5.101151172867417
1789708528380934100,5.55093408203125,-1.777266862642765,-8.977159662520885,4.659365436989069
1789708528390922200,5.560922119140625,-1.9211516019642352,-8.706195772728323,4.2879450307130815
1789708528400910300,5.570910400390625,-1.7440882311403751,-8.593976922258735,3.9676422327339647
1789708528410898200,5.580898193359375,-1.1798574343323707,-8.617679869407414,3.6934114500999446
1789708528420887300,5.59088720703125,-0.4321078434834256,-8.714041225531696,3.354353098246455
1789708528430875400,5.60087548828125,0.18788637813329695,-8.967829524117708,2.9352327831625935
1789708528440863500,5.610863525390625,0.6884674173295497,-9.107013538402319,2.3805630109041926
1789708528450851300,5.620851318359375,0.8434943129122257,-9.129054105296731,1.6107319000959395
1789708528460839000,5.6308388671875,0.8105985900044441,-9.12688962073922,0.6397592082619666
1789708528470828000,5.640828125,0.8982780425012111,-9.143103673437237,-0.20937574088573455
1789708528480816000,5.650816162109375,1.0453297214210033,-9.085236006358265,-0.822249280309677
1789708528490804000,5.660803955078125,1.0619956095397471,-9.04563289476633,-1.8389228160887956
1789708528500792000,5.6707919921875,1.117140573656559,-9.389622273281216,-2.9843069029331204
1789708528510780200,5.6807802734375,0.7540601257026195,-10.093168601799011,-4.004533747279644
1789708528520768000,5.69076806640625,-0.11714052478075027,-10.471916574484109,-4.512150676462054
1789708528530756900,5.7007568359375,-0.7805044805139303,-10.69269633743763,-4.904343237131834
1789708528540745000,5.710744873046875,-1.2177478967875242,-10.848997490739821,-5.278872130817175
1789708528550733000,5.720733154296875,-1.2494278141647577,-11.012267314010858,-5.5769747874259945
1789708528560721000,5.730720947265625,-0.7741893060177564,-10.863986970078944,-5.972701951962709
1789708528570709000,5.740708984375,0.045008148973248896,-10.762981587541102,-6.701298550584912
1789708528580698000,5.750697998046875,0.6811304985702037,-9.941500368994474,-6.856858530130982
1789708528590686200,5.760686279296875,1.0474719210814685,-9.681986093977093,-8.009829711103439
1789708528600673800,5.770673828125,1.5493027411431073,-9.032587535232304,-8.255250578838586
1789708528610662000,5.780661865234375,1.8928508056312798,-8.134309492731093,-8.287593344038724
1789708528620650000,5.79064990234375,1.9741203910857439,-6.9720654565006495,-8.013714443582296
1789708528630639000,5.80063916015625,1.8807441882520912,-5.950400103783607,-7.863845953676104
1789708528640627200,5.810627197265625,1.7584247995287179,-5.080337517419457,-8.041930484241247
1789708528650615000,5.820614990234375,1.3917583097815514,-4.212362843245268,-8.187944052284955
1789708528660603100,5.83060302734375,0.5521726947456598,-3.275217017689347,-8.003947082805633
1789708528670591200,5.84059130859375,-0.28546587787568567,-2.416409400311112,-7.71013949304223
1789708528680579000,5.8505791015625,-0.8935007450968027,-1.7786551021307706,-7.419164496356249
1789708528690568000,5.86056787109375,-1.1743372826714067,-1.2351993823260068,-7.301372814190387
1789708528700556000,5.87055615234375,-1.2124136230874807,-0.8741565776795148,-7.4667013235569
1789708528710544100,5.880544189453125,-1.2695856360524893,-0.6507756923168897,-8.040833921176194
1789708528720532000,5.890531982421875,-1.3884107529193161,-0.5400140549182891,-8.9268872728765
1789708528730520000,5.90052001953125,-1.5714812552034854,-0.20411212126910686,-9.514274488866329
1789708528740509000,5.910509033203125,-1.9947446614414452,0.20734160470962523,-9.919739788085222
1789708528750497000,5.9204970703125,-2.588019766426086,0.5543588066130877,-10.305049603503942
1789708528760484900,5.93048486328125,-2.9476304924428463,0.917428148651123,-10.491555340933798
1789708528770473000,5.940472900390625,-3.12569456474185,1.3226403498917818,-10.649712935757636
1789708528780461000,5.9504609375,-3.156794636404514,1.759655802628398,-10.98486843495369
1789708528790449200,5.96044921875,-3.0661732852369545,2.2662030567526816,-11.500442460620402
1789708528800438000,5.97043798828125,-2.904921816051006,2.8782418989181515,-12.00454115254879
1789708528810426000,5.980426025390625,-2.7219676336228846,3.418566919481754,-12.405920643758773
1789708528820414000,5.9904140625,-2.3886907877802845,3.9850674147874114,-12.858734554129839
1789708528830402000,6.000402099609375,-2.1141374951936305,4.659472404494881,-12.987515247821808
1789708528840390000,6.010389892578125,-1.9563611547723412,5.034221662932634,-12.858154708415269
1789708528850379000,6.02037890625,-1.7113976754158735,5.241750899168848,-12.605522009605169
1789708528860367000,6.0303671875,-1.0603203698039054,5.168852836218476,-12.506360209107399
1789708528870355200,6.040355224609375,-0.6818652425855398,5.144644277635217,-12.264735226523875
1789708528880343000,6.050343017578125,-0.3937054494507611,5.100441563293337,-12.046647771394252
1789708528890331100,6.0603310546875,0.0014453765027225016,4.973390469872951,-11.814107428020238
1789708528900320000,6.070320068359375,0.3893623056799173,4.764647181671857,-11.545845782923697
1789708528910308000,6.08030810546875,0.6329500397037714,4.188061930203437,-11.657710413128138
1789708528920296000,6.0902958984375,0.9786768364705145,3.9727006851673123,-11.097462548476457
1789708528930284000,6.100283935546875,1.018202791173011,3.6025071903377768,-10.969067639231682
1789708528940272000,6.110272216796875,1.176346795862913,2.9867782614827156,-11.030715993893146
1789708528950260000,6.120260009765625,1.6276526397585869,2.45522399187386,-10.910779116392135
1789708528960248800,6.130248779296875,1.9146891279518603,1.8781962573349475,-10.777192483723162
1789708528970237000,6.14023681640625,2.151782896846533,1.2466589339733123,-10.58234094275236
1789708528980225000,6.15022509765625,2.487431147995591,0.6929226431727409,-10.488445684480666
1789708528990212900,6.160212890625,2.8858260704368353,0.18267887261807916,-10.43679616126418
1789708529000201000,6.170200927734375,3.3546599722385406,-0.34746845280230043,-10.522744259923696
1789708529010190000,6.180190185546875,3.87251714040637,-0.8881319115400313,-10.648841998142004
1789708529020178200,6.19017822265625,4.386578423422574,-1.5764549519628286,-10.950188751238583
1789708529030166000,6.200166015625,5.061432325941324,-2.384496258699894,-11.317930176740884
1789708529040153900,6.21015380859375,5.727214448732138,-3.1737375878989695,-11.500661071807146
1789708529050142000,6.220141845703125,6.1436629142582415,-4.092883061861992,-11.516472388923168
1789708529060130000,6.230130126953125,6.585854892849921,-4.904466571250557,-11.211055025386809
1789708529070119200,6.240119140625,6.9951055558264255,-5.7450032034009695,-10.789946751356124
1789708529080107000,6.25010693359375,7.255128949409722,-6.491328935459256,-10.25389341676235
1789708529090095000,6.26009521484375,7.649386625915765,-7.1034180465072385,-9.80509984794855
1789708529100083200,6.270083251953125,7.9900109119117255,-7.780475596550106,-9.461186457279323
1789708529110071000,6.280071044921875,8.169440427345037,-8.643187235629558,-9.065259970778227
1789708529120060000,6.290059814453125,8.282921845096348,-9.584187398526073,-8.752887381276487
1789708529130048000,6.300048095703125,8.14399385139942,-10.892277829539776,-8.714733883970975
1789708529140036000,6.3100361328125,7.961352972704172,-12.35303661031127,-8.64117063511014
1789708529150024000,6.32002392578125,7.6425874672949305,-13.51144559842348,-8.16555686390996
1789708529160012000,6.330011962890625,7.295110246664286,-14.176440954750776,-7.276652798953652
1789708529170000100,6.340000244140625,7.079457909727096,-14.401419922959803,-6.212217979568242
1789708529179989000,6.349989013671875,6.9118006651520725,-14.471111298823356,-5.108191739028692
1789708529189976800,6.359976806640625,6.763087775021791,-14.31174023655653,-4.059530242836475
1789708529199965000,6.36996484375,6.565799362292886,-13.95343650148511,-3.122465665823221
1789708529209953000,6.379953125,6.263755274581909,-13.5724673456192,-2.1853315307050942
1789708529219941000,6.389941162109375,5.76087355722785,-13.404430161815881,-1.609073026973009
1789708529229930000,6.399929931640625,5.2528281735002995,-13.313082249939441,-1.1819617131352425
1789708529239918000,6.40991796875,4.597165001402795,-13.113252920556068,-0.5417553456276655
1789708529249906200,6.41990625,3.924132761353254,-12.887403014731406,0.015734160226583478
1789708529259894000,6.42989404296875,3.2234692947953936,-12.783373315936327,0.6159919637054204
1789708529269881900,6.4398818359375,2.4892332289814947,-12.71473524851799,1.333137778508663
1789708529279870000,6.449869873046875,1.989015762400627,-12.501478282284737,2.2258482500106096
1789708529289859000,6.459859130859375,1.6783787645198405,-12.16701836413741,2.905630841103196
1789708529299847200,6.46984716796875,1.5292334743216633,-11.858254028260706,3.2584213657110928
1789708529309835000,6.4798349609375,1.3963795398414134,-11.534319011259079,3.7151802143156525
1789708529319823000,6.489822998046875,1.0558496541306377,-11.228714600718021,4.137264055380225
1789708529329811200,6.499811279296875,0.7766881370961666,-10.905496207553147,4.590695805388688
1789708529339800000,6.509800048828125,0.49364378727898,-10.508580125492811,5.170509371253848
1789708529349788000,6.519787841796875,0.4020259724199772,-10.32215388303995,5.709912600797415
1789708529359776000,6.52977587890625,0.4825976387381553,-10.28282023603916,6.35398265799582
1789708529369764000,6.53976416015625,0.6972821535564958,-10.387073222196102,6.932177682748437
1789708529379752000,6.549751953125,0.9133611914731562,-10.564300259149073,7.670336474964023
1789708529389740000,6.559739990234375,0.9927943552806973,-10.772999123686551,8.499701724758744
1789708529399729000,6.56972900390625,0.9737002171017229,-10.829142451190949,9.275465732747316
1789708529409717000,6.579717041015625,0.6495487808704375,-10.717356146919727,10.001606754910945
1789708529419704800,6.589704833984375,0.2026934866428375,-10.663183827227353,10.46430493043661
1789708529429693000,6.59969287109375,-0.1280056176662445,-10.72135778377652,10.879483814418315
1789708529439681000,6.609680908203125,-0.4114611786328256,-10.710946279877424,11.190225003325939
1789708529449670100,6.619670166015625,-0.5550387517012655,-10.660850415843724,11.378754355537891
1789708529459657500,6.629657470703125,-0.7153658725839108,-10.58193294647336,11.547194859445094
1789708529469645600,6.6396455078125,-0.8698959976255893,-10.386635999822616,11.919393848878144
1789708529479633400,6.64963330078125,-0.9784148245334625,-10.062048656392097,12.10924071342945
1789708529489621500,6.65962158203125,-0.9983587114095688,-9.823184955215453,11.970996610343455
1789708529499609300,6.669609375,-0.9675660982608795,-9.847405204236507,11.599836900830269
1789708529509598500,6.679598388671875,-0.925028102260828,-9.902607451498508,10.987667125761508
1789708529519586300,6.68958642578125,-0.8275859651625156,-9.932359615683556,10.01405707116127
1789708529529574400,6.699574462890625,-0.6584194850683212,-9.942902052485943,8.95553644425571
1789708529539562500,6.7095625,-0.4420002554118633,-9.893287834489344,8.031381617698074
1789708529549550300,6.71955029296875,-0.36149756267666816,-9.900765038502216,7.113982695141434
1789708529559538400,6.729538330078125,-0.5233516739308833,-9.901922391843796,6.5719298278719185
1789708529569527300,6.73952734375,-0.6698398737490177,-9.954422978931666,6.464983364847302
1789708529579515400,6.749515380859375,-0.8004606423497199,-9.987215825986862,6.428346701845526
1789708529589503200,6.759503173828125,-0.9367267233610153,-10.185546441245078,6.1709665162473915
1789708529599491300,6.7694912109375,-1.075224508947134,-10.490381620979308,5.5724669546127314
1789708529609479400,6.7794794921875,-1.136444993585348,-10.640942769324779,4.8662902775913475
1789708529619468500,6.789468505859375,-1.1130500894725321,-10.792114158523082,4.006810460039973
1789708529629456600,6.79945654296875,-1.04871176507473,-10.900241355764866,3.0443554211825132
1789708529639444200,6.8094443359375,-0.7093230852883309,-10.920248371005057,2.3976865796625613
1789708529649432300,6.819432373046875,-0.28656532701756804,-10.874745679980515,1.7566244721084832
1789708529659420400,6.82942041015625,0.005314473021030426,-11.133837345671653,0.8081792539030312
1789708529669408300,6.839408203125,0.34752051178310067,-11.294841562098265,-0.04394026401340961
1789708529679397400,6.8493974609375,0.7995908007126301,-11.400506753140688,-0.9302204102069139
1789708529689385500,6.859385498046875,1.2108722388643771,-11.20829257493615,-1.6882646371096373
1789708529699373600,6.86937353515625,1.4314379937410353,-11.090143165373801,-2.7703999483585355
1789708529709361400,6.879361328125,1.6386474965035915,-10.554288568222523,-3.5654134312182664
1789708529719349500,6.889349609375,1.297094989746809,-9.8999385245502,-4.282387396585941
1789708529729337300,6.89933740234375,0.6212858323298395,-9.319743265891075,-4.760832591819763
1789708529739326500,6.909326416015625,0.16356676039099693,-8.811529539859295,-5.311206712710857
1789708529749314300,6.919314208984375,-0.04461670197024941,-8.468412852525711,-5.901426521778107
1789708529759302400,6.929302490234375,0.22743980536460875,-8.099801658451558,-6.277892521005868
1789708529769290500,6.93929052734375,0.7578818028826266,-7.730829814371466,-6.627903059506416
1789708529779278600,6.949278564453125,1.187733355339244,-7.443490543839335,-7.368442609378695
1789708529789267200,6.95926708984375,1.3848119977749884,-6.9650056011170145,-8.113417511349915
1789708529799255300,6.96925537109375,1.1185598658699543,-6.323559462681413,-8.952595714628696
1789708529809243400,6.979243408203125,0.4714882887680083,-5.7348564879179,-9.70683411950767
1789708529819231500,6.9892314453125,-0.5791524350753053,-4.903520230311155,-10.11314522190094
1789708529829219300,6.99921923828125,-1.8023264850974081,-3.974480554321408,-10.554642788487673
1789708529839207400,7.00920751953125,-2.8701170446515083,-2.982528202822804,-10.505193405663967
1789708529849196500,7.019196533203125,-4.011510600554943,-2.3847867660790683,-10.85472697430253
1789708529859184400,7.029184326171875,-5.250594130837917,-1.8827268865019082,-11.146000077152252
1789708529869172200,7.039172119140625,-5.767015713244676,-0.7803051585495472,-10.824749184668063
1789708529879160300,7.049160400390625,-5.803928855100274,0.13278408411443232,-10.767301204305886
1789708529889148400,7.0591484375,-5.797005193316936,0.7216764439702034,-10.530260042381286
1789708529899136300,7.06913623046875,-5.842841646340489,1.2738637517631053,-10.550722984695433
1789708529909125400,7.07912548828125,-5.628035697099566,1.7794541435539721,-10.734165827423334
1789708529919113500,7.089113525390625,-5.378807253775,2.1068629741460083,-10.879640466284751
1789708529929101600,7.0991015625,-5.376235357460379,2.3694757997006177,-10.711627832400799
1789708529939089400,7.10908935546875,-5.669089592021703,2.6042081001609563,-10.091654690104722
1789708529949077200,7.1190771484375,-6.09073679523468,2.759315659764409,-9.493538574829698
1789708529959066400,7.12906640625,-6.448811397725343,2.6087597721159455,-9.289369170415402
1789708529969054500,7.139054443359375,-6.593108809500932,2.093895940545201,-8.967680471035838
1789708529979042300,7.149042236328125,-6.428524981021881,1.5075398211687803,-8.481573362872004
1789708529989030400,7.159030517578125,-5.874146300664544,0.7647492774993181,-7.9746929312705985
1789708529999018500,7.1690185546875,-5.174760014435648,-0.009131400960683822,-7.311436527565121
1789708530009006600,7.179006591796875,-4.332134885573387,-0.6400701739072799,-6.630083910676837
1789708530018995200,7.1889951171875,-3.1712066081166266,-0.8904325896978378,-6.005755495780706
1789708530028983300,7.1989833984375,-1.8406103307843207,-0.8867062626510858,-5.6841182343274355
1789708530038971400,7.208971435546875,-0.5919570081233978,-0.7033224566340446,-5.531735715773701
1789708530048959500,7.21895947265625,0.7211679099261761,-0.41912849839031696,-5.602200414097309
1789708530058947300,7.228947265625,1.7518990510217844,-0.060092941913008686,-5.679301189434528
1789708530068935400,7.238935302734375,2.339555293211341,0.3341290787577629,-5.77129792060852
1789708530078924500,7.248924560546875,2.675613878726959,0.6744447371959685,-5.708837080520391
1789708530088912400,7.258912353515625,2.851750782355666,1.061833696976304,-5.33167900737524
1789708530098900200,7.268900146484375,2.7154303408086298,1.5322843863248825,-4.947565123742819
1789708530108888300,7.278888427734375,2.495159111899137,1.7891279808282852,-4.667673246607184
1789708530118876400,7.28887646484375,2.271131160804629,1.9727900192648171,-4.374406339591741
1789708530128865500,7.298865478515625,2.246837115895003,2.057179198044538,-4.334679893881082
1789708530138853400,7.308853271484375,2.392991115322709,2.174102865204215,-4.328395991306007
1789708530148841500,7.318841552734375,2.379670299848169,2.352216037341952,-4.3425782459154725
1789708530158829600,7.32882958984375,2.5338836870908734,2.352434648528695,-4.334314859960973
1789708530168817400,7.3388173828125,2.9563468828618524,2.207612920618057,-4.4393362001419066
1789708530178805200,7.34880517578125,3.157498400759697,1.687897557362914,-4.952676183146238
1789708530188794400,7.35879443359375,3.3053415223181246,1.0293418786942958,-5.081401931780577
1789708530198782500,7.368782470703125,3.3340380399703977,0.2539613170653581,-4.962544081687927
1789708530208770600,7.3787705078125,3.359828899309039,-0.8031488585203885,-4.4192900219351055
1789708530218758400,7.38875830078125,3.6905852867633104,-1.8361124348431825,-3.6125624281451105
1789708530228746500,7.39874658203125,4.55626512799859,-2.759846990162134,-3.0637089409500358
1789708530238734600,7.408734619140625,5.6722027556061745,-3.077324793848395,-2.7648905372872945
1789708530248723500,7.418723388671875,6.304375454261899,-3.104058486995101,-2.804579281336069
1789708530258711300,7.428711181640625,6.400494818323851,-2.7954747683823107,-3.0523882132515308
1789708530268699400,7.438699462890625,6.1255918355166905,-2.513211485940218,-3.4980525441288948
1789708530278687500,7.4486875,5.468453622430562,-2.3376702101171016,-3.7167356270641085
1789708530288675300,7.45867529296875,4.891531686353683,-2.2033447417795657,-3.5550565801158545
1789708530298664400,7.46866455078125,4.537436508888006,-2.2749048341244458,-3.1305387899026274
1789708530308652300,7.47865234375,4.356275639617443,-2.5055823062360285,-2.8698800210252404
1789708530318640400,7.488640380859375,4.310522773224115,-2.7457261103510855,-2.8473253671288488
1789708530328628200,7.498628173828125,4.606876540338993,-2.7052514766216276,-2.736640594358742
1789708530338616300,7.5086162109375,4.758155481564998,-2.288315519839525,-2.8406548033237455
1789708530348604400,7.5186044921875,4.4880257045090195,-2.0633464885026216,-3.4281858116984365
1789708530358593500,7.528593505859375,3.9936347521245477,-2.045896756529808,-4.396709941336512
1789708530368581400,7.538581298828125,3.2014369112074372,-2.566207163068652,-5.314774634325504
1789708530378569500,7.548569580078125,2.111435835019499,-3.1501024452894923,-5.731640448480844
1789708530388557300,7.558557373046875,1.2035644000690429,-3.646984045445919,-6.040846098384261
1789708530398545400,7.56854541015625,0.4869838179331272,-4.061506511345505,-5.968154956182837
1789708530408533200,7.578533203125,0.04308160135746002,-4.251900488385558,-5.967309737530351
1789708530418522400,7.5885224609375,-0.38847328441832213,-4.650923187336326,-6.134425130313635
1789708530428510500,7.598510498046875,-0.8906710746288299,-4.987593767270446,-6.296140709879994
1789708530438498600,7.60849853515625,-1.3467998086363075,-5.0758577416568995,-6.326265214508772
1789708530448486400,7.618486328125,-1.7922645252883433,-5.179465415647625,-6.373530823552608
1789708530458475000,7.62847509765625,-2.1739526430785654,-5.337243655765056,-6.181565067151189
1789708530468463000,7.638463134765625,-2.46350491348505,-5.6817713789403435,-5.887833465233445
1789708530478452200,7.6484521484375,-2.8293139096200464,-6.378627854430675,-5.355547958740591
1789708530488440300,7.6584404296875,-3.1715847937792536,-7.050714045801758,-4.4571337226390835
1789708530498428200,7.66842822265625,-3.2499826231896876,-7.710196776187419,-3.543952710038423
1789708530508416300,7.678416259765625,-3.3460049566179513,-8.437876844486594,-2.6106547920823098
1789708530518404400,7.688404296875,-3.523852755817771,-8.984432283872366,-1.6549065573871136
1789708530528393200,7.698393310546875,-3.6516549598664043,-9.44155645865798,-0.6656126114428043
1789708530538381000,7.708381103515625,-3.5840643556743856,-9.553756604427099,0.2160182476401329
1789708530548369200,7.718369140625,-3.4554128413200376,-9.556597965332864,0.9093728524893522
1789708530558357200,7.728357177734375,-3.2334365620583294,-9.411702003142237,1.5962731666326522
1789708530568345300,7.738345458984375,-2.9202532406955957,-9.266282893860339,2.3334464549422265
1789708530578333200,7.748333251953125,-2.523830495110154,-9.199560304674506,2.937028434407711
1789708530588322000,7.758322021484375,-2.235845181759447,-9.191229114180803,3.543863862711191
1789708530598310100,7.76831005859375,-1.9907132139682768,-9.250845086231827,4.294506288924813
1789708530608298200,7.77829833984375,-1.7611089240461586,-9.262530847850442,5.077816474509239
1789708530618286000,7.7882861328125,-1.525446064737439,-9.288216493248939,5.937517825856805
1789708530628274200,7.798274169921875,-1.4378174656450748,-9.200861450400948,6.8681246050328015
1789708530638262300,7.80826220703125,-1.2912924409478903,-9.08022840732932,7.5499483465641735
1789708530648251400,7.81825146484375,-1.1732330477565527,-8.90428147331476,8.161421956062316
1789708530658239200,7.8282392578125,-0.9831400994896888,-8.686033859187365,8.438819678294658
1789708530668227000,7.83822705078125,-0.8018658329725264,-8.640912276434898,8.589885269030928
1789708530678215200,7.848215087890625,-0.8268272557497024,-8.783519250905513,8.730041343218087
1789708530688203000,7.858203125,-1.031411670705676,-8.948891599413752,8.817495170265436
1789708530698191000,7.868191162109375,-1.2559610153257845,-9.230206202828883,8.924829755824804
1789708530708180200,7.87818017578125,-1.4100292950093745,-9.49549263150692,9.223766525170207
1789708530718168300,7.888168212890625,-1.4970482377707957,-9.94824107542634,9.38907399174869
1789708530728156200,7.89815625,-1.454713655388355,-10.578210711079835,9.592461890396475
1789708530738144300,7.908144287109375,-1.5243261207967995,-10.90334633604288,10.12226610146761
1789708530748132400,7.91813232421875,-1.3087480181396007,-10.964038412892817,10.30437974141836
1789708530758121200,7.928121337890625,-0.39071138220131396,-10.977288355088234,10.068915619552135
1789708530768109000,7.938109130859375,0.31632220391035076,-10.785264731019735,9.810442378020285
1789708530778097200,7.94809716796875,0.6771867293804884,-10.473356836420297,9.301638284879923
1789708530788085200,7.958085205078125,0.9745979696590453,-10.15154363387823,8.725501361700893
1789708530798073300,7.9680732421875,1.253912850624323,-9.804308989831805,8.123308790767192
1789708530808061200,7.978061279296875,1.5291075098544358,-9.398758350417017,7.546963777795433
1789708530818050000,7.988050048828125,1.7538228586912155,-8.914527557519078,7.094469016376137
1789708530828038100,7.9980380859375,1.9462445421665906,-8.49428262231946,6.715367992469668
1789708530838026200,8.008026123046875,1.9451760361522434,-8.239118359205126,6.2807268676489585
1789708530848014000,8.01801416015625,1.7966764965116977,-8.160661493083834,5.6044373793691395
1789708530858002200,8.028002197265625,1.6915595870018005,-8.303418689680099,4.817748072740435
1789708530867990300,8.037990234375,1.6000082615077496,-8.602575823777913,4.052137794497609
1789708530877979400,8.0479794921875,1.4922481440126896,-9.106836428269743,3.327579657611251
1789708530887967200,8.05796728515625,1.312029524028301,-9.58150619661808,2.8060049302250145
1789708530897955000,8.067955078125,1.1191641884386538,-9.896973829525708,2.433880759593844
1789708530907943200,8.077943115234374,1.0302695149332284,-10.313216543346643,2.085679316341877
1789708530917931000,8.087930908203125,0.9903922625750302,-10.772151566946507,1.8964117129832505
1789708530927919000,8.097919189453124,1.2357272055923938,-11.193193205481768,1.682487222751975
1789708530937908200,8.107908203125,1.6584101815938947,-11.559731684935093,1.636622712677717
1789708530947896300,8.117896240234375,2.186207729017734,-11.693686566394566,1.687586007195711
1789708530957884400,8.127884521484376,2.8088006984233855,-11.769846261489391,1.6277333037793635
1789708530967872300,8.137872314453125,3.31883345657587,-12.050939331108331,1.0453741450846195
1789708530977860000,8.147860107421875,3.909944077003002,-12.121133395797013,0.8785954369097948
1789708530987848200,8.15784814453125,4.460612796926498,-11.987453239625692,0.48210488678514957
1789708530997837300,8.16783740234375,5.137935719907284,-11.987398294568061,-0.21765257084369657
1789708531007825200,8.1778251953125,5.562254188156127,-11.867345681732893,-1.1225275273919104
1789708531017813200,8.187813232421876,5.689538505810499,-11.765012265461683,-2.034389274087548
1789708531027801300,8.19780126953125,5.525757810407876,-11.52601646233797,-2.927690112698078
1789708531037789200,8.2077890625,5.187245986521244,-11.256208172321319,-3.8365328038334843
1789708531047778000,8.217778076171875,4.806166940540075,-10.806287645304202,-4.4193256777703755
1789708531057766100,8.22776611328125,4.492449366170168,-10.137953499943018,-4.953136786395311
1789708531067754200,8.237754150390625,4.299578185361623,-9.533293662112952,-5.586064102810621
1789708531077742000,8.2477421875,4.1880385493278505,-9.062184216594696,-6.269827287971973
1789708531087730200,8.257730224609375,4.198247808653116,-8.584225928094982,-7.065345797744393
1789708531097718300,8.26771826171875,4.313577776880562,-7.940514767336845,-7.7582742861360305
1789708531107707100,8.27770703125,4.370125301271677,-7.250135378906131,-8.473202424889802
1789708531117695000,8.287695068359374,4.388914172893762,-6.576264057683944,-9.026430181646347
1789708531127683000,8.29768310546875,4.15180169929862,-5.889626778391003,-9.611748190146685
1789708531137671200,8.307671142578124,3.9203161256745456,-5.189515685018897,-10.131143819928168
1789708531147659300,8.3176591796875,3.749609722661972,-4.402933345896005,-10.444467426544428
1789708531157647000,8.327647216796874,3.6923826915740965,-3.6831601051986214,-10.680648172247409
1789708531167636200,8.33763623046875,3.6959295704007147,-3.0166870775341987,-10.939705935668945
1789708531177624300,8.347624267578125,3.7118437633693215,-2.2155127339571714,-11.225142002928257
1789708531187612400,8.3576123046875,3.6192052271604536,-1.4221189612537621,-11.571102973777055
1789708531197600000,8.36760009765625,3.252348767799139,-0.85189739959836,-11.864736376017332
1789708531207588000,8.377588134765626,2.8597920499920844,-0.25711539718210696,-11.820068382251263
1789708531217576200,8.387576171875,2.6754595649480817,0.4429413356542587,-11.757307097911834
1789708531227565300,8.3975654296875,2.567229491853714,0.9122790953248738,-11.899710658764839
1789708531237553200,8.40755322265625,2.5105565875172613,1.1156804379761218,-12.01442541770339
1789708531247541200,8.417541259765626,2.4405495698332786,1.320750590622425,-12.12106559125781
1789708531257529300,8.427529296875,2.4069068279504773,1.597536318436265,-12.37863866907954
1789708531267517200,8.43751708984375,2.1847395561613143,1.8264678236633538,-12.503581392043829
1789708531277505300,8.44750537109375,1.7538696204423903,2.2077099512517453,-12.434824082159995
1789708531287494100,8.457494140625,1.1357786386311053,2.644117501223087,-12.369665089029073
1789708531297482200,8.467482177734375,0.5815958096394315,2.958592031440139,-12.472573674839735
1789708531307470000,8.477469970703124,0.38333062430024145,3.2244968842774626,-12.406685198390484
1789708531317458200,8.487458251953125,0.46452301633264864,3.5144477986127134,-12.598368630719184
1789708531327446300,8.4974462890625,0.4225590573608875,3.7233869016468524,-13.05785778107047
1789708531337434400,8.507434326171875,0.5977987564215437,4.19367158677876,-13.521232832944392
1789708531347423000,8.517423095703125,0.7028291201591491,4.384119924354553,-14.236743740022181
1789708531357411000,8.5274111328125,0.740155518990755,4.293830581620336,-14.863472786319255
1789708531367399200,8.537399169921875,0.6893827786087989,3.8914083033591504,-15.570110651111602
1789708531377387300,8.54738720703125,0.766978059464693,3.611681261396408,-15.919671107757091
1789708531387375000,8.557375,1.1369254705786704,3.612679040262103,-15.730303551155329
1789708531397364200,8.5673642578125,1.2986276061415671,3.437686630493402,-15.617593702298402
1789708531407352300,8.577352294921875,1.3379916482806204,3.032053573492169,-15.433178215146064
1789708531417340200,8.587340087890626,1.5531126548200844,2.577059396472573,-14.968007512027024
1789708531427328000,8.597327880859375,1.7689070305764674,2.3259610676228997,-14.506120652884244
1789708531437316000,8.607316162109376,2.0449422322839497,2.1258014833718537,-13.963858526778221
1789708531447304200,8.61730419921875,2.318931607377529,1.9411638779014349,-13.342920923364161
1789708531457291500,8.62729150390625,2.455571197876334,1.7176754405111074,-12.735886757618188
1789708531467280600,8.63728076171875,2.500978027310967,1.4197031322836875,-12.087503513395786
1789708531477268500,8.6472685546875,2.529914198938012,1.1393968291282652,-11.410185266590117
1789708531487256600,8.657256591796875,2.5017186165452,0.7229828503936528,-10.885198100411891
1789708531497244700,8.66724462890625,2.410693945273757,0.08360884205698967,-10.566218659991025
1789708531507232800,8.677232666015625,2.097645063945651,-0.7610954311668873,-10.358162769532203
1789708531517220600,8.687220703125,1.5346937855541705,-1.9151415478944778,-10.313769501054287
1789708531527209500,8.69720947265625,0.9745470431894063,-3.4950481016159056,-10.23125605301857
1789708531537197600,8.707197509765624,0.4441483733564615,-5.3093415033608675,-10.207575902223587
1789708531547185700,8.717185546875,0.1579605378817767,-7.174171498644352,-10.018760134285689
1789708531557173500,8.727173583984374,0.12675817488841712,-8.978117109376191,-9.687202951842545
1789708531567161600,8.73716162109375,0.3967260393809527,-10.634342348146438,-9.250510155189037
1789708531577150500,8.747150390625,0.8017997089337557,-11.892642620074747,-8.626167127245663
1789708531587138600,8.757138671875,1.021155649629235,-12.774105136853455,-7.82119982112646
1789708531597126400,8.76712646484375,1.313277478262782,-13.262425244891643,-6.9950219691962
1789708531607114500,8.777114501953125,1.539232598027587,-13.479820626103876,-6.323994931489229
1789708531617102600,8.7871025390625,1.816461977955699,-13.539360025787353,-5.8343748467683785
1789708531627090400,8.79709033203125,2.2328198425889014,-13.502560865700245,-5.45603662392795
1789708531637079600,8.80707958984375,2.5828578536182643,-13.375555949509144,-5.050122996419668
1789708531647067600,8.817067626953126,2.8433512028008696,-13.29823890107274,-4.715087324211001
1789708531657055700,8.8270556640625,2.9064801514089105,-13.260691552966833,-4.155394755354523
1789708531667043600,8.837043701171876,2.9060780003488063,-13.148934474790096,-3.351150502812862
1789708531677031400,8.847031494140625,2.871208347019553,-12.96854400537014,-2.4863135421425104
1789708531687019500,8.85701953125,2.528379244455695,-12.570925327998399,-1.4924848753780127
1789708531697008600,8.867008544921875,1.92755854639709,-12.188059983122349,-0.5883703818082809
1789708531706996700,8.876996826171874,1.424972597119212,-11.897784074616432,0.09309504780471324
1789708531716984600,8.886984619140625,1.0238538026720285,-11.568211928510665,0.6578197656095027
1789708531726972700,8.89697265625,0.720707306677103,-11.203921520245075,1.164094048011303
1789708531736960800,8.906960693359375,0.6478934148788452,-10.940171215093136,1.5341221231460571
1789708531746948600,8.916948486328126,0.7184528057485818,-10.787640227979422,1.8668641314595937
1789708531756937500,8.9269375,0.7652355997115373,-10.749172842419147,2.162122504553199
1789708531766925600,8.936925537109374,0.7829074500024318,-10.675566338938474,2.658924609732628
1789708531776913700,8.94691357421875,0.6821475666582584,-10.671818384581803,3.1247832951158285
1789708531786901500,8.956901611328124,0.462954196113348,-10.851441961282491,3.784242644625902
1789708531796889600,8.9668896484375,0.10835399173498153,-10.862323420780896,4.830497664198279
1789708531806877700,8.976877685546874,-0.12060206341147423,-10.649559791022538,5.950856615379452
1789708531816866600,8.986866455078125,-0.24002222356200217,-10.3643236302495,6.925637467324734
1789708531826854400,8.9968544921875,-0.41754966823365536,-10.013100793349743,7.809858342900871
1789708531836842500,9.006842529296875,-0.48822190836071966,-9.649301383471489,8.429444531705975
1789708531846830600,9.01683056640625,-0.3279928410250693,-9.342832465055585,8.913972261723876
1789708531856818700,9.026818603515625,-0.3637164077699184,-8.989175679007172,9.391755193656682
1789708531866806500,9.036806640625,-0.5283306313872337,-8.758669471809268,9.930706587779522
1789708531876795600,9.046795654296876,-0.7227227381527423,-8.698325185483693,10.368962395966053
1789708531886783500,9.056783447265625,-0.8926783227980136,-8.791331385961174,10.779573825901746
1789708531896771600,9.066771484375,-1.1084276173036545,-9.00227130742371,11.586231569325923
1789708531906759400,9.076759521484375,-1.4075392317593096,-9.120622377038002,12.559778495562076
1789708531916747500,9.08674755859375,-1.5397379172012209,-9.126315620243549,13.110765195393562
1789708531926735600,9.096735595703125,-1.5589514439761638,-9.23175869296789,13.319862703859805
1789708531936724700,9.106724853515624,-1.4637959565103054,-9.333617477464676,13.401907365339994
1789708531946712600,9.116712646484375,-1.1774760921537875,-9.331855143967271,13.22451549321413
1789708531956700700,9.12670068359375,-0.7918073802947998,-9.461999527227878,12.671146282160281
1789708531966688500,9.1366884765625,-0.3953483943521976,-9.728701667922735,11.976178981417418
1789708531976676400,9.14667626953125,-0.060583346645301205,-10.080019197368621,11.327370205259323
1789708531986664400,9.15666455078125,0.37906244546175,-10.264784228610992,10.728335806095599
1789708531996653600,9.166653564453124,0.7147323239207267,-10.451557677066326,10.019059409493208
1789708532006641700,9.1766416015625,0.8018412830531597,-10.816481707060337,9.050214961859583
1789708532016629500,9.18662939453125,0.6836182237327099,-11.320942802560328,8.027479934084415
1789708532026617600,9.19661767578125,0.6148620828926563,-11.774030269175768,7.1575284068793055
1789708532036605700,9.206605712890624,0.8345955516636371,-12.176356685847043,6.3919438475996255
1789708532046593800,9.21659375,0.9479156413733959,-12.559680295884608,5.597596719694137
1789708532056582400,9.22658251953125,0.9435925174772739,-13.14215402086973,4.893377606481313
1789708532066570500,9.236570556640626,1.110223341614008,-13.633161760556698,4.2894846613705155
1789708532076558600,9.24655859375,1.2824351807534693,-13.96848209492564,3.6536703913420436
1789708532086546700,9.256546630859376,1.4388766193091869,-14.165512733501195,2.953059531754255
1789708532096534500,9.266534423828125,1.6702350594222544,-14.366611644428968,2.3205232604831454
1789708532106522600,9.276522705078126,1.896593499290943,-14.5191473077178,2.1276135012298822
1789708532116511500,9.286511474609375,2.3667454979538918,-14.36632873583436,1.957243490564823
1789708532126499600,9.29649951171875,3.069268328642845,-14.119488648951053,1.6660200720757246
1789708532136487400,9.3064873046875,3.519697389703989,-13.64214703104496,1.2018857262670992
1789708532146475500,9.3164755859375,3.857061212599277,-13.072276767045258,0.4949193601727485
1789708532156463600,9.326463623046875,4.033592668503522,-12.593113778930901,-0.21158172649741172
1789708532166451500,9.336451416015626,3.9945173801779745,-11.936315757584572,-0.8237836502701044
1789708532176440600,9.346440673828125,3.9092169317722316,-11.309403171414136,-1.7151678416043519
1789708532186428700,9.3564287109375,3.775977505105734,-11.057094297730922,-2.7401556167423724
1789708532196416500,9.36641650390625,3.35132235224843,-11.159203257596491,-4.068146680012345
1789708532206404600,9.376404541015624,2.8590625666737557,-11.424418374603986,-5.099309928914904
1789708532216392400,9.386392333984375,2.5334698455929754,-11.761837142556905,-5.5905877177149055
1789708532226380500,9.396380615234374,2.406946575438976,-12.104234867966174,-5.966237139862775
1789708532236368600,9.40636865234375,2.6521850723445413,-12.420575776576996,-6.174013628858328
1789708532246357800,9.416357666015625,3.169348997551203,-12.714616006052493,-6.225552677437663
1789708532256345600,9.426345703125,3.7778222561895847,-12.81156246858835,-6.313355464053154
1789708532266333700,9.436333740234375,4.481932648330926,-12.69822835035324,-6.514716240787505
1789708532276321500,9.446321533203125,5.238741195958853,-12.300241424190997,-6.759725605112314
1789708532286309400,9.456309326171874,6.006321312969923,-11.67907468819618,-7.090277994427084
1789708532296297500,9.46629736328125,6.638135699707269,-10.90478192180395,-7.615590739297867
1789708532306286600,9.47628662109375,7.002275301325321,-9.989682508361339,-8.3274378631711
1789708532316274700,9.486274658203126,7.10574619719386,-9.04276289228797,-9.20113909829855
1789708532326262500,9.496262451171875,7.038471234822273,-7.986950939819216,-10.013057538729905
1789708532336250600,9.506250732421876,6.700607061189412,-6.824704565501213,-10.86692360805273
1789708532346238700,9.51623876953125,6.0430012305915355,-5.66012653336525,-11.714517757499218
1789708532356226600,9.5262265625,5.286295558816194,-4.277081106871366,-12.23949323323965
1789708532366215400,9.53621533203125,4.491870689499378,-2.8998750540554523,-12.475103485578298
1789708532376203500,9.54620361328125,3.823552910751104,-1.9053876311212776,-12.798686620402336
1789708532386191600,9.556191650390625,3.435954107612371,-1.1291887388467787,-13.059147236359118
1789708532396179700,9.5661796875,3.2736171812772747,-0.5014712660342454,-13.262201957529783
1789708532406167600,9.57616748046875,3.405357893818617,0.07651216179430484,-13.389896609550714
1789708532416155600,9.58615576171875,3.54787485191822,0.6149965229272842,-13.558411932259798
1789708532426144500,9.59614453125,3.539393439298868,1.1960568739831448,-13.849058427643776
1789708532436132600,9.606132568359374,3.447989413321018,1.9477847573459148,-14.009247820556164
1789708532446120400,9.616120361328125,3.2148551957070826,2.656345114633441,-13.976405873662232
1789708532456108500,9.626108642578124,3.010466595584154,3.1367297534972427,-13.92618492194414
1789708532466097700,9.63609765625,2.9097686715602875,3.484741227135062,-13.831806848591565
1789708532476085800,9.646085693359375,2.8928058463215827,3.686950729653239,-13.671956478375195
1789708532486074600,9.65607470703125,2.892658546805382,3.8867444032013414,-13.545046254730224
1789708532496062700,9.666062744140625,2.981652004510164,4.166286151725053,-13.416133459091185
1789708532506050600,9.676050537109376,3.0237036782979962,4.369297033753991,-13.23593003667593
1789708532516038700,9.68603857421875,3.0033880355000493,4.663960363563895,-13.020167809623478
1789708532526026800,9.69602685546875,2.9154233363211155,4.949920162436366,-12.909941009753942
1789708532536014800,9.706014892578125,2.835277201938629,5.153073083284497,-12.859114493358135
1789708532546003500,9.71600341796875,2.695422156524658,5.2636675474226475,-12.703558020943403
1789708532555991600,9.725991455078125,2.4847148747742174,5.325433390983939,-12.578499562644957
1789708532565979600,9.735979736328124,2.3796260223150254,5.377900660324096,-12.343901702219247
1789708532575967700,9.7459677734375,2.0762568234801293,5.079284793496131,-12.670959235155582
1789708532585955600,9.75595556640625,1.5646306586563585,4.554724912819266,-12.965220413905381
1789708532595943700,9.765943603515625,1.0694435874581336,4.1335067486733195,-12.643777798241375
1789708532605932800,9.775932861328124,0.858303759509325,3.7958828135371205,-12.160407421565056
1789708532615921000,9.7859208984375,0.7231564533948898,3.238458189612627,-12.041104165792465
1789708532625908700,9.79590869140625,0.6160112529277801,2.5617484300941227,-11.83762274364233
1789708532635896600,9.805896484375,0.582456189328432,1.9911036745905875,-11.640130332773923
1789708532645884700,9.815884765625,0.6998468894779681,1.4495809686750172,-11.408752018916607
1789708532655872500,9.82587255859375,0.8798486518412828,0.8331079434543848,-11.339252366232872
1789708532665860600,9.835860595703124,0.9058779961109161,-0.05608545983731746,-11.466631376433371
1789708532675849700,9.845849609375,0.9497551317602395,-1.125329725331068,-11.676629048609733
1789708532685837800,9.855837890625,1.223525895667076,-2.145767582079768,-11.689213804894685
1789708532695825700,9.86582568359375,1.3989923526883123,-3.1713258505821225,-11.397467239314317
1789708532705813800,9.875813720703125,1.4307529340863228,-4.161266277736425,-11.016708511328696
1789708532715801600,9.885801513671876,1.4106167395085096,-5.117280469891429,-10.729145953434704
1789708532725789700,9.895789794921875,1.493852656599879,-5.94058364316821,-10.373179136878251
1789708532735778800,9.90577880859375,1.7236358102202414,-6.559123537790775,-10.04253263953924
1789708532745766700,9.9157666015625,2.020408095008135,-7.004156292766332,-9.710596686911583
1789708532755754800,9.925754638671876,2.3923265139341354,-7.27428782338798,-9.575801262974739
1789708532765742800,9.935742919921875,2.5771763008505104,-7.314886960279941,-9.319039501535892
1789708532775730700,9.945730712890626,2.536658412501216,-7.289884620970487,-9.065324268186092
1789708532785718800,9.95571875,2.3528332924574613,-7.432699100711941,-8.722924204689264
1789708532795707600,9.965707763671874,2.1363632093966007,-7.574003175890446,-8.188907344359158
1789708532805695700,9.97569580078125,1.9401088158905504,-7.826563978508115,-7.761095188775658
1789708532815683600,9.98568359375,1.828247546686977,-8.29235602839589,-7.63902772898674
1789708532825671700,9.995671630859375,1.4312176289886236,-8.931746403345466,-7.3611618047207585
1789708532835659800,10.00565966796875,0.6791810450028628,-9.611441316154599,-6.834931945005059
1789708532845648000,10.01564794921875,-0.062344008775427937,-10.472948840141296,-6.4949360200405115
1789708532855636500,10.025636474609374,-0.6887304521799087,-11.540947489488124,-6.338902577763795
1789708532865624600,10.03562451171875,-1.1587586052674799,-12.84686992881298,-6.139957045477629
1789708532875612700,10.04561279296875,-1.5144944626122712,-14.301764785987137,-5.802716556701064
1789708532885600800,10.055600830078125,-1.720676960414648,-15.732544608080387,-5.357002833724022
1789708532895588600,10.065588623046875,-1.6188970863729715,-17.15064848847389,-5.086041282019019
1789708532905576700,10.07557666015625,-1.184302723303437,-18.161171100407838,-4.407641669717431
1789708532915565800,10.08556591796875,-0.9007458939194679,-18.354667719638346,-3.1519197238445282
1789708532925554000,10.095553955078126,-0.6968390128988772,-18.300137672549486,-2.0886492720633743
1789708532935541500,10.10554150390625,-0.43603813213706016,-17.76853254953623,-1.0172738397598267
1789708532945529600,10.115529541015626,-0.16259645405411718,-16.869085463255644,-0.23543431124985217
1789708532955517700,10.125517578125,0.2416062778830528,-15.84835476104021,0.1243500177681446
1789708532965505500,10.135505615234376,0.6761036833841353,-14.785440283089875,0.35277708060443397
1789708532975494700,10.14549462890625,0.8762707933545112,-13.815960460162161,0.7022229709595441
1789708532985482800,10.155482666015626,1.0106675733625887,-12.949900095176696,1.1126298182338477
1789708532995470800,10.165470947265625,1.0185697247892618,-12.292168007850647,1.5517244153320788
1789708533005458700,10.175458740234374,0.8133201239228248,-11.889889521974325,2.002058199325204
1789708533015446800,10.18544677734375,0.7088204695284366,-11.593962455838918,2.4430565842181444
1789708533025434600,10.1954345703125,0.5420084436058997,-11.310073033499718,2.842132474660873
1789708533035422700,10.205422607421875,0.49655719050765035,-11.11601293516755,3.3300416638106105
1789708533045411600,10.21541162109375,0.5251964250147343,-11.044413679856062,3.8370460140526292
1789708533055399700,10.225399658203125,0.37678164104819295,-10.968699390441179,4.210964666885137
1789708533065387800,10.2353876953125,0.15917349386811255,-10.914756203329562,4.541623439183831
1789708533075375900,10.2453759765625,-0.0984030180197209,-10.917435651671886,4.932433605584502
1789708533085363700,10.25536376953125,-0.640231355818361,-10.839184537255763,5.182466935551166
1789708533095351800,10.265351806640625,-1.309603465925157,-10.759008007735014,5.482842213267087
1789708533105340700,10.275340576171875,-1.8887644131004808,-10.59175992848277,5.838042721626162
1789708533115328800,10.285328857421876,-2.4105599436305463,-10.383394241422414,6.315158129560947
1789708533125316600,10.295316650390625,-2.803350616323948,-10.381121620315312,6.675345778682828
1789708533135304700,10.3053046875,-2.8341327080786227,-10.442610985022784,6.822984902101755
1789708533145292800,10.315292724609375,-2.551374920117855,-10.34854621540308,7.097628357189893
1789708533155280600,10.32528076171875,-2.117700448372215,-10.190189883136748,7.229145197847485
1789708533165269500,10.33526953125,-1.6250293055176734,-10.115244824528693,7.2597589472979305
1789708533175257600,10.345257568359376,-1.4067830065645277,-10.11060488976836,7.191327216106653
1789708533185245700,10.35524560546875,-1.234955490567535,-10.213007279622554,7.033168452239036
1789708533195233500,10.365233642578126,-0.9956148195289075,-10.19195981541872,7.017059613481163
1789708533205221600,10.3752216796875,-0.8197790908038616,-10.200275223821402,7.052665179869532
1789708533215209700,10.385209716796876,-0.8579740160983055,-10.19540849456787,7.0888564371913665
1789708533225197800,10.39519775390625,-0.8783528603255748,-10.254594843029976,7.243209379035234
1789708533235186700,10.405186767578124,-0.8806300845425575,-10.362108292287587,7.401032627338171
1789708533245174500,10.415174560546875,-0.9026290042523294,-10.43997011512518,7.415066997909546
1789708533255162600,10.42516259765625,-0.8276115379951894,-10.492682299137115,7.317493927907943
1789708533265150700,10.435150634765625,-0.7949696437180042,-10.536607950103281,7.183963993862271
1789708533275138600,10.445138671875,-0.7883130353730171,-10.685441251742839,6.972278806990385
1789708533285126700,10.455126708984375,-0.585473418257758,-10.935670396542548,6.614010727754235
1789708533295115800,10.46511572265625,-0.29948322424702345,-11.0490021766901,6.297803674656152
1789708533305104000,10.475103759765625,-0.07899816992375999,-10.980486858868598,5.869461942240595
1789708533315091700,10.485091796875,0.03279869227409363,-10.848493632870913,5.666748581853509
1789708533325079600,10.49507958984375,0.03357786908620037,-10.74873795813322,5.764220529568195
1789708533335067600,10.505067626953124,-0.1221708470981568,-10.95051257636547,5.747116250032186
1789708533345055500,10.515055419921875,-0.2105920578729361,-11.44524138240218,5.517929308739304
1789708533355044600,10.525044677734375,0.14833580044619737,-11.97619067185521,5.1454976795941585
1789708533365032700,10.53503271484375,0.969476242731139,-12.565870382696389,4.029088342821598
1789708533375020800,10.545020751953125,1.8449504058152437,-13.11156949751377,2.510713823905587
1789708533385009000,10.5550087890625,2.535397014263272,-13.91230954132676,1.6864134562849997
1789708533394996700,10.564996826171875,2.814689756461978,-14.929369446074961,1.1578905171960592
1789708533404984800,10.57498486328125,2.7183739930450916,-16.21046256456971,0.21884031932353973
1789708533414973700,10.5849736328125,2.8793022216260433,-17.10475416778326,-0.3497363977342844
1789708533424961800,10.5949619140625,3.720914374053478,-17.570400671720503,-1.0792027649283409
1789708533434949600,10.60494970703125,5.266002127850055,-18.163767546641825,-2.24128956477046
1789708533444937700,10.614937744140626,6.9556918293267485,-18.399971673220396,-3.274497471243143
1789708533454925800,10.62492578125,8.171442999339103,-18.224442087835072,-3.984855817863345
1789708533464912400,10.634912353515626,8.898384231969713,-17.971429449796677,-4.493517872184515
1789708533474900500,10.644900390625,9.194634538710117,-17.652019801265002,-4.780004325279593
1789708533484889600,10.6548896484375,9.31193989866376,-17.181359268558026,-4.928428461596369
1789708533494877400,10.66487744140625,9.173272017207742,-16.696863102722165,-5.065720963045955
1789708533504865300,10.674865234375,8.904318882715701,-16.37936250268221,-5.146509486985206
1789708533514853400,10.684853271484375,8.767144454687834,-16.460234613251686,-5.2872272867083545
1789708533524841200,10.69484130859375,8.769843192252516,-16.797243046838044,-5.519254419863223
1789708533534829300,10.704829345703125,9.365644016322493,-17.260545617997646,-5.719028804188967
1789708533544818400,10.714818359375,10.414241799628734,-17.659783421003816,-5.877743448373675
1789708533554806500,10.724806640625,11.683301950502395,-17.866076393443343,-5.936196221864223
1789708533564794400,10.73479443359375,13.19732470394969,-17.82897211292982,-6.117749889844656
1789708533574782500,10.744782470703125,14.898839867776632,-17.496090403884647,-6.323801454743743
1789708533584770600,10.7547705078125,16.532483856904506,-16.642710656774042,-6.539878154572844
1789708533594758400,10.76475830078125,17.5936494453609,-15.276028336060046,-6.647324383813142
1789708533604746200,10.774746337890624,17.75175910938978,-13.658705367136001,-6.6212482777923345
1789708533614735400,10.7847353515625,17.285408841097354,-12.114606624376773,-6.499518087133765
1789708533624723500,10.794723388671875,16.420439193958043,-10.641633674198388,-6.319893925911188
1789708533634711600,10.804711669921875,15.430359650593996,-9.366274130919575,-6.094750122529268
1789708533644699400,10.814699462890625,14.616855986797809,-8.25283825699985,-5.904479479607939
1789708533654687500,10.8246875,14.207183299016952,-7.553632003512978,-6.021966625869274
1789708533664675600,10.834675537109375,14.344446574372052,-6.778496941077709,-6.072780282783508
1789708533674664400,10.84466455078125,14.510786306607722,-5.923565288349986,-5.943313944914936
1789708533684652300,10.85465234375,14.56823194888234,-5.180245752370357,-5.572317317008972
1789708533694640400,10.864640380859376,14.772163452887535,-4.448734727606177,-4.987402628612518
1789708533704628500,10.87462841796875,14.733774393260479,-3.676268007597327,-4.393969702717661
1789708533714616300,10.8846162109375,14.388722938472032,-2.8927713595300912,-3.9813779126197097
1789708533724604400,10.8946044921875,13.850664693796634,-2.179621336364746,-3.73013257651478
1789708533734593300,10.90459326171875,13.106072653663158,-1.5971283221572636,-3.377760569579899
1789708533744581400,10.914581298828125,12.48298868587017,-1.2978215504556894,-3.201183520968258
1789708533754569200,10.9245693359375,12.013690089166163,-1.0483733269006013,-3.288023600031435
1789708533764557300,10.934557373046875,11.814244206142424,-0.692573683604598,-3.2538542039260268
1789708533774545400,10.94454541015625,11.761800902199745,-0.5086737447589635,-3.4488919151186943
1789708533784533500,10.954533447265625,11.57860940388441,-0.3088660426855087,-3.947684901854396
1789708533794521300,10.964521240234374,11.494931588244437,0.19035773668289183,-4.555196914245188
1789708533804510500,10.974510498046875,11.160533629417419,0.8829647380352019,-4.858981415882706
1789708533814498300,10.984498291015624,10.444046570783852,1.4775637850999832,-4.998925893145799
1789708533824486400,10.994486328125,9.696939332959055,1.9726918195873497,-5.118355405646562
1789708533834474200,11.00447412109375,8.942164921507239,2.363413723182678,-5.374139261963963
1789708533844462300,11.01446240234375,8.414058162003755,2.635298234951496,-5.85374940932393
1789708533854450400,11.024450439453124,8.106109234163165,2.8385627994805573,-6.284073255467415
1789708533864439600,11.034439453125,8.005683697339892,2.974923573037982,-6.537096414899826
1789708533874427400,11.044427490234375,8.097134485068917,3.063430124008655,-6.878211114761233
1789708533884415500,11.05441552734375,8.3466283013314,3.180036395782232,-7.189209493300318
1789708533894403600,11.064403564453125,8.694080972042679,3.2546915315330027,-7.546744582086801
1789708533904391200,11.07439111328125,9.071548257267475,3.2682840035557743,-8.281006366863846
1789708533914379300,11.084379150390625,9.311519042903184,3.4669910509109494,-8.93461114512682
1789708533924368400,11.094368408203126,9.183001968583465,3.7382740896552797,-9.383315866613387
1789708533934356500,11.1043564453125,8.740486749386786,3.941412397456169,-9.689399585103988
1789708533944344600,11.114344482421876,8.31441822260022,4.053955657574535,-9.907177243632077
1789708533954332400,11.12433251953125,7.852412705513834,4.214330343925953,-10.251292294353247
1789708533964320500,11.134320556640626,7.343343239435553,4.4523663621068,-10.789368074685335
1789708533974308600,11.14430859375,6.947029799443483,4.6483664885908365,-11.322160946178435
1789708533984296400,11.15429638671875,6.520894637161493,4.906380295917391,-11.819772614175081
1789708533994285300,11.164285400390625,5.880208377182483,5.0820326308995485,-12.449385691475868
1789708534004273400,11.1742734375,5.108953955572844,5.2400481869041915,-12.958846787220239
1789708534014261500,11.184261474609375,4.398148449707031,5.402084668987989,-13.220926528811454
1789708534024249300,11.194249267578124,3.801234988220036,5.365556142535805,-13.28281570649147
1789708534034237400,11.204237548828125,3.255237767238915,5.093873290818929,-13.264758656275271
1789708534044225500,11.2142255859375,2.8102199175715445,4.706742105191946,-13.298190970277785
1789708534054214400,11.22421435546875,2.394347498367727,4.4317198799192905,-13.323611827260255
1789708534064202200,11.2342021484375,1.8083853467449544,4.098411469894647,-13.442212487721442
1789708534074190300,11.2441904296875,1.1222938647665082,3.5707594684213397,-13.518553384602068
1789708534084178400,11.254178466796875,0.6750456256985664,2.9678391677349802,-13.207201954841613
1789708534094166500,11.26416650390625,0.31868951756358144,1.988286863604188,-13.43882459884882
1789708534104154400,11.274154296875,-0.14149747885875402,0.7464139948636292,-13.59145378564
1789708534114142500,11.284142578125,-0.3585036415576935,-0.18053250823915004,-13.471221140062807
1789708534124131300,11.29413134765625,-0.33347675232887264,-0.8932985005229711,-13.186235154658554
1789708534134119400,11.304119384765626,-0.3578092295527458,-1.9260446347028015,-13.190711423289775
1789708534144107300,11.314107177734375,-0.3225777571737766,-3.236203104162216,-13.177614625829458
1789708534154095400,11.324095458984376,0.4376864838659763,-3.623132045215368,-12.718331227183342
1789708534164083500,11.33408349609375,0.9108154525130987,-3.817627612355351,-12.576103022897243
1789708534174071300,11.3440712890625,0.9731669870078563,-4.034077821671962,-12.350475235390663
1789708534184060400,11.354060302734375,1.0007856462955473,-4.125063329976797,-12.123811675095558
1789708534194048500,11.364048583984374,0.9830717104285955,-4.371805801704526,-11.896997308152914
1789708534204036400,11.374036376953125,0.8474252226203679,-4.862987144392728,-11.564375126826762
1789708534214024200,11.384024169921876,0.5314437949717045,-5.482321404263377,-10.982485923731327
1789708534224012300,11.39401220703125,0.009144406572729349,-6.177800746181607,-10.151405686712264
1789708534234000400,11.40400048828125,-0.7168722585588693,-7.055942594105005,-9.287267814221977
1789708534243988500,11.413988525390625,-1.328268711167574,-8.016860924914479,-8.465084000363946
1789708534253977300,11.423977294921874,-1.7814222287565469,-9.038660133144258,-7.866631200480461
1789708534263965400,11.43396533203125,-2.155959451878816,-10.270949765503406,-7.262552961930632
1789708534273953500,11.44395361328125,-2.4046555418923496,-11.493252841377258,-6.498177193918824
1789708534283941600,11.453941650390625,-2.368154195708036,-12.570077771258353,-5.6931099345564835
1789708534293929200,11.46392919921875,-2.2021055553734303,-13.43427000428438,-4.776079845312237
1789708534303917300,11.473917236328125,-1.9908437084801494,-14.02958216805458,-3.7227334061741826
1789708534313906400,11.483906494140625,-1.7435377576507627,-14.164451241749525,-2.4878742155879734
1789708534323894500,11.49389453125,-1.490884600574523,-14.11633924500942,-1.3996248053729534
1789708534333882400,11.50388232421875,-1.1056595408298076,-14.025100054204463,-0.30323885045349597
1789708534343870500,11.513870361328125,-0.6906348244965076,-13.717606468915939,0.964012205171585
1789708534353858600,11.523858642578125,-0.45402664716169233,-13.085212236464022,2.1259511209756137
1789708534363846400,11.533846435546875,-0.54680576088503,-12.694545862448214,3.0028567051023245
1789708534373834500,11.54383447265625,-0.6780559134304524,-12.59486968268752,3.7421617447435853
1789708534383823400,11.5538232421875,-0.7965757637403905,-12.374876686197519,4.336740918064117
1789708534393811500,11.5638115234375,-0.9975146618008613,-11.948898175781965,4.862301500216126
1789708534403799300,11.57379931640625,-1.1742338953621685,-11.293709927719831,5.332624179270863
1789708534413787400,11.583787353515625,-1.2708125474989413,-10.56887589650154,5.834248005518317
1789708534423775500,11.593775390625,-1.3936732034921646,-9.822965174984931,6.296507789626717
1789708534433763600,11.603763671875,-1.687283809378743,-9.228568957015872,6.660585431924462
1789708534443752200,11.613752197265624,-2.067827433308959,-8.728107744807005,7.097169507506489
1789708534453740300,11.623740234375,-2.4138930335760116,-8.284882331514359,7.652682160329818
1789708534463728600,11.633728759765624,-2.687393163847923,-8.017612035542726,8.208302365180849
1789708534473716700,11.643716796875,-3.0124615687936545,-7.960000389051437,8.788143988096714
1789708534483704600,11.65370458984375,-3.286347483512759,-7.994544463688134,9.396392790329456
1789708534493692700,11.663692626953125,-3.45210737003386,-8.02431883970499,9.935512526756524
1789708534503680800,11.6736806640625,-3.460792780792713,-8.060138925626873,10.328057554125785
1789708534513669600,11.683669677734375,-3.4254888276994224,-8.14640149706304,10.564386768388747
1789708534523657500,11.693657470703124,-3.387152959564328,-8.214404189187288,10.627238069099187
1789708534533645600,11.7036455078125,-3.207628167062998,-8.299897529816628,10.469815802812576
1789708534543633700,11.713633544921874,-2.930614183451235,-8.348394141960144,10.0452950899899
1789708534553621800,11.723621826171875,-2.69485926194489,-8.356910625892876,9.60218891916275
1789708534563609600,11.733609619140625,-2.511805126273632,-8.395186872795223,9.267052709189057
1789708534573598700,11.7435986328125,-2.2541370636448264,-8.419443362173437,9.049949588921665
1789708534583586800,11.7535869140625,-1.9636337761238216,-8.311254790133237,8.864640952321887
1789708534593574700,11.76357470703125,-1.6851479663938282,-8.148596376758814,8.581129131123424
1789708534603562500,11.7735625,-1.40897481752038,-8.14647690038681,8.269092057186365
1789708534613550600,11.783550537109376,-1.141225944251567,-8.117799087435007,8.039192583709955
1789708534623538700,11.79353857421875,-0.9068091394811868,-8.024930834123492,7.757900776648521
1789708534633526500,11.803526611328126,-0.662076107879728,-8.045051246610283,7.397164845994115
1789708534643515600,11.813515625,-0.46580490936934943,-8.23400145458281,7.061420733255147
1789708534653503700,11.823503662109376,-0.32320071137771006,-8.404489538669585,6.797586256951093
1789708534663491800,11.833491943359375,-0.05171031349301338,-8.551231420987843,6.439068586868047
1789708534673479700,11.843479736328124,0.20569003811031578,-8.86677913339436,6.04918488766253
1789708534683467500,11.853467529296875,0.4497083455711603,-9.216731219705938,5.740480757540464
1789708534693455600,11.86345556640625,0.6754699885904789,-9.492212879183889,5.474332159075141
1789708534703444700,11.87344482421875,0.9195381265424192,-9.783608147108554,5.044623814481496
1789708534713432600,11.8834326171875,1.0497405236005783,-10.16040147859454,4.428067202630639
1789708534723420700,11.893420654296875,1.147713406574726,-10.629029044169187,3.545905597671866
1789708534733408800,11.90340869140625,1.3087972641088068,-11.122997971749305,2.5538696595430372
1789708534743396900,11.91339697265625,1.3691625932224094,-11.455654055345057,1.6768816578298806
1789708534753384700,11.923384765625,1.3257038291156291,-11.735887877786158,0.9533920269578695
1789708534763372500,11.93337255859375,1.2063911479275673,-12.028770753920078,0.19407763398885725
1789708534773361700,11.943361572265625,1.047179587071389,-12.380109326153994,-0.6915583690822124
1789708534783349800,11.953349853515626,0.893771890188381,-13.006279569524526,-1.9623159715235232
1789708534793337600,11.963337646484375,0.7085760663133114,-14.107680137735604,-3.804409234341979
1789708534803325700,11.97332568359375,0.7350069771211594,-15.18069983011484,-5.258499789395928
1789708534813313800,11.983313720703125,1.0201274756252765,-15.656173316061496,-6.057383976209163
1789708534823301600,11.993301513671875,1.4396826749950646,-15.902746860963106,-6.881661547476053
1789708534833290500,12.00329052734375,1.916370212906599,-16.140215892910955,-7.865849694713949
1789708534843278600,12.013278564453126,2.5743793636083603,-16.36170994161367,-8.810334192594885
1789708534853266700,12.0232666015625,3.40723537812829,-16.278655226308107,-9.605123219048977
1789708534863254500,12.033254638671876,4.405887519526481,-15.848993058943748,-10.250383947336672
1789708534873242600,12.04324267578125,5.478820702666044,-14.749339042139052,-10.578393081909418
1789708534883230700,12.053230712890626,6.415488973838091,-13.32140233451724,-10.732654253816603
1789708534893218800,12.06321875,7.14630967825055,-11.761707378697395,-10.875881990534067
1789708534903207400,12.07320751953125,7.674666028600931,-9.89410148895979,-11.191390539973973
1789708534913195500,12.083195556640625,7.77659027954936,-7.564651410177349,-11.25590538998246
1789708534923183600,12.09318359375,7.5321560847640034,-5.244485877090693,-11.121416255515813
1789708534933171700,12.103171630859375,6.967215678381919,-3.219427325928211,-11.276800878494978
1789708534943159600,12.11315966796875,6.287311506736279,-1.6031109036982059,-11.589976016551255
1789708534953147600,12.123147705078125,5.545322927099466,-0.11063128901720046,-11.849759756159782
1789708534963136800,12.13313671875,4.7994659815967085,1.1912643790096045,-12.106113521319626
1789708534973124900,12.143124755859375,4.187064735859632,2.1276240226238965,-12.322455594086646
1789708534983112400,12.153112548828124,3.614955753022432,2.653635271152854,-12.58106912087202
1789708534993100500,12.1631005859375,3.0868133376836773,2.725737799811363,-12.679882546323537
1789708535003088600,12.173088623046874,2.7482629353523254,2.795851200479269,-12.621579994958639
1789708535013076500,12.183076416015625,2.5951883428812024,2.7146745540052653,-12.599087592643498
1789708535023064600,12.193064697265624,2.390155453505367,2.5100568213015793,-12.388583724510669
1789708535033053700,12.2030537109375,2.068762083810568,2.3720149627894163,-12.037767714846133
1789708535043041800,12.213041748046875,1.7832336620926856,2.314644139316678,-11.612024182230233
1789708535053029600,12.223029541015626,1.7118892583250997,2.4330653515577314,-11.16083056653738
1789708535063017700,12.233017822265625,1.9111890108764171,2.5919512606561184,-10.780910042941569
1789708535073005600,12.243005615234376,2.2837713005386293,2.7319892614215613,-10.389862560653686
1789708535082993700,12.25299365234375,2.901134114205837,2.9578946968257425,-10.11038394049406
1789708535092982800,12.262982666015626,3.662520637273788,3.2233114738851785,-10.11023664097786
1789708535102970600,12.272970703125,4.269034578537941,3.857175194367766,-10.128943679535388
1789708535112958700,12.282958740234376,4.747859713000059,4.471843800514936,-10.107039306241273
1789708535122946800,12.29294677734375,5.13835306853652,4.795513444578647,-10.191731851881741
1789708535132934700,12.3029345703125,5.34378328666687,5.081137727886438,-10.199918665468692
1789708535142922800,12.3129228515625,5.409105945926904,5.2891527018129825,-10.22856842136979
1789708535152910600,12.32291064453125,5.240118329530954,5.360967061179876,-10.344808782440424
1789708535162899700,12.332899658203125,4.739349074286222,5.2894250890135766,-10.36504843739271
1789708535172887600,12.342887451171874,4.088199872481823,5.098111659041047,-10.284385585659741
1789708535182875600,12.352875732421875,3.4104175152957437,4.9940784531146285,-10.129667317634821
1789708535192863700,12.36286376953125,2.7755402338564394,4.911387894946336,-9.913920288151502
1789708535202851600,12.3728515625,2.3444155927240846,4.625986899000406,-9.739739779287577
1789708535212839700,12.382839599609374,1.942805653759092,4.197528846728802,-9.465755664891004
1789708535222828500,12.39282861328125,1.6126853722512722,3.659801441442966,-9.433809790053964
1789708535232816600,12.402816650390625,1.4262323879219592,3.0622230863064526,-9.486360646024346
1789708535242804700,12.4128046875,1.3625403986036777,2.4748382084041833,-9.534071660748124
1789708535252792600,12.42279248046875,1.3704104013264178,1.985588126039505,-9.493201890221238
1789708535262780700,12.43278076171875,1.5717700090169906,1.7134101842820644,-9.337253788140416
1789708535272768800,12.442768798828125,1.8623533760368822,1.4042624020457266,-9.196909497904777
1789708535282756600,12.452756591796875,2.04775787422657,0.9956441917538642,-9.13422069427967
1789708535292745500,12.462745361328125,2.227529919487238,0.522666029754281,-9.195169960761069
1789708535302733600,12.472733642578126,2.451518707615137,0.014022680133581161,-9.249773657608031
1789708535312721700,12.4827216796875,2.6187024894595146,-0.5590291365116834,-9.089937315917014
1789708535322709500,12.49270947265625,2.640228092569113,-1.190066109135747,-8.676537716567516
1789708535332697600,12.502697509765625,2.570036365967989,-1.6836369773089885,-8.195354620802402
1789708535342685700,12.512685791015626,2.4817910962820053,-2.0743331619411705,-7.663000140726566
1789708535352673800,12.522673828125,2.4820529620885847,-2.4842986951887607,-7.211498481997847
1789708535362662700,12.53266259765625,2.478112115508318,-2.9285978751927613,-7.004069783526659
1789708535372650500,12.542650390625,2.3947464345574376,-3.4325054284632204,-6.963758815926313
1789708535382638600,12.552638671875,2.2790087623119355,-4.11509840080142,-6.882266527631878
1789708535392626700,12.562626708984375,2.168742214953899,-5.002965523925424,-6.877214504939317
1789708535402614500,12.572614501953124,2.0237129817724226,-6.022127953910827,-6.734688194489479
1789708535412602600,12.5826025390625,1.923932757115364,-6.955277403306961,-6.480101439002156
1789708535422591700,12.592591796875,1.972521723717451,-7.594309466338157,-6.0263932101398705
1789708535432579800,12.602579833984375,2.0398107146143913,-7.822066667088865,-5.634117062839866
1789708535442567700,12.612567626953124,2.141621568316221,-7.89971747752428,-5.383598579704761
1789708535452555800,12.6225556640625,2.1359072823226453,-8.09056270546317,-5.666240047809481
1789708535462544400,12.63254443359375,1.9352432556807995,-9.26583515009284,-6.799965261042118
1789708535472532500,12.642532470703125,1.8535726882100103,-10.368237588822842,-7.277430797588825
1789708535482520300,12.652520263671875,1.8722715434610842,-10.92665940709114,-7.150303716322779
1789708535492509400,12.662509521484376,1.859664575344324,-11.467765348899364,-6.844248639404773
1789708535502497500,12.67249755859375,1.835607992452383,-12.01879062717557,-6.468546025764942
1789708535512485600,12.682485595703126,1.8854174407601356,-12.476526211857795,-5.812995958653092
1789708535522473200,12.69247314453125,1.8648843558192252,-12.51303311100006,-4.631523490339517
1789708535532461300,12.70246142578125,1.826044045293331,-12.016200026160478,-3.091823274800181
1789708535542449400,12.712449462890625,1.816764175772667,-11.077028832256794,-1.7403443684369324
