time,seconds_elapsed,z,y,x
1789929391766430500,0.055430419921875,-0.3697223701864481,0.4200628566309809,-0.3983716146308928
1789929391776456400,0.06545654296875,-0.49102001464664935,0.32225130169838667,-0.26526655493378637
1789929391786483500,0.0754833984375,-0.4905822077512741,0.21461773319244384,-0.12721395583190023
1789929391796509400,0.085509521484375,-0.42048283560872074,0.09065613021999597,-0.006961509575694799
1789929391806535400,0.095535400390625,-0.30214520999789235,-0.0213429400190711,0.06899294527061284
1789929391816561400,0.1055615234375,-0.2110597484499216,-0.08382014672011137,0.06046535542197525
1789929391826587400,0.11558740234375,-0.18425474363267422,-0.05943243217766284,0.037521702207997436
1789929391836614400,0.125614501953125,-0.10585808326601981,-0.002307400159537792,0.005484167032130062
1789929391846640400,0.135640380859375,0.015746435186266897,0.07682254291772841,-0.06314337899219244
1789929391856666400,0.145666259765625,0.06280161634981632,0.11192249787151813,-0.10143537145294249
1789929391866692400,0.1556923828125,0.07844225307404995,0.07812631899267435,-0.07710198091361671
1789929391876718600,0.165718505859375,0.06395721612572669,0.024419278724491594,-0.008819120141118764
1789929391886744600,0.17574462890625,0.05318447769880295,0.029560441005229948,0.02066460236608982
1789929391896771300,0.185771240234375,0.004379822519421577,0.06569879909604788,0.012733151779696344
1789929391906797300,0.19579736328125,0.008030161720514297,0.06954466086924076,-0.004599493152089417
1789929391916823300,0.2058232421875,0.026870471268892287,0.021668226450681685,-0.01052544913496822
1789929391926849300,0.215849365234375,0.0683493136048317,0.031678456072509284,-0.02871240934114903
1789929391936875300,0.225875244140625,0.14823416670262812,0.03637479719519615,-0.048056905551999804
1789929391946902500,0.235902587890625,0.15142098004519938,0.06075637425780296,-0.048373460687883195
1789929391956928500,0.245928466796875,0.13966624484360218,0.05424450814574957,-0.0530572711225599
1789929391966954500,0.25595458984375,0.13592939640283583,0.04555675929933786,-0.04404631820376962
1789929391976980500,0.26598046875,0.06654372548758983,0.06492898376733064,-0.04426449099909514
1789929391987006500,0.27600634765625,0.004137245935201645,0.08223959953039885,-0.09129508571065961
1789929391997033500,0.286033447265625,-0.01803776099383831,0.0910620806723833,-0.08012582224681973
1789929392007059500,0.2960595703125,-0.08169336382448673,0.10717208847403525,-0.03897854995280504
1789929392017085400,0.30608544921875,-0.140571084728837,0.09365180490463972,-0.012826200358010827
1789929392027111400,0.316111328125,-0.17020868262350558,0.10283639735728502,0.04744922198243439
1789929392037137400,0.326137451171875,-0.19814649086296557,0.09871639481782912,0.0672442384397611
1789929392047163400,0.336163330078125,-0.2252542780190706,0.08405103286653756,0.08625219617262482
1789929392057190400,0.3461904296875,-0.15495558391213415,0.05254910240471363,0.08047109202053397
1789929392067216400,0.35621630859375,-0.07886953857541083,0.09433248064517974,0.052319750628247855
1789929392077242400,0.366242431640625,-0.10204057080447673,0.15097528210431335,0.055020716682635244
1789929392087268400,0.376268310546875,-0.0611556027084589,0.14803396795541046,0.06931969300694764
1789929392097294300,0.38629443359375,-0.13682722202539443,0.08403700434118509,0.07417305132225155
1789929392107321600,0.396321533203125,-0.11379939765930175,0.02938566896021366,0.01174370235092938
1789929392117347600,0.40634765625,-0.10184358692765236,-0.013112287290394306,-0.007253916651010513
1789929392127373600,0.41637353515625,-0.17288053218126295,0.0545391071781516,-0.14089669995401055
1789929392137399600,0.426399658203125,-0.20746786143779752,0.25338731656968594,-0.11267970944698899
1789929392147425500,0.436425537109375,-0.02789338457584381,0.355805780775845,-0.10925218268372118
1789929392157451300,0.446451171875,-0.13214344812333584,-0.04853402154445648,-0.5336097408339381
1789929392167478300,0.456478271484375,-0.08109072175621986,0.17065993352234363,-0.13205580637250094
1789929392177504300,0.466504150390625,0.13304127374589442,0.05262129085808992,0.42997992807663976
1789929392187530500,0.476530517578125,-0.028002105647325515,-0.34350714795589443,0.641527533108741
1789929392197556500,0.486556396484375,-0.2720534385949373,-0.05427548780590295,0.7384263571105897
1789929392207582500,0.49658251953125,-0.11865560551881789,0.11998276246935129,0.7417260562431067
1789929392217609500,0.506609375,-0.07061316688358783,-0.23751871630847451,0.5899933068349957
1789929392227635500,0.516635498046875,0.119871411049366,0.1368377434194088,0.5531241502515971
1789929392237661400,0.526661376953125,0.3087012075126171,0.6413660589367151,0.41539997938647866
1789929392247687400,0.5366875,-0.17405191404819487,0.34888094994872804,0.2768756711196154
1789929392257713400,0.54671337890625,-0.004421323573589325,-0.07242109308838844,0.26138795993477104
1789929392267740400,0.556740478515625,-0.0037409400939941405,-0.1429407364696264,0.2811873968388885
1789929392277766400,0.566766357421875,-0.40776130120158194,-0.02902706478089094,0.2142489729452878
1789929392287792400,0.57679248046875,-0.40416649158000945,-0.12365531350225209,-0.05528634534887969
1789929392297818400,0.586818359375,-0.21112989107668398,-0.33401655829399823,-0.415595903817378
1789929392307844400,0.59684423828125,-0.03492342934310436,-0.8435892977192997,-0.3476338359644636
1789929392317870300,0.606870361328125,0.02722586057782173,-1.5797931564748287,0.1363843188297935
1789929392327897300,0.6168974609375,-0.25864567548930645,-1.3628838052138685,0.20873853896073996
1789929392337923600,0.626923583984375,-0.8315361640930176,-1.3293974229365586,0.5497015553917736
1789929392347949600,0.636949462890625,-1.2997691773921252,-0.9766472303390502,0.666527095939219
1789929392357975600,0.6469755859375,-1.6854460725575684,-0.2440513329476118,1.4537801739305256
1789929392368001500,0.65700146484375,-1.4783295087754726,0.827749339030683,2.8441292014360426
1789929392378028300,0.6670283203125,0.3317261092692613,1.3137880581334231,0.22898111652247607
1789929392388054300,0.67705419921875,1.2638824559748172,1.362184570903331,-0.35228403639048333
1789929392398080300,0.687080322265625,0.6268149710148573,1.1937399753428994,-1.045222826980427
1789929392408106200,0.697106201171875,-0.7629518726885318,0.46664311375916,-1.0314335902765392
1789929392418132200,0.70713232421875,-1.377758426001668,0.21972207059413193,-0.5917476762216538
1789929392428159500,0.717159423828125,-1.148597203671932,0.3674135087221861,-0.5981503828708082
1789929392438185500,0.727185546875,-0.8105231866806745,0.4351172178998589,-0.7372858087733387
1789929392448211500,0.73721142578125,-0.9920867915332316,0.20699746744707226,-0.8153777140397578
1789929392458237400,0.747237548828125,-1.1933663197249174,0.06604746640324592,-0.7495545579116791
1789929392468263400,0.757263427734375,-0.9249480227619409,0.07141337735056877,-0.3300676745377481
1789929392478290400,0.76729052734375,-0.04639116429686546,0.14764379959404467,0.21696860716752706
1789929392488316400,0.77731640625,0.584804213759303,0.01618891825675964,0.4051354827426374
1789929392498342400,0.78734228515625,0.5002390938907861,-0.19390973007604478,0.6488344220560044
1789929392508368100,0.7973681640625,0.48794835211634635,-0.19030834458321333,0.7691726468995213
1789929392518394000,0.80739404296875,0.6470756687551736,-0.13416677064448596,0.8378240852560848
1789929392528420000,0.817420166015625,0.9141554105907678,0.03431450366452336,0.6732596190646291
1789929392538447400,0.827447265625,0.9473778812348842,0.20548048701286314,0.4934616356451064
1789929392548473300,0.837473388671875,0.9580115034520625,0.22315102212950585,0.3521160594124347
1789929392558499300,0.847499267578125,0.9106021020233631,0.351154447838664,0.18923223978430032
1789929392568525300,0.857525390625,0.7587363008201122,0.5356640430152416,0.04787000467777252
1789929392578551300,0.86755126953125,0.5521019675970077,0.5479514237888157,0.0006972615491598844
1789929392588578300,0.877578369140625,0.5090729732096195,0.42121670284122226,-0.09056874419748782
1789929392598604300,0.887604248046875,0.4771826279520988,0.41518794407099485,-0.2451463616427034
1789929392608630300,0.89763037109375,0.5032984814614058,0.2844546550065279,-0.18913067910596726
1789929392618656500,0.907656494140625,0.6678986765533685,0.09781330849826335,-0.10450535348281263
1789929392628682500,0.9176826171875,0.8113532077640294,-0.03299187675863504,-0.19028364853337407
1789929392638709200,0.927709228515625,0.8482306937843561,0.12906097193807362,-0.5161829513452947
1789929392648735200,0.9377353515625,0.6824538561284542,0.21348507590070365,-0.6550584842026234
1789929392658761200,0.94776123046875,0.5940688857108354,0.014135638988763093,-0.5269478717919439
1789929392668787200,0.957787109375,0.49233460437655446,-0.25106603401526806,-0.19003866079635917
1789929392678813200,0.967813232421875,0.4170663051635027,-0.3714966863825917,0.035249665622785684
1789929392688839200,0.977839111328125,0.330415611192584,-0.2597004452392459,0.08876600562445819
1789929392698866400,0.987866455078125,0.2143143663316965,-0.31857319770753384,0.2697000073365867
1789929392708892400,0.997892333984375,-0.0852712223112583,-0.43344870016574855,0.45845673856362695
1789929392718918400,1.00791845703125,-0.2060451351583004,-0.352566360463202,0.3308767989635467
1789929392728944400,1.0179443359375,-0.14710545493364333,-0.20577274795770645,0.20232436106950044
1789929392738970400,1.027970458984375,-0.1790788022994995,-0.13840017043054104,-0.043875528214126824
1789929392748997000,1.0379970703125,-0.14500877491533756,-0.013563830450177191,-0.4246700581654906
1789929392759023000,1.048023193359375,0.05300736756622791,0.04611439318209886,-0.5950609654881059
1789929392769049300,1.05804931640625,0.07868015348315238,0.1811822043195367,-0.7173648643814027
1789929392779075300,1.068075439453125,0.104817049780488,0.26173165880590676,-0.6021623219259082
1789929392789101300,1.078101318359375,0.1398532918483019,0.18475012593418358,-0.3036050534173846
1789929392799128300,1.08812841796875,-0.0396884517878294,0.05346066429167986,0.05751505424901843
1789929392809154300,1.098154296875,-0.14956979922056196,-0.08435176937878132,0.35230668661370873
1789929392819180300,1.10818017578125,-0.16927286307811737,-0.09894085122346878,0.3300837488897145
1789929392829206300,1.118206298828125,-0.1991606363415718,-0.18483488160818815,0.3948538888335228
1789929392839232300,1.128232177734375,-0.333056481090188,-0.37148207333534955,0.5978356908984482
1789929392849259300,1.13825927734375,-0.5108440745353698,-0.35091947003901003,0.6763885647401213
1789929392859285200,1.14828515625,-0.524269957819581,-0.2904921816051006,0.6788900261670351
1789929392869311200,1.158311279296875,-0.44078620344698427,-0.3016018969014287,0.6628628743432462
1789929392879337200,1.168337158203125,-0.4647814115405082,-0.21935615989118812,0.41084056251645085
1789929392889363200,1.17836328125,-0.550486349093914,-0.03262684283852577,0.20736659302040933
1789929392899390200,1.18839013671875,-0.5588187086313963,0.07122574582397938,0.25196809742152687
1789929392909416200,1.198416259765625,-0.7910369804441928,0.11362637917995452,0.24196079040914772
1789929392919442200,1.208442138671875,-0.8441215048998594,0.1253100949719548,0.21379121924042702
1789929392929468400,1.218468505859375,-0.9987409887254237,0.30411300293952226,0.006116144792735576
1789929392939494400,1.228494384765625,-1.2194991243690252,0.30924919678419827,-0.19997619050815701
1789929392949520400,1.238520263671875,-1.5368027405321598,0.0759217946857214,-0.3692809100292623
1789929392959547400,1.24854736328125,-1.6074217526346444,-0.7159948912024497,-0.34622999704852697
1789929392969573400,1.258573486328125,-1.7503022833496331,-1.7237033224985003,-0.12616057432144878
1789929392979599400,1.268599365234375,-2.4686609810739752,-2.2325299197316166,0.013384966751933097
1789929392989625000,1.278625,-1.9635820459365843,-1.6782728199273347,-0.35969314360320565
1789929392999651000,1.288651123046875,-1.2115934658110141,-1.3296882225766777,-0.9522855270206928
1789929393009678300,1.29867822265625,-1.8528116407096384,-1.6967951495677231,-1.4653466930836438
1789929393019704300,1.308704345703125,-2.9990719258666036,-2.3497104842618106,-1.7193734766006468
1789929393029730300,1.318730224609375,-4.057109737691283,-2.7734327401831744,-1.922464730389416
1789929393039756300,1.32875634765625,-4.853644146507978,-2.975260842168331,-2.3790479301661254
1789929393049782300,1.3387822265625,-5.024964005243778,-3.20017346714288,-2.994813683900237
1789929393059809300,1.348809326171875,-4.9261423964858055,-3.4834847973331806,-4.069486988705396
1789929393069835300,1.358835205078125,-5.071767257472873,-3.8600618557199833,-5.293042694988847
1789929393079861500,1.368861572265625,-5.298759903591871,-4.513160145765543,-6.663738342997432
1789929393089887500,1.378887451171875,-7.249246321111917,-5.359763530609011,-9.045669135123491
1789929393099913500,1.38891357421875,-9.200367529404163,-5.4124201850414275,-10.025803623056412
1789929393109940200,1.398940185546875,-8.719486046934128,-5.416328298395872,-9.453354448479413
1789929393119966200,1.40896630859375,-5.942711887368559,-5.474150372767448,-8.493593471011518
1789929393129992200,1.4189921875,-2.6027099705576897,-6.445225940454006,-6.970559728112816
1789929393140018200,1.42901806640625,-2.270836561772227,-8.386473404985665,-5.960185000216961
1789929393150044200,1.439044189453125,-2.7304280034542083,-9.332683411484956,-4.712568034866452
1789929393160071400,1.449071533203125,-2.6026030030518768,-9.211705500498413,-3.278539440110326
1789929393170097400,1.459097412109375,-1.4652911635041237,-9.247699773943424,-1.3987123667031525
1789929393180123400,1.469123291015625,0.1796363631170243,-9.242360751003027,1.0021446596890686
1789929393190149400,1.4791494140625,0.5224737220525741,-8.924715774056315,2.9542057791799303
1789929393200175400,1.48917529296875,1.1084324396092444,-8.483301794099807,4.241822161963582
1789929393210201300,1.499201416015625,1.4402268648743628,-7.543788654890656,4.338261844021082
1789929393220228000,1.50922802734375,0.8551170192319899,-6.352085299941897,3.7646377804458138
1789929393230254300,1.51925439453125,0.2850819200593978,-5.429935383465886,3.5877521042764187
1789929393240280300,1.5292802734375,0.23091303443312644,-4.8598181589677925,4.545425169554353
1789929393250306300,1.539306396484375,1.625676955771446,-5.140284913381934,6.471884814798831
1789929393260332300,1.549332275390625,3.2549767782151697,-6.332783802622556,9.145946203386783
1789929393270359300,1.559359375,4.438368231892586,-6.731550480985641,11.152577117455005
1789929393280385300,1.56938525390625,4.726649751710892,-5.980742635077238,11.68163255598545
1789929393290411300,1.579411376953125,3.111827367430925,-5.141252881631255,12.219647546041012
1789929393300437200,1.589437255859375,0.6144277831286191,-4.930953596159815,13.203985915404557
1789929393310463200,1.599463134765625,0.15024839260186998,-3.5711122273817657,13.591837231999635
1789929393320490200,1.609490234375,0.6831856775343418,-2.644889654639363,13.806889849478006
1789929393330516200,1.61951611328125,0.9833043501406907,-2.5030326217532157,13.691695782589912
1789929393340542200,1.629542236328125,1.6205002837859093,-1.4372428806275128,13.350641288483143
1789929393350568200,1.639568115234375,3.025906156778335,-0.4301578419268131,13.552511768305301
1789929393360594200,1.64959423828125,4.310183750528097,-0.05507891314327717,13.147765431010722
1789929393370621200,1.65962109375,5.051432909974456,-0.4066097930788994,12.062212420272827
1789929393380647200,1.669647216796875,5.299464836990833,-0.7657955716818571,11.307971092784404
1789929393390673400,1.67967333984375,4.8528836835294955,-1.3482307182222604,10.83836737565398
1789929393400699400,1.689699462890625,3.743820617866516,-1.4389800796836614,9.822602771413326
1789929393410725400,1.699725341796875,2.615462484624982,-1.176522152429819,8.995863193947077
1789929393420752400,1.70975244140625,1.6828221537947654,-1.0554133085399866,8.700285087379813
1789929393430778400,1.7197783203125,1.031448787845671,0.30188918941020965,8.104577786812186
1789929393440804400,1.729804443359375,0.7400766085356474,2.7491455634057522,7.1237839581876985
1789929393450830300,1.739830322265625,0.4376283239379525,4.742311431223154,5.144876332825422
1789929393460856300,1.749856201171875,-0.34047464839220043,4.592749230787158,2.4958839190423485
1789929393470883300,1.75988330078125,-0.7301376905843615,2.93904386588335,1.8087638246685265
1789929393480909300,1.769909423828125,-0.6933680488526821,1.5541028349012136,2.96353182592988
1789929393490935300,1.779935302734375,-1.365975049227476,2.105108823955059,3.3289182127386328
1789929393500961300,1.789961181640625,-2.384962122645974,3.209132726407051,2.6000778684884307
1789929393510987500,1.799987548828125,-2.8192013886675236,2.6642799992859363,2.6439152566492554
1789929393521014500,1.8100146484375,-2.983918488137424,1.5334949311584234,3.3445062424927947
1789929393531040500,1.82004052734375,-3.040834553579986,2.5855109984755513,2.8626111990660426
1789929393541066500,1.83006640625,-3.6269644629850983,3.3231986660480497,1.7701748585551975
1789929393551092500,1.840092529296875,-3.8387221305713055,3.613573358753323,1.2624006929844618
1789929393561118500,1.850118408203125,-4.280852442103624,5.465356240937114,0.46048459112942214
1789929393571145500,1.8601455078125,-4.84940636280775,6.893243264198303,-2.6324919453591105
1789929393581171500,1.87017138671875,-4.539953752405941,6.8442199978321785,-3.210591108521819
1789929393591197400,1.880197509765625,-4.756134204870462,8.219592405480146,-3.1539854242026806
1789929393601223400,1.890223388671875,-5.882064234182239,9.313345673808454,-6.12027794701755
1789929393611249400,1.90024951171875,-5.650262141954898,8.485046007418632,-6.892583923506736
1789929393621276400,1.9102763671875,-4.20120665845871,6.71946724448204,-6.817526052173972
1789929393631302400,1.920302490234375,-2.4983611228108407,5.209274862977862,-8.413779345062375
1789929393641328400,1.930328369140625,-1.1007169698610901,3.733876731479168,-7.847054393351078
1789929393651354400,1.940354248046875,-0.23575287567973136,2.7969427951082584,-7.456223768684268
1789929393661380600,1.950380615234375,0.510045617634058,2.442059389874339,-7.118958729988337
1789929393671407400,1.960407470703125,1.192608633225411,1.9544775329828261,-6.220001473051309
1789929393681433300,1.970433349609375,1.8538482902809976,1.2107593530744314,-4.090247452661395
1789929393691459300,1.980459228515625,1.8892077729538082,0.5637433055520057,-1.073614735662937
1789929393701485300,1.9904853515625,2.613141932722926,0.2314347202196717,1.794326133993268
1789929393711511300,2.00051123046875,2.137034094395488,-0.07657002946138382,4.57696597072184
1789929393721538300,2.010538330078125,1.8161866681456564,-1.1765364732161163,6.845028391605616
1789929393731564500,2.020564453125,2.5403029064834115,-2.946120087879896,9.219998697069286
1789929393741590500,2.030590576171875,3.958486281853914,-3.738241648690402,10.13597197073698
1789929393751616500,2.040616455078125,5.10985528832674,-3.86200772909075,9.39189080273509
1789929393761642500,2.050642578125,3.9259614380851384,-3.8108363447800278,8.146078256458043
1789929393771669500,2.06066943359375,0.7404749602034687,-3.494834458865225,6.298058526200056
1789929393781695500,2.070695556640625,-2.092679842753708,-2.3682491805151105,4.858735332167148
1789929393791721200,2.08072119140625,-2.5960873375475404,-1.6086565551266072,4.879005966779589
1789929393801747200,2.090747314453125,-1.8915683646053074,-2.3145479854658246,4.5388697565615175
1789929393811773200,2.100773193359375,-1.675187421132624,-3.933208340473473,3.6101918996214866
1789929393821800400,2.110800537109375,-1.336551094083488,-5.038045605134964,3.478730588543415
1789929393831826400,2.120826416015625,0.27307313703149555,-4.441076029546559,3.796831492564082
1789929393841852400,2.130852294921875,1.7349065612971781,-2.881412345647812,2.731968803155422
1789929393851878400,2.14087841796875,1.3948615364938974,-0.7908966951906681,1.5436609358638524
1789929393861904400,2.150904296875,1.6376722217306494,1.0320049604237078,0.6147393332958221
1789929393871931400,2.160931396484375,2.0427961601659654,2.186191946926713,-0.6660305445939302
1789929393881957600,2.17095751953125,1.9914307145878671,2.5715628448829055,-1.6192302638500928
1789929393891983600,2.180983642578125,1.7159616223305463,2.91099441396296,-3.4649025541990994
1789929393902009600,2.191009521484375,0.5020432207033038,3.066085022431612,-5.096405439645052
1789929393912035600,2.20103564453125,-1.101781968744099,2.5352771872758866,-5.427170010405779
1789929393922062300,2.211062255859375,-2.075499283111095,2.264495376051962,-4.501035992729664
1789929393932088300,2.22108837890625,-1.8083499831706284,2.640508955337107,-3.5185716005444525
1789929393942114300,2.2311142578125,-1.3099226148769259,2.4118669345758854,-2.692286781108379
1789929393952140300,2.241140380859375,-1.3967977652534842,2.263397059421241,-1.6930758367836474
1789929393962166300,2.251166259765625,0.10911065532118082,1.0342231479298323,0.6034726738721132
1789929393972193500,2.261193603515625,0.10504793592691421,-1.719566953346133,-5.605608761236072
1789929393982219500,2.271219482421875,-0.2957213144302368,-1.7323758737757802,-5.680245192286372
1789929393992245500,2.28124560546875,1.3878168786793947,-2.8120655454382297,-3.7111914369404313
1789929394002271500,2.291271484375,0.8321975506111979,-3.3419162259995936,-1.6151730974137781
1789929394012297500,2.30129736328125,-1.9652701451539991,-4.734539920438825,-0.7192477555185556
1789929394022324200,2.31132421875,-3.607250000950694,-3.9775528013736006,-1.139000523287058
1789929394032350200,2.32135009765625,-3.308889570188522,-2.3854287172444164,-1.6423247237116096
1789929394042376400,2.33137646484375,-1.7188514985531567,-1.8901374550193548,-2.115077844783664
1789929394052402400,2.34140234375,-0.20831863304823636,-1.8591262306839227,-2.244465856719017
1789929394062429400,2.351429443359375,0.6727846950292586,-1.6408708716414868,-2.7000369568437335
1789929394072455400,2.361455322265625,1.0410586199730634,-1.645919825594127,-2.1409926227629184
1789929394082481400,2.3714814453125,0.31031901797279715,-1.4180439668998122,-1.229516075992584
1789929394092507400,2.38150732421875,-0.266955969325453,-1.0575027550999074,-0.118472650167346
1789929394102533400,2.391533447265625,-0.40370676511377096,-0.34061858690753577,0.8848124117285012
1789929394112560400,2.401560302734375,-0.31529870608150956,0.6431576185286044,1.0830459963530301
1789929394122586400,2.41158642578125,0.3905746040791273,1.333706810568273,1.0385650495916605
1789929394132612400,2.4216123046875,1.4479633043453097,1.4489868021741508,0.8921931696295737
1789929394142638300,2.431638427734375,2.2353750800296663,1.1154789971198886,0.478008557382226
1789929394152664300,2.441664306640625,1.0826039516739547,0.8166977836623788,-0.5160515800505876
1789929394162691300,2.45169140625,-0.7720600389041006,0.7084181723378599,-1.3288275140941141
1789929394172717300,2.46171728515625,-1.1117502589203416,0.6662088237702846,-1.2539923456013202
1789929394182743300,2.471743408203125,-0.7517717225044965,0.7476074424318969,-1.0564432361096143
1789929394192769500,2.48176953125,-0.07155775425732136,1.4330112344071269,0.08495090431571006
1789929394202795500,2.49179541015625,0.9732675247728824,1.286074414038658,1.2836755362033843
1789929394212822500,2.501822509765625,-2.8620503503128885,0.3262836990196258,-0.41954993867278095
1789929394222848500,2.5118486328125,-0.2983379266694188,0.47987917355969545,-0.630759909248352
1789929394232874500,2.52187451171875,5.6951920015275475,0.45097398159280416,-0.9589204349905252
1789929394242900500,2.531900390625,3.2212659395322203,-0.19823058894984422,0.34751579907536506
1789929394252926500,2.541926513671875,-0.1523223127990961,0.16455262962318956,1.4062918620467184
1789929394262953500,2.551953369140625,-1.218943828573823,1.2210089444100856,1.0765221475422382
1789929394272979500,2.5619794921875,-1.8762305102199315,1.713753152500838,0.8974626344650983
1789929394283005400,2.57200537109375,-1.8769144008308647,1.414319685679674,0.8823065663874149
1789929394293031400,2.582031494140625,-1.3148825753718614,0.5352958672899752,1.5285264950960873
1789929394303057400,2.592057373046875,0.400549177865684,0.5010478164577856,2.0125217256724834
1789929394313084400,2.60208447265625,1.5563909458383918,0.5239896065082401,2.199194051840901
1789929394323110400,2.6121103515625,1.8237863294944165,0.47493539701458065,3.200422765728831
1789929394333136400,2.622136474609375,2.0537042154103515,1.1741383990984409,3.845333365404606
1789929394343162600,2.63216259765625,1.5961545086890458,1.4681126506656408,4.552677332639694
1789929394353189400,2.642189453125,0.9974807595312595,1.5436925000458954,5.2184623780399555
1789929394363215400,2.65221533203125,0.6344201853215694,1.8015439564175904,4.976268655657768
1789929394373241300,2.662241455078125,0.823890617775917,1.7434442341484129,4.1102462845951315
1789929394383267300,2.672267333984375,0.99333942194283,1.6054812860913574,3.579799099445343
1789929394393293300,2.682293212890625,0.20899346356987952,1.7941474164254962,3.5156472375303505
1789929394403320300,2.6923203125,-0.7232862172544002,2.3742925523325797,0.3530471297174692
1789929394413346600,2.7023466796875,0.769777334794402,-1.4101299789048731,1.0084639258384704
1789929394423372500,2.71237255859375,-0.12198694189861416,-3.5655358885541557,-0.7554571330189704
1789929394433398500,2.7223984375,-0.4267436495691538,-3.1794919136419892,-3.576487198418379
1789929394443424500,2.732424560546875,0.13192498306706546,-3.202496649393439,-4.021737395536899
1789929394453451500,2.742451416015625,0.8776502650141715,-3.54599152238965,-4.265618048092723
1789929394463477200,2.752477294921875,0.6248153216302395,-2.8740774727150797,-4.836990533348918
1789929394473503200,2.762503173828125,0.40170740799009796,-2.8738951018854975,-5.362889553675055
1789929394483529200,2.772529296875,1.1527245127350092,-2.2655562832817435,-5.639937147295474
1789929394493555200,2.78255517578125,1.3062871809840202,-1.910380032581091,-4.778982581016421
1789929394503582200,2.792582275390625,1.1100894861012696,-1.2875991393879056,-3.6107945416897533
1789929394513608200,2.802608154296875,0.5751226315699517,-0.3269874268421903,-2.613696059474349
1789929394523634200,2.81263427734375,0.7714734711878001,0.18890353755289688,-1.1670733560830353
1789929394533660200,2.82266015625,0.021036212157458066,-0.798450544636324,0.42164720321297644
1789929394543687200,2.832687255859375,-1.5538758942775428,-2.0314106966681775,-0.8854179764062166
1789929394553713400,2.84271337890625,0.23780220942497252,-0.9688596452027559,-3.526109010311961
1789929394563739400,2.852739501953125,1.644634754219651,0.7902014064028858,-3.5705168918371197
1789929394573765400,2.862765380859375,2.007098677710444,3.081320000964403,-0.5120569574564695
1789929394583791400,2.872791259765625,1.9540216059088706,4.505421660467982,4.501745017781853
1789929394593818000,2.882818115234375,0.359572659028694,4.780488893926143,6.715860744422674
1789929394603844000,2.892843994140625,-1.8222382232695817,4.419036923956871,6.391447588515281
1789929394613870000,2.9028701171875,-4.036806954374909,3.42482188822329,5.686538154950737
1789929394623896000,2.91289599609375,-4.689187159278989,2.226363506056368,4.828530163517594
1789929394633922000,2.922922119140625,-3.2428695763140913,1.5648201898790894,4.025395333522558
1789929394643949300,2.93294921875,-2.4077912095695733,1.4578710965059696,4.190273761034011
1789929394653975300,2.942975341796875,-2.184720705330372,2.0634328516118225,4.44798303245604
1789929394664001300,2.953001220703125,-1.9763257921755313,2.983485649678111,3.34072964656353
1789929394674027300,2.96302734375,-1.4167851990103721,2.9861645134985446,2.0795950279921294
1789929394684053200,2.97305322265625,-0.6822445972919464,1.4381662790827452,0.8704974706500768
1789929394694080000,2.983080078125,-0.24012157401693984,-0.4519529096275568,-2.198511914795637
1789929394704106000,2.99310595703125,-0.31994740867018695,-0.7293203828521072,-6.0370455370575185
1789929394714132200,3.00313232421875,-0.09763620749884284,0.6741279263317584,-7.8217469336152075
1789929394724158200,3.013158203125,-0.13626725005507467,1.5359484617903827,-4.869670567679405
1789929394734185200,3.023185302734375,1.3077116608291863,1.1145061334997415,-3.1666146041512486
1789929394744211200,3.033211181640625,3.143368168598413,-0.30537264761179683,-4.657753325617313
1789929394754237200,3.0432373046875,4.038288717365265,-1.4321312367022037,-6.638570583993196
1789929394764263200,3.05326318359375,3.8786522821605205,-1.7937132627919314,-7.561267612957954
1789929394774289200,3.0632890625,2.5289924079179764,-1.1690011092752217,-7.514174437871575
1789929394784316400,3.07331640625,0.8931096999526024,0.23483020787686107,-7.106386248663068
1789929394794342400,3.08334228515625,-0.09350129051804543,1.2982114265561102,-6.6154504051685326
1789929394804368400,3.093368408203125,-0.03304302242398262,1.9683523290783165,-6.686279845151305
1789929394814394000,3.10339404296875,0.14056450885757804,2.6813164742827413,-6.790691236740351
1789929394824420000,3.113420166015625,0.46999651584029195,3.0098022864565253,-6.5520695276260374
1789929394834447000,3.123447021484375,0.9302281551219522,3.148605484730005,-6.1256426889210935
1789929394844473000,3.13347314453125,1.0973545076906681,2.7933754580155012,-4.791670797675848
1789929394854499000,3.1434990234375,1.0066462088920176,0.283794145271182,0.34749475628733634
1789929394864525300,3.153525390625,-0.33082097712308167,-3.067360449194908,6.928036345160007
1789929394874552300,3.16355224609375,-5.049439105808735,-7.239162733992933,15.701458564943074
1789929394884578300,3.173578369140625,-9.729932671022414,-11.24755257217884,23.715946915507317
1789929394894604300,3.183604248046875,-8.685501944267749,-9.568221767631172,20.394422320151328
1789929394904630300,3.19363037109375,-3.781045309889316,-4.14490200291276,11.128262175887823
1789929394914656300,3.20365625,-1.9013500461682675,-1.0977449683129787,5.407576836663484
1789929394924683000,3.21368310546875,-0.9524071075737476,0.7622843486905098,2.2534277463316914
1789929394934709200,3.223709228515625,0.26302988192290067,1.9148937106132506,0.3525345040202141
1789929394944735200,3.2337353515625,1.3220833005309105,2.0069395416259765,-1.0226473494917154
1789929394954761200,3.24376123046875,1.0823144672080873,2.241155709257722,-3.036101387578249
1789929394964787200,3.253787109375,0.8923366697534918,2.3345219752192494,-4.674657698667049
1789929394974814200,3.263814208984375,0.9712798580870031,2.008932176747918,-4.85007739393711
1789929394984840200,3.273840087890625,1.545871889911592,1.1858072826474904,-5.672047272783518
1789929394994866200,3.2838662109375,2.1616646777831017,-0.9761036249816417,-6.332119201233983
1789929395004892200,3.29389208984375,3.2847207590937613,-4.866385554659367,-6.647025693127513
1789929395014919200,3.303919189453125,3.404074283748865,-5.605395410746335,-6.434841324561834
1789929395024945200,3.313945068359375,1.274713792721182,-2.5330203482598064,-4.965041159200668
1789929395034971100,3.32397119140625,0.08942483485937118,0.3754360716581344,-3.497546932694316
1789929395044997000,3.3339970703125,-0.10204232437014579,1.5265303528428076,-2.9018980843156577
1789929395055023000,3.344023193359375,0.03443316160812974,1.6450193696230648,-2.8911954885154962
1789929395065050000,3.354050048828125,-0.2533212655961513,1.406846573320031,-2.5128841536819935
1789929395075076000,3.364076171875,-1.158484829827398,1.3535457757651805,-0.7984645000964403
1789929395085102300,3.374102294921875,-1.7170752826608717,1.8640783001333474,2.1808967631280423
1789929395095128300,3.38412841796875,-2.26478851377964,2.3175451214551925,4.537528278824687
1789929395105155300,3.3941552734375,-1.6350350050948559,2.2625439497232436,5.922262389057875
1789929395115181300,3.404181396484375,-0.5689044877074658,1.8696429485231636,6.141279233992099
1789929395125207300,3.414207275390625,-0.530531794693321,1.693945605355501,5.220579516324401
1789929395135233300,3.4242333984375,-0.6411876336298883,1.3332634507149457,4.213042057681084
1789929395145259300,3.43425927734375,-0.5662789615094661,-0.16597557509839533,3.157523535200953
1789929395155286300,3.444286376953125,0.3230770849980414,-1.6949077283859253,1.6715800442904234
1789929395165312300,3.454312255859375,1.247167614147812,-2.6959213382184504,0.4305488870710134
1789929395175338200,3.464338134765625,1.7886789218865333,-3.1746962037980553,-0.24279928705990314
1789929395185364200,3.4743642578125,2.2856267191469666,-3.4318525175124406,-0.47900984337925906
1789929395195390200,3.48439013671875,1.9129146656252443,-3.05821852684021,-0.8664853123992681
1789929395205417200,3.494417236328125,0.4844296764709055,-2.051258575823903,-1.5706734459519385
1789929395215443200,3.504443115234375,-1.077662988140434,-0.9707570032566786,-2.206007823508978
1789929395225469200,3.51446923828125,-2.243176401430368,0.39343408516347406,-2.2118670709311963
1789929395235495400,3.524495361328125,-1.9525626392722129,0.6249813258469105,-2.3049784853488204
1789929395245522200,3.534522216796875,-1.0468962400853634,0.10137889202535152,-2.031053407663107
1789929395255548200,3.544548095703125,-0.47175709577202796,0.06594575959444046,-1.5980799237936734
1789929395265574100,3.55457421875,0.06435834427252411,0.17072832258343695,-1.3426526258289813
1789929395275600100,3.56460009765625,0.33271716613322494,0.28482290379703046,-1.0275018037855626
1789929395285626000,3.574626220703125,0.5931506018221377,0.5008657013565302,-0.7153723753899336
1789929395295653000,3.584653076171875,0.9526493918970227,0.5609025291681289,-0.38201954170167446
1789929395305679400,3.594679443359375,0.9504314235866069,0.6196563314318656,0.06085866558849811
1789929395315705300,3.604705322265625,0.35552608705163,0.6008206980586052,0.5622054284602404
1789929395325731300,3.6147314453125,0.10472279562577605,0.39475744272172447,1.111446745929122
1789929395335758300,3.62475830078125,0.1447087690554559,0.20819091501533984,2.191039386957884
1789929395345784000,3.6347841796875,0.03358779682517052,0.14235036936104298,3.169400435477495
1789929395355810000,3.64481005859375,0.260361393366009,-0.1489414381891489,3.173696671366691
1789929395365836000,3.6548359375,0.7544483943678438,-0.9561866261124611,2.394339607322216
1789929395375862000,3.664862060546875,0.2208944753743708,-0.4527256475657224,1.29183370821774
1789929395385889300,3.67488916015625,-0.3379904303610325,1.0403174462169409,0.3880079684615135
1789929395395915300,3.684915283203125,-0.4414461286604404,2.4941858829528094,-0.042105449801683424
1789929395405941200,3.694941162109375,-0.6268788300313055,2.6249773319453,-0.7969844906717538
1789929395415967200,3.70496728515625,-0.39432650395855307,2.5791157444804904,-1.5852467457056045
1789929395425994200,3.714994140625,0.008994184447079896,3.541202534547448,-1.4406132338434456
1789929395436020200,3.725020263671875,0.3038229339517653,4.555307681143284,-0.6999900973409414
1789929395446046200,3.735046142578125,0.8119324689567089,5.624202402547001,-0.16588672777116298
1789929395456072200,3.745072265625,1.1883657349586485,6.416174618014693,0.28567630575597286
1789929395466098400,3.755098388671875,1.5705110949970782,6.794425747093558,0.7396919931322335
1789929395476125200,3.765125244140625,2.142185047417879,6.031196226507425,0.6738724902659654
1789929395486151200,3.775151123046875,2.7348434818089005,4.566986428499222,-0.0003092120796442032
1789929395496177400,3.785177490234375,2.28439469313398,-0.8223504025965929,0.2857178068101406
1789929395506203400,3.795203369140625,2.428099253582954,-5.6230129005014895,1.2155915955364704
1789929395516230400,3.80523046875,2.011830820798874,-2.6138942123949525,0.9670862057894468
1789929395526256400,3.81525634765625,0.5481004038054496,-4.0048195784837,0.9877730199873447
1789929395536282400,3.825282470703125,-1.243218438130617,-6.84194270054996,2.099108706757426
1789929395546308400,3.835308349609375,-5.052717104566097,-4.663295177653431,1.4027654414862394
1789929395556334300,3.845334228515625,-5.385968231445551,-2.1957301751226184,0.6387637674838305
1789929395566361300,3.855361328125,-4.520791663557291,-1.7419295918017625,-0.18950667281150818
1789929395576387300,3.86538720703125,-2.9714661260604855,-1.9471786081463098,-1.3487047654747961
1789929395586413300,3.875413330078125,-1.014274073421955,-1.7127987743854522,-2.0852473546653987
1789929395596439300,3.885439208984375,0.7746388033509254,-1.591611020040512,-2.5255022277146577
1789929395606466300,3.89546630859375,1.8937316801190376,-1.3115490470349789,-2.564724815556407
1789929395616492300,3.9054921875,2.194315047627687,-1.0079209050029516,-2.054346604967117
1789929395626518300,3.915518310546875,2.032106716108322,-1.1187176137149333,-1.2735346659392117
1789929395636544300,3.925544189453125,1.4288684355139731,-1.2602157501608133,-0.29537293938398357
1789929395646570500,3.935570556640625,-0.02522794649256393,-1.0158546206116676,0.7796364655077457
1789929395656597200,3.94559716796875,-1.4012334096133707,-1.0915046126186847,1.7557117411777377
1789929395666623200,3.955623291015625,-1.8095640351355076,-1.2842016059041022,2.4229753346979614
1789929395676649200,3.965649169921875,-1.1683107889235018,-1.2722089702934025,2.469399816742539
1789929395686675200,3.97567529296875,0.03375964626073837,-0.7681243068903684,1.5692600720226764
1789929395696702200,3.9857021484375,0.33706337864398955,0.12465922984778881,0.6110489543452858
1789929395706728200,3.995728271484375,0.5130488911032677,0.6765373255610465,-0.16105156269967555
1789929395716754400,4.00575439453125,0.772660781276226,1.2453887679070235,-0.5513549486219883
1789929395726780400,4.015780517578125,0.9112824855029582,1.5931594185262918,-0.6170905725970864
1789929395736806400,4.025806396484375,0.9607973347783089,2.281961766898632,-0.9565008066281676
1789929395746833400,4.03583349609375,0.17772970751179382,2.8644968666821717,-0.8410682548090815
1789929395756859400,4.045859375,-0.3089057901740074,2.041381324931979,-0.9673574239462613
1789929395766885400,4.055885498046875,-0.4281014939188957,1.3898364018082618,-1.052865085361898
1789929395776911400,4.065911376953125,-0.5299789831161499,1.1597457896739243,-0.8301531853020191
1789929395786938400,4.0759384765625,-0.9110720576226711,1.318628191640973,-0.664246291525662
1789929395796964400,4.08596435546875,-1.0746528465390204,1.6699661793529987,-0.47740766887962816
1789929395806990300,4.095990234375,-0.6234989783346653,2.379105797833204,-0.6081567400351167
1789929395817016300,4.106016357421875,0.37949265357255935,3.620780513653159,-1.5140283064052462
1789929395827043300,4.116043212890625,0.4799216975271702,2.4179139596551655,-2.012323280490935
1789929395837069300,4.1260693359375,0.1039431986885611,1.0808394262194634,-1.9293509827718138
1789929395847095300,4.13609521484375,-0.46225744602084157,-0.05072597863078117,-1.7271458641678095
1789929395857121300,4.146121337890625,-1.296753628963232,-0.4641816920816898,-1.7093154623143374
1789929395867147500,4.1561474609375,-1.7490280256301163,-0.4323234955281019,-1.6834047759883104
1789929395877174300,4.16617431640625,-1.6092881310284137,0.10417466022372245,-1.8697374949388206
1789929395887200300,4.1762001953125,-1.127733863863349,0.2905991491109133,-1.829189503712207
1789929395897226200,4.186226318359375,0.2174994261085987,0.70243573692739,-1.8158162273980676
1789929395907252200,4.196252197265625,1.6136293751031159,1.5236059898287058,-1.9285133629038929
1789929395917279200,4.206279296875,1.9675375055640936,1.0210340690761803,-1.3127619299560784
1789929395927305200,4.21630517578125,1.9656576831668615,-0.05205167427659035,-0.7270099870178848
1789929395937331500,4.22633154296875,1.7312188126951455,-3.0921850938498974,-0.1008606220385991
1789929395947357400,4.236357421875,1.0469278042674064,-4.160580049037933,1.2589876696705817
1789929395957384400,4.246384521484375,0.45610655870828776,-4.389855253136158,2.103051306903362
1789929395967410400,4.256410400390625,-0.35937107204198837,-3.9035406397014856,2.877548071435094
1789929395977436400,4.2664365234375,-0.7127934648126363,-4.143627160671353,3.552713524121046
1789929395987462400,4.27646240234375,-1.0182985066324473,-4.019453083992004,3.9098347714096304
1789929395997488400,4.28648828125,-0.9996773927927016,-2.798965533107519,4.239929480084776
1789929396007515400,4.296515380859375,-1.270097092705965,-1.4648580327838658,4.437723504248261
1789929396017541400,4.306541259765625,-1.3575894981980323,0.0344511356562376,4.45185285962671
1789929396027567400,4.3165673828125,-0.2999094320361502,0.6076473292082548,3.617987668064236
1789929396037593300,4.32659326171875,0.4232558074533939,0.4913233815073967,2.329478720355034
1789929396047620400,4.336620361328125,0.5492845720887184,-0.2949550062328577,1.0820695525363087
1789929396057646300,4.346646240234375,0.8235574402987956,-0.9465753326803445,0.1379948045000434
1789929396067672300,4.35667236328125,0.9717600428193807,-0.9406564640253782,-0.5714087256133557
1789929396077698300,4.3666982421875,0.9863613996237516,-0.8996376404166221,-1.1471133948549628
1789929396087724500,4.376724609375,0.8552081315815449,-0.7559954776793718,-1.4258146009013055
1789929396097751300,4.386751220703125,0.6922299847334623,-0.7170575519979,-1.4892682514190674
1789929396107777300,4.39677734375,0.3426209762385115,-0.32108664183318614,-1.2496832502305506
1789929396117803300,4.40680322265625,-0.14432608988080173,0.5510667793303727,-0.8127122211575508
1789929396127829200,4.416829345703125,-0.6500409483015537,1.2561819646000862,-0.33183483034074307
1789929396137856300,4.426856201171875,-1.0453782367378472,1.2443062333673238,0.005446574968099594
1789929396147882200,4.43688232421875,-1.2163088038951158,0.6323918943643569,0.307714826823771
1789929396157908500,4.446908447265625,-1.0404296013545244,-0.26642273923158644,0.6350991074964404
1789929396167934500,4.4569345703125,-0.8771937534183263,-0.531069700962305,1.053648052433133
1789929396177961500,4.46696142578125,-0.7233085021514445,-0.16216098524630068,1.362877375473082
1789929396187987200,4.4769873046875,-0.539279968490079,-0.09475392092764377,1.328600427339971
1789929396198013200,4.48701318359375,-0.3932744376223534,-0.3800631469368934,1.1094254692345857
1789929396208039200,4.4970390625,0.15032375939302145,-0.8423714463621378,0.8212807275384664
1789929396218065200,4.507065185546875,0.6536012711316347,-1.4653420169085263,0.6264119431719184
1789929396228092400,4.517092529296875,0.9709311907798052,-1.6035475415498017,0.5490247521087527
1789929396238118400,4.527118408203125,0.8334721005916595,-1.49112820007205,0.6327174730569124
1789929396248144400,4.537144287109375,0.32383440617136655,-0.9053349752753973,0.7663847697466611
1789929396258170400,4.54717041015625,-0.16917290983498096,-0.8882219279110432,0.7009075044468045
1789929396268197400,4.557197265625,-0.25369535960555073,-1.3410042741000652,0.6903980931311845
1789929396278223400,4.567223388671875,-0.2646529530800879,-2.0100334159880875,0.8447215166196227
1789929396288249300,4.577249267578125,-0.3506729479320347,-2.551397131949663,1.1133166314542293
1789929396298275300,4.587275390625,-0.6294969035752117,-2.311490643721819,1.486911751420796
1789929396308302300,4.59730224609375,-1.0541199077285826,-1.2837117765605448,1.9805787734448907
1789929396318328300,4.607328369140625,-1.2884750454396008,-0.5792459951102733,2.1385066511660815
1789929396328354300,4.617354248046875,-0.9704507137864827,-0.35771395248472687,1.9869462626501917
1789929396338380300,4.62738037109375,-0.3862830443650484,-0.38330315177142615,1.7867451773449778
1789929396348407300,4.6374072265625,0.1424181739002466,-0.18721300891637802,1.6616174532026051
1789929396358433300,4.647433349609375,0.11899272851869463,0.2364922958701849,1.3897563223093747
1789929396368459300,4.657459228515625,-0.5240981083840132,0.8846136742860078,1.0551619641274212
1789929396378485500,4.667485595703125,-1.3162734452083706,1.396633806863427,0.8818170293048023
1789929396388511500,4.677511474609375,-1.753891978404671,1.4186848951518536,0.9211462923914193
1789929396398538200,4.687538330078125,-1.914075964489579,1.1569465143442152,0.8789540410891175
1789929396408564200,4.697564208984375,-1.8404754523582756,0.7658318120390176,0.8888350913733244
1789929396418590200,4.707590087890625,-1.5117629918217659,0.32361236091852186,0.9167971572712064
1789929396428616200,4.7176162109375,-1.191591711267829,-0.10128653756678103,0.9201642956167458
1789929396438643200,4.727643310546875,-0.9772492878854274,-0.3876420577585697,0.9162205264270306
1789929396448669400,4.73766943359375,-0.9256617239892482,-0.4114262534499168,0.9680658644765615
1789929396458695400,4.7476953125,-1.092658458828926,-0.2598100430935621,1.0804548108160494
1789929396468721400,4.757721435546875,-1.4024902778066695,-0.0039040217012166973,1.14650315400213
1789929396478748200,4.767748046875,-1.7100690571606159,0.2422515900492668,1.2064131405636667
1789929396488774100,4.777774169921875,-1.9475112011015414,0.2943891890436411,1.2253776610136031
1789929396498800400,4.78780029296875,-2.2786761693567037,-0.03256137638688087,1.2700830641806125
1789929396508826400,4.797826416015625,-2.8250492379128933,-0.8085860811382531,1.5862150062158702
1789929396518852400,4.807852294921875,-3.346329950788617,-1.6261346364110707,2.3321160831212997
1789929396528879000,4.817879150390625,-3.5107881070613858,-2.501004330796003,3.100684334386885
1789929396538905000,4.827905029296875,-3.275372500512004,-3.328203342467546,3.782529118706286
1789929396548931000,4.83793115234375,-2.8638761044353247,-4.141770134627818,4.360593210555613
1789929396558957000,4.84795703125,-2.4458622892886397,-4.353274119713903,4.866579615926742
1789929396568984300,4.857984375,-2.038454185438901,-4.474749458828568,5.296380899500846
1789929396579010300,4.86801025390625,-1.5636242580927908,-5.007972538432479,5.575825617390871
1789929396589036300,4.878036376953125,-1.1194646326899529,-5.778581063354015,5.700096724703908
1789929396599062300,4.888062255859375,-1.3776087883979082,-6.632958004808425,5.50521771120429
1789929396609089000,4.898089111328125,-3.0246991190761325,-7.011068848633766,4.531412426292896
1789929396619115000,4.908114990234375,-4.464165813232958,-7.066148346298933,3.2739982895493505
1789929396629141000,4.91814111328125,-4.787123801895976,-6.873334448635577,2.5088635198637843
1789929396639167000,4.9281669921875,-4.603518754343688,-5.925214224600792,2.0604171570524574
1789929396649194200,4.9381943359375,-4.087717057400941,-4.573187036705017,1.5010393532335757
1789929396659220200,4.94822021484375,-2.715174904742837,-3.5097190165251493,0.5789934816539287
1789929396669246200,4.95824609375,-1.6355087600864469,-2.8674592236191034,-0.30243542511612176
1789929396679272200,4.968272216796875,-1.6039081915557383,-2.770359616348147,-0.8006178787380457
1789929396689298200,4.978298095703125,-2.283684937429428,-3.105106534743309,-1.5552259937122463
1789929396699325200,4.9883251953125,-2.830767615559697,-2.86002410518229,-2.2862033499911427
1789929396709351200,4.99835107421875,-1.799540653771162,-2.5805969229489563,-3.614564123356342
1789929396719377200,5.008377197265625,-0.2388356441259384,-2.345649518433213,-4.75545762078315
1789929396729403100,5.018403076171875,0.9246294583320617,-1.937026631966233,-5.258805494344234
1789929396739430100,5.02843017578125,1.7054560104072094,-1.461267314815521,-5.0606683558315035
1789929396749456100,5.0384560546875,1.6271090344011783,-1.0986369487166403,-4.130380141085386
1789929396759482000,5.048482177734375,1.449207313057035,-1.2776654821336269,-3.0643346716329454
1789929396769508000,5.058508056640625,1.4782441685795784,-1.6492571533232927,-2.108466756080836
1789929396779535000,5.06853515625,0.9579565583944321,-1.7666934461802244,-1.3746302109785378
1789929396789561300,5.078561279296875,0.40887174666151405,-1.9667787961512804,-0.7662032756999134
1789929396799587300,5.08858740234375,0.7567686540089548,-2.020681651252508,-0.3366933762878179
1789929396809613300,5.09861328125,2.2062615060091018,-1.7932886076390742,0.07693031414113938
1789929396819640000,5.10864013671875,3.1099580664277076,-1.6733809562325477,0.949480771798268
1789929396829666000,5.118666015625,3.0799487126111984,-1.339476918402314,1.2968912838682531
1789929396839692000,5.128692138671875,2.366953295485675,-0.7640180406153202,1.2089776572894304
1789929396849718000,5.138718017578125,1.6955527482911943,-0.22135434797108172,0.9424100296944379
1789929396859745300,5.148745361328125,1.7705730640925466,0.5097574483424425,0.042000637720339
1789929396869771300,5.158771240234375,2.1020076430693266,0.9738257431775331,-0.6201067055478692
1789929396879797200,5.16879736328125,2.3390356532514094,1.2114637019515038,-0.9198311181396246
1789929396889823200,5.1788232421875,2.2279298785902557,1.5503087033152578,-1.1673052651427684
1789929396899849200,5.18884912109375,1.9995266350209713,1.9074673600047827,-1.4224151677213608
1789929396909876200,5.198876220703125,1.8299314081206917,2.374790272721648,-1.636012325694412
1789929396919902200,5.208902099609375,1.8507669831395148,3.0869705740720033,-1.817348551531881
1789929396929928200,5.21892822265625,2.1578490650177002,3.9306180317193267,-2.0158114148676396
1789929396939954200,5.2289541015625,2.6127424120113254,4.844588733392953,-2.102523045245558
1789929396949981200,5.238981201171875,2.97165404984802,5.827006948348879,-2.2394874837845564
1789929396960007200,5.249007080078125,3.182851160942018,6.636907034695148,-2.461856854017079
1789929396970033200,5.259033203125,3.3184009103775023,7.315725749191642,-2.6570000714108346
1789929396980059100,5.26905908203125,3.143599931527674,7.76665048481524,-2.804422044947743
1789929396990086100,5.279086181640625,2.8938951028630138,8.059172710943221,-2.787529362335801
1789929397000112000,5.289112060546875,2.508240711790323,8.18092335986793,-2.419028058376908
1789929397010138400,5.299138427734375,2.060581407703459,8.01400728904903,-1.67719057764858
1789929397020164400,5.309164306640625,1.5364564113125203,7.578857045662403,-0.8103511911146343
1789929397030191000,5.319191162109375,0.7948232209846376,6.970880046108364,-0.005236658544465899
1789929397040217000,5.329217041015625,-0.17330664863884448,6.1360758201301095,0.9767302324473858
1789929397050243000,5.3392431640625,-1.5045090751707553,4.920010761862993,2.105004925189167
1789929397060269000,5.34926904296875,-3.9505838381662963,3.129265993487835,3.2894308364808555
1789929397070296300,5.35929638671875,-7.130446923208236,0.2442991702288389,4.654783954417705
1789929397080322300,5.369322265625,-7.656951508212089,-3.4774838033527136,5.687096373355388
1789929397090348300,5.379348388671875,-6.3331982286423445,-7.395636905774474,6.029952948448061
1789929397100374300,5.389374267578125,-3.904767258886993,-10.706118129068612,5.935062249398231
1789929397110401300,5.3994013671875,-1.8341542865127325,-12.830285873758791,5.411288550662994
1789929397120427000,5.409427001953125,-1.8907608476147055,-12.987943117845058,4.177227524717152
1789929397130453000,5.419452880859375,-2.7920155678391456,-9.692430331102013,2.2375082926660776
1789929397140479000,5.42947900390625,-2.3246116988405583,-4.759499881911277,1.2833609172962606
1789929397150505000,5.4395048828125,-1.913926619146764,-0.7242366498470306,0.5706839184701442
1789929397160532200,5.4495322265625,-2.3049475056886672,2.7691227680295705,-0.3310108736719936
1789929397170558200,5.45955810546875,-2.7268860930636523,5.100490663132071,-0.9920942441873252
1789929397180584200,5.469584228515625,-1.8707813049033284,5.7668806886881585,-1.6846572602674363
1789929397190610200,5.479610107421875,1.1096809053003787,4.461183290290832,-2.3875248127408324
1789929397200637200,5.48963720703125,3.809677530133724,2.5717040069192647,-3.094087420339882
1789929397210663200,5.4996630859375,3.9807854996845125,-0.427778253313899,-3.895547887381911
1789929397220689200,5.509689208984375,3.212112911261618,-5.208119263201952,-4.680395365536213
1789929397230715400,5.51971533203125,-1.5533780277580023,-11.819799502182006,-4.710258881141245
1789929397240742100,5.5297421875,-6.059440324217081,-18.153617908549307,-3.4890763337299227
1789929397250768100,5.53976806640625,1.5691604110404849,-14.050379456889628,-2.705763225536048
1789929397260794000,5.549794189453125,6.386653339976072,-2.234396298125386,-1.9241456692136822
1789929397270820000,5.559820068359375,5.652987183004617,3.8960213501125573,-2.0050046280406413
1789929397280847000,5.56984716796875,4.120041410161555,7.478848857468366,-2.1346930842272935
1789929397290873000,5.579873046875,2.9147780241549013,9.219478472587467,-2.431856414159387
1789929397300899300,5.5898994140625,2.798369028519094,9.096772714895009,-3.1291447051957246
1789929397310925300,5.59992529296875,3.189438138116896,7.9512606177568435,-3.730725866232812
1789929397320952000,5.6099521484375,3.4154967182561755,6.411080509746074,-4.1966012104898684
1789929397330978000,5.61997802734375,3.4867338622570037,4.718198149707913,-4.232507221129536
1789929397341004000,5.630004150390625,3.4114380905151367,2.5332629248440264,-4.085660124871135
1789929397351030000,5.640030029296875,3.4399133666321635,0.21697101832032203,-4.213929069648683
1789929397361057300,5.650057373046875,3.4312592277944085,-1.4370441431850194,-4.276443978011608
1789929397371083300,5.660083251953125,3.4952424551442265,-2.757191507217288,-3.9574864571616053
1789929397381109200,5.670109130859375,3.7727754941940304,-3.7286604581356046,-2.7715762986615298
1789929397391135200,5.68013525390625,1.684810697263479,-3.57260480402708,-0.9467870026696473
1789929397401161200,5.6901611328125,-0.7884976712249219,-2.8010926082640886,0.40761699736006557
1789929397411188200,5.700188232421875,-1.9211539400517939,-1.8926807097613811,1.0671368448857217
1789929397421214200,5.710214111328125,-1.5442589017570019,-0.7511041985064745,1.34584411534667
1789929397431240200,5.720240234375,-0.15926672510951756,0.2785071447789669,1.4669199337497352
1789929397441266200,5.73026611328125,1.5423862397529184,0.6155483115911483,1.75157171876356
1789929397451293200,5.740293212890625,2.4281881009101864,0.5598147339314222,2.173242302852124
1789929397461319200,5.750319091796875,2.465591656631231,0.31144027708768846,2.4328064083606002
1789929397471345200,5.76034521484375,2.0829846704304216,0.10131167200803756,2.492894089576602
1789929397481370600,5.77037060546875,1.642922689604759,0.17627192818522452,2.450520928749442
1789929397491398000,5.78039794921875,1.1630735458571464,0.5398942279309034,2.350168164901435
1789929397501423900,5.790423828125,0.6031775268504396,0.8712462431907654,2.232553885129094
1789929397511449900,5.800449951171875,0.3506348809439689,1.2339298007816075,2.1733638834051785
1789929397521475800,5.810475830078125,0.439330159419775,1.3812094432383775,2.160379606408626
1789929397531502800,5.8205029296875,0.48738253492712974,1.4874422050356864,2.045293383809179
1789929397541528600,5.830528564453125,0.404368736153841,1.4822434673488138,1.9021163543656467
1789929397551554600,5.840554443359375,0.3284440188586712,1.4322837969154119,1.7480569886408746
1789929397561580800,5.850580810546875,0.1744943971186876,1.3734095831423998,1.486408624204248
1789929397571607800,5.86060791015625,-0.1439870306521654,1.016518052956462,1.180794276791066
1789929397581633800,5.8706337890625,-0.7549491834968328,0.4998877962350845,0.983177947282046
1789929397591659800,5.88065966796875,-1.3701841913551092,0.23419804745316505,0.9128313223801553
1789929397601685800,5.890685791015625,-1.9289093764841556,0.43968496420681474,0.8911189645268023
1789929397611712800,5.900712646484375,-2.6048843919873237,1.067147000953555,0.9640447922669351
1789929397621739000,5.910739013671875,-3.4185277565151453,1.4883587353587149,1.2416139255434273
1789929397631765000,5.920764892578125,-4.197864946815371,1.1183131245672702,1.660064086280763
1789929397641791000,5.930791015625,-4.474290609145164,-0.1864601447224617,2.0059177973628044
1789929397651817700,5.940817626953125,-4.183621317407488,-1.3690601557612418,2.2176889089524745
1789929397661843700,5.95084375,-3.1948978648275137,-1.776949467256665,2.272030155470967
1789929397671869700,5.96086962890625,-1.650066131618619,-1.8068267191261052,2.267822766909003
1789929397681895700,5.970895751953125,-0.08499415893554688,-1.7000842542409895,2.3732675931990146
1789929397691923000,5.9809228515625,0.8530915778189897,-1.8058564127892254,2.5850389970496295
1789929397701949000,5.990948974609375,0.5922493421334772,-2.2186481093734503,3.107877168500423
1789929397711975000,6.000974853515625,-0.7862428049702197,-2.7993542401641607,3.9092002728983757
1789929397722001000,6.0110009765625,-2.5272575469493863,-3.263842806237936,4.50895947920531
1789929397732027000,6.02102685546875,-3.4390251856207845,-3.898951558345556,4.629209368178248
1789929397742053600,6.0310537109375,-2.7440228135645386,-4.664723164629936,4.289743604567647
1789929397752079600,6.04107958984375,-2.1732178990632294,-5.470471391993761,3.8999016986772417
1789929397762105600,6.051105712890625,-2.8160505234211684,-5.99381254453063,3.7489480438828466
1789929397772131600,6.061131591796875,-3.7681653700500726,-5.894236902534962,3.786014330473542
1789929397782158800,6.071158935546875,-4.226960692918301,-5.6178580019563435,3.7984956263840197
1789929397792184800,6.081184814453125,-3.5003333485424517,-4.707462820681929,3.4140950347647068
1789929397802210800,6.0912109375,-3.541549156028032,-3.7248388540208337,2.581750476898253
1789929397812236800,6.10123681640625,-3.6960301081657407,-2.9163685082167383,0.8157821301221847
1789929397822263800,6.111263916015625,-2.6276749004662037,-2.8093641775250435,-1.1161128380440175
1789929397832289800,6.121289794921875,-0.7164250262480228,-3.291090294125676,-2.8495374902203676
1789929397842316000,6.13131591796875,0.9019219519615173,-3.5902275544792412,-4.276753190091252
1789929397852342000,6.141342041015625,2.0272106146298348,-3.4372587604701517,-5.490172702285647
1789929397862368800,6.15136865234375,2.8660265604674815,-3.5086797366052864,-6.164480661359429
1789929397872394800,6.161394775390625,3.316918562865257,-3.474289391225576,-6.194867031794786
1789929397882420700,6.171420654296875,3.334857539659738,-3.2265655072450636,-5.9805398059815165
1789929397892446700,6.18144677734375,3.2332217502638696,-3.046835547560453,-5.84186900191605
1789929397902473700,6.1914736328125,2.698816767399013,-3.1649440405905245,-4.935805712366104
1789929397912500000,6.2015,1.1973439911842345,-3.472876017296314,-3.272061184006929
1789929397922526000,6.21152587890625,0.5978419745087623,-3.423800143960118,-1.6117070287384092
1789929397932552000,6.221552001953125,1.9186594928875564,-3.1491789007037876,-0.20140337376706302
1789929397942578700,6.23157861328125,4.002552218073606,-2.39211257892251,0.9371045436974614
1789929397952604700,6.241604736328125,2.7513249532714483,-1.498864347282052,2.1476788225285706
1789929397962630700,6.251630615234375,2.6553219090655444,-0.5844821421980857,2.7870319342076777
1789929397972656600,6.26165673828125,3.0490847877919673,0.5970932019680738,2.2396720465712248
1789929397982684000,6.271683837890625,4.068745522688329,2.0870055965095755,0.9917901466742157
1789929397992710000,6.2817099609375,4.646743271303176,3.3931402172803877,-0.05482771486118435
1789929398002735900,6.29173583984375,4.29524950850755,4.134690405499935,-1.0784186288133264
1789929398012761900,6.301761962890625,4.033622771380841,4.354423874270916,-1.3370638659112155
1789929398022788900,6.311788818359375,4.011966235367954,4.582974271225929,-1.7102312619850037
1789929398032814800,6.32181494140625,3.8536139947548507,4.95451918066442,-2.339869473727047
1789929398042840800,6.3318408203125,3.606652327318489,5.321469163528085,-3.05376037838757
1789929398052866800,6.34186669921875,3.4177661244928834,5.7234454515874384,-3.653578036883473
1789929398062893800,6.351893798828125,3.3824913974940776,6.133595693752169,-4.098253064462543
1789929398072919800,6.361919921875,3.3407427983060476,6.452405038303136,-4.492078779292107
1789929398082945800,6.37194580078125,3.1141327217638493,6.685787677720189,-4.797332184438407
1789929398092971800,6.3819716796875,2.703708338832855,6.766194508865476,-4.951883571463823
1789929398102998800,6.391998779296875,2.231755135966837,6.66241790804863,-4.817079671959578
1789929398113024800,6.402024658203125,1.6772592589706181,6.496718227282166,-4.324822808994353
1789929398123050800,6.41205078125,1.1256976818606257,6.475322388032079,-3.6387735587224364
1789929398133077000,6.422076904296875,0.7779986351728438,6.304494696727395,-2.9655127706140276
1789929398143103700,6.432103759765625,0.731209119208157,5.742760392910242,-2.214311395343393
1789929398153129700,6.442129638671875,0.0725146165907383,4.737343579682707,-1.2229721342418343
1789929398163155700,6.45215576171875,-1.6604638992533087,2.975273701649904,-0.16374653740469367
1789929398173181700,6.462181640625,-2.763931336866319,0.3151303637772798,0.9519291147984563
1789929398183208700,6.472208740234375,-3.382158220016956,-3.352271615797281,1.8427753998637197
1789929398193234700,6.482234619140625,-6.49397038987875,-7.761487402963638,2.9986002167016266
1789929398203261000,6.492260986328125,-9.627394672089814,-12.512116580677032,4.748405948705971
1789929398213287000,6.502286865234375,-8.295940316623449,-16.250550244808196,6.750621676680446
1789929398223314000,6.51231396484375,-5.073106397122144,-15.587080490612983,7.5535992702871555
1789929398233340000,6.52233984375,-3.8732781879067417,-10.742093113291263,7.96019912649393
1789929398243366000,6.532365966796875,-3.1851401486620303,-4.264386460471153,6.46036155026555
1789929398253391600,6.5423916015625,-2.2911187406919895,0.4039291756927967,3.8815801523059603
1789929398263419000,6.5524189453125,-1.6341455089092254,2.9770471410632133,1.6024252595216035
1789929398273444900,6.56244482421875,-1.3230613517828285,2.988737578856945,0.27890370634850115
1789929398283470800,6.572470947265625,0.45795273456424473,0.3554448385089636,0.7241523325644433
1789929398293496800,6.582496826171875,3.5394837479308245,-1.7140069811314342,0.6836535142417997
1789929398303522800,6.592522705078125,5.353151418992876,-2.6207296113729477,-0.6503057367175817
1789929398313549800,6.6025498046875,6.333052682691812,-3.3098049314677715,-2.0058058614209293
1789929398323575800,6.612575927734375,6.094753629660606,-4.006694724705815,-2.687658536785841
1789929398333601800,6.622601806640625,3.9403985442385077,-4.58476232368648,-1.974228235374391
1789929398343627800,6.632627685546875,1.399843416559696,-4.606338195678592,-0.5878503399895504
1789929398353654800,6.64265478515625,-0.15544044481962918,-2.5750936493575574,-0.622272359149158
1789929398363680800,6.6526806640625,-1.2083844406366349,1.6733365325689316,-1.3527715765222905
1789929398373706800,6.662706787109375,-4.113631250858306,4.914229840373992,-2.781508494611084
1789929398383733800,6.672733642578125,-4.436573457430303,5.969825519743561,-4.437621797439456
1789929398393759700,6.682759765625,-1.4741734120093286,6.442410298511385,-5.350580691722035
1789929398403785700,6.69278564453125,0.9066142014309764,5.982867956668138,-5.931739826977252
1789929398413811700,6.702811767578125,2.2645149575352668,4.744596327289939,-5.861729886683821
1789929398423838000,6.712837890625,3.3680501996874805,3.4515333695381876,-5.732867359927297
1789929398433864700,6.72286474609375,4.127457531636953,2.311098429533839,-6.297656959661841
1789929398443890700,6.732890625,4.455190771877765,1.2599702509671449,-6.852309780785441
1789929398453916700,6.742916748046875,4.6512946509972215,-0.27838673326969143,-6.97788203382492
1789929398463942700,6.752942626953125,5.313562335926294,-1.7006734523057936,-6.195408883586525
1789929398473969700,6.7629697265625,5.43446016741395,-2.1392507475316522,-4.508984029124677
1789929398483995600,6.77299560546875,4.512088132619858,-1.7928490471780298,-2.805803270173073
1789929398494021600,6.783021728515625,3.048294514197111,-1.5810487094938754,-1.5314669324621557
1789929398504047600,6.793047607421875,1.589551311031729,-1.319165367257595,-0.37702527707833794
1789929398514074600,6.80307470703125,0.1807308072902262,-0.7759650835186243,0.7451127030067145
1789929398524100600,6.8131005859375,-0.8847299941420554,-0.5298953964859247,1.8391440576240419
1789929398534126600,6.823126708984375,-1.4885318999685346,-0.519309120541811,2.7671862470090387
1789929398544152600,6.833152587890625,-1.4508803608357905,-0.6274824950128793,3.4876106450915336
1789929398554179600,6.8431796875,-0.7148924829185008,-0.7452928818792104,3.971522581298649
1789929398564205600,6.85320556640625,0.30577512746546415,-0.6707856301665306,4.088217992660403
1789929398574231600,6.8632314453125,1.115455981570482,-0.2487391985028982,3.9004368284672495
1789929398584257500,6.873257568359375,1.7616367473125456,0.5130103126585484,3.629827743461728
1789929398594284500,6.883284423828125,2.051613380610943,1.168895895335078,3.248997119283676
1789929398604310500,6.893310546875,1.8208336171686648,1.306668289256096,2.748230202126503
1789929398614336500,6.90333642578125,1.3134662788331508,1.2758154703527689,2.144118207437545
1789929398624362500,6.913362548828125,0.7486170578658581,1.3744523701936007,1.6074788896493613
1789929398634389800,6.9233896484375,0.18592589171528814,1.5715928988844154,1.1547878750056029
1789929398644415700,6.933415771484375,-0.23844985967874527,1.601788715183735,0.8926075956493615
1789929398654441500,6.94344140625,-0.7051087555289268,1.346648417466879,0.7269369948469102
1789929398664467500,6.953467529296875,-1.2074988899737595,0.8988263240337371,0.5206587815850973
1789929398674494500,6.963494384765625,-1.556699865657091,0.39400633209347724,0.4271772186808288
1789929398684520400,6.9735205078125,-1.6708318562716244,0.012104863813519478,0.5047716227538883
1789929398694546700,6.983546630859375,-1.7723410966783761,-0.27687106800973416,0.7205389643728732
1789929398704572700,6.99357275390625,-2.0642326236873862,-0.5092798939585685,0.9296249285317957
1789929398714599700,7.003599609375,-2.418073095739633,-0.4816355157077312,1.0371177733927965
1789929398724625700,7.013625732421875,-2.8219594552040097,-0.24056232178807258,1.1322652236826718
1789929398734651600,7.023651611328125,-3.1266835757791993,-0.0952975262850523,1.3448290930852294
1789929398744677600,7.033677734375,-3.174993725439906,-0.28712592004239557,1.78710436604619
1789929398754704400,7.043704345703125,-2.7079431999236343,-0.7579816830605268,2.457307227888703
1789929398764730600,7.053730712890625,-1.904345574722439,-1.094900100275874,2.9607272899031636
1789929398774756600,7.063756591796875,-1.0162381400365381,-1.0627215857267378,3.1980361628532408
1789929398784782600,7.073782470703125,-0.0668816522050649,-0.98679336130023,3.2969343439787626
1789929398794809600,7.0838095703125,0.8325536705724894,-1.5382611226469278,3.527295005226135
1789929398804835600,7.093835693359375,0.9817365893673151,-1.9371137257277964,3.826230897788703
1789929398814861600,7.103861572265625,0.12669044341444968,-2.251270860558748,4.202442629994452
1789929398824887600,7.113887451171875,-1.6876510352559386,-2.5279326697319746,4.439625538477301
1789929398834914600,7.12391455078125,-3.186235834944248,-2.777911054641008,4.329150901326537
1789929398844940500,7.1339404296875,-3.7582185610532757,-3.334841173046827,3.964456588435173
1789929398854966500,7.143966552734375,-3.905417539489269,-4.196981149718165,3.472807335974276
1789929398864992500,7.153992431640625,-3.721572545701265,-4.764320433935523,2.958614243271947
1789929398875019500,7.16401953125,-3.3346371749073267,-5.274750666972994,2.7019103495001793
1789929398885045500,7.17404541015625,-3.279383489719033,-5.5914434577614065,2.6263509583860634
1789929398895071500,7.184071533203125,-3.068097531297803,-5.5566585601061576,2.6374659343793985
1789929398905097500,7.194097412109375,-2.958960280230641,-5.107835180675983,2.736090851521492
1789929398915124700,7.204124755859375,-3.3324072238981723,-3.524574640351534,2.0277254322841762
1789929398925150700,7.214150634765625,-3.250026462331414,-2.0540958450764415,0.6362928473256528
1789929398935176700,7.2241767578125,-2.9748212817072868,-1.7386831572264432,-0.6228177180722355
1789929398945202700,7.23420263671875,-1.7125310633599757,-1.3417144681960345,-2.0077751156672834
1789929398955229400,7.2442294921875,-0.5169090736627578,-1.7223545382380485,-3.4525413775369524
1789929398965255400,7.25425537109375,0.9711831927794963,-2.470989131760597,-4.7484354670614
1789929398975281400,7.264281494140625,1.8459167666293679,-3.1086130815595387,-6.006429449519515
1789929398985307600,7.2743076171875,2.1282862859249114,-3.333787280079722,-6.56319823988378
1789929398995334700,7.284334716796875,1.73212905940786,-3.3421985500723124,-6.533574670514464
1789929399005360600,7.294360595703125,1.167723052163422,-3.397139516049623,-6.683590459936857
1789929399015386600,7.30438671875,0.9969032519042491,-3.376136475509405,-6.659845427212119
1789929399025412600,7.31441259765625,1.0296750561714172,-3.010371318516135,-5.649511615848541
1789929399035439600,7.324439697265625,0.6643316317215562,-2.7632255266845225,-3.862984757429361
1789929399045465300,7.33446533203125,2.0990388563916085,-2.493822310337424,-2.1180118524089453
1789929399055491600,7.34449169921875,4.14969508240819,-2.0072844095408917,-0.5225271327402442
1789929399065517600,7.354517578125,2.6202503034234046,-1.9941531252890825,1.7761435577012596
1789929399075544600,7.364544677734375,2.680940626707673,-1.181951191741228,2.582160519003868
1789929399085570600,7.374570556640625,2.9895103167951107,0.16178455314934254,2.8797824063584208
1789929399095596500,7.384596435546875,3.4202430360004303,1.6231506521642207,2.428679683819413
1789929399105622500,7.39462255859375,3.325571824920177,2.798499084639549,1.513733268981427
1789929399115649800,7.40464990234375,3.1414003756567834,3.5788013205796476,0.5048122470252215
1789929399125675800,7.41467578125,3.2900653349921107,3.7192578390181064,-0.31300445766448975
1789929399135701800,7.42470166015625,3.5282325783371924,3.5708611752301453,-0.8377927402697503
1789929399145727700,7.434727783203125,3.53945510635823,3.612184534743428,-1.3971423409074544
1789929399155754500,7.44475439453125,3.317155586491525,3.851515853431821,-1.9611346527844666
1789929399165780500,7.454780517578125,3.1880323629721996,4.352502550819516,-2.4739362911283966
1789929399175806500,7.464806396484375,3.2312861060261726,4.9558425382226705,-2.9277152471393344
1789929399185832400,7.47483251953125,3.348021849398315,5.45294099600017,-3.345098655427992
1789929399195859700,7.484859619140625,3.388724738925695,5.924935407659411,-3.7063513034328817
1789929399205885700,7.4948857421875,3.3668229959800837,6.263001825866103,-3.975601082783937
1789929399215911700,7.50491162109375,3.0882185283064842,6.466306722405553,-4.130343316206336
1789929399225937700,7.514937744140625,2.6847455719485875,6.475280302456021,-4.031529890754818
1789929399235964400,7.52496435546875,2.168847136633098,6.430677775141596,-3.650724985539913
1789929399245990400,7.534990478515625,1.5032801178976893,6.442446538868546,-2.8914322198808193
1789929399256016400,7.545016357421875,1.1166098277807235,6.369504052254557,-2.048218185214698
1789929399266042400,7.55504248046875,0.7918810300529002,6.155808694604039,-1.2912035936206578
1789929399276069600,7.565069580078125,0.04956278007030487,5.497679716914892,-0.5040704522145911
1789929399286095600,7.575095703125,-1.2260321793995796,4.160259146520495,0.20139146413356065
1789929399296121600,7.58512158203125,-2.933428948611021,2.129017522808909,0.8127114905051886
1789929399306148600,7.595148681640625,-4.986702371388674,-1.2792869458556175,1.7749997944936156
1789929399316174600,7.605174560546875,-6.876708308982849,-6.511885985797643,3.0667852796554564
1789929399326200600,7.61520068359375,-9.510463406145572,-12.642191405832767,4.262010086728632
1789929399336226800,7.625226806640625,-10.088070401877165,-18.14503478912115,5.997130290776491
1789929399346253600,7.635253662109375,-5.578572870272398,-19.215894088596105,6.95871088488698
1789929399356279600,7.645279541015625,-3.3255136649921533,-14.105526759094,7.179647884228825
1789929399366305500,7.655305419921875,-4.016350441801547,-5.621493143588304,5.506221919810772
1789929399376331500,7.66533154296875,-3.3512954642415043,-0.28925241067707536,3.577985912543535
1789929399386358500,7.675358642578125,-2.9811607138618825,2.476404727068543,1.6180132892757653
1789929399396384500,7.685384521484375,-2.488396778157353,2.846281995555758,-0.49649965163413434
1789929399406410800,7.69541064453125,-0.009913491249084472,0.5526689538300037,-1.4830088987633585
1789929399416436700,7.705436767578125,2.577304018883407,-2.230026996999979,-1.9530137440405786
1789929399426463500,7.71546337890625,4.13066217289716,-3.8743274046987293,-2.7558307402580975
1789929399436489500,7.725489501953125,5.034962252166867,-4.193799012550711,-3.3416625434994693
1789929399446515500,7.735515380859375,5.470228230887651,-3.9024125124543905,-3.0249563087075946
1789929399456541400,7.74554150390625,5.210588283663988,-3.331075683033466,-1.5678842536248265
1789929399466568400,7.755568359375,5.4154152752041815,-1.1291484068363904,-0.7982387285165489
1789929399476595500,7.765595458984375,5.650958892047405,2.008075852179527,-1.522125249751657
1789929399486621400,7.775621337890625,2.9272511367589233,4.6007606878072025,-1.7742833167873322
1789929399496647400,7.7856474609375,-3.0231077582314607,7.158033433791995,-2.2231131259582937
1789929399506674200,7.795674072265625,-6.983003614622354,9.119572575724124,-3.4903295486614105
1789929399516700200,7.8057001953125,-3.5650901906132697,8.223127009347081,-5.166317764782905
1789929399526726100,7.81572607421875,0.0012494155392050743,6.070345164591074,-6.520988745185733
1789929399536752000,7.825752197265625,2.0571806593492625,3.7282968855202197,-7.18204442397654
1789929399546779400,7.835779296875,3.321934929722547,1.8103262516796588,-6.889130568182468
1789929399556805400,7.845805419921875,3.9684371825039384,-0.005669862329959869,-6.718383540898561
1789929399566831400,7.855831298828125,4.5730280467510225,-2.1862591669440268,-6.777070707666874
1789929399576857300,7.865857421875,5.514098936796188,-3.805373110938072,-6.088602705815434
1789929399586884400,7.87588427734375,5.525348645085096,-4.012226055347919,-4.319693921673298
1789929399596910300,7.885910400390625,4.698392794519663,-3.0311089861184355,-2.2614415414392948
1789929399606936600,7.8959365234375,3.6659494426786896,-2.0299200197190044,-0.802243434113264
1789929399616962600,7.905962646484375,2.2525065398335458,-1.1939087560385464,0.4213386487204581
1789929399626989300,7.9159892578125,0.8052410084940492,-0.7410831552296876,1.5638501758031547
1789929399637015300,7.926015380859375,-0.30798458367586135,-0.7128992632746696,2.769093541935086
1789929399647041300,7.936041259765625,-0.780370625001192,-0.6715256348788737,3.9623610774606464
1789929399657067300,7.9460673828125,-0.4065582820873707,-0.648065264314413,4.590585915273428
1789929399667094300,7.95609423828125,0.2817630778349936,-0.5494114133387804,4.50781293951869
1789929399677120500,7.96612060546875,0.7383691470306366,-0.3639110535591841,4.48932977284491
1789929399687146500,7.976146484375,1.0298831459641455,-0.0739262369543314,4.3756385117352
1789929399697172500,7.98617236328125,1.218781989075616,0.3217763776630163,3.8851685321867464
1789929399707199200,7.99619921875,1.0659095681130886,0.6344225234091282,3.138731740969419
1789929399717225200,8.00622509765625,0.7595780123412609,0.8922253183335065,2.207945367442816
1789929399727251200,8.016251220703126,0.5481202044844627,1.306518651652336,1.359236680883169
1789929399737277200,8.026277099609375,0.49436172628998754,1.5727005678653716,0.7268392335608601
1789929399747304400,8.036304443359375,0.5020563724458217,1.7577578600525856,0.4708711067177355
1789929399757330400,8.046330322265625,0.480416203045845,1.8475147033452985,0.3505756250374019
1789929399767356400,8.0563564453125,0.31965748581290243,1.8552718933433294,0.26377631637603044
1789929399777382400,8.06638232421875,0.14871931987106798,1.8573358401358127,0.25157076866701245
1789929399787409400,8.076409423828125,-0.09956044442653655,1.8314099562406538,0.23866408695131539
1789929399797435400,8.086435302734374,-0.2608165897876024,1.611032928869128,0.2123160321213305
1789929399807461400,8.09646142578125,-0.3467552995642647,1.2199474526584149,0.15673369950056076
1789929399817487400,8.1064873046875,-0.6171200909525155,0.8218781089097261,0.26271336331963535
1789929399827514400,8.116514404296876,-1.396365511316061,0.7288859369575977,0.5125248672291636
1789929399837540400,8.126540283203125,-2.517694768834114,1.0692577094972133,0.8198926341809332
1789929399847566300,8.13656640625,-3.5968811671495438,1.0782231062412262,1.262658613268286
1789929399857592300,8.14659228515625,-4.210263825139403,0.28307752143442627,1.7695942821882664
1789929399867619300,8.156619384765625,-3.814218096172809,-0.7865244714558124,2.2762015959367154
1789929399877645300,8.166645263671874,-2.766107804122567,-1.3167021920144557,2.7687925131618973
1789929399887671300,8.17667138671875,-1.5575906770169734,-1.5094599755764007,3.0409146330788728
1789929399897697500,8.186697509765626,-0.5008182089529931,-1.5649129827290773,3.080930124863982
1789929399907724300,8.196724365234376,0.14933540594279765,-1.828459289741516,3.159128047788143
1789929399917750300,8.206750244140625,0.5362286911606788,-2.1872429172843693,3.3903207759454843
1789929399927776300,8.2167763671875,0.4016074547469616,-2.407859014108777,3.721980834241211
1789929399937803300,8.22680322265625,-0.5813157871216535,-2.4534254180192945,4.056803448221087
1789929399947829200,8.236829345703125,-1.7981584056325255,-2.5102614039629696,4.218306261819601
1789929399957855200,8.246855224609375,-2.437383214756846,-2.987259907519817,4.137896508064866
1789929399967881500,8.256881591796875,-2.5797423519462344,-3.881668999633193,4.022150944773853
1789929399977908500,8.266908447265624,-2.724067236250639,-4.68778547578752,3.817478851534426
1789929399987934500,8.2769345703125,-2.6657494873166083,-5.517634125185013,3.6289094595730305
1789929399997960400,8.28696044921875,-2.570694537615776,-6.14448592107892,3.7022839078634977
1789929400007986400,8.296986328125,-3.012577304127812,-6.046454585915804,3.7019951540499925
1789929400018013200,8.30701318359375,-3.4510002855747937,-5.491470925402641,3.4677912613779305
1789929400028039200,8.3170390625,-4.16957408735454,-4.654172544521093,2.969445726148784
1789929400038065400,8.3270654296875,-4.296573158326745,-3.32247093629539,1.930093471702188
1789929400048091400,8.33709130859375,-4.074127507987618,-2.5074253037542102,0.5575795222252607
1789929400058118400,8.347118408203125,-3.687189799106121,-2.290679326361418,-0.9235850638456642
1789929400068144400,8.357144287109374,-2.793596115028858,-2.5914532480061054,-2.313189702724665
1789929400078170400,8.36717041015625,-1.6753613163948058,-2.9078584540247916,-3.8335733695060012
1789929400088196400,8.3771962890625,-0.16101934093050657,-3.2199837907671927,-5.456322455132007
1789929400098223400,8.387223388671876,1.5050127869091927,-3.5782331653028723,-6.721658032524585
1789929400108249300,8.397249267578125,2.122096345243603,-3.771648535990715,-7.5557883047640315
1789929400118275300,8.407275390625,2.0099391618333757,-3.681437519189715,-8.040437615334987
1789929400128301300,8.41730126953125,1.4997300242006777,-3.2747277728676796,-8.27946965881586
1789929400138328300,8.427328369140625,0.7945430888690054,-2.3286440230965613,-7.83224143962264
1789929400148354300,8.437354248046875,-0.23620514949187635,-1.52199387845695,-6.027134968417883
1789929400158380300,8.44738037109375,0.5009203541532159,-1.460439631819725,-3.8839685087472198
1789929400168406300,8.45740625,2.359331422305107,-1.755705603697896,-1.8932379052527248
1789929400178433500,8.46743359375,4.375325208002328,-2.122385537448525,-0.010752316693402826
1789929400188459500,8.47745947265625,6.25230215267539,-2.0205933884471654,1.2566319003246724
1789929400198485200,8.4874853515625,3.4191812519878146,-1.3703946192353964,3.226032715542614
1789929400208511200,8.49751123046875,2.244059029483795,-0.29404665921628476,3.442704166394472
1789929400218538200,8.507538330078125,2.0358473639413712,0.7491951500147581,3.34766733687222
1789929400228564200,8.517564208984375,2.465177815133333,2.0891940464645624,2.56441121956259
1789929400238590200,8.527590087890625,3.604131868930161,3.4470658687353133,0.9539848782844841
1789929400248616200,8.5376162109375,4.084133938217163,4.0546015542626375,-0.18275142639763653
1789929400258643500,8.5476435546875,4.276870678991079,4.08415848813653,-0.8590632726397365
1789929400268669400,8.55766943359375,4.237381549167633,4.0494542545020575,-1.4306848372861742
1789929400278695400,8.5676953125,3.8486759538307784,4.192432984894514,-2.079531607367098
1789929400288721400,8.577721435546875,3.4933243465632198,4.468020442834496,-2.608512519356608
1789929400298748200,8.587748046875,3.384957495346665,4.7522804520517585,-2.953873186224699
1789929400308774100,8.597774169921875,3.3852330974176525,5.061620541989803,-3.202782480597496
1789929400318800400,8.60780029296875,3.466520218528807,5.37345361778736,-3.4538892850145695
1789929400328827400,8.617827392578125,3.6212975232645865,5.568360688337683,-3.6348005634382363
1789929400338853400,8.627853271484375,3.5518458013758063,5.635223562777042,-3.6965842349171636
1789929400348879400,8.63787939453125,3.236917389911413,5.674226954910159,-3.701063426157832
1789929400358905300,8.6479052734375,2.8085578295782208,5.809300611266494,-3.462660035969317
1789929400368932400,8.657932373046876,2.433954117091,5.981843874317407,-2.9583026931047436
1789929400378958300,8.667958251953126,2.1466382274344564,6.203649473187327,-2.338198910166323
1789929400388984300,8.677984375,1.5955930754140017,6.335783568960428,-1.6748745557911693
1789929400399010300,8.68801025390625,1.0971221602395176,5.975397182396054,-0.9125095430798829
1789929400409037300,8.698037353515625,0.24539748685956,5.004112355872988,-0.24297668945342302
1789929400419063300,8.708063232421875,-1.632948700340092,3.325370749390125,0.3935504780847579
1789929400429089300,8.71808935546875,-4.587234266757965,0.8098089009314775,1.060063107107207
1789929400439115300,8.728115234375,-7.431642869657278,-3.623335458832979,2.3694255308181047
1789929400449142300,8.738142333984374,-8.565714704370498,-9.555309679087996,3.8207510050728914
1789929400459168500,8.74816845703125,-10.945063663309812,-15.876694720339774,5.654893893408775
1789929400469194500,8.758194580078126,-8.76566093813181,-19.85824506691694,7.238433250674605
1789929400479220200,8.76822021484375,-3.3579452775195238,-17.48967352257967,7.416897720468044
1789929400489247000,8.7782470703125,-3.2903792232468723,-9.316921778729558,6.048567048025131
1789929400499273000,8.78827294921875,-3.40999549049139,-2.5418717632353305,4.279023473110795
1789929400509299200,8.79829931640625,-2.789736809252202,0.7705617631703615,3.256295167337358
1789929400519325200,8.8083251953125,-2.348260577714443,2.7609534900993107,1.4092214857578276
1789929400529352200,8.818352294921874,-2.0930060059681534,3.3256495663315055,-0.8218397496607154
1789929400539378200,8.828378173828124,-1.3237909812316297,2.119994842919707,-2.1356160442911087
1789929400549404200,8.838404052734376,0.008388473638892174,0.15126958887577055,-1.4696107802689076
1789929400559430100,8.84843017578125,1.3131363162264227,-1.0529986486136913,-1.0254130148127674
1789929400569457200,8.85845703125,2.648582371677458,-1.675974479857087,-1.2590557664707303
1789929400579483400,8.8684833984375,4.470547330963611,-2.805001890662312,-1.2023702949136494
1789929400589509400,8.87850927734375,6.961082874715328,-4.288282299843431,-0.7655698001019656
1789929400599535000,8.88853515625,7.022434876778721,-4.086819816300273,-0.6822652016885579
1789929400609562000,8.89856201171875,4.2461575608193876,-1.7501543993115425,-1.4424746438011526
1789929400619588000,8.908588134765624,0.27889453666135666,1.0476835910707711,-2.122522315570712
1789929400629614000,8.918614013671874,-5.034225170063972,4.20864703759253,-3.0435102025300265
1789929400639641300,8.928641357421874,-5.578166043037176,6.364004870316386,-4.400028564365208
1789929400649667300,8.938667236328126,-1.1277695196986197,6.642190528056025,-5.6761897794157266
1789929400659693300,8.948693359375,1.3790250849366188,5.973139758858085,-6.3540709208011625
1789929400669719300,8.95871923828125,3.36901203045696,4.539410439309478,-6.492941046831011
1789929400679746000,8.96874609375,4.393807790154218,2.7928666317105293,-6.5920958330661055
1789929400689772000,8.97877197265625,4.753633620226383,1.2560966244041918,-6.806635824847221
1789929400699798000,8.988798095703125,4.971576113927364,-0.32309330548048015,-6.877971460786461
1789929400709824000,8.998823974609374,5.207256508892774,-1.668637561097741,-6.345952496275306
1789929400719851300,9.008851318359374,5.3471916338056324,-2.1591560559630394,-5.191837405964732
1789929400729877200,9.018877197265626,5.470962390381097,-2.0417519118100405,-3.741448628038168
1789929400739903200,9.0289033203125,4.549332698386907,-1.6397224322587252,-1.9712264232099055
1789929400749929200,9.03892919921875,2.722724004948139,-1.4806214191049336,-0.4758553979363292
1789929400759956200,9.048956298828125,0.847409294398874,-1.673712380144,0.7126338903367518
1789929400769982200,9.058982177734375,-0.711512777352333,-1.5978841089606284,1.7600149913296101
1789929400780008200,9.06900830078125,-1.8363924208283424,-1.0360136115431784,2.39970259566009
1789929400790034200,9.0790341796875,-1.6134147094391285,-0.7367623694211244,2.7378432481467723
1789929400800061200,9.089061279296875,-0.520128766361624,-0.4899871644675731,2.718762407840788
1789929400810087200,9.099087158203124,0.7576105116605758,-0.42628246179819107,2.8025439761161803
1789929400820113200,9.109113037109376,1.8381741896785795,-0.5128612595766783,2.9455840813070533
1789929400830139100,9.11913916015625,2.380678161716461,-0.4962403796434402,2.9963468848168846
1789929400840166100,9.129166259765626,2.269124497157335,-0.18126257607936858,2.89865720269829
1789929400850192100,9.139192138671875,1.5787480313360691,0.5332943912744522,2.524813660928607
1789929400860218400,9.14921826171875,0.9433633848965167,1.18834469217062,2.033661836595833
1789929400870244400,9.159244384765625,0.7122340773642063,1.5649924777060746,1.5864767258919774
1789929400880271000,9.16927099609375,0.6775368579924106,1.725499850526452,1.1446351681731641
1789929400890297000,9.179297119140625,0.7382908941626548,1.8789122966498135,0.9634422963291406
1789929400900323000,9.189322998046874,0.7426034966647624,1.9036235440582037,0.9789496620625256
1789929400910350000,9.19935009765625,0.6159843649208545,1.8634867639809847,1.0981950501680373
1789929400920376000,9.2093759765625,0.44337914254963395,1.9639152234137056,1.2258651522696018
1789929400930402300,9.21940234375,0.1909820060610771,2.09755329400897,1.1709658334769308
1789929400940428300,9.22942822265625,-0.10112875318918377,1.9482500367701052,1.0524486135154962
1789929400950455300,9.239455322265625,-0.5172469638476148,1.4050129281520842,0.8526707220584153
1789929400960481300,9.249481201171875,-0.9965707320142537,0.6995978831529617,0.672442749723792
1789929400970507300,9.25950732421875,-1.5111585961878298,0.07121288634240627,0.5084754457078874
1789929400980533200,9.269533203125,-2.0113930139034983,-0.2755798591554165,0.37245764036923645
1789929400990560000,9.27956005859375,-2.615020001554489,-0.2625292389243841,0.3261651141412556
1789929401000586200,9.289586181640624,-3.4320950940966606,-0.06261223125755787,0.3993228509411216
1789929401010612200,9.2996123046875,-4.243340165311098,-0.385392233005166,0.8079626885429024
1789929401020638200,9.30963818359375,-4.478279971042276,-1.025531380495429,1.5869973887652158
1789929401030665200,9.319665283203125,-3.7792677788227795,-1.35850778208673,2.386313829515874
1789929401040691200,9.329691162109375,-2.3683272141873837,-1.5008435384005308,2.923981029047072
1789929401050717200,9.33971728515625,-0.954843979331851,-1.5340046342462301,3.1537954545885323
1789929401060743200,9.3497431640625,0.20550620597600935,-1.7828396943390368,3.383668916840851
1789929401070770200,9.359770263671875,0.8381688801057636,-2.2130209171414372,3.7711382483810185
1789929401080796200,9.369796142578124,0.7125479656189679,-2.4959622449755665,4.3866324916973705
1789929401090822100,9.379822265625,-0.3286743935484439,-2.5763205608040094,5.086999313396215
1789929401100849200,9.38984912109375,-1.8977241107560694,-2.8226310708552598,5.6091147235304115
1789929401110875100,9.399875244140626,-3.125184277132153,-3.5010406200289723,5.762911200535297
1789929401120901000,9.409901123046875,-3.4379946735292672,-4.780372574070095,5.500730336657166
1789929401130927000,9.419927001953125,-3.504167227616906,-5.829982164767384,4.974819041371346
1789929401140954400,9.429954345703125,-4.225017157635093,-6.496977755001187,4.3258956989228725
1789929401150980400,9.43998046875,-4.083323206356168,-7.069085568794608,3.861221254888177
1789929401161006300,9.45000634765625,-3.3617613286763426,-6.877016352018714,3.2686955069661137
1789929401171032000,9.460031982421874,-3.0748399912953377,-5.68957299260199,2.3682155705064534
1789929401181059000,9.47005908203125,-3.3958319405823945,-4.039905504912138,1.5185656575739384
1789929401191085000,9.4800849609375,-3.5843799974948167,-2.701233473151922,0.5703678382582962
1789929401201111000,9.490111083984376,-3.3278245722830295,-2.011772368609905,-0.6217533037111163
1789929401211137000,9.500136962890625,-2.60377146230936,-1.7613590994149446,-2.106656345658004
1789929401221164300,9.510164306640625,-1.553423035943508,-2.1100667386233805,-3.643748132264614
1789929401231190300,9.520190185546875,-0.2508183428645134,-3.0736709475159643,-5.112421339422464
1789929401241216300,9.53021630859375,1.44904408531934,-4.063957411628961,-6.511262885463237
1789929401251242200,9.5402421875,2.6286802781164647,-4.409323339194059,-7.500470322167873
1789929401261269000,9.55026904296875,2.8523721291244026,-3.9018402655243873,-8.065880684149265
1789929401271295000,9.560294921875,2.382748538249731,-3.0621470984607932,-8.386591478407382
1789929401281321200,9.5703212890625,1.3998365484274924,-2.2717180207818743,-8.462785660293697
1789929401291348200,9.58034814453125,0.25842647978067396,-1.8122142573833464,-7.314089087900519
1789929401301374200,9.590374267578126,-0.2732838571727276,-1.5370903253018855,-5.476759093961119
1789929401311400200,9.600400146484375,1.0732745439231395,-1.6120143411219119,-3.222592219699919
1789929401321426200,9.61042626953125,3.4566391682446,-2.0939941402226685,-1.3254106913879513
1789929401331453200,9.620453125,4.529042190030217,-2.5815572924137116,1.1655367941655217
1789929401341479200,9.630479248046875,4.2204421048045155,-2.4425182395577427,2.8215461982280012
1789929401351505200,9.640505126953125,3.2391280516982075,-1.3939824155718088,3.2442624919772145
1789929401361531100,9.65053125,2.170811130182445,-0.02485387074947357,2.8971459213525055
1789929401371558100,9.66055810546875,2.8653324407234786,1.724061926677823,2.16031107121706
1789929401381584100,9.670584228515626,3.3720872001186013,3.154985541155934,1.297154318718612
1789929401391610000,9.680610107421876,3.699580786384642,3.8513147779017682,0.15352175171673296
1789929401401636000,9.690635986328125,3.889289119248092,4.020007210743427,-0.6335950596090406
1789929401411663000,9.7006630859375,3.9795243937075138,3.980329280349612,-1.0587533396828919
1789929401421689300,9.710689453125,3.785758894407749,4.139693912875652,-1.4467232411563395
1789929401431715300,9.72071533203125,3.596281447690725,4.471717543786764,-1.890162151069194
1789929401441742000,9.7307421875,3.5620705505311485,4.883739425042271,-2.2880463475093245
1789929401451768000,9.74076806640625,3.5662408219531176,5.3423932936131955,-2.6246494151651856
1789929401461794000,9.7507939453125,3.716234984065592,5.7463440966159105,-2.98827083812803
1789929401471820000,9.760820068359376,3.8414097622200845,6.110090899524092,-3.323246889103949
1789929401481846800,9.7708466796875,3.8405493459984656,6.329711555570364,-3.5571021144688126
1789929401491872800,9.780872802734375,3.666780632805824,6.508690404626726,-3.722702718774974
1789929401501898800,9.790898681640625,3.2614208397880193,6.673166096556186,-3.78806950943768
1789929401511924700,9.8009248046875,2.8076483135178685,6.8378808579385275,-3.6521295916408296
1789929401521951700,9.81095166015625,2.2568816861778496,7.062883207023144,-3.12823986531049
1789929401531977700,9.820977783203125,1.611357630778849,7.245225979554653,-2.4132366154938936
1789929401542003700,9.831003662109374,1.060503909677267,6.98754301161766,-1.7565999221891164
1789929401552029700,9.84102978515625,0.32358313482403755,5.87695083669126,-1.0923986388489604
1789929401562056700,9.851056640625,-1.5242539323434232,4.039068469566106,-0.5216666799860075
1789929401572082700,9.861082763671876,-4.5126843449473375,1.1870955688923597,0.21654939537476747
1789929401582108700,9.871108642578125,-8.19198309854269,-3.6301679352015253,1.6287816437885165
1789929401592135700,9.8811357421875,-11.099075828891992,-10.012523285722732,3.1806717710763213
1789929401602161700,9.89116162109375,-12.100117495775223,-17.160641474699972,5.119799759235978
1789929401612187600,9.901187744140625,-6.845152894768119,-22.00255894305706,6.250872996655106
1789929401622213600,9.911213623046875,-3.5275869739100334,-19.935100343060494,6.805941997364163
1789929401632241000,9.921240966796875,-4.61512414420247,-10.647699842369557,6.5265130615651605
1789929401642266600,9.9312666015625,-4.03260833364129,-2.267515308395028,4.9694467006832355
1789929401652292600,9.941292724609376,-3.0906364031031726,1.9679168602705002,3.1979379631757734
1789929401662318600,9.951318603515626,-2.103439721699059,4.348031542885304,1.1810730937324463
1789929401672345600,9.961345703125,-0.9035957303926349,4.902590840506553,-0.6664307959578931
1789929401682371600,9.97137158203125,0.6115922674417495,3.2973195439040657,-1.475016146443784
1789929401692397600,9.9813974609375,1.7767329018965363,0.7472288183778524,-1.0846017744276673
1789929401702423800,9.991423828125,3.4312639039695263,-1.1220505575299262,-1.1887027848932892
1789929401712450800,10.001450927734375,5.438001201021671,-2.7614818978875872,-1.570350935999304
1789929401722476800,10.011476806640625,7.415958978313207,-4.241369742020964,-1.7802087613135575
1789929401732502800,10.021502685546874,7.588972781485318,-4.570363211455941,-1.4694403921380639
1789929401742529500,10.031529541015624,4.478418502730131,-4.092738684955239,-1.2398225120820103
1789929401752555500,10.041555419921876,0.47696138641685243,-1.8667957423985004,-1.495801014188677
1789929401762581800,10.051581787109376,-2.986238163256645,1.490779240503907,-2.0831110732890665
1789929401772607700,10.061607666015625,-5.018766904169321,4.8995279458045955,-3.5239912875056265
1789929401782634800,10.071634765625,-2.9441549252867696,6.37460926643908,-4.949330379849672
1789929401792660700,10.08166064453125,-0.8441536536037921,5.9350581577450034,-5.915270922735333
1789929401802686700,10.091686767578125,1.8461437072530387,5.108037425249814,-6.488221617093682
1789929401812712700,10.101712646484375,3.722837451070547,3.776818047583103,-6.549594077423214
1789929401822739700,10.11173974609375,4.157501956766843,2.3215187012612817,-6.570801116102934
1789929401832765700,10.121765625,4.343536277292668,1.2836889802068472,-6.66519497154653
1789929401842791700,10.131791748046876,4.580404712998867,0.3734925363749265,-6.5078919477254145
1789929401852817700,10.141817626953125,5.0352165191888805,-0.43043432078063487,-5.5489785269975656
1789929401862844700,10.1518447265625,5.685372033780813,-0.8337316283106804,-4.180993014730513
1789929401872870700,10.16187060546875,5.5167175948619835,-0.6137234342515469,-2.544595342980325
1789929401882896600,10.171896728515625,3.92900825843513,-0.8201309729814529,-1.1027711259119213
1789929401892923600,10.181923583984375,2.028258370117098,-1.2369739907830952,0.08089826792404055
1789929401902950000,10.191949951171875,0.1491547886788845,-1.951120623770356,1.5906532809242606
1789929401912976000,10.201975830078124,-1.019713487996906,-4.76318763051331,7.714203089219331
1789929401923001900,10.212001953125,-1.9277613754928111,-2.6215730764597653,4.570856547930837
1789929401933028600,10.222028564453124,-0.6404173799097538,-0.4483545928746462,1.9332643568232655
1789929401943054600,10.2320546875,0.6596655396066605,-0.108769002276659,2.110209069703519
1789929401953080600,10.24208056640625,1.3668610382817685,0.292293093547225,1.8576358459956943
1789929401963106600,10.2521064453125,1.7113620195806025,0.5392202741920947,1.9973551362007855
1789929401973133800,10.2621337890625,1.7321791821599006,0.7408423322111368,1.902183282122016
1789929401983159800,10.272159912109375,1.2007026539623737,0.87718673915565,1.6235107176482677
1789929401993185800,10.282185791015625,0.2573077414164319,1.2514940990447998,1.1360920884944499
1789929402003211800,10.292211669921874,-0.34384967778325076,1.687554443013668,0.6129506963133812
1789929402013238800,10.30223876953125,-0.2974818943619728,1.7763631918013094,0.37702714024186135
1789929402023264800,10.3122646484375,0.07351878866460174,1.6601158164680003,0.407880543667078
1789929402033290800,10.322290771484376,0.4068178828716278,1.493321326202154,0.46898777718916534
1789929402043317800,10.33231787109375,0.580175384914875,1.3643150070607661,0.5920082999192178
1789929402053343700,10.34234375,0.6640285571217537,1.3211416357666252,0.6980535763204098
1789929402063369700,10.35236962890625,0.6521405509293079,1.344788468813896,0.7459962078429758
1789929402073395700,10.362395751953125,0.5225573086827993,1.4224480470776557,0.7382232357539236
1789929402083422700,10.372422607421875,0.16580544269587844,1.4534505035847425,0.6528001838818193
1789929402093448700,10.38244873046875,-0.3392810912260785,1.1876830133914946,0.5170855992734432
1789929402103474700,10.392474609375,-0.9502614738471805,0.7821265287578105,0.379921254248172
1789929402113500700,10.402500732421874,-1.715742426621914,0.6674193686038256,0.3267120804995298
1789929402123527700,10.412527587890626,-2.6559675134927034,0.8040741566717624,0.3247314280763268
1789929402133553700,10.4225537109375,-3.615210020044446,0.6052618953764438,0.5386680471368134
1789929402143579600,10.43257958984375,-4.409537274205684,-0.26425357849895953,1.17501905439049
1789929402153606700,10.442606689453125,-4.284131609904766,-1.2437193733900784,2.112679259209335
1789929402163632600,10.452632568359375,-3.289650616711378,-1.4453297409713268,2.8182053633674977
1789929402173658600,10.46265869140625,-2.073796716976911,-1.4021756588995455,3.1083038694798946
1789929402183684900,10.472684814453125,-1.0250661010712385,-1.1650567555636167,3.158407916820049
1789929402193711900,10.4827119140625,-0.01582125398814678,-1.2385364177942275,3.157693923331797
1789929402203737900,10.49273779296875,0.8840624701440334,-1.5452239473968743,3.273321997722983
1789929402213763800,10.502763916015626,1.1144014310162513,-1.7516338242143392,3.533313534863293
1789929402223789600,10.51278955078125,0.5692810659348965,-2.0864397793203593,4.048087057802081
1789929402233816600,10.522816650390626,-0.3643997869241982,-2.598874922439456,4.624628177867829
1789929402243842600,10.532842529296875,-1.0019675495564937,-3.358985434222221,4.878529581439495
1789929402253868800,10.542868896484375,-1.5156477243006228,-4.43106872253418,4.819415421430766
1789929402263895800,10.552895751953125,-2.49248726234138,-5.376746814113855,4.561502736391127
1789929402273921800,10.562921875,-4.0982799524694675,-6.283098272955417,3.9867873704478143
1789929402283947800,10.57294775390625,-5.610126530921459,-6.854786400032043,3.4007799183785914
1789929402293973800,10.582973876953124,-6.278287073281407,-6.809469002446532,2.845683737401664
1789929402304000500,10.59300048828125,-4.9789703158319,-6.006478549358248,2.4848896468192336
1789929402314026500,10.603026611328126,-3.585815583255887,-4.838604982808232,2.042631032732129
1789929402324052700,10.613052734375,-3.4382641381204126,-3.4558044709861275,1.155914979339391
1789929402334078700,10.62307861328125,-3.6241309931248424,-2.580070268726349,0.1429053728953004
1789929402344105700,10.633105712890625,-3.2692630777209994,-2.1771026315420863,-0.8820422163628041
1789929402354131700,10.643131591796875,-2.351973460757732,-1.9209230539053677,-2.0988192222915587
1789929402364157700,10.65315771484375,-1.3113164073228836,-2.1510294481307266,-3.3059488405615087
1789929402374183700,10.66318359375,0.47695006130523976,-2.396387187501788,-4.641783018547296
1789929402384211000,10.6732109375,1.8288195013560353,-2.7998002303659915,-5.9082601671904325
1789929402394237000,10.68323681640625,2.581528066319227,-2.9938562370449304,-6.632472851639986
1789929402404262700,10.6932626953125,2.8644167871832846,-2.844346643579006,-6.90182813719213
1789929402414289700,10.70328955078125,2.452778936809301,-2.7425831361502406,-7.0885939868628975
1789929402424315600,10.713315673828125,1.7309946485504506,-2.7808652282714843,-6.9911898436874145
1789929402434341600,10.723341552734375,1.645491078788042,-2.8796891751170155,-5.858116956883668
1789929402444367600,10.73336767578125,1.9767641835927963,-2.832121368256211,-3.956514981780946
1789929402454395000,10.743394775390625,1.6636849071264266,-3.139101743325591,-1.6979697463050483
1789929402464420900,10.7534208984375,1.7767206269368527,-3.0930466791152953,0.3344072381120175
1789929402474446800,10.76344677734375,2.3385502078220246,-2.6361557285636663,1.6922919929295777
1789929402484473000,10.77347314453125,2.8859903210878373,-1.8765964209228754,2.5130127484977245
1789929402494499800,10.783499755859374,3.1883573571428654,-0.6176929224044084,2.7012846188172697
1789929402504525800,10.79352587890625,3.444201419214904,0.8079010214835405,2.2021432570353148
1789929402514551800,10.8035517578125,3.637541386578977,2.4136428582072256,1.083388014723733
1789929402524578800,10.813578857421875,3.8007948432371017,3.520271390199661,0.23704912603534756
1789929402534605000,10.82360498046875,3.6716602215409275,3.8890684622347353,-0.6365769980292767
1789929402544631000,10.833631103515625,3.598320552302897,3.7731712155133486,-1.488076995807886
1789929402554657000,10.843656982421875,3.567250583517551,3.7906951817661523,-2.0605226632535456
1789929402564684000,10.85368408203125,3.537416586267948,3.8639468804597854,-2.4520082446977494
1789929402574710000,10.8637099609375,3.421629814183712,4.073447124508023,-2.830728452593088
1789929402584735700,10.87373583984375,3.3011566378489134,4.423181768676638,-3.174251382640004
1789929402594762800,10.8837626953125,3.2283415770068764,4.853913611099124,-3.4145369333133098
1789929402604789000,10.8937890625,3.252027573020756,5.322070052030682,-3.626517011478543
1789929402614815000,10.90381494140625,3.2694892876923083,5.742146060404181,-3.6959444757089015
1789929402624841000,10.913841064453125,3.2698809173583983,5.985121873074769,-3.6084102769017217
1789929402634868000,10.923867919921875,2.9979347385302186,6.162931678351759,-3.3896032753258942
1789929402644894000,10.93389404296875,2.5877941409766674,6.161108554577827,-2.9547242500960826
1789929402654920000,10.943919921875,2.1980556954607366,6.076649233171343,-2.4269737566843625
1789929402664946000,10.95394580078125,1.873394994533062,6.102361182054877,-1.9243619423128664
1789929402674973000,10.963972900390624,1.4346096095144747,6.153384097805619,-1.3983566851332783
1789929402684999000,10.9739990234375,1.0073691163390874,5.963947567620873,-0.832852945780009
1789929402695025000,10.98402490234375,0.19733955839425324,5.232725296670198,-0.09949925229120998
1789929402705052000,10.994052001953126,-1.4830826946519315,3.7517742072194813,0.6670923286065459
1789929402715078000,11.004077880859375,-3.7194986620366572,1.640425612092018,1.2135759448651224
1789929402725103900,11.014103759765625,-4.648690898239613,-1.4232821598142384,1.9263870183996854
1789929402735129900,11.0241298828125,-5.185119495886564,-6.022676235443353,2.565330964756012
1789929402745157000,11.0341572265625,-8.151467548280953,-10.841569386565684,2.7361542721465226
1789929402755183000,11.04418310546875,-9.66996189418435,-15.024220982158184,3.7391558409258723
1789929402765208800,11.054208740234374,-6.7014651393234725,-17.10982781778574,4.702228427159786
1789929402775235800,11.06423583984375,-4.431855781258642,-13.739917669445276,4.608802832226455
1789929402785261800,11.07426171875,-4.212353490895032,-6.723176620393991,3.9101699947133657
1789929402795287800,11.084287841796876,-3.0702851044699546,-1.9532447763174772,2.8294124015584585
1789929402805313800,11.094313720703125,-1.9203774027213454,1.0709078147917985,0.9915431861758232
1789929402815341000,11.104341064453125,-1.4534063721820711,3.141984605285525,-0.5121547187425196
1789929402825367000,11.114366943359375,-1.1469333621129394,3.899125161346793,-1.0363279381893575
1789929402835393000,11.12439306640625,0.35390345428586006,2.719376448085904,-0.43270394621305164
1789929402845419000,11.1344189453125,2.0515899997353553,1.0576906058222055,-0.17896310349795966
1789929402855445800,11.14444580078125,3.0647812463566657,-0.31427929990589615,-0.7416314367622137
1789929402865471700,11.1544716796875,4.094463024529815,-2.1478794596672057,-1.4688019481040537
1789929402875497700,11.164497802734376,4.886228611509502,-4.004826008224487,-2.082676335133612
1789929402885525000,11.17452490234375,4.25372478120327,-6.0594870859682555,-1.8049806528680026
1789929402895551000,11.184551025390626,1.9545345238670706,-7.708489972269534,-0.7943656864754856
1789929402905577000,11.194576904296875,1.5931624872662127,-5.263432569622993,-0.22519262922601774
1789929402915603000,11.20460302734375,1.8327473423242568,0.1780553044706583,-0.7687313328728079
1789929402925630000,11.2146298828125,0.4810030630230903,4.394153242591023,-1.413830002466589
1789929402935656000,11.224656005859375,-2.380721124075353,6.553789191025495,-2.6774372947618366
1789929402945682000,11.234681884765624,-3.3577482936426994,7.164377249860763,-4.120521594893932
1789929402955709000,11.244708984375,-1.436097509984672,6.731155344188213,-5.45991726475358
1789929402965735000,11.25473486328125,0.8380484685964882,5.509692810791731,-6.526570929232239
1789929402975761000,11.264760986328126,2.567626966738701,3.891001476123929,-6.958371862190962
1789929402985787000,11.274786865234375,3.723718910080194,2.291736141937971,-6.82228581392169
1789929402995814000,11.28481396484375,4.274186554473638,0.9465262328416109,-6.616617110860347
1789929403005840000,11.29483984375,4.882319621372223,-0.1580775153249502,-5.964813829061389
1789929403015865900,11.304865966796875,5.819317562890053,-0.7870119627118111,-4.626003265613317
1789929403025892900,11.314892822265625,5.468005878663063,-0.547377277162671,-2.8629715568110345
1789929403035918800,11.3249189453125,4.49608158519268,-0.33494507131576534,-1.452754045753181
1789929403045944800,11.33494482421875,2.747778951227665,-0.47324236589372154,-0.3187706930410117
1789929403055970800,11.344970703125,0.8778523634575307,-0.5570727417469025,0.8269372919954359
1789929403065997800,11.354997802734376,-0.15278700770139694,-1.1843687742769717,1.8529174391716718
1789929403076023800,11.36502392578125,-0.4790376812342554,-1.5219599761873484,2.5338988846600055
1789929403086050000,11.375050048828125,-0.3211269738435745,-1.3722142358779907,2.71567233287096
1789929403096077000,11.3850771484375,0.17729133436083794,-1.410022865268588,2.7866724532455205
1789929403106103000,11.39510302734375,0.9960195278722792,-1.3631751893758772,2.946313856886327
1789929403116129000,11.40512890625,1.5147580819845199,-1.1216256101161242,3.0267396849930286
1789929403126155000,11.415155029296875,1.483860254895687,-0.6706330699533224,2.9130308882266283
1789929403136181800,11.425181640625,1.139230751846358,-0.0417623354524374,2.507187695606053
1789929403146207700,11.435207763671874,0.941061537694931,0.5322796612739563,2.008706259037554
1789929403156234000,11.44523388671875,0.7994353909552097,0.9998667778849601,1.4859994588814676
1789929403166261000,11.455260986328126,0.5944388880670071,1.3892787679255008,0.9537186285637319
1789929403176287000,11.465286865234376,0.5566109694540501,1.590035149025917,0.5764245079487562
1789929403186313000,11.47531298828125,0.5946200898528099,1.834485125902295,0.37834976714774965
1789929403196339000,11.4853388671875,0.5126408948242664,1.9933254422932862,0.23435192284062503
1789929403206365700,11.49536572265625,0.5287690228044987,1.9748609803199766,0.10388912128061055
1789929403216391700,11.5053916015625,0.5713584567308425,1.844240796241164,0.10226108168736099
1789929403226418000,11.51541796875,0.48668695387840266,1.7219611550062894,0.07666574492082
1789929403236445000,11.52544482421875,0.2631868260502815,1.5306921486973761,-0.032780133704096076
1789929403246471000,11.535470947265624,-0.11047346810698508,1.1661369520157574,-0.07634864179566501
1789929403256497000,11.545496826171876,-0.5339928218673914,0.791275465375185,-0.1154854510501027
1789929403266523000,11.55552294921875,-0.9379835184890777,0.2865495814591646,-0.08747560048773884
1789929403276550000,11.5655498046875,-1.336043436822295,-0.27398119178712366,0.13465470029190182
1789929403286576000,11.575576171875,-1.8298763169325887,-0.511502246183157,0.5701096257135272
1789929403296602000,11.58560205078125,-2.7045190706938502,-0.3422545175462961,1.1605825327590107
1789929403306628900,11.59562890625,-3.779984987181425,-0.14024375247061252,1.777639787608385
1789929403316654800,11.60565478515625,-4.649677571189403,-0.3746101422280073,2.272138584281504
1789929403326680800,11.615680908203124,-4.690336329314112,-0.9858674786269664,2.7334783309355375
1789929403336706800,11.625706787109374,-3.57174731041491,-1.3427064018428325,3.0090216574728488
1789929403346733800,11.63573388671875,-1.9206413143545389,-1.4223247129589318,3.0307693789005277
1789929403356760000,11.645760009765626,-0.5357143118977546,-1.7827607838839292,3.119543056374788
1789929403366786000,11.6557861328125,0.5270849421750754,-1.8899416401863096,3.2025185689643023
1789929403376813000,11.66581298828125,1.046204020037502,-2.074010505858064,3.4220164754137397
1789929403386839000,11.675839111328125,1.0676865146577357,-2.362647414985299,3.872299113741517
1789929403396864800,11.68586474609375,0.4854336658816784,-2.6488854462772604,4.364493140603602
1789929403406890800,11.695890869140625,-0.657229983022809,-2.988015694323182,4.718823880390823
1789929403416917800,11.705917724609375,-1.5262813465178011,-3.843448866832256,4.743889640325308
1789929403426944000,11.715944091796874,-2.1340065632678566,-4.853016954520345,4.404399619056284
1789929403436970000,11.725969970703124,-2.785550755739212,-5.794645478448271,3.8720609210714696
1789929403446997000,11.7359970703125,-3.5221447828561065,-6.5196811697185035,3.3528973464801908
1789929403457023000,11.74602294921875,-4.529280090439319,-7.036101583081483,2.8307708304300903
1789929403467049000,11.756049072265625,-5.501090986663103,-7.141824641790985,2.1093173815608024
1789929403477075000,11.766074951171875,-5.266442857354879,-6.357194021257758,1.3109560495778918
1789929403487102500,11.7761025390625,-5.083420285865664,-4.421055278041958,0.5130491833642125
1789929403497128400,11.78612841796875,-4.743313301742076,-2.772721669304371,-0.33435309677198527
1789929403507154400,11.796154541015625,-3.927859088400006,-1.7034131064027547,-1.1440279960602522
1789929403517181400,11.806181396484375,-3.0673090112686157,-0.8418611587524414,-2.351402821262926
1789929403527207400,11.81620751953125,-2.0731284623265265,-1.0091904865473509,-3.7088603636443613
1789929403537233400,11.8262333984375,-0.5384557195603847,-1.5372428855150937,-5.176074604165554
1789929403547259400,11.83625927734375,0.814323163485527,-2.1687457220852373,-6.6512827660501
1789929403557286400,11.846286376953126,1.7970226796008646,-2.6342250527620314,-7.643586999726295
1789929403567312400,11.8563125,2.5354034440040585,-2.496492990851402,-8.119447439163922
1789929403577338400,11.86633837890625,3.015529724192619,-2.0743279012441636,-8.135467430594563
1789929403587365400,11.876365478515625,3.4248715725839136,-1.5764239723026752,-7.494902166646718
1789929403597391400,11.886391357421875,3.9549361881569025,-1.160570550060272,-6.164413441342115
1789929403607417300,11.896417236328125,3.8738665091887112,-1.3002210128128528,-3.5574925750911235
1789929403617444600,11.906444580078125,2.4865467663764953,-2.160231576240063,-0.8684909531332552
1789929403627470600,11.916470703125,1.779654050040245,-2.858470445999503,0.8767151030559093
1789929403637496600,11.92649658203125,0.9187269562900066,-3.1303982123881577,2.458428925395012
1789929403647522600,11.9365224609375,0.523143584138155,-2.88594765098989,3.674421502947807
1789929403657549300,11.94654931640625,1.589380776770413,-1.9806781421661377,3.7595354888707395
1789929403667575300,11.9565751953125,2.384143207478523,-0.8233926051259041,3.3246739992976186
1789929403677601300,11.966601318359375,3.0698306387007235,0.6080336981773377,1.7499048084646462
1789929403687628500,11.976628662109375,3.827342658422887,1.8625638039171695,0.07691190170161426
1789929403697654500,11.986654541015625,3.790378663162887,2.7200661839157343,-0.9826370453383773
1789929403707680500,11.996680419921875,3.500984798188507,3.332390272763371,-1.5441387825086712
1789929403717706500,12.00670654296875,3.361702876487374,3.9075405229926106,-2.113304551500827
1789929403727733200,12.016733154296874,3.32406463522762,4.409593972828984,-2.6030098302870988
1789929403737759200,12.02675927734375,3.3777041632175444,4.829091304531693,-3.0841391500383613
1789929403747785200,12.03678515625,3.312927739663422,5.289283050194382,-3.2488843065589665
1789929403757812500,12.0468125,3.284059080314636,5.6988516930788755,-3.3455604277208444
1789929403767838500,12.05683837890625,3.23840529038161,5.958442540463805,-3.240713859584927
1789929403777864400,12.066864501953125,3.237894418250024,6.034752457684278,-3.0119232241332528
1789929403787891500,12.076891357421875,3.1808006581529975,5.987189911520481,-2.7360323993325233
1789929403797917400,12.08691748046875,3.0018530810177326,5.760493033477664,-2.456425768879056
1789929403807943400,12.096943359375,2.7662711779907343,5.48363950112462,-2.2134303747251627
1789929403817969400,12.106969482421874,2.384289337950945,5.248708463221788,-2.007429370969534
1789929403827996400,12.116996337890624,1.9650445197045803,5.078827112856507,-1.7349410480886698
1789929403838022400,12.1270224609375,1.485742123119533,4.927591426250339,-1.2838776346467435
1789929403848048400,12.13704833984375,1.0711693883374334,4.788469955807924,-0.7545202905602753
1789929403858075400,12.147075439453126,0.48849751043170686,4.710886949911713,-0.15894545726589857
1789929403868101400,12.157101318359375,-0.18109774090647696,4.275556673783064,0.44973052087035026
1789929403878127400,12.16712744140625,-1.4454593587003648,3.1886464032173154,1.045047835739702
1789929403888154600,12.177154541015625,-3.19475465696454,1.178829260328412,1.700844132697582
1789929403898180600,12.1871806640625,-4.9351253288865085,-2.532322429123521,2.7847683731898663
1789929403908206300,12.197206298828124,-6.161079328483343,-7.019559613603353,3.665788406898081
1789929403918232300,12.207232421875,-7.643290062606334,-11.276177778160571,4.7430984899476165
1789929403928259300,12.21725927734375,-7.472596811336278,-14.249685054659842,6.162161278501153
1789929403938285300,12.227285400390626,-4.681631337071955,-14.307267475056648,6.435615231543779
1789929403948311300,12.237311279296875,-3.884682794496417,-10.770662205171584,5.267614239221811
1789929403958338600,12.247338623046875,-3.689373280625045,-5.1082946148812765,2.756435720413923
1789929403968364500,12.257364501953125,-3.164175102044642,-1.7094184842973947,0.3696885775147006
1789929403978390500,12.267390625,-3.0872014602184294,-0.49099780281484123,-2.0788757738068697
1789929403988416500,12.27741650390625,-2.6610826645493506,-1.086256190571189,-3.3879645682081576
1789929403998443300,12.287443359375,-1.7683061420738695,-2.182760218912363,-3.294676920440793
1789929404008469200,12.29746923828125,-0.8241656353250145,-2.9606594853639603,-2.8434727833539246
1789929404018495200,12.3074951171875,1.0627145714640616,-3.1381513107329604,-2.8613419097825883
1789929404028522500,12.3175224609375,3.18763050417304,-2.42504921836257,-2.6411945995137094
1789929404038548500,12.327548583984376,4.522338016216457,-1.2258604760944842,-1.2457955951422452
1789929404048574500,12.337574462890625,5.552870273739099,-0.34019173979759215,0.5088387991275638
1789929404058601500,12.3476015625,5.992530103504658,1.2681132254123686,0.7510178353972733
1789929404068627500,12.35762744140625,5.630342804998159,3.467679617697,-0.27727363919494674
1789929404078653400,12.3676533203125,3.5778467963337897,5.267056020817161,-0.8583760210279375
1789929404088679400,12.377679443359375,-0.39379911908358334,6.719209470328688,-1.5659139764651655
1789929404098706400,12.38770654296875,-3.8533831086084245,7.352966807827353,-2.75597511716485
1789929404108732400,12.397732421875,-2.0789386099100113,6.571984188407659,-4.476067263428867
1789929404118758400,12.40775830078125,1.3844751670360564,4.673545353510976,-6.1386138141751285
1789929404128785400,12.417785400390626,2.6058953225955364,2.5316870538294314,-6.8511524274438615
1789929404138811400,12.427811279296876,3.1399007847487925,0.4464882144808769,-6.759402949029207
1789929404148837400,12.43783740234375,3.787783678233623,-1.3105524372130632,-6.134954707145691
1789929404158864400,12.447864501953125,4.127858513653278,-2.6457471482515333,-5.5515024925172325
1789929404168890400,12.457890380859375,3.8156794008970256,-3.053493836405873,-4.490872326111793
1789929404178916400,12.467916259765625,2.9197943910121915,-2.3204864356040953,-2.8281705848038197
1789929404188943400,12.477943359375,2.2065711564801633,-1.1412766515254973,-1.2634554627344012
1789929404198969300,12.48796923828125,1.5862230433918534,-0.4907476274460554,-0.11516359868459403
1789929404208995300,12.497995361328124,1.5061691173374652,-0.12819792536795138,0.7235770899597554
1789929404219021300,12.508021240234376,1.4818587058149277,0.10608546228110789,1.2703412767253814
1789929404229048600,12.518048583984376,1.3792403351224958,0.015882628786563872,1.7245999790772795
1789929404239074600,12.528074462890626,1.498084156689793,-0.25149931086599825,2.0379237318240104
1789929404249100500,12.5381005859375,1.1940966067608445,-0.521284220007062,2.200933442854136
1789929404259127300,12.548127197265625,0.9636907911974936,-0.7462929988324641,2.2346982036814094
1789929404269153300,12.5581533203125,1.0270412005364895,-1.0688485441744326,2.3019321033902465
1789929404279179300,12.56817919921875,1.045544825476408,-0.8584078044056892,2.4015384327851232
1789929404289206500,12.57820654296875,0.9195487210016697,-0.26635318112671375,2.3744597255930304
1789929404299232500,12.588232421875,0.7601788277786224,0.3163619513988495,2.1521849017761645
1789929404309258500,12.598258544921874,0.6825286018650979,0.7306482704550027,1.9359280230745672
1789929404319284500,12.608284423828126,0.5681131911993026,1.0252841277360916,1.6577356433331965
1789929404329311500,12.6183115234375,0.5060088729312643,1.2570938187479972,1.2442894283629953
1789929404339337500,12.62833740234375,0.5036135387599467,1.4269167169243095,0.8929854890510439
1789929404349363200,12.63836328125,0.5456979457736015,1.4256687626898288,0.701165863122046
1789929404359390500,12.648390380859375,0.5381073445141316,1.4462942020893097,0.6652675973974168
1789929404369416400,12.65841650390625,0.43793549019098277,1.4320020573645829,0.6639969929397106
1789929404379442400,12.6684423828125,0.3569523204624653,1.4054180018216371,0.7210214871928096
1789929404389469400,12.678469482421875,0.2600321248790249,1.422561444324255,0.8205575278304517
1789929404399495400,12.688495361328124,0.09382453112304211,1.373590200406313,0.8533664492376148
1789929404409521400,12.698521484375,-0.143681910225749,1.1911930673390627,0.7907312754958867
1789929404419547400,12.70854736328125,-0.6179506965577602,0.7732096473306417,0.6528305790200829
1789929404429574400,12.718574462890626,-1.3238117317587137,-0.01414075355529785,0.6060071607857942
1789929404439600400,12.728600341796875,-2.2142349691063163,-0.8990624708771705,0.6910898747876286
