time,seconds_elapsed,z,y,x
1789665132128070000,0.06006982421875,0.76371993445158,-0.3877317818686366,-0.1137234828788787
1789665132138095900,0.070095947265625,0.7209685879617929,-0.3630488837718963,0.000946852396056056
1789665132148123100,0.080123046875,0.6538567071974277,-0.3278063054770231,0.146933094041422
1789665132158149000,0.090149169921875,0.7141138997614384,-0.7691381601080298,0.6026445524848997
1789665132168175000,0.100175048828125,0.9019196138739586,-0.4421434632748365,0.3087634590938687
1789665132178201900,0.110201904296875,0.866246827468276,-0.40828269472718237,0.27389738596118984
1789665132188227800,0.120227783203125,0.7076724685370922,-0.37466187241524457,0.07182349252142012
1789665132198254800,0.1302548828125,0.4808253683686256,-0.2235319842711091,0.014392097967863083
1789665132208280800,0.14028076171875,0.17314765868484974,-0.051292672602832316,0.19234876436963677
1789665132218307000,0.15030712890625,-0.099319036886096,0.14913812980502844,0.2567000213142484
1789665132228333800,0.160333740234375,-0.19093992048501968,0.2664908360317349,0.2238208842150867
1789665132238359800,0.17035986328125,-0.18696750972270965,0.28772739306688305,0.10785678280256689
1789665132248385800,0.1803857421875,-0.08754793507158756,0.27578414955586195,-0.018480244064331054
1789665132258412800,0.190412841796875,0.052063364714384074,0.19404110137075184,-0.07163249999396502
1789665132268438800,0.200438720703125,0.08877952269315718,0.052309156168997284,-0.0822615921664983
1789665132278466000,0.210466064453125,0.13866028267145156,-0.03946779477447271,-0.08391841946281492
1789665132288492000,0.220491943359375,0.1362321787416935,-0.09069587770849466,-0.019041677339375018
1789665132298518000,0.23051806640625,0.08289572535157202,-0.06412848103940487,0.00489047545529902
1789665132308544800,0.240544677734375,0.02367839722931385,-0.06900222455561161,0.074370400525257
1789665132318570800,0.25057080078125,-0.047487727361917496,-0.014570669405162334,0.16154511837027966
1789665132328596700,0.2605966796875,-0.07687047371268271,0.007555237685143947,0.12161401693299412
1789665132338624000,0.2706240234375,-0.012353870138525963,-0.02978051349669695,0.04986782743148505
1789665132348650000,0.28064990234375,0.009129647395014762,0.0033981180056929586,0.0943241512082517
1789665132358677000,0.290677001953125,-0.032819150540232656,0.027864743003249166,0.2110341756172478
1789665132368703000,0.300702880859375,-0.12402034742236137,0.04025602254271507,0.2652185510735959
1789665132378728700,0.310728759765625,-0.17093875046372412,0.06905600056946277,0.27914544268250463
1789665132388755500,0.32075537109375,-0.20241466970145702,0.044644028368592256,0.24306122593171894
1789665132398781400,0.330781494140625,-0.21249124255776405,0.009827566531300545,0.16315511085018514
1789665132408808700,0.34080859375,-0.1700689818918705,-0.013633388555049895,0.14032770442701875
1789665132418834700,0.350834716796875,-0.16335750155448914,-0.03580371930897236,0.11821977138482033
1789665132428860700,0.360860595703125,-0.2952536969184875,-0.0767272658497095,0.07222067514546215
1789665132438887700,0.3708876953125,-0.4329752374351024,-0.053261634588241576,0.1500951382689178
1789665132448913700,0.38091357421875,-0.5952899519383907,0.023584873726963995,0.24697416159175334
1789665132458939600,0.390939697265625,-0.7695119618564844,0.03267302006781101,0.2862487718816846
1789665132468966700,0.400966552734375,-0.8266869704961777,0.04697714749127626,0.2479803429596126
1789665132478992600,0.41099267578125,-0.733874246764183,0.038138299736380575,0.06525120145902037
1789665132489019600,0.42101953125,-0.7033230411559342,-0.011292378386855125,-0.08212539856620132
1789665132499045600,0.431045654296875,-0.5925374383598566,0.035620763957500454,-0.09344787983037531
1789665132509071600,0.441071533203125,-0.5182721787095069,0.06854980461299419,-0.13495865167453885
1789665132519098600,0.4510986328125,-0.3132756758213043,0.16523381682038307,-0.11511442578062414
1789665132529124900,0.461124755859375,-0.14782500137984753,0.14251315870732068,-0.1748917989384383
1789665132539150600,0.471150634765625,0.0030167174726724623,0.09656418522000312,-0.17513517924025654
1789665132549177600,0.481177490234375,0.29292028553485866,0.1060132738277316,-0.16405885475687682
1789665132559203600,0.49120361328125,0.5418599750459194,0.11919248887449502,-0.12847747296169398
1789665132569230600,0.501230712890625,0.7008423302561044,0.12833207314163445,-0.115896589134261
1789665132579256600,0.511256591796875,0.8031903595745563,0.1592176252707839,-0.12495244064070284
1789665132589282600,0.521282470703125,0.8400193302780389,0.15006985769718884,-0.15319427332803606
1789665132599309600,0.5313095703125,0.8931950401484966,0.14206336911320686,-0.22258462041839955
1789665132609335600,0.54133544921875,0.915540727469325,0.09718202485740184,-0.25335246445201337
1789665132619361500,0.551361572265625,0.8154407693386078,0.10314034873992205,-0.1833278380461037
1789665132629388500,0.561388427734375,0.6735165164351463,0.1677966530457139,-0.038140637823939325
1789665132639414500,0.57141455078125,0.5244283632516861,0.19807576371431349,0.03044116936251521
1789665132649441800,0.58144189453125,0.40850013687014575,0.2302247599080205,0.003794423846900463
1789665132659467800,0.5914677734375,0.2777040117025375,0.21608079148232937,-0.07412387841828166
1789665132669493800,0.60149365234375,0.17722995956242082,0.1432470259398222,-0.16849186876825986
1789665132679520500,0.6115205078125,0.13407704653441904,0.08418313481360673,-0.2307596705023199
1789665132689546500,0.62154638671875,-0.041732524836063385,-0.0009846271231770515,-0.19505203197896478
1789665132699573500,0.631573486328125,-0.21740122643113136,-0.12192483644783496,-0.10245287793241441
1789665132709599700,0.641599853515625,-0.40433951005935664,-0.3126572516620159,0.036481983896717425
1789665132719625700,0.651625732421875,-0.4421493084937334,-0.5132765623793005,-0.04489895297773182
1789665132729652700,0.66165283203125,-0.8077923004120587,-0.48266573553830383,-0.381484631107375
1789665132739678700,0.6716787109375,-1.1081792685657739,-0.6715285574883222,-0.5745929086074233
1789665132749704700,0.68170458984375,-1.6310639095067978,-1.162862752650678,-0.9297022315517067
1789665132759731500,0.6917314453125,-2.1000684917002914,-1.5320339186951517,-1.0316977941706775
1789665132769757400,0.70175732421875,-2.551098441264033,-1.7586098007068036,-0.702429453317076
1789665132779784700,0.71178466796875,-2.956562571439147,-1.9287585698366163,-0.3685121541464701
1789665132789810700,0.721810791015625,-3.4988790580809113,-2.3165718925088643,-0.233708327707462
1789665132799836700,0.731836669921875,-4.032662694177032,-2.6980653645098207,-0.15953100206889212
1789665132809863700,0.74186376953125,-4.732794245815277,-2.9782305056288836,-0.29101825130581854
1789665132819889700,0.7518896484375,-5.374995002010464,-3.1673233369424936,-0.52012460164316
1789665132829915600,0.76191552734375,-6.104951198548078,-3.249957781009376,-0.6694901835285126
1789665132839942700,0.771942626953125,-6.88821403785944,-3.2458526837781068,-0.8672087313029915
1789665132849968600,0.78196875,-7.473757087287306,-3.0758912539139387,-1.087614034920931
1789665132859995600,0.79199560546875,-8.195905240422487,-2.931617515274882,-1.2056000706151127
1789665132870021600,0.802021728515625,-8.983363193336128,-2.9079569459632038,-1.2005283203087747
1789665132880047600,0.812047607421875,-9.3991447193861,-2.9885747895106674,-1.1593515296593309
1789665132890074600,0.82207470703125,-9.755838681173325,-3.125078186409175,-0.9226080355070531
1789665132900100600,0.8321005859375,-9.935775561606883,-3.2007153189346194,-0.4533613151207566
1789665132910126600,0.842126708984375,-9.780524794140458,-3.3468758942335843,-0.05172185780033469
1789665132920153600,0.852153564453125,-9.269467369115352,-3.7336853005602952,0.015813655203580856
1789665132930179600,0.8621796875,-8.461542382234335,-4.228858050972223,-0.13987404237538575
1789665132940206600,0.87220654296875,-7.341846863397955,-4.707693706828356,-0.21422990291863678
1789665132950232600,0.882232666015625,-5.879940666157007,-5.141890595012903,-0.11928981176912784
1789665132960258800,0.8922587890625,-4.127651592904329,-5.927103399348258,-0.03678133216947317
1789665132970285600,0.90228564453125,-2.1864064664602276,-6.724659552428126,-0.3730561907842755
1789665132980311600,0.9123115234375,-0.15078677379488944,-7.239191375565529,-0.7325006203234196
1789665132990337500,0.922337646484375,1.6182570349037646,-7.426954419580102,-0.9777329797491431
1789665133000364500,0.932364501953125,3.037596594572067,-7.2743410148799414,-1.4120494026601313
1789665133010390500,0.942390625,4.003452381783724,-6.766187494602799,-1.6066811634004114
1789665133020417800,0.952417724609375,4.203078297549486,-5.984603986680507,-1.8046493750870227
1789665133030443800,0.96244384765625,4.034509783348441,-5.123249022907018,-1.8857494491934774
1789665133040469800,0.9724697265625,3.812731072485447,-4.3083065584793685,-2.0027555339395997
1789665133050496500,0.98249658203125,3.652255848369002,-3.566668691976368,-2.015981510737538
1789665133060522500,0.9925224609375,3.6741146289557216,-3.094453331042826,-2.2264766110420227
1789665133070548500,1.002548583984375,4.048122129115462,-3.162684278964996,-3.1462212199419737
1789665133080575700,1.01257568359375,3.972085183617472,-3.0782483384341,-3.358793711042404
1789665133090601700,1.022601806640625,3.9939527320325374,-3.0328549530029294,-3.0528426790207623
1789665133100628700,1.032628662109375,4.137015633577108,-3.1029864738494157,-3.2874095597863193
1789665133110654700,1.04265478515625,4.228867403322458,-3.1868548436254263,-3.54293330386281
1789665133120680400,1.052680419921875,4.0067970160365105,-3.1088299391806125,-3.475471879008412
1789665133130707500,1.06270751953125,3.994928883588314,-3.013172931933403,-3.6714457020074125
1789665133140733700,1.072733642578125,4.069813151919842,-2.89693257086277,-3.883789060527086
1789665133150759700,1.082759765625,4.059472667430341,-2.580650114440918,-3.9787978329986333
1789665133160786700,1.09278662109375,4.157725244128704,-2.293458727946877,-4.035882825267315
1789665133170812700,1.102812744140625,4.418804284244776,-2.1714853761821984,-4.186878857898712
1789665133180839400,1.11283935546875,4.795274959647656,-2.057261615630984,-3.8460494047194715
1789665133190865400,1.122865478515625,5.304148026371002,-1.829544746890664,-3.610634382691979
1789665133200891600,1.1328916015625,5.8470618943840265,-1.625108215972781,-3.4922862356871365
1789665133210918700,1.142918701171875,6.210187350523471,-1.4893758034467697,-3.4715848084419965
1789665133220944600,1.152944580078125,6.269276668351888,-1.250814884608984,-3.3215205037027595
1789665133230970600,1.162970703125,6.26494711471498,-0.9539812250226736,-3.1406957345187663
1789665133240997600,1.17299755859375,5.915872395759821,-0.6087362934887409,-2.8696675473183393
1789665133251023600,1.183023681640625,5.5914229994952676,-0.28583763379752636,-2.84126212156713
1789665133261050600,1.193050537109375,5.171779537320137,-0.17763970940709112,-3.4147312868416306
1789665133271076600,1.20307666015625,4.665028285056352,-0.06651976009011268,-3.530622688344121
1789665133281102600,1.2131025390625,4.353432525146007,0.06924538566172123,-3.3777737213224173
1789665133291129600,1.223129638671875,4.199695669373869,0.07229951253533363,-3.3058336897492406
1789665133301155600,1.233155517578125,4.091752012005448,0.019859131202101706,-3.262218419906497
1789665133311181600,1.243181640625,4.008915907886624,0.042705753782391546,-3.199177734103799
1789665133321208800,1.253208740234375,3.7469770360708234,0.17920388998389242,-3.148319069004059
1789665133331234800,1.26323486328125,3.199979113614559,0.44533027661740776,-3.108782008385658
1789665133341261600,1.273261474609375,2.5153642800599334,0.8154390157729386,-2.852649192500114
1789665133351287600,1.28328759765625,1.953863784998655,1.1681038681745528,-2.4169009832203385
1789665133361313500,1.2933134765625,1.4925684620082378,1.4733634108006954,-2.017628693422675
1789665133371340500,1.303340576171875,1.2312503524392842,1.6668430788964033,-1.7714818495005369
1789665133381366800,1.31336669921875,1.1742086147904396,1.6686381456196306,-1.694706652855873
1789665133391393800,1.323393798828125,1.1583388454854489,1.6086457414716482,-1.6437147167652844
1789665133401419800,1.333419677734375,1.1945955692589283,1.530382936617732,-1.6530869407445192
1789665133411445800,1.34344580078125,1.2269073547989129,1.4141080887556075,-1.6653408576399087
1789665133421472800,1.35347265625,1.2404133175820111,1.410386437883973,-1.600822500500083
1789665133431498800,1.363498779296875,1.2101081226240842,1.4296253913611172,-1.47154554772377
1789665133441524700,1.373524658203125,1.1340069527834653,1.4080395824968814,-1.4064052592933176
1789665133451551700,1.3835517578125,1.001222868669033,1.3134592645704746,-1.403041920340061
1789665133461578000,1.393577880859375,0.8747657225538045,1.1986077275097369,-1.3455045081287622
1789665133471604000,1.40360400390625,0.8148866425871849,1.0998790577322244,-1.2592565497398376
1789665133481630700,1.413630615234375,0.795404528003931,0.9547820200115442,-1.1974229016393423
1789665133491656700,1.42365673828125,0.7962906631886959,0.8962538431972265,-0.9950848043054342
1789665133501683700,1.43368359375,0.84954762160182,0.8703846579253673,-0.7958154468923807
1789665133511709700,1.443709716796875,0.892278509825468,0.8159072178065776,-0.6860515883594751
1789665133521735700,1.453735595703125,0.9280049991797655,0.6527268263846635,-0.6876292129397392
1789665133531763000,1.463762939453125,0.9706271663319319,0.47581250864267344,-0.7551157722353935
1789665133541789000,1.473788818359375,0.8369980096954852,0.3958849854469299,-0.6493664100408554
1789665133551815000,1.48381494140625,0.5960158550601452,0.3490267881602049,-0.46336043882668015
1789665133561841700,1.493841552734375,0.31000527584850784,0.3246101397842169,-0.3528594981908798
1789665133571867600,1.50386767578125,0.024260069574788212,0.3733452368587255,-0.21757190682291982
1789665133581895000,1.51389501953125,-0.24835692118704317,0.4437999983102083,-0.037593525335192675
1789665133591921000,1.5239208984375,-0.4080469862751662,0.5339531474441289,0.059226095950603484
1789665133601947000,1.53394677734375,-0.5177876100629568,0.6392647027432918,0.11619944453835487
1789665133611974000,1.543973876953125,-0.6029647243499755,0.6641665042877197,0.12542962969839572
1789665133621999600,1.55399951171875,-0.6951625310540199,0.6448737747967243,0.0665279433965683
1789665133632025600,1.564025634765625,-0.7030360409080981,0.5749491746991873,0.07529168008863925
1789665133642052900,1.574052978515625,-0.7032832936674356,0.523273932519555,0.12210954536497592
1789665133652078800,1.584078857421875,-0.6660633508849889,0.33902328054010866,0.04673135603666305
1789665133662105900,1.59410595703125,-0.5946639289945364,0.18675708184242248,0.0827273830473423
1789665133672131800,1.6041318359375,-0.5387197773240506,0.048722237592935556,0.17586568547189235
1789665133682157800,1.61415771484375,-0.45563897772915657,-0.08604454477131367,0.24151158533692357
1789665133692184600,1.6241845703125,-0.38212300207614897,-0.20093173766732214,0.2187619933903217
1789665133702210800,1.6342109375,-0.3290606894522905,-0.29816344688534735,0.1892968294531107
1789665133712236800,1.64423681640625,-0.30268063204884527,-0.2921054620206356,0.20319266833662986
1789665133722263800,1.654263916015625,-0.2719451559148729,-0.27796061681210993,0.17436872491240502
1789665133732289800,1.664289794921875,-0.25667422928586603,-0.2805184846013784,0.08341770339906215
1789665133742316800,1.67431689453125,-0.29801614736914633,-0.33257892670631406,0.09301905995905399
1789665133752342800,1.6843427734375,-0.31772271835803984,-0.3530927224248647,0.13268880704641342
1789665133762368800,1.69436865234375,-0.32622634280920026,-0.38214053773283957,0.1381096630513668
1789665133772395800,1.704395751953125,-0.3745914375275373,-0.43334933144450183,0.09819733937978745
1789665133782421800,1.714421875,-0.4606459922362119,-0.4189169014662504,0.16544190661311148
1789665133792447700,1.72444775390625,-0.5455951429862529,-0.37852059367001056,0.29504911425709723
1789665133802474800,1.734474853515625,-0.6343951239455491,-0.34566052659749985,0.41634968132674693
1789665133812500700,1.744500732421875,-0.6545342411328107,-0.31583471265435215,0.4560030618011951
1789665133822526700,1.754526611328125,-0.7078424182765185,-0.31495500721037384,0.49231823776364325
1789665133832554000,1.764553955078125,-0.6824661310881376,-0.33460078792273995,0.5503577542781829
1789665133842580000,1.774580078125,-0.5806782198704779,-0.35403847884237766,0.5780740287214517
1789665133852606700,1.784606689453125,-0.4339760850407183,-0.42807285234630105,0.5864987427175045
1789665133862632700,1.7946328125,-0.3320890973627567,-0.5156804086506367,0.6450771884143353
1789665133872658700,1.80465869140625,-0.15745331901200116,-0.6459481260299682,0.6066214932918548
1789665133882686000,1.81468603515625,-0.06275653509907424,-0.6542471678197384,0.6729337481111287
1789665133892712000,1.8247119140625,-0.02563420747220516,-0.5842483334422112,0.7244418170303106
1789665133902738000,1.834738037109375,0.02594751120507717,-0.5535258629202843,0.7144312951475381
1789665133912764700,1.8447646484375,0.10507358182482421,-0.543199699217081,0.6959639105647802
1789665133922790700,1.854790771484375,0.09171784116737544,-0.5854325747907161,0.5750888754308223
1789665133932817700,1.864817626953125,0.0935199952185154,-0.7189204232603311,0.40796062316596504
1789665133942843600,1.87484375,-0.024466259671375154,-0.8303530917882919,0.35394553986191746
1789665133952870000,1.884869873046875,-0.0749287650603801,-0.8352198210418224,0.37975335033535956
1789665133962897000,1.89489697265625,-0.0363157604843378,-0.7017921783268452,0.45501288172006604
1789665133972923000,1.9049228515625,-0.2985977466493845,-0.7339888130545615,0.2946405334562063
1789665133982948900,1.914948974609375,-0.0879957519043237,-0.6921995895951986,0.669399144244194
1789665133992975600,1.9249755859375,-0.15044424396753311,-0.5546978293091058,0.5482803634822369
1789665134003001600,1.935001708984375,0.02957030481211841,-0.5925158110499381,0.5684831935554743
1789665134013028900,1.94502880859375,0.030513723142072558,-0.5464899729341268,0.482911526992917
1789665134023054800,1.955054931640625,0.11931611525416373,-0.4700450311571359,0.5833581066042185
1789665134033080800,1.965080810546875,0.030453517387434837,-0.3868278187662363,0.6754466077148914
1789665134043107800,1.97510791015625,0.1318874275356531,-0.24784254192411898,0.7032552366167306
1789665134053133800,1.9851337890625,0.011269582033157349,-0.2392453939706087,0.7076590245336294
1789665134063159800,1.995159912109375,0.006776289201900362,-0.22548282607793807,0.6578817249298096
1789665134073186800,2.005186767578125,0.04330547324120998,-0.09994798243939876,0.7584832028418779
1789665134083212800,2.015212890625,0.0069254153490066524,0.010867430973052978,0.7792635405421257
1789665134093238800,2.02523876953125,0.04698036236166954,-0.04735036471784115,0.7445575533419847
1789665134103265800,2.035265869140625,0.2318032612711191,-0.12187222947776317,0.7167763969689607
1789665134113291800,2.045291748046875,0.5001286192536354,-0.26313655716776846,0.5170686481386423
1789665134123318800,2.05531884765625,0.6294711846120655,-0.34051205779314037,0.1613420700788498
1789665134133344800,2.0653447265625,0.6251384891699999,-0.42746728766858577,-0.2228361109614372
1789665134143370800,2.075370849609375,0.5075356075745076,-0.2747036608427763,-0.4457768513411283
1789665134153397800,2.085397705078125,0.29052184609100223,0.04034019369482994,-0.5197545262217521
1789665134163423700,2.095423828125,-0.12190189396366476,0.35840485735833644,-0.5249772293061018
1789665134173449700,2.10544970703125,-0.26928908844813704,0.8054775937288999,-0.4328986650675535
1789665134183476700,2.115476806640625,-0.46259763776063917,1.1350023935616016,-0.28299568836987016
1789665134193503000,2.1255029296875,-0.5993547171592712,1.274199851849675,-0.2212777756035328
1789665134203529700,2.13552978515625,-0.6597627894360572,1.2445634229987859,-0.17132804204225538
1789665134213555700,2.1455556640625,-0.6896775237716734,1.0877449678242206,-0.28641280333697794
1789665134223581700,2.155581787109375,-0.6540770719498396,0.8135042483180761,-0.38932606532275676
1789665134233608700,2.165608642578125,-0.6672801062636077,0.5604273128718137,-0.45524084525704384
1789665134243634700,2.175634765625,-0.6627735886245966,0.39011166274249554,-0.5063385798096657
1789665134253660700,2.18566064453125,-0.6682109573729336,0.301429755204916,-0.4671270978838205
1789665134263688000,2.19568798828125,-0.7155313653439282,0.25416005450785156,-0.4380705147475004
1789665134273714000,2.2057138671875,-0.7674047604441643,0.12919395066797731,-0.46087622079551216
1789665134283740000,2.215739990234375,-0.6408538716308773,0.10374269854724406,-0.45040334209799765
1789665134293766700,2.2257666015625,-0.3981558529883623,0.22647359068095682,-0.4918927058279514
1789665134303792600,2.235792724609375,-0.19168635493814945,0.461223426797986,-0.5024789817720652
1789665134313820000,2.24581982421875,-0.05594517458379268,0.7570932097882032,-0.466359620642662
1789665134323846000,2.255845947265625,0.08311667462587356,0.9458850123286247,-0.46681671676039693
1789665134333871900,2.265871826171875,0.21618059859499333,1.0351040954828261,-0.43615211390554903
1789665134343899000,2.27589892578125,0.4957002814173698,1.3342828568905591,-0.6974971114814281
1789665134353924900,2.2859248046875,0.7710521770358085,1.9082295765489339,-0.6311258199512958
1789665134363950800,2.295950927734375,0.6963635774068534,2.206855964770913,-0.5604653067946433
1789665134373977900,2.305977783203125,0.6607439824931323,2.5371190157502888,-0.5268599743127823
1789665134384004400,2.31600439453125,0.6502927311055362,3.076726243433356,-0.47949382750391956
1789665134394031400,2.32603125,0.4474089825876057,3.5252404107838866,-0.28689620293974877
1789665134404057300,2.336057373046875,0.23977628597691653,3.740077339684963,-0.1245937633961439
1789665134414083300,2.346083251953125,0.25213337098583577,3.8884354250282045,0.07324877608418465
1789665134424110000,2.356110107421875,0.3573205692529678,3.950351490715146,0.09102233318388461
1789665134434136300,2.36613623046875,0.5011236216403544,3.961235872823,0.05998305179774761
1789665134444162300,2.376162353515625,0.7957511494845152,3.882223126384616,-0.03026888153553009
1789665134454189300,2.386189208984375,1.0501122064571826,3.7600592204838987,-0.41354748338758945
1789665134464215300,2.39621533203125,1.1820990027140825,3.7076346212416884,-0.7805635172247887
1789665134474241300,2.4062412109375,1.3875257867783308,3.5513276227205988,-0.9889560922920704
1789665134484268300,2.416268310546875,1.1677245134681462,3.3008857119530437,-1.3078899400055408
1789665134494294300,2.426294189453125,1.2569792524576187,2.663539994573593,-1.8044161508530376
1789665134504321300,2.4363212890625,2.1645786655336616,2.25643335788846,-2.0670453430205584
1789665134514347300,2.44634716796875,1.9352526080310344,1.5785551391124724,-2.0894845538437363
1789665134524373200,2.456373291015625,2.596444480422139,1.115581069254875,-2.655610370618105
1789665134534400300,2.466400146484375,3.0716245363801717,0.7491559870481491,-3.351232920399308
1789665134544426200,2.47642626953125,3.6432132947355504,0.4110872307538986,-4.092012708768248
1789665134554452200,2.4864521484375,4.354196495255827,0.3084843498915434,-4.847047816982865
1789665134564479200,2.496479248046875,4.77529249432683,0.1168430031388998,-5.511500152474642
1789665134574505200,2.506505126953125,4.9007121871531005,-0.08407704409062862,-6.11798369860053
1789665134584531200,2.51653125,4.825862990134954,-0.2638058347314596,-6.630832683217525
1789665134594558200,2.52655810546875,4.7608302537322045,-0.47736382973790165,-7.047742336514592
1789665134604584200,2.536584228515625,4.740667755669355,-0.7691074727088213,-7.4405585820406674
1789665134614611500,2.546611572265625,5.006956054866314,-1.0490648162961005,-7.7253756406188
1789665134625264000,2.55726416015625,5.462366411471367,-1.0402958189070224,-7.736687308228015
1789665134635291400,2.56729150390625,5.849158574402332,-0.5838350764662027,-7.340451609647274
1789665134645317400,2.5773173828125,5.959460193073749,0.13183482056558132,-6.653087185123562
1789665134655343400,2.58734326171875,5.7962955837428565,0.9488672430098056,-6.018663492670655
1789665134665370000,2.5973701171875,5.3440334620356555,1.729945724019408,-5.4953100651741025
1789665134675396000,2.60739599609375,4.70964484089613,2.327058799731731,-4.998965640634298
1789665134685422000,2.617422119140625,4.094748855733871,2.586550278395414,-4.717678509747982
1789665134695449300,2.627449462890625,3.580522737544775,2.455026423475146,-4.6530774427607655
1789665134705475300,2.637475341796875,3.4433038858532905,2.0845605414450166,-4.708469659636915
1789665134715501300,2.647501220703125,3.503592642599344,1.5911843190610409,-4.866059683705866
1789665134725528300,2.6575283203125,3.599508008521795,1.0010323145329951,-5.05330864071846
1789665134735554300,2.66755419921875,3.7073955517888066,0.4390361449092626,-5.05457646869719
1789665134745581300,2.677581298828125,3.8480771111547947,-0.08900690170824527,-4.934864047601819
1789665134755607300,2.687607177734375,4.032644573998451,-0.6248533155530691,-4.786884147921204
1789665134765633300,2.69763330078125,4.200891016638279,-1.1289958466231822,-4.687094570913911
1789665134775660300,2.707660400390625,4.275463150280713,-1.5556617547810077,-4.4709412987172605
1789665134785686300,2.717686279296875,4.192607172417641,-1.8654992728471755,-3.9710383049130438
1789665134795712300,2.727712158203125,4.054201741290092,-2.0281892504036425,-3.3526842882513996
1789665134805739500,2.737739501953125,3.7906291307926177,-2.1733330498754975,-2.7445307630866767
1789665134815765500,2.747765625,3.442472111204266,-2.4976836619406937,-2.384753448331356
1789665134825791200,2.757791259765625,3.106644996356964,-3.0044045190662145,-2.2339403710514305
1789665134835818200,2.767818359375,2.8712860884308813,-3.4127491731137036,-1.9824948361992836
1789665134845844200,2.77784423828125,2.783328988036513,-3.6415392240434885,-1.6106985823482274
1789665134855871200,2.787871337890625,2.6330513328075407,-3.7507688295692203,-1.0811042146354912
1789665134865897200,2.797897216796875,2.3710125077486035,-3.77691683178246,-0.5240244586259126
1789665134875923500,2.80792333984375,2.0053432123452426,-3.7363153568029404,0.059334817022085186
1789665134885950200,2.8179501953125,1.653710041078925,-3.629047991260886,0.651772886660695
1789665134895976200,2.82797607421875,1.301408761292696,-3.4599276883959766,1.2179612472772599
1789665134906002200,2.838002197265625,1.0203086774110794,-3.2047581645846366,1.736272004431486
1789665134916029200,2.848029296875,0.6693260790079831,-2.9644945334821937,2.188470997774601
1789665134926055200,2.85805517578125,0.37943007319774474,-2.6966908612862226,2.7483593814641236
1789665134936081200,2.8680810546875,0.1791436476966366,-2.3413351623654366,3.3809833310186863
1789665134946108400,2.8781083984375,0.043238180158659816,-2.0686106926411387,3.968616630724072
1789665134956134400,2.888134521484375,-0.03890815159771591,-1.9600608860731124,4.4771787318021055
1789665134966161200,2.8981611328125,-0.06037468146383762,-1.9378256733894348,4.890234047758579
1789665134976187100,2.908187255859375,-0.00229658650457859,-2.0190768464043733,5.156228332445025
1789665134986213000,2.918213134765625,0.07942359226159751,-2.128595205743611,5.2952855054795736
1789665134996240400,2.928240478515625,0.08100823110453784,-2.326675061111152,5.4015808111190795
1789665135006266400,2.938266357421875,0.18333587522208689,-2.379783258703351,5.513590987274051
1789665135016292400,2.948292236328125,0.2172415788900107,-2.284956857061386,5.636686621066928
1789665135026319400,2.9583193359375,0.11177293333299457,-2.175744202670455,5.709308205163478
1789665135036345300,2.968345458984375,-0.05168349855132401,-2.1585545829385517,5.673968596234917
1789665135046372000,2.9783720703125,-0.1592763697206974,-2.2015555202752353,5.52828820566833
1789665135056398300,2.9883984375,-0.32058870224840935,-2.2586782142058013,5.240624525487423
1789665135066424300,2.99842431640625,-0.45683366740643977,-2.4400761071026325,4.853053194877505
1789665135076451300,3.008451416015625,-0.44998774703443045,-2.708364055684209,4.460090234357119
1789665135086477300,3.018477294921875,-0.45260819519851353,-2.9023811916574833,4.192553396403789
1789665135096503300,3.02850341796875,-0.44734340653810645,-3.0484950052052735,3.972876626256108
1789665135106530300,3.0385302734375,-0.48716454479489474,-3.2053163829892872,3.8449867439240215
1789665135116556300,3.048556396484375,-0.5393576733687893,-3.3454245263814926,3.7416876974910496
1789665135126582300,3.058582275390625,-0.5150777665823698,-3.4756577569693325,3.5986394089937206
1789665135136609300,3.068609375,-0.48102878198623655,-3.7144288114264605,3.365672364640236
1789665135146635300,3.07863525390625,-0.48931087264120576,-4.0079163754552605,3.1869775932222604
1789665135156661200,3.0886611328125,-0.4783475800782442,-4.223712504777312,2.957524694469571
1789665135166688300,3.098688232421875,-0.521256162956357,-4.460053993999958,2.687187996664643
1789665135176714200,3.10871435546875,-0.5983177753269672,-4.7899242462694644,2.3240572798281907
1789665135186741200,3.1187412109375,-0.5990612871706485,-5.149060340511799,1.9676555789858101
1789665135196767200,3.128767333984375,-0.4850350950181484,-5.4058443137824534,1.7142746921569108
1789665135206793200,3.138793212890625,-0.25946983308745547,-5.493390495288372,1.6463579247504472
1789665135216820200,3.1488203125,-0.05842647000551223,-5.455595894423126,1.5604992579400538
1789665135226846200,3.15884619140625,-0.30798980784025043,-5.415151655831933,1.5016513476520776
1789665135236872200,3.1688720703125,-1.0563087960749864,-5.571924518299102,1.3314280519813297
1789665135246899500,3.1788994140625,-1.962445150861144,-5.727002851808071,1.3228162909805774
1789665135256925400,3.188925537109375,-2.6286516365438697,-5.481209643629193,1.6023399193257093
1789665135266951400,3.198951416015625,-3.001792875263095,-5.123863939934969,1.8729221163243055
1789665135276978200,3.208978271484375,-3.097293230643868,-4.696578730835021,2.109168913000822
1789665135287004200,3.219004150390625,-2.8357021493524313,-4.211977351059019,2.2731939385533333
1789665135297031400,3.229031494140625,-2.504248427283764,-3.9108492091491818,2.2758178573161363
1789665135307057400,3.239057373046875,-2.3261931228131054,-3.991789708779752,2.136088484108448
1789665135317083400,3.24908349609375,-2.177870108783245,-4.312763245627284,1.810143296328187
1789665135327110400,3.2591103515625,-2.0025714095443488,-4.634354037590325,1.3917133015960454
1789665135337136400,3.269136474609375,-1.755820754510164,-4.713436926655471,1.1995382863581179
1789665135347162400,3.279162353515625,-1.3802414749890566,-4.520592926114797,1.059437157228589
1789665135357189000,3.289189208984375,-1.0547171429693698,-4.301929716923833,0.7638724946647882
1789665135367215400,3.29921533203125,-0.7968612296182662,-4.147835426016152,0.3095961105257273
1789665135377240800,3.30924072265625,-0.507719805034995,-4.006915381719172,-0.21761340787708758
1789665135387267800,3.319267822265625,-0.25379589737057684,-3.781942550989985,-0.6560001489669084
1789665135397293800,3.3292939453125,0.03381689287330955,-3.42794644998461,-0.8813076184779405
1789665135407321000,3.339321044921875,0.26986086045410485,-2.908781414088607,-0.8380904080420732
1789665135417347000,3.34934716796875,0.5205091439813375,-2.276191366803646,-0.6446124935120344
1789665135427373000,3.359373046875,0.6714116531103849,-1.6067442917644976,-0.5229062682509422
1789665135437399800,3.36939990234375,0.6740460932672023,-1.071391798916459,-0.5565238756924867
1789665135447425800,3.37942578125,0.5554828422069549,-0.5656611218720674,-0.5481073450028896
1789665135457451800,3.38945166015625,0.3324760508537292,0.048500119274854654,-0.4077747452050447
1789665135467478800,3.399478759765625,0.034355858588218685,0.6878747121334076,-0.19674772998094558
1789665135477505000,3.409505126953125,-0.3462275128304958,1.227129473116994,0.05163140303790569
1789665135487531000,3.419531005859375,-0.6467278782308101,1.655345533326268,0.21880524801015852
1789665135497557800,3.429557861328125,-0.71506199426651,2.044081816062331,0.2601549110084772
1789665135507583700,3.439583740234375,-0.7461410231411456,2.0209230587929485,-0.19582476991713046
1789665135517609700,3.449609619140625,-0.7043839483857155,1.9320377376377582,-0.4414993201524019
1789665135527636700,3.45963671875,-0.6571171702980995,1.8973370111346244,-0.5802981345117092
1789665135537663000,3.4696630859375,-0.44387310007903724,1.890435561183095,-0.6113081898033619
1789665135547690000,3.47968994140625,-0.11930329230520874,1.7910358602762222,-0.572996871587634
1789665135557716000,3.489716064453125,0.12347199282459914,1.5555501111000776,-0.5861813473314047
1789665135567742000,3.499741943359375,0.5873661732017994,1.2384791346490382,-0.6949076795101166
1789665135577768700,3.509768798828125,1.145917755329609,1.0006716645270586,-0.7518032866865396
1789665135587794700,3.519794677734375,1.6956699449300765,0.7817612025767564,-0.8575117323487996
1789665135597820700,3.529820556640625,2.245321596765518,0.6557891365647316,-0.9996627797454595
1789665135607848000,3.539847900390625,2.740620896166563,0.5116501302212476,-1.1972054594963788
1789665135617874000,3.5498740234375,3.1405402516961094,0.4083984300613403,-1.4658260010331867
1789665135627900000,3.55989990234375,3.549615558105707,0.41365971159040926,-1.697021359539032
1789665135637927000,3.569927001953125,3.9233857423782346,0.5015028302162885,-1.885069650235772
1789665135647953000,3.579952880859375,4.219461277073622,0.6700690063297748,-2.0918933685511347
1789665135657979000,3.589978759765625,4.287102150148153,0.7960971864432096,-2.2819190968006846
1789665135668006000,3.600005859375,4.244019379746914,0.9055290365427732,-2.535048639217019
1789665135678032000,3.610031982421875,4.148746987903118,1.0424480285048485,-2.7360505195111036
1789665135688059000,3.620058837890625,3.9885052802816032,1.2367308296769857,-2.853397380518913
1789665135698084900,3.6300849609375,3.883017199371755,1.3709113365858792,-3.007831570905447
1789665135708110800,3.64011083984375,3.8225811431095003,1.3750479979991912,-3.173695502322912
1789665135718137900,3.650137939453125,3.8365991470679637,1.4502683664172886,-3.299436097666621
1789665135728163800,3.660163818359375,3.8949452453136444,1.5421563765197992,-3.438852751663327
1789665135738189800,3.67018994140625,3.983536551958322,1.5650930154711007,-3.5919600773602722
1789665135748216800,3.680216796875,4.198201046901941,1.5909809054434298,-3.8468449390113353
1789665135758242800,3.690242919921875,4.48267265304327,1.556386561924219,-4.1889656010448935
1789665135768268800,3.700268798828125,4.78241664711833,1.458876620286703,-4.507442937162518
1789665135778295800,3.7102958984375,5.083105228567123,1.3202911564171314,-4.957277539461851
1789665135788322000,3.720322021484375,5.292767385178804,1.0205623599112033,-5.479344434279203
1789665135798348000,3.73034814453125,5.339144520950317,0.60814125020504,-5.985470832642912
1789665135808374800,3.740374755859375,5.521945558643341,0.2859130371212959,-6.427538892593979
1789665135818400800,3.75040087890625,5.804295350325107,0.1516810922861099,-6.746787797605991
1789665135828427800,3.760427734375,5.981266366690397,0.14513795425295828,-6.833923644745349
1789665135838453800,3.770453857421875,6.05151537643671,0.26427345224320886,-6.732854549321532
1789665135848480000,3.78047998046875,6.023509763658047,0.46329146524369713,-6.567859801954031
1789665135858507000,3.790507080078125,5.867423129889369,0.6410889955610036,-6.454445604220032
1789665135868533000,3.800532958984375,5.512689069998264,0.5604933638453483,-6.799929020684957
1789665135878559000,3.81055908203125,5.020563724458217,0.08537292912006378,-7.611504931288957
1789665135888585700,3.820585693359375,4.47578143222481,-0.42021278649568555,-8.123829015249013
1789665135898611700,3.83061181640625,4.087688415828347,-0.8395639877259731,-8.148673533648251
1789665135908637700,3.8406376953125,3.850957342766225,-1.1215472841829062,-7.820946138626336
1789665135918665000,3.8506650390625,3.6903555696606634,-1.3667331741183995,-7.272417353340983
1789665135928691000,3.86069091796875,3.5558918618962165,-1.5914561217397452,-6.594569529703259
1789665135938717000,3.870717041015625,3.3741882640510794,-1.698373358669877,-5.951257012873888
1789665135948744000,3.880743896484375,2.9783880342781544,-1.7318658784270287,-5.246085128980875
1789665135958770000,3.89077001953125,2.539070734339952,-1.6967331902474163,-4.417473327901959
1789665135968796000,3.9007958984375,2.16935114063248,-1.694578058040142,-3.6795980288028716
1789665135978823000,3.910822998046875,1.7575122147284448,-1.764534222319722,-3.0320331152260303
1789665135988849000,3.920848876953125,1.4553098677158356,-1.8707564627230167,-2.4338614703714847
1789665135998876000,3.9308759765625,1.307645755986124,-2.0299276185035704,-1.8658418026745318
1789665136008902000,3.94090185546875,1.2012228053789584,-2.2735475742965936,-1.4228724099695682
1789665136018927900,3.950927978515625,1.2614274640381336,-2.6038994726032016,-1.0960866797119377
1789665136028955000,3.960954833984375,1.3389619546175002,-2.941769491454959,-0.5672878462910652
1789665136038980900,3.97098095703125,1.5428525420904158,-3.2039462636798617,-0.04169219282567501
1789665136053393000,3.985392822265625,1.7238509142756462,-3.509116374456882,0.5266004465937614
1789665136063420000,3.995419921875,1.7927403261065482,-3.770047530534863,0.961595207157731
1789665136073446000,4.00544580078125,1.782151127552986,-4.001045320641994,1.3110434356004
1789665136083472000,4.015471923828125,1.6856804658353328,-4.156284982192516,1.5091636229783296
1789665136093499000,4.025498779296875,1.4461246907413006,-4.259702102047204,1.656623298177123
1789665136103524900,4.03552490234375,1.0704863745093345,-4.309147393217683,1.8695114310979841
1789665136113550800,4.04555078125,0.7090098546206951,-4.261494246160984,2.165268401363492
1789665136123577900,4.055577880859375,0.42827451239824293,-4.146950459875166,2.460363108327985
1789665136133603800,4.065603759765625,0.14556699331998824,-4.001930579043925,2.8115520429581404
1789665136143629800,4.0756298828125,-0.03182831287197768,-3.8233711244434114,3.151336370998621
1789665136153656800,4.08565673828125,-0.06613974779658019,-3.6400486932247875,3.4401813699185846
1789665136163682800,4.095682861328125,0.01526895386762917,-3.4962972248941657,3.639059097665548
1789665136173709800,4.105709716796875,0.14651274973750114,-3.3882553678482767,3.759132168766856
1789665136183735800,4.11573583984375,0.2865010661423206,-3.35542569591403,3.7712609979778526
1789665136193761800,4.12576171875,0.2664800223767757,-3.4128704614058134,3.7363948517799375
1789665136203788800,4.135788818359375,0.16198972033262252,-3.4490813002109526,3.7597266275286674
1789665136213815000,4.14581494140625,0.0803402687150985,-3.38462168752104,3.8903210926443337
1789665136223841000,4.155841064453125,0.030508608575537798,-3.2708675903081894,4.134637798529863
1789665136233867800,4.16586767578125,-0.04124021127447486,-3.174678668141365,4.391946087935566
1789665136243893800,4.175893798828125,-0.07493234525695443,-3.1483859967604277,4.574249112978578
1789665136253919700,4.185919677734375,-0.08723170872926711,-3.258253023406863,4.621768404522538
1789665136263946800,4.19594677734375,-0.015106237586587667,-3.4477743092656135,4.543927624472976
1789665136273973000,4.205972900390625,0.06487023931741714,-3.8451860658884045,4.316159317806362
1789665136283999000,4.2159990234375,0.15734730135425926,-4.358774470695853,4.034617335376144
1789665136294026000,4.22602587890625,0.2881820049665868,-4.899854693540931,3.796930276763439
1789665136304052000,4.236052001953125,0.376163363019377,-5.397628274101018,3.6052772395730015
1789665136314078700,4.24607861328125,0.4724015311554074,-5.8825458802193396,3.3730320797532793
1789665136324104700,4.256104736328125,0.6277744636967778,-6.344499374857545,3.1072055528491735
1789665136334130700,4.266130615234375,0.850215145599842,-6.710148796516656,2.830159712794423
1789665136344158000,4.276157958984375,1.0975954768396914,-6.959450889599323,2.634914204069972
1789665136354184000,4.286183837890625,1.2673336193419993,-7.031969597843289,2.584144970819354
1789665136364210000,4.2962099609375,1.2479437130868434,-6.940597720569372,2.6700053911954162
1789665136374237000,4.30623681640625,0.9010323096454143,-6.943147405052184,2.8389813171535727
1789665136384262700,4.3162626953125,0.26196649047508835,-7.029575980705022,3.0574247461140156
1789665136394288600,4.32628857421875,-0.3301319719456136,-6.9098834333539,3.3734032511532304
1789665136413714700,4.345714599609375,-1.0759329494774341,-6.090856037700176,4.0415626244694
1789665136423741700,4.35574169921875,-1.4189981988847256,-5.776624084067344,4.072118506252766
1789665136433767700,4.365767578125,-1.695632681659609,-5.481977705392241,3.960128203842044
1789665136443793400,4.37579345703125,-1.7101345236122607,-5.087485635608434,3.9375674124658104
1789665136453820400,4.3858203125,-1.715242075884342,-4.805143442711234,3.9804257264614105
1789665136463846400,4.395846435546875,-1.6831296123087405,-4.660191950941085,3.8983518388867378
1789665136473872400,4.405872314453125,-1.67391754732728,-4.761316575944424,3.751364457374811
1789665136483899600,4.415899658203125,-1.5916940221488476,-4.870920275479555,3.615851240557432
1789665136493925600,4.425925537109375,-1.4228420148313046,-4.949443777096271,3.48377501245141
1789665136503952400,4.435952392578125,-1.2224819395720958,-5.040723884433508,3.3017075497299433
1789665136513978400,4.445978271484375,-1.0926853468358515,-5.070873523503542,3.0928871046394106
1789665136524004400,4.45600439453125,-1.1161702673196792,-5.048220962190627,2.827991721105575
1789665136534031600,4.466031494140625,-1.1979647534310818,-5.092630597281456,2.45009598133564
1789665136544057600,4.4760576171875,-1.228716450047493,-5.134646030712127,2.028988291826844
1789665136554083600,4.48608349609375,-1.1115256563842295,-5.115145211428404,1.6277578536987303
1789665136564110600,4.496110595703125,-0.839435392910242,-4.998379949700832,1.2268833894014357
1789665136574136600,4.506136474609375,-0.467083258742094,-4.885004330411553,0.7682523171842098
1789665136584162600,4.51616259765625,-0.07930559190511703,-4.8012704006701705,0.3056196081101894
1789665136594189600,4.526189453125,0.39442711478881537,-4.584890918502211,-0.11845803712010383
1789665136604215600,4.536215576171875,0.8079693374793976,-4.248683864426613,-0.4668284071981907
1789665136614241500,4.546241455078125,1.1513994016110896,-3.862777836680412,-0.7134165651470422
1789665136624268500,4.5562685546875,1.5127952574789523,-3.2518174374014137,-0.8480021457254886
1789665136634294500,4.56629443359375,1.7501006232976912,-2.5727666677147147,-0.9283955328673124
1789665136644320500,4.576320556640625,1.775619679957628,-1.9271856214314698,-0.9731126264721155
1789665136654347500,4.586347412109375,1.7561375653743743,-1.2694541186273098,-0.957292541527748
1789665136664373800,4.596373779296875,1.775726062941551,-0.629534751367569,-0.9157178376019001
1789665136674400500,4.606400390625,1.777740325373411,-0.09328735550642013,-0.9202601572066545
1789665136684426500,4.616426513671875,1.7741104444384574,0.26822715830504895,-0.978273954758048
1789665136694452500,4.626452392578125,1.7969547289311885,0.5294534979373217,-1.0807529169797896
1789665136704479500,4.6364794921875,1.8478361903846263,0.6868208191663027,-1.1705518458485602
1789665136714505500,4.64650537109375,1.9504373176813123,0.7484218275547028,-1.2588392011106013
1789665136724531700,4.65653173828125,2.005472391682863,0.7584703433603048,-1.427973532500863
1789665136734558500,4.666558349609375,2.048290958189964,0.7130716972321272,-1.6512977192401885
1789665136744584400,4.67658447265625,2.15782553801164,0.6797691470891237,-1.8631641078978776
1789665136754610400,4.6866103515625,2.309458699502796,0.710699707403779,-2.055793881165981
1789665136764637400,4.696637451171875,2.4345184729754923,0.8286527176111936,-2.169991922754049
1789665136774663400,4.706663330078125,2.4766052180767058,0.9345791899383068,-2.339245496609807
1789665136784689400,4.716689453125,2.5524796664893628,1.0034779541194438,-2.6027181538641453
1789665136794716700,4.726716552734375,2.676468449729681,1.0210866760462523,-2.9287358223587274
1789665136804742700,4.73674267578125,2.817354591757059,0.9323451472759247,-3.3829595995277164
1789665136814768600,4.7467685546875,3.0016379769623276,0.7602695017367601,-3.887956117078662
1789665136824795400,4.75679541015625,3.230535579919815,0.5717348888278008,-4.319792705872655
1789665136834821400,4.7668212890625,3.583797229170799,0.3757862002700567,-4.703565228721499
1789665136844848600,4.7768486328125,3.955548474836349,0.18897125076055526,-5.050583015146851
1789665136854874600,4.78687451171875,4.300288379457593,-0.07353519181013107,-5.451394935601949
1789665136864900600,4.796900634765625,4.632020041684806,-0.3172358116239309,-5.981045417416095
1789665136874927600,4.806927734375,4.82410007211566,-0.45713528070151804,-6.407763932543992
1789665136884953600,4.81695361328125,4.782516892622411,-0.31249826170802114,-6.601695436060428
1789665136894979600,4.8269794921875,4.793187047457694,0.05569499921500683,-6.640644467657804
1789665136905006600,4.837006591796875,4.701250814299285,0.5511369219571352,-6.510784162035584
1789665136915032600,4.847032470703125,4.620329896152019,1.0753893441200255,-6.450556195566058
1789665136925058600,4.85705859375,4.499312822198868,1.5743717159479855,-6.523129848867654
1789665136935085600,4.86708544921875,4.348777100555599,2.0577648889780042,-6.676939769876003
1789665136945111600,4.877111572265625,4.090193092125654,2.3977070379287,-6.871309664809703
1789665136955138600,4.887138671875,3.6885561190232634,2.5395167245417833,-7.146305002075433
1789665136965164500,4.89716455078125,3.3248210065528747,2.7777859669566154,-7.224076808542013
1789665136975190500,4.9071904296875,3.1117078327044845,3.403583285361528,-6.869673003518581
1789665136985217500,4.917217529296875,2.901126807682216,4.2660663763821125,-6.221505447873473
1789665136995243500,4.927243408203125,2.6691534505411982,5.098640066829323,-5.442843380355835
1789665137005269500,4.93726953125,2.439385202229023,5.694141031169891,-4.704223108108342
1789665137015296500,4.947296630859375,2.332975330299139,5.979084930998087,-4.148719223113358
1789665137025322500,4.957322509765625,2.2849429746665058,5.881342934170365,-3.9173008695065974
1789665137035348700,4.9673486328125,2.4891502268731593,5.410231735086441,-4.07259606063664
1789665137045375500,4.97737548828125,2.970546088606119,4.567252970480919,-4.7010549994662405
1789665137055401500,4.9874013671875,3.5252038781657813,3.6267432214498516,-5.626753256073593
1789665137065427500,4.997427490234375,4.0508804879128935,2.858089922249317,-6.423683386209607
1789665137075454500,5.007454345703125,4.6157565968871115,2.153942705228925,-7.079346850568056
1789665137085480400,5.01748046875,5.023751706844568,1.4926222380220888,-7.493921338915825
1789665137095506400,5.02750634765625,5.256845007926225,0.8728069166362286,-7.718598693829774
1789665137105533700,5.03753369140625,5.303148493939638,0.33636662855148314,-7.709349803969263
1789665137115559700,5.0475595703125,5.075132349991798,-0.13075403959155082,-7.561523633545637
1789665137125586400,5.05758642578125,4.607507823979854,-0.5532990684270859,-7.268221070694923
1789665137135612400,5.0676123046875,4.087471558207273,-0.9512918398082256,-6.949406465446948
1789665137145638400,5.077638427734375,3.5358979983985424,-1.2848106777131556,-6.5319023533880705
1789665137155665700,5.087665771484375,3.057414224720001,-1.541841319221258,-6.021104456081986
1789665137165691600,5.097691650390625,2.6337667876005173,-1.7734475966155527,-5.468741791722178
1789665137175717600,5.107717529296875,2.27460395148173,-1.9611872597545383,-4.893818335986137
1789665137185744600,5.11774462890625,1.9406547593355177,-2.0792723719090223,-4.3129514616757625
1789665137195770600,5.1277705078125,1.6719558918654918,-2.2152678192853927,-3.7370910173505543
1789665137205796600,5.137796630859375,1.4677473244845867,-2.304347201707959,-3.135535575276613
1789665137215823600,5.14782373046875,1.2587481618262826,-2.353421321478486,-2.4976468370616436
1789665137225849600,5.157849609375,1.1458183866083622,-2.403543488997221,-1.8269658363133667
1789665137235875600,5.16787548828125,1.1350713671445847,-2.4968080481499433,-1.2323539297670125
1789665137245902600,5.177902587890625,1.1482535048007965,-2.719910116571188,-0.7359586518228054
1789665137255928600,5.187928466796875,1.1699988881409167,-2.994298720115423,-0.3323638226509094
1789665137265954600,5.19795458984375,1.2407879961133002,-3.314876243382692,0.019902385821938512
1789665137275981300,5.207981201171875,1.2788088069498538,-3.6836072644442317,0.33672201786041256
1789665137286007600,5.218007568359375,1.326408762514591,-4.067203553943336,0.629693156799674
1789665137296034600,5.22803466796875,1.4046657221496104,-4.406503897859156,0.9356015187233686
1789665137306060500,5.238060546875,1.4502806413769722,-4.6894764976143835,1.2493944964170456
1789665137316086500,5.24808642578125,1.4143220237672327,-5.012473356983065,1.4690554844737052
1789665137326113500,5.258113525390625,1.3263175770998001,-5.231475004348159,1.7694015360951423
1789665137336139500,5.268139404296875,1.223738661634922,-5.290447417798638,2.1209850230008365
1789665137346165500,5.27816552734375,1.1154315047163517,-5.30070168530941,2.48312497523427
1789665137356192500,5.288192626953125,1.0357634361743926,-5.317026212644577,2.7123458187967535
1789665137366218500,5.298218505859375,0.9956712258912622,-5.403222733107209,2.8215274935275314
1789665137376244700,5.30824462890625,1.0519875718750058,-5.495944855946302,2.8986493116527794
1789665137386272000,5.31827197265625,1.1533495127655564,-5.6450750947058195,2.9582483325690028
1789665137396298000,5.328298095703125,1.3617664916217327,-5.843538980954885,3.0056296769469975
1789665137406324000,5.338323974609375,1.6222877517245708,-6.009990356871485,3.0117016903370617
1789665137416350700,5.348350830078125,1.8021965751074254,-6.289008958303928,2.9031963074326512
1789665137426376700,5.358376708984375,1.9569046139992772,-6.727353613817692,2.707529942947626
1789665137436403700,5.36840380859375,2.0685155617035926,-7.183333294743299,2.452007367914915
1789665137446430000,5.378429931640625,2.178322674856335,-7.594763055324554,2.2452204744786024
1789665137456456000,5.3884560546875,2.3004655379690226,-7.878018271413445,2.2429425926744937
1789665137466483000,5.39848291015625,2.4730972099557516,-7.951172354951501,2.4077222359865904
1789665137476509000,5.408509033203125,2.6488652802720662,-7.939493607595563,2.6940841859191655
1789665137486535000,5.418534912109375,2.6663606049522754,-7.904411188298464,2.8326071059465407
1789665137496561700,5.428561767578125,2.4478102084860205,-8.004469645375012,2.8606583114325996
1789665137506588000,5.438587890625,2.081941883379221,-8.218309964454173,2.7940982193320987
1789665137516614000,5.44861376953125,1.826823505233228,-8.480348204991222,2.589271812313795
1789665137526641000,5.458640869140625,1.6626655009508131,-8.526038527542353,2.5498411346793173
1789665137536667000,5.4686669921875,1.3896110686197876,-8.352665827929973,2.9236060582548378
1789665137546692900,5.47869287109375,0.8256665414072573,-8.142340823495388,3.3554473232239483
1789665137556719900,5.488719970703125,0.16465046397447586,-7.647881482049822,4.086501836392284
1789665137566745900,5.498745849609375,-0.46022462501898403,-6.748122845602035,5.218779773426055
1789665137576772000,5.508772216796875,-1.1526736593306064,-5.7682496389538045,6.370603537929058
1789665137586798800,5.518798828125,-1.7718296400249003,-5.066798821410536,7.273276600518822
1789665137596824800,5.528824951171875,-2.277798802000284,-4.791609715138375,7.603074956595897
1789665137606850800,5.538850830078125,-2.595098326510191,-5.015080909132958,7.212296354377269
1789665137616877800,5.5488779296875,-2.647408359462023,-5.606392020568252,6.341103302678466
1789665137626903800,5.55890380859375,-2.395975099569559,-6.06477642454803,5.462865008643269
1789665137636930800,5.568930908203125,-2.0200690723121166,-6.314677068045735,4.743737664633989
1789665137646956800,5.578956787109375,-1.6850047585308552,-6.545045912599563,4.036145275595784
1789665137656982800,5.588982666015625,-1.5629437284827232,-6.771091633257269,3.477645131394267
1789665137667009800,5.599009765625,-1.4315607433378696,-6.906821123173833,2.94913388274312
1789665137677035800,5.609035888671875,-1.200729468904063,-7.01180709978044,2.487848496624827
1789665137687061800,5.619061767578125,-0.8444576049864292,-7.02323976342082,2.082312470257282
1789665137697089000,5.629089111328125,-0.4375380153059959,-6.842791426333784,1.8339730847269295
1789665137707115000,5.639114990234375,-0.025660584022477267,-6.476496107986569,1.6717776126891373
1789665137717141000,5.64914111328125,0.2835270187675953,-6.043952247706056,1.4988351211875677
1789665137727167700,5.659167724609375,0.4090471762936562,-5.538636581203341,1.42870652295053
1789665137737193700,5.66919384765625,0.40137598407864566,-4.916314245432615,1.49030753133893
1789665137747219700,5.6792197265625,0.3442588431060314,-4.27682187141329,1.5533219136565923
1789665137757247000,5.6892470703125,0.23910452419519423,-3.643950084577501,1.6184212855547666
1789665137767273000,5.69927294921875,0.2925543017666787,-3.0634345079228282,1.6194763475656508
1789665137777299000,5.709298828125,0.4398621108720079,-2.6059675110489127,1.352146430361271
1789665137787326000,5.719325927734375,0.682068071681261,-2.3363091508969664,0.8775935663908719
1789665137797352000,5.72935205078125,0.9994926838755607,-2.1342706210315225,0.2626671860903501
1789665137807378700,5.739378662109375,1.4381272622466086,-1.9673422752529381,-0.5540063399136066
1789665137817405000,5.749405029296875,1.9102081831455229,-1.84924664170444,-1.4436930796802043
1789665137827431000,5.759430908203125,2.3371125762343405,-1.6751631634742021,-2.2504233038187027
1789665137837458000,5.7694580078125,2.6880197713136673,-1.4606792857944964,-2.9337106881618498
1789665137847484000,5.77948388671875,2.9591034880936142,-1.220560616120696,-3.4603502977222202
1789665137857510000,5.789510009765625,3.1763819649279115,-1.0099176317781209,-3.8989375298202034
1789665137867537000,5.799536865234375,3.3445828148603436,-0.8398200083136558,-4.218386925840377
1789665137877563000,5.80956298828125,3.516830894356966,-0.6743026983767747,-4.473880859300494
1789665137887588900,5.8195888671875,3.699530225241184,-0.45709494869112965,-4.626238827934861
1789665137897616000,5.829615966796875,3.8654350731909273,-0.2153682592988014,-4.718869765359163
1789665137907641900,5.839641845703125,4.035278429633379,0.03521393672227859,-4.768212765198946
1789665137917667800,5.849667724609375,4.1613539560198785,0.32071839304268357,-4.797836334568262
1789665137927694800,5.85969482421875,4.244522360832989,0.6376555139809846,-4.722161792641878
1789665137937720800,5.869720947265625,4.330398855561017,0.9546849893778562,-4.555160381627083
1789665137947747800,5.879747802734375,4.3661251257196065,1.2334931629300117,-4.377698951396346
1789665137957773800,5.88977392578125,4.2881998822569845,1.4307950196623802,-4.314481155461072
1789665137967799800,5.8997998046875,4.131944321662187,1.5327841525405645,-4.3703217006266115
1789665137977826800,5.909826904296875,3.960051631474495,1.5489274780899285,-4.55911934838593
1789665137987852800,5.919852783203125,3.7126062721744177,1.4474059627234934,-4.834154433140158
1789665137997878800,5.929878662109375,3.417879521739483,1.3589847519487142,-5.095496508106589
1789665138007906000,5.939906005859375,3.3886490433409806,1.3461439750760793,-5.284734300848841
1789665138017932000,5.94993212890625,3.5925922377839683,1.4163736956000328,-5.399111790657043
1789665138027958000,5.9599580078125,3.867660932546854,1.5783932265490292,-5.549001323351264
1789665138037984800,5.96998486328125,4.225223493862152,1.660860497355461,-5.949999706289172
1789665138048010800,5.9800107421875,4.4989363901019095,1.5874954014152287,-6.487377567484974
1789665138058036700,5.99003662109375,4.673315636408328,1.4672341142654417,-7.068592816841602
1789665138068064000,6.00006396484375,4.742441779604554,1.3874924690306185,-7.512435485249758
1789665138078090000,6.010090087890625,4.904483522385359,1.4573521871984003,-7.810064679127931
1789665138088117000,6.020116943359375,5.1122395531147715,1.7350480155944823,-7.8617884366244075
1789665138098143000,6.03014306640625,5.1858957409560675,2.263579722511768,-7.7476552769660945
1789665138108169000,6.0401689453125,5.166036025232076,2.948320812794566,-7.315840900003909
1789665138118195700,6.05019580078125,5.167226111799478,3.6252030062705276,-6.70324091682434
1789665138128222000,6.060221923828125,5.13902409966588,4.070209457761049,-6.316883638179302
1789665138138248000,6.070248046875,4.907662152421474,4.092359330248833,-6.299483590567111
1789665138148275000,6.08027490234375,4.750390692782402,3.836007903176546,-6.516427136358618
1789665138158301000,6.090301025390625,4.8424938069403165,3.4594933886319397,-6.835008517372608
1789665138168327000,6.100326904296875,4.870293668013811,3.097545159578323,-7.063583464246988
1789665138178353700,6.110353759765625,4.773211011877656,2.891540356430411,-7.0446098837077615
1789665138188379600,6.120379638671875,4.56717581359148,2.744850496560335,-6.735304280561208
1789665138198406000,6.130406005859375,4.197740443652868,2.604756966215372,-6.192112180128693
1789665138208433000,6.140432861328125,3.783959151509404,2.4258979441463944,-5.659711522823572
1789665138218459000,6.150458984375,3.304424991995096,2.136803938901424,-5.150709276762605
1789665138228484900,6.16048486328125,2.8368554110407826,1.7418214552521705,-4.788672784903645
1789665138238511900,6.170511962890625,2.4622680651664735,1.269720076087117,-4.5763352716028685
1789665138248537900,6.180537841796875,2.199740579807758,0.7480477335453033,-4.372977183571457
1789665138258564900,6.19056494140625,2.1085585260175166,0.25348084007203575,-4.1772997131705285
1789665138268590800,6.2005908203125,2.1129823338091374,-0.21150749221742152,-3.921688290810585
1789665138278616800,6.210616943359375,2.1667817285358906,-0.7234668345183134,-3.703836398002505
1789665138288643800,6.220643798828125,2.2009540472507476,-1.0936848792672156,-3.3828514629781243
1789665138298669800,6.230669921875,2.155249111652374,-1.2758213155716658,-2.95361015137434
1789665138308695800,6.24069580078125,2.0043711524426935,-1.3892419430464504,-2.4873691886752844
1789665138318723000,6.25072314453125,1.8435960685968398,-1.4558289231538772,-1.973590229731798
1789665138328749000,6.2607490234375,1.71463066598773,-1.5340432126909493,-1.4881436313033103
1789665138338775000,6.270775146484375,1.6698001751363276,-1.628284507921338,-0.9899766675114631
1789665138348801800,6.2808017578125,1.6670049914598464,-1.8122236097335815,-0.5453904872596264
1789665138358827800,6.290827880859375,1.5839491071105003,-2.0098358475893736,-0.18319500544667242
1789665138368854800,6.300854736328125,1.467660815244913,-2.2108961800724267,0.1424094060719013
1789665138378880800,6.310880859375,1.309372287517786,-2.436337505096197,0.37160102353990077
1789665138388906800,6.32090673828125,1.0419605372488498,-2.669977918666601,0.570695608907938
1789665138398933800,6.330933837890625,0.764600224417448,-2.767584306415915,0.911657748556137
1789665138408959700,6.340959716796875,0.6241373493034392,-2.7904332670837637,1.2599538843542337
1789665138418985700,6.35098583984375,0.48946814556214957,-2.845639313738048,1.5433470476090907
1789665138429012700,6.3610126953125,0.4542283802788704,-2.935962851002812,1.7972990123242139
1789665138439038700,6.371038818359375,0.5689185892980545,-3.0771295635372398,1.981786980190873
1789665138449064700,6.381064697265625,0.820492134444043,-3.3083144006490706,2.095813756865263
1789665138459091700,6.391091796875,1.0670983395062386,-3.611209552231431,2.0986878509968516
1789665138469117700,6.40111767578125,1.269050798523426,-3.9697070563092827,2.0641841083705423
1789665138479144700,6.411144775390625,1.3865348760448395,-4.2873403428182,2.105553060591221
1789665138489170700,6.421170654296875,1.5085340929031372,-4.556558557987213,2.2490210358053444
1789665138499196700,6.43119677734375,1.639418188615143,-4.754294714483619,2.3722534477204085
1789665138509223700,6.4412236328125,1.7266612955212592,-4.986774852102995,2.458260583090782
1789665138519249700,6.451249755859375,1.7751647757969795,-5.243382299762964,2.499876788070798
1789665138529275600,6.461275634765625,1.8182221194960175,-5.500542705130576,2.470060910999775
1789665138539303000,6.471302978515625,1.8283717575885354,-5.859968722230196,2.3792858305752276
1789665138549329000,6.481328857421875,1.8945301370203493,-6.1961827905684705,2.2511299907833338
1789665138559355000,6.49135498046875,1.9919525465048848,-6.500567303925752,2.144447147130966
1789665138569381600,6.501381591796875,2.1802955823644994,-6.632925271582603,2.1709476160436867
1789665138579407600,6.51140771484375,2.470625266884267,-6.598719635120034,2.2522663013368844
1789665138589433600,6.52143359375,2.6933623013854024,-6.491798891058564,2.356966446739435
1789665138599460900,6.5314609375,2.704014628303051,-6.4333391033053395,2.446286067658663
1789665138609486800,6.54148681640625,2.3116603012003005,-6.622544747343659,2.365558918517828
1789665138619513900,6.551513916015625,1.6122833673216401,-7.014369059222936,2.176340999519825
1789665138629539800,6.561539794921875,0.9813874106034636,-7.379974641740322,2.0709394278496505
1789665138639565800,6.57156591796875,0.3748410283744335,-7.65827369672656,2.119043825805187
1789665138649592600,6.581592529296875,0.015107845021784305,-7.794663111856579,2.2107377746403216
1789665138659618800,6.591618896484375,0.026655367213487623,-7.557503291988373,2.627582546007633
1789665138669644800,6.601644775390625,0.5697885770656168,-6.966297979015112,3.156642076191306
1789665138679671800,6.611671875,1.3219298635348677,-6.4028317368388175,3.4213229401916263
1789665138689697800,6.62169775390625,1.4808357925079763,-6.230298995181918,3.3909196186214685
1789665138699723800,6.631723876953125,1.0640553185485302,-6.334077934086323,3.2420173433989286
1789665138709750500,6.64175048828125,0.3332676396228373,-6.470354536491632,3.2006641732692716
1789665138719776500,6.651776611328125,-0.48466670009717344,-6.419488272607326,3.5107851844519375
1789665138729803800,6.6618037109375,-1.09287473192811,-5.962000525206327,4.19089276971519
1789665138739829800,6.671829833984375,-1.4618249486982822,-5.3375148739218705,4.84651765562892
1789665138749855700,6.681855712890625,-1.8915140040695666,-4.855742580091953,5.200109559747577
1789665138759882800,6.6918828125,-2.1891806073486806,-4.518043826153874,5.277516040033102
1789665138769908700,6.70190869140625,-2.294082412803173,-4.406923584575951,4.955951259294152
1789665138779934700,6.711934814453125,-2.265480587697029,-4.471365077087283,4.467469823214412
1789665138789961700,6.721961669921875,-1.9590777202546594,-4.6399224853724235,3.8923932227432725
1789665138799987700,6.73198779296875,-1.5158977535389362,-4.870367902293801,3.351835562467575
1789665138810013700,6.742013671875,-0.981280150836706,-5.063679228085279,2.8722219079762694
1789665138820040700,6.752040771484375,-0.2972060000300407,-5.166531699794531,2.488583240640163
1789665138830066700,6.762066650390625,0.3157363668464124,-5.060808641085028,2.244122742369771
1789665138840094000,6.772093994140625,0.7773507657233625,-4.761096795713901,2.0580144798249007
1789665138850120000,6.782119873046875,1.1005541805148125,-4.25502095849365,2.0464426999747753
1789665138860146000,6.79214599609375,1.1985223142486066,-3.582345861318707,2.0812486404180524
1789665138870172700,6.802172607421875,1.1204232485890389,-2.9089029946416614,2.16691324596107
1789665138880198700,6.81219873046875,0.9930640390675515,-2.2925299226641656,2.234396298125386
1789665138890224600,6.822224609375,0.8862333844423294,-1.7247554618999361,2.257028985694051
1789665138900251600,6.832251708984375,0.879189895671606,-1.3047443354561925,2.145019394060969
1789665138910278000,6.84227783203125,0.9186252494812012,-0.991150095205009,1.911760088762641
1789665138920303900,6.852303955078125,0.9800105692923068,-0.7551882529497146,1.7323288197636604
1789665138930331000,6.862330810546875,1.058784246277809,-0.5430307723909616,1.5069395171880722
1789665138940356600,6.872356689453125,1.119669215351343,-0.42708325678706166,1.2323463309824465
1789665138950383600,6.882383544921875,1.2288695947825907,-0.470516740322113,0.8724462666302919
1789665138960409600,6.89240966796875,1.4206781147956846,-0.7299053431332111,0.2512982353359461
1789665138970435800,6.902435791015625,1.6860557288885116,-1.02068043333292,-0.5076286196202039
1789665138980462800,6.912462890625,2.002360397142172,-1.2074562198758125,-1.150930615055561
1789665138990488800,6.92248876953125,2.2048481320798397,-1.202889350351691,-1.7338076601445673
1789665139000514800,6.932514892578125,2.284621341496706,-1.1108324134230614,-2.3000924668729303
1789665139010541600,6.94254150390625,2.213681426876783,-0.8713684082657098,-2.713493819788098
1789665139020567600,6.952567626953125,2.050445505875349,-0.5484878687530755,-3.1636686138272285
1789665139030593500,6.962593505859375,1.8585060529589652,-0.24640987877249718,-3.642629357367754
1789665139040620800,6.972620849609375,1.803240677332878,-0.02903670939207077,-4.246687137651443
1789665139050646800,6.982646728515625,1.8541116173923013,0.08877250843048096,-5.008807820212841
1789665139060673800,6.992673828125,2.020412917313725,0.1288467446655035,-5.832904189693927
1789665139070699800,7.00269970703125,2.299593285179138,0.14242635720670221,-6.623896161952614
1789665139080725800,7.012725830078125,2.62482827886343,0.2143926922649145,-7.323313427841663
1789665139090752800,7.022752685546875,2.981348053127527,0.2425426819503307,-7.988931299981474
1789665139100778800,7.03277880859375,3.3382314000070092,0.2966968814641237,-8.595478558993339
1789665139110804700,7.0428046875,3.7610035155966877,0.427727984431386,-9.073986882591248
1789665139120831700,7.052831787109375,4.084967466431856,0.6632885524094104,-9.387981520336865
1789665139130857700,7.062857666015625,4.2950890572488305,0.9798878196954727,-9.669053547167778
1789665139140884700,7.072884765625,4.323571639889479,1.3377087396860121,-9.883477219092846
1789665139150911000,7.082910888671875,4.025205948430299,1.6519266647934914,-9.853472541451454
1789665139160937000,7.09293701171875,3.6899966732203957,1.8762059603005647,-9.674055300977825
1789665139170963700,7.102963623046875,3.3732068517982956,2.147881213232875,-9.364285002928971
1789665139180989700,7.11298974609375,3.1728461920171975,2.4740204622805115,-9.127233319610356
1789665139191015700,7.123015625,2.8657985969305035,2.85685365845263,-8.853105997350811
1789665139201042700,7.133042724609375,2.5459412046313283,3.357655646923184,-8.055012084132432
1789665139211068700,7.143068603515625,2.475295889043808,4.054716705074906,-6.953348481070995
1789665139221095000,7.153094970703125,2.3683213689684868,4.704342058312893,-5.891910505414009
1789665139231121700,7.16312158203125,2.1881661696091292,4.984480603685975,-5.21118098886013
1789665139241147600,7.173147705078125,2.089800049533695,4.872232527121901,-4.989906135866046
1789665139251174700,7.183174560546875,2.095934022244066,4.520982802215218,-5.049215818446874
1789665139261200600,7.19320068359375,2.2368590349771083,4.029572911468148,-5.420518151301145
1789665139271226600,7.2032265625,2.3993173957347866,3.5401831283718344,-5.794008934110403
1789665139281254000,7.21325390625,2.696095525741577,3.232973036199808,-5.960853693258762
1789665139291280000,7.22327978515625,2.9801404309034347,3.0499387742727992,-5.927299798703193
1789665139301305900,7.233305908203125,3.1073382393181324,2.7398095797836777,-5.849560725462436
1789665139311332600,7.24333251953125,3.1938404647290706,2.3064035497158764,-5.79627103382349
1789665139321358600,7.253358642578125,3.2809026621103285,1.8705512955397365,-5.720092049506306
1789665139331384600,7.263384521484375,3.2826796086549757,1.370453071424365,-5.7586517895251506
1789665139341411800,7.273411865234375,3.1032652907907963,0.8346826454252004,-5.827057801753282
1789665139351437800,7.283437744140625,2.837642177504301,0.36950258995592594,-5.740539209729433
1789665139361464800,7.29346484375,2.6480034027457235,0.09488660739660262,-5.402271715992689
1789665139371490800,7.30349072265625,2.4210674552500246,-0.05224456650018692,-4.973527832517028
1789665139381516800,7.313516845703125,2.1291933177672324,-0.16259645405411718,-4.472860868602991
1789665139391543600,7.32354345703125,1.9187261283829806,-0.27273206850886345,-3.950550812679529
1789665139401569500,7.333569580078125,1.8272925840497016,-0.28438217429220675,-3.4202333913892504
1789665139411595500,7.343595458984375,1.8046634036123752,-0.36325755808651444,-2.8625895717561245
1789665139421622800,7.353622802734375,1.8136231012679636,-0.47457215319275853,-2.3672429260820147
1789665139431648800,7.363648681640625,1.7616309020936487,-0.5733206967145205,-1.797110211753845
1789665139441675800,7.37367578125,1.672009667879343,-0.7335469145059585,-1.2768600109696389
1789665139451701800,7.38370166015625,1.5185060363411902,-0.8815203844457864,-0.7126110939830541
1789665139461727700,7.393727783203125,1.5544611468195915,-1.0585048448145389,-0.1802852554798126
1789665139471754500,7.40375439453125,1.6103426085174082,-1.3383160579293965,0.2018535286873579
1789665139481780700,7.41378076171875,1.632120725083351,-1.7377070056706665,0.41403965081870553
1789665139491806700,7.423806640625,1.5675626204550266,-2.164561714398861,0.5047627087950706
1789665139501833700,7.433833740234375,1.3690776914179323,-2.5910335612893105,0.59775312718153
1789665139511859700,7.443859619140625,1.072398930132389,-2.9587586201786995,0.777347477787733
1789665139521885700,7.4538857421875,0.769016944881156,-3.1764012541502713,1.0832342124015093
1789665139531912400,7.463912353515625,0.5805366194427013,-3.3082769912481305,1.459663971272111
1789665139541938400,7.4739384765625,0.47017187240719793,-3.3963220621868966,1.7622452345997095
1789665139551965700,7.483965576171875,0.43115963938049967,-3.5781554238915443,1.885561817666888
1789665139561991700,7.49399169921875,0.4152620322205126,-3.869053555949032,1.8826573283970356
1789665139572017700,7.504017578125,0.5417278730988502,-4.176734480503201,1.8890549204796552
1789665139582044700,7.514044677734375,0.7496388751942664,-4.492505188010632,1.8834481865137815
1789665139592070700,7.524070556640625,0.86793185794577,-4.806963351614773,1.8904624491900204
1789665139602096600,7.5340966796875,0.9764296420656144,-5.0878305035233495,1.975084267681837
1789665139612123600,7.54412353515625,1.056802863202244,-5.405753712889552,1.987206667152047
1789665139622149600,7.554149658203125,1.1314791878715156,-5.7837587582528585,1.8770131850302219
1789665139632176600,7.5641767578125,1.214704291307926,-6.202419639131427,1.7047025616914033
1789665139642202600,7.57420263671875,1.2894414062537252,-6.575019026058912,1.5263000512182712
1789665139652228600,7.584228515625,1.538486163574457,-6.913702699381113,1.37896663274765
1789665139662255900,7.594255859375,1.878237319997698,-7.132815405905246,1.2657827366381882
1789665139672281900,7.60428173828125,2.1691747611522674,-7.188654197505116,1.2085410925030708
1789665139682307800,7.614307861328125,2.42552414239794,-7.060245844256878,1.3018699490636587
1789665139692334600,7.62433447265625,2.4970950483977794,-6.834784645488858,1.4873054269134998
1789665139702360600,7.634360595703125,2.132121918565035,-6.827188783532381,1.6299708535730837
1789665139712387600,7.6443876953125,1.5560709201037883,-6.952234966871142,1.759737635692954
1789665139722413800,7.654413818359375,1.1771028749272228,-6.997871513408422,1.979668672862649
1789665139732439800,7.664439697265625,1.024574518162012,-6.978201182776689,2.276297749787569
1789665139742466800,7.674466796875,0.8695160583972931,-6.981101580393314,2.5922066967219113
1789665139752492500,7.684492431640625,0.6462754582881927,-6.966920494827628,2.9647224970191717
1789665139762518500,7.6945185546875,0.5363140313565731,-6.748236242848634,3.480784013941884
1789665139772545500,7.704545654296875,0.6469293921522796,-6.208221603408456,4.15329398368299
1789665139782571500,7.714571533203125,0.6341302624642848,-5.690612272521853,4.714424476388096
1789665139792598800,7.724598876953125,0.29024799758568404,-5.561715843495726,4.96287550559938
1789665139802624800,7.734624755859375,-0.15758695532903075,-5.662048441338539,5.003039173683524
1789665139812650800,7.744650634765625,-0.5879295061729848,-5.742198082852363,5.0983694331943985
1789665139822677500,7.754677490234375,-0.8141678267933428,-5.691110869693755,5.282563386550545
1789665139832703500,7.764703369140625,-0.9061737641870975,-5.523369453966617,5.490478407233953
1789665139842729500,7.7747294921875,-1.1509282769680023,-5.378620791292191,5.6514446297377345
1789665139852756700,7.7847568359375,-1.3954443048179148,-5.307232548382878,5.618851104646921
1789665139862782700,7.79478271484375,-1.6070973429858684,-5.307810640531778,5.422931642183661
1789665139872809700,7.804809814453125,-1.662827998036146,-5.26332560211718,5.210463780501485
1789665139882835700,7.814835693359375,-1.492566123920679,-5.2036944324970245,4.879907884055376
1789665139892861700,7.82486181640625,-1.1684171719074248,-5.1725616276085375,4.45447356351912
1789665139902888700,7.834888671875,-0.847726397524029,-5.118165436032414,4.07589568670392
1789665139912914700,7.844914794921875,-0.4866986443161964,-4.998289348807931,3.7482559699654576
1789665139922941700,7.854941650390625,-0.10252280136346817,-4.8016073775395745,3.418731170132756
1789665139932967700,7.8649677734375,0.22515315573215483,-4.550236953750252,3.059783291938901
1789665139942993700,7.87499365234375,0.4154314339706674,-4.2428804388448595,2.6282582533121106
1789665139953020700,7.885020751953125,0.5204758627662435,-3.786189687040448,2.206990404805541
1789665139963046700,7.895046630859375,0.555173045605421,-3.1403742474794387,1.8391238916188477
1789665139973072600,7.90507275390625,0.5224363491842523,-2.364029516993463,1.4880512768447398
1789665139983099600,7.915099609375,0.6111713751485571,-1.6088909484043716,1.081457265856862
1789665139993125600,7.925125732421875,0.694037910938263,-1.1129802391067147,0.45541853991150855
1789665140003152600,7.935152587890625,0.8401578619658947,-0.8498743693381547,-0.24539514877200125
1789665140013178600,7.9451787109375,0.9578712181985378,-0.7369955936551094,-0.8699784152120351
1789665140023204600,7.95520458984375,1.1572013658881186,-0.6144494104385375,-1.2892851927787066
1789665140033231600,7.965231689453125,1.4349252513349056,-0.4258540072530508,-1.5276269159078597
1789665140043257600,7.975257568359375,1.6325754831135273,-0.20958383067846298,-1.6386328834563493
1789665140055164700,7.98716455078125,1.8353157315075397,0.10549684873819351,-1.6376356891125439
1789665140065190700,7.997190673828125,1.9995207898020744,0.34768531042337414,-1.5873147841513155
1789665140075217000,8.007216796875,2.125641908895969,0.4775695814430713,-1.6612480353683232
1789665140085243600,8.01724365234375,2.2734522972285744,0.5459983900249004,-1.8341180461555717
1789665140095269600,8.02726953125,2.4816905585169793,0.5592828190118074,-2.0432173081874847
1789665140105296600,8.037296630859375,2.6466367905676362,0.6331763227403163,-2.1840683789014816
1789665140115322600,8.047322509765625,2.7913234939217566,0.7296136667102575,-2.3595406811416146
1789665140125348600,8.0573486328125,2.8687095159411427,0.7361182262986898,-2.557115509596467
1789665140135375600,8.067375732421874,2.9334874007999896,0.6522136161655188,-2.8844495213866232
1789665140145401600,8.077401611328124,2.9853274781525134,0.508402526602149,-3.3462416879832744
1789665140155427600,8.087427490234376,3.1334102536857125,0.3518225563585758,-3.8082700014233586
1789665140165454600,8.09745458984375,3.228305044388771,0.21992460742890835,-4.282013302576542
1789665140175480600,8.10748046875,3.2251988950669763,0.12635785045921802,-4.712584401479363
1789665140185507800,8.1175078125,3.221771258705854,0.11354863776862621,-5.089553089532256
1789665140195533800,8.127533935546875,3.264131852312386,0.208362179929018,-5.477780253702401
1789665140205559800,8.137559814453125,3.364871569651365,0.3357645710051059,-5.921790095371008
1789665140215586600,8.147586669921875,3.5731484093844887,0.5366086303889751,-6.303337927907705
1789665140225612500,8.157612548828125,3.8287037176430223,0.7978560128092765,-6.672480452379584
1789665140235639600,8.1676396484375,4.118334313982725,1.1546984431564806,-6.951915817919373
1789665140245665500,8.17766552734375,4.266102616739273,1.4704372942209243,-7.286856797581911
1789665140255691800,8.18769189453125,4.167013296955823,1.6593845795840023,-7.605499553394317
1789665140265718800,8.19771875,4.030867627453803,1.8279636151790617,-7.8059946532100435
1789665140275744800,8.207744873046876,3.992285675603151,2.134883784493804,-7.838941229522228
1789665140285771500,8.217771484375,3.952048357760906,2.550647774887085,-7.652313327017426
1789665140295797500,8.227797607421875,3.810802150249481,3.0436516568273304,-7.21490624461472
1789665140305823500,8.237823486328125,3.6235341962754726,3.623775603815913,-6.542021596342325
1789665140315850800,8.247850830078125,3.4912779354274273,4.133441282221675,-5.76965775218606
1789665140325876700,8.257876708984375,3.412085740768909,4.4045296751767395,-5.155864175307751
1789665140335902700,8.26790283203125,3.345846551185846,4.449273072266578,-4.768179447451233
1789665140345929700,8.2779296875,3.3953988098621366,4.227674978667498,-4.6492362571626895
1789665140355955700,8.287955810546874,3.5534102742135523,3.720806237503886,-4.84765396618247
1789665140365982700,8.297982666015624,3.724981477361917,2.9939620355069634,-5.235187887391448
1789665140376008700,8.3080087890625,4.030118270391226,2.325813768106699,-5.522368752491474
1789665140386035000,8.318034912109376,4.440564865154028,1.8553408669263123,-5.682196910876035
1789665140396062000,8.32806201171875,4.6804503105938435,1.3616542634189128,-5.76814676310122
1789665140415487700,8.34748779296875,4.250802171754837,0.32946927025318146,-5.7064031313717365
1789665140425515000,8.357514892578125,3.427159391260147,0.023185645276308058,-5.486379739743471
1789665140435541000,8.367541015625,2.7102970695734023,-0.09665127898156642,-5.066751475137472
1789665140445567700,8.377567626953125,2.281616898983717,-0.1693587877959013,-4.550582406187058
1789665140455593700,8.38759375,2.0123791023314,-0.3599000643521547,-4.114867514654994
1789665140465619700,8.39761962890625,1.8806500802278519,-0.6840735662847757,-3.9413463464826344
1789665140475647000,8.40764697265625,1.8616789839066563,-1.0089403111785649,-3.6862417046010494
1789665140485673000,8.4176728515625,1.901447222932428,-1.2705039199411867,-3.348332522782683
1789665140495700000,8.427699951171874,1.9023567389927802,-1.465935891148448,-2.901251603105664
1789665140505726000,8.437725830078126,1.8375544503450392,-1.5252905819147824,-2.3763217200726268
1789665140515752000,8.447751953125,1.6722364623725414,-1.49450381398499,-1.829539486193657
1789665140525778700,8.45777880859375,1.4561714529812335,-1.4553975459992885,-1.383338271960616
1789665140535805000,8.467804931640625,1.0793489684659987,-1.4383669162213801,-1.0536042132914065
1789665140545832000,8.47783203125,0.6990321390289813,-1.4322761981308458,-0.6577133826255798
1789665140555858000,8.48785791015625,0.483817097530514,-1.4081436273932457,-0.21224165171086787
1789665140565884000,8.4978837890625,0.2812649190545082,-1.4345944119453429,0.24566169075369834
1789665140575911000,8.507910888671875,0.12582410890869797,-1.5690245097011326,0.570814851373434
1789665140585937000,8.51793701171875,0.00267827929854393,-1.8028817808926105,0.8451227908968925
1789665140595964000,8.5279638671875,-0.08063245659470558,-2.1291309200555086,1.0614724624484777
1789665140605990000,8.537989990234376,-0.07564180870056152,-2.4611451986163853,1.2904326092481613
1789665140616016000,8.548015869140626,-0.06945873615145683,-2.7677982414275406,1.4556430451929567
1789665140626043000,8.55804296875,-0.10017638436779379,-3.089122783669829,1.66517076177001
1789665140636068900,8.56806884765625,-0.051862362249568104,-3.4349966607570646,1.9619962380498646
1789665140646096000,8.578095947265625,0.12829437147974967,-3.680619480805099,2.2221441347956654
1789665140656121900,8.588121826171875,0.23637948314547538,-3.8636908598721025,2.494737671616673
1789665140666147800,8.59814794921875,0.32098551954627036,-4.017140715396404,2.777898779681325
1789665140676174800,8.6081748046875,0.3351917395532131,-4.1379993839174505,3.030366643318534
1789665140686200800,8.618200927734375,0.3345322527311742,-4.22035062712878,3.302921601694822
1789665140696227800,8.628227783203124,0.295816006976366,-4.268736472374201,3.5677760686963795
1789665140706253800,8.63825390625,0.20728096056357026,-4.3650943213671445,3.824439045935869
1789665140716280000,8.648280029296876,0.1571499521512538,-4.495943638026714,4.032037840276956
1789665140726306800,8.658306884765626,0.1279867668353021,-4.67722959498167,4.120258560043573
1789665140736332800,8.668332763671875,0.11660144946798681,-5.036753811758756,4.030049881330132
1789665140746359800,8.67835986328125,0.17540113670006394,-5.5555964838325975,3.788879072254896
1789665140756385800,8.6883857421875,0.3269393133841455,-6.10884586789906,3.4549656820744272
1789665140766411800,8.698411865234375,0.6359821739412844,-6.540677195996046,3.1524861255556345
1789665140776439000,8.70843896484375,0.9264764013729989,-6.834775877660513,2.937905217242241
1789665140786465000,8.718465087890625,1.2770727769374848,-6.916012729889154,2.8452140740633007
1789665140796491800,8.72849169921875,1.4102851694665848,-6.912174174639582,2.7481507071495055
1789665140806517800,8.738517822265624,1.1070856281101702,-7.093832472038269,2.5713497866541144
1789665140816543700,8.748543701171876,0.5340449173808097,-7.305660282251238,2.5187217737942933
1789665140826571000,8.758571044921876,0.217354318549484,-7.219846039104461,2.733907077741623
1789665140836597000,8.768596923828126,0.18779533884897828,-6.888042772945761,3.146529847499728
1789665140846624000,8.7786240234375,0.22201675740256904,-6.579971095508337,3.5603847894012928
1789665140856650000,8.78864990234375,0.29176775449886916,-6.232324363529682,3.869826001626253
1789665140866676000,8.798676025390625,0.4126818064689636,-5.881584341710806,4.016037722590565
1789665140876702700,8.80870263671875,0.40486455684676764,-5.565803405070304,4.0831273915231225
1789665140886728700,8.818728759765625,0.13679901884421705,-5.326954901462793,4.242449938473105
1789665140896756000,8.828755859375,-0.4616064347662031,-5.161583721998333,4.521217195492983
1789665140906782000,8.838781982421875,-0.9515187804318964,-5.099897957935929,4.550283130979538
1789665140916808000,8.848807861328124,-1.2209843944907188,-5.1618128545790904,4.270110683336854
1789665140926835000,8.8588349609375,-1.3915455438137054,-5.246591909459233,3.839118144151568
1789665140936860700,8.868860595703126,-1.5306208370268344,-5.374110035869479,3.3058915574163197
1789665140946888000,8.878887939453126,-1.634535969531536,-5.679572992113232,2.410340894052386
1789665140956914000,8.888913818359375,-1.7236182745635509,-5.901440550303459,1.5878466990709303
1789665140966940000,8.89893994140625,-1.761592177518457,-5.888107605999708,1.0493524010658264
1789665140976967000,8.908966796875,-1.6309167561210691,-5.7703965878546235,0.7352198161542415
1789665140986993000,8.918992919921875,-1.3568214364349842,-5.525122435113787,0.5841998181253671
1789665140997019000,8.929018798828125,-0.9080511023662984,-5.219340329918265,0.5400923808515071
1789665141007046000,8.9390458984375,-0.4196832096636295,-4.9037365034103395,0.5297264696598053
1789665141017071900,8.94907177734375,0.11562412886843085,-4.548084744152426,0.5397901830345392
1789665141027099000,8.959098876953124,0.6155589791156352,-4.161729219073057,0.5467062460333109
1789665141037124900,8.969124755859376,0.8265034306228161,-3.733637369765341,0.6315688875436782
1789665141047151900,8.97915185546875,0.8862881833694874,-3.200640500132739,0.8216261799752712
1789665141057177900,8.989177734375,0.9280546104751527,-2.551817110927403,1.0973363875120878
1789665141067203800,8.999203857421875,0.8923496753655373,-1.8403537256747484,1.3835779259353875
1789665141077230800,9.00923095703125,0.7721766510210931,-1.1927934882730244,1.6139228050917387
1789665141087256800,9.0192568359375,0.704075320827961,-0.5828618475198746,1.7686814051270483
1789665141097282800,9.02928271484375,0.6302105317372828,-0.07771043166816234,1.7975959494441747
1789665141107309800,9.039309814453125,0.591982727086544,0.3217717014878988,1.780952273157239
1789665141117335800,9.049335693359374,0.5979904430687427,0.546221092864871,1.6231009678035972
1789665141127363000,9.059363037109375,0.6069827278196811,0.6415110203653573,1.4155068496376275
1789665141137389000,9.06938916015625,0.7730279340881854,0.6604355010658503,1.1866028169393539
1789665141147415000,9.0794150390625,0.9627169777292758,0.6329992126077413,0.963904068621993
1789665141157441800,9.08944189453125,1.2556009498417378,0.45445524783730507,0.6653367171108723
1789665141167467800,9.0994677734375,1.6493838484428822,0.24875965676903722,0.2800882764905691
1789665141177494800,9.109494873046875,2.1089875650845467,0.09430734620392323,-0.12003858430981636
1789665141187521000,9.11952099609375,2.5316636729538438,-0.04529635479748249,-0.5697387465745211
1789665141197547000,9.129547119140625,2.830330977708101,-0.21849311332106588,-1.0956114634156227
1789665141207574000,9.139573974609375,3.0984359709382057,-0.40357027925252914,-1.71196349260509
1789665141217599700,9.149599853515625,3.3647640176236626,-0.5356996988505125,-2.4907354502379895
1789665141227626800,9.159626708984375,3.4821757605612276,-0.5934779340803623,-3.478314993479848
1789665141237652700,9.16965283203125,3.304797916960716,-0.5096878902375698,-4.4428088446885345
1789665141247678700,9.1796787109375,3.007293810766935,-0.1895008275926113,-5.115560221970081
1789665141257706000,9.1897060546875,2.663571558755636,0.35099487336277957,-5.458858111089468
1789665141267732000,9.19973193359375,2.303696628844738,0.9499036003202199,-5.724091932797432
1789665141277758700,9.2097587890625,2.0369769524931907,1.1722224094092846,-6.406123764121532
1789665141287784700,9.21978466796875,1.8394127915628253,1.1375842267483471,-7.211431846502423
1789665141297810700,9.229810791015625,1.8536464840985833,1.1233587175190447,-7.608862892347574
1789665141307838000,9.239837890625,2.078394127769768,1.2012398295789957,-7.586784331530332
1789665141317864000,9.249864013671875,2.416341741902381,1.282885262608528,-7.451541163825988
1789665141327891000,9.259890869140625,2.6910826660156246,1.35308049634099,-7.344870595133304
1789665141337917000,9.2699169921875,2.938294801081717,1.5648796649813652,-7.240192077040672
1789665141347943000,9.27994287109375,3.0656176971808073,1.8874656054615973,-7.14095896487236
1789665141357969700,9.2899697265625,2.980141307686269,2.108980696952343,-7.122657584506273
1789665141367996000,9.299995849609376,2.7867396732628342,2.2521493969589472,-7.058480588150024
1789665141378023400,9.3100234375,2.7716087396264073,2.5100953997462985,-6.846444103622436
1789665141388049400,9.32004931640625,2.8864313428536055,2.881616928309202,-6.565939063024521
1789665141398075400,9.330075439453125,3.0351337115898724,3.242997586607933,-6.22820465325117
1789665141408102400,9.340102294921875,3.1990532309412956,3.6052310623437163,-5.860633908140659
1789665141418128100,9.350128173828125,3.3072716135978695,3.936906318208575,-5.542857413768768
1789665141428154400,9.360154296875,3.1655531123995777,4.011307771459221,-5.493105248606205
1789665141438181400,9.370181396484375,2.6462019062817097,3.690039343318343,-5.664717952808737
1789665141448207400,9.380207275390624,2.0958406448721885,3.1334196060359476,-5.954184298497438
1789665141458234400,9.390234375,1.7827298042237758,2.472430562740564,-6.318513285207748
1789665141468260400,9.40026025390625,1.975208332452923,1.9465975933879613,-6.626223728117346
1789665141478286300,9.410286376953126,2.5999720700263977,1.798082271656394,-6.711139561119675
1789665141488313300,9.420313232421876,3.278178790104389,1.6840157474935054,-6.938166694030166
1789665141498339300,9.43033935546875,3.5847698735952376,1.4004612561970948,-7.272948683738708
1789665141508366300,9.440366455078125,3.624682197266817,1.1802087319880723,-7.502911285579204
1789665141518392300,9.450392333984375,3.464198205322027,1.092746137112379,-7.390617031785846
1789665141528418300,9.460418212890625,3.053596127736568,0.9504057046234607,-7.19340226881504
1789665141538445600,9.470445556640625,2.5042542725026604,0.7554886972010135,-6.976121453893184
1789665141548471600,9.480471435546875,2.027683054447174,0.6153682788491248,-6.591150076648592
1789665141558498300,9.490498291015625,1.6988671335361898,0.5161392583340406,-6.080794077891111
1789665141568524300,9.500524169921874,1.4244902204297483,0.42604689947664737,-5.480405341508984
1789665141578550300,9.51055029296875,1.124706624996662,0.31021511920690537,-4.816047114041448
1789665141588577300,9.520577392578126,0.8562988494277,0.2396592354685068,-4.1673786231368775
1789665141598603500,9.530603515625,0.7714179416082799,0.18550854308605194,-3.514023435720801
1789665141608630500,9.540630615234376,0.7461924610674381,0.1420785666823387,-2.9440584791749713
1789665141618656500,9.550656494140625,0.7491711846172809,0.09258300662934779,-2.3905828851372
1789665141628682500,9.5606826171875,0.7923943864025175,0.004753332006931304,-1.9164444471865891
1789665141638709200,9.570709228515625,0.7838239803254604,-0.15043372257351875,-1.4279407992750406
1789665141648735200,9.5807353515625,0.9323346258819103,-0.30377894867956634,-0.9121797266036271
1789665141658762500,9.590762451171875,1.0414870745182037,-0.47637891035377977,-0.3308136705994606
1789665141668788500,9.60078857421875,1.2242929345168172,-0.7085983512103557,0.18055004389584065
1789665141678814500,9.610814453125,1.3881366121530532,-1.0763327624499797,0.49218613581657406
1789665141688841200,9.62084130859375,1.4948855067789553,-1.5767957282245157,0.5874871692329645
1789665141698867200,9.6308671875,1.4861854829728602,-2.0798539711892605,0.5457131433427334
1789665141708894200,9.640894287109376,1.2911213221646844,-2.585935361367464,0.5762894833922386
1789665141718920400,9.65092041015625,1.1659389452256261,-2.9648066681712866,0.8020598942399024
1789665141728946400,9.660946533203125,1.0733261279799045,-3.127969231675565,1.199775017723441
1789665141738973400,9.670973388671875,0.9369957495607435,-3.23499343611151,1.6228005235522984
1789665141748999400,9.68099951171875,0.865345056322962,-3.3867540233746167,1.9558342082887887
1789665141759025400,9.691025390625,0.9242610634110867,-3.534684238694608,2.1545897709608077
1789665141769052200,9.70105224609375,1.0635901852548122,-3.7676150426909327,2.2589216675728556
1789665141779078400,9.711078369140624,1.2421288893282412,-4.1259705079495905,2.226958841601014
1789665141789105400,9.72110546875,1.4910671175345778,-4.558445102386177,2.1301842285007235
1789665141799131400,9.73113134765625,1.7463668435968458,-5.070367327547073,1.9658949990540742
1789665141809157400,9.741157470703126,1.9536082028023898,-5.628167214524746,1.7711223685383795
1789665141819184400,9.751184326171876,2.2036232664600015,-6.110582482433319,1.5765964062601328
1789665141829210400,9.76121044921875,2.4132851308107375,-6.650025459465384,1.3198475043028592
1789665141839237400,9.7712373046875,2.547896138091385,-7.181853285318613,1.0656108774274586
1789665141849263400,9.781263427734375,2.7260359059751034,-7.638390600126981,0.8237544241756201
1789665141859289300,9.791289306640625,2.984767213921249,-7.952995478725433,0.6268927124261856
1789665141869316400,9.80131640625,3.017207009755075,-8.08670369194746,0.5945797578424215
1789665141879342300,9.81134228515625,2.994408902491629,-8.045458073845506,0.7514899829536676
1789665141889368300,9.821368408203124,2.9261823384836316,-7.685406033802032,1.200694470655918
1789665141899395600,9.8313955078125,2.6695219915926454,-7.092228543972968,1.856052230066061
1789665141909421600,9.841421630859376,2.2031758149534464,-6.616453444731235,2.451565469366312
1789665141919448300,9.8514482421875,1.5863506152942777,-6.339413449895382,2.882150596794486
1789665141929474300,9.861474365234375,1.0770257131502032,-6.051095689719915,3.3331133263409134
1789665141939500300,9.871500244140625,0.631712972189486,-5.697187559258937,3.937583194556832
1789665141949527300,9.88152734375,0.1742915680229664,-5.510495359346271,4.412309661528468
1789665141959553500,9.891553466796875,-0.32594197290986776,-5.4417064852803945,4.83019721994698
1789665141969580300,9.901580322265625,-0.6069581779003143,-5.244854710403084,5.276836241075396
1789665141979606300,9.911606201171875,-0.5752224386826157,-4.939618548652529,5.712406171178817
1789665141989632300,9.92163232421875,-0.39059856947660443,-4.709314586028456,5.9480865661442275
1789665141999659300,9.9316591796875,-0.2316331654012203,-4.746981468860805,5.971128419035673
1789665142009685200,9.941685302734374,-0.10475918211340904,-4.992103938171267,5.721304932427406
1789665142019712500,9.95171240234375,-0.07091974861472845,-5.297299767911434,5.438050885382294
1789665142029738500,9.961738525390626,0.08345803540945053,-5.443864540097117,5.325567246496677
1789665142039764500,9.971764404296875,0.28067192159742116,-5.445607584372162,5.29174973256886
1789665142049791200,9.981791259765625,0.3669163728550076,-5.435172699597477,5.226764342439174
1789665142059817200,9.991817138671875,0.26079174760729074,-5.403286445993185,5.0120706214010715
1789665142069844500,10.001844482421875,0.1116461651481688,-5.490189653420448,4.606615259054303
1789665142079870500,10.011870361328125,-0.055036535306274885,-5.66079639545083,4.136894053024053
1789665142089896400,10.021896484375,-0.06306055954694748,-5.827203932225704,3.7152959496498106
1789665142099923500,10.03192333984375,0.09970745168179274,-5.909212937870621,3.276401259037852
1789665142109949400,10.041949462890624,0.3197390266165137,-5.941609479084611,2.7834125746667384
1789665142119975400,10.051975341796876,0.5548036277711391,-5.958254324415326,2.2174784810721873
1789665142130002200,10.062002197265626,0.8392308102488517,-5.717018048888445,1.76190854999125
1789665142140028400,10.0720283203125,1.126071045217663,-5.275552046483755,1.403499016457796
1789665142150055400,10.082055419921875,1.1826198847830296,-4.749801494717597,1.0939432379424572
1789665142160081400,10.092081298828125,1.11600075597167,-4.1065120665028685,0.8542313955038785
1789665142170107400,10.102107421875,1.03229473715052,-3.342014425677061,0.7302671621829271
1789665142180134400,10.112134521484375,0.8988111264646053,-2.611815944816172,0.6271276902258396
1789665142190160400,10.122160400390625,0.7357119835853576,-1.9825597181290386,0.4975029469251632
1789665142200187400,10.1321875,0.6132020407259464,-1.4552350489139556,0.3535971648156643
1789665142210213400,10.14221337890625,0.53832931670174,-1.0728525191187859,0.13960662361085413
1789665142220239400,10.1522392578125,0.564915856462717,-0.8255138350635767,-0.16532149510383606
1789665142230266400,10.162266357421874,0.6753998459637165,-0.674251844972372,-0.6021972471088171
1789665142240292400,10.172292236328126,0.7905893828071653,-0.5760124200165272,-1.0888345166265965
1789665142250319400,10.1823193359375,0.93252167288661,-0.5475456194669008,-1.5949316888958214
1789665142260345300,10.192345458984375,0.953052565870434,-0.590028085887432,-2.1849691271334883
1789665142270371300,10.202371337890625,0.9669958971574902,-0.6931184580057859,-2.858490319743752
1789665142280398300,10.2123984375,0.9569966273210943,-0.7487959215641021,-3.3052024061083793
1789665142290424300,10.22242431640625,0.9135397629104555,-0.7404957107305526,-3.4606121635287996
1789665142300450300,10.2324501953125,0.8656837867580354,-0.6104875210702418,-3.3214035993248223
1789665142310477300,10.242477294921875,0.9071722737051546,-0.42913785122931003,-3.0665386114180087
1789665142320503600,10.252503662109374,0.9801612298093736,-0.250024562138319,-2.930058595395088
1789665142330530300,10.2625302734375,0.9822856746174394,-0.1090437275648117,-2.8842367554187773
1789665142340556300,10.272556396484376,0.927175781814009,0.0018704700469970702,-3.0279017145097256
1789665142350582300,10.282582275390626,0.8823029131256044,0.04245031771659851,-3.3645687873125074
1789665142360609300,10.292609375,0.9255996185384691,0.0789578013807535,-3.806076290771365
1789665142370635300,10.30263525390625,1.0844272215783595,0.15472002159059048,-4.2461499620348215
1789665142380662500,10.31266259765625,1.2814112445332109,0.23905308626890182,-4.645423420876265
1789665142390688500,10.3226884765625,1.4456700788415968,0.25774434273540975,-4.978401576033234
1789665142400714500,10.332714599609375,1.7491760557986795,0.30204291866719724,-5.286476176080107
1789665142410741200,10.3427412109375,2.21724934849143,0.3942471551120281,-5.641721108102798
1789665142420767200,10.352767333984374,2.786466993801296,0.5331266334921121,-5.996258184117078
1789665142430794500,10.36279443359375,3.3056478117883206,0.6851689603060483,-6.3343392153710125
1789665142440820500,10.372820556640624,3.7221804484665393,0.8808692270606756,-6.724253309714793
1789665142450846500,10.382846435546876,3.9409076628044244,1.0389099175065755,-7.183865209662914
1789665142460873500,10.39287353515625,3.799349028342962,0.9935609557390213,-7.726059531229734
1789665142470899500,10.4028994140625,3.5573917450651527,0.852100813215971,-8.220006246978045
1789665142480925400,10.412925537109375,3.517856145751476,0.9702952309638261,-8.365915185603498
1789665142490952200,10.4229521484375,3.6180101721569895,1.3924533063083886,-8.144272083818912
1789665142500978400,10.432978515625,3.7568110323429105,1.906940705782175,-7.644165676397085
1789665142511005400,10.44300537109375,3.7660020545363424,2.5099001694351433,-7.021852108454704
1789665142521031400,10.453031494140625,3.6443759087741374,3.1264947752088306,-6.387199283421039
1789665142531057400,10.463057373046874,3.533884612749517,3.52180225302875,-5.962918224573135
1789665142541084400,10.47308447265625,3.359094155293703,3.6322435724318027,-5.801508349955082
1789665142551110100,10.483110107421876,3.343881096331775,3.5022137554615735,-6.018032793551683
1789665142561137400,10.493137451171876,3.4992820859238503,3.118547615596652,-6.5755743218541145
1789665142571163400,10.503163330078126,3.863363819874823,2.7939403984218836,-7.254468439674377
1789665142581189400,10.513189453125,4.160860619544983,2.704243760883808,-7.791057780840992
1789665142591216400,10.52321630859375,4.238416737434267,2.706007847946882,-8.057417391708492
1789665142601242400,10.533242431640625,4.0234287096247074,2.71546775020957,-8.228507533341645
1789665142611269400,10.543269287109375,3.389810780596733,2.712265739297867,-8.060452813881636
1789665142621295400,10.55329541015625,2.6663585591256616,2.7124656457841394,-7.7009473018050185
1789665142631321300,10.5633212890625,1.905902741036564,2.640402864614129,-7.290123690423369
1789665142641348400,10.573348388671874,1.2315608796931803,2.4620593908518553,-6.86999039890468
1789665142651374300,10.583374267578124,0.807446847975254,2.1912147435247897,-6.506168192672729
1789665142661400300,10.593400390625,0.5980288753829897,1.8712252492785453,-6.1453451682567595
1789665142671427300,10.60342724609375,0.5483049134016037,1.4834376455694436,-5.819311717671155
1789665142681453600,10.61345361328125,0.5913653258405626,1.0416174228996038,-5.488112847146391
1789665142691480300,10.623480224609375,0.7108508063122629,0.6244231074422597,-5.154132236948609
1789665142701506300,10.63350634765625,0.8873859154783189,0.15127484957277773,-4.792618892180919
1789665142711532300,10.6435322265625,1.111841152074188,-0.2976771246731281,-4.458506764557957
1789665142721559300,10.653559326171875,1.4154115725696086,-0.6709124714165926,-4.023636507156491
1789665142731585300,10.663585205078125,1.7339003068640828,-0.9782891523271798,-3.4803853700131175
1789665142741612500,10.673612548828125,1.9689957415483892,-1.2284580913722514,-2.9273236174732444
1789665142751638500,10.683638427734374,2.0961948651373383,-1.4590122293651102,-2.3468758453577756
1789665142761664500,10.69366455078125,2.0897125173807143,-1.640248501959443,-1.7373673984527587
1789665142771691300,10.703691162109376,1.9910417152702806,-1.8039894498735665,-1.259262979480624
1789665142781717200,10.71371728515625,1.7444425975359976,-2.0446365273356437,-0.926417510792613
1789665142791744500,10.72374462890625,1.3976631499111651,-2.314726556903124,-0.5845148754239082
1789665142801770500,10.7337705078125,1.1586908007282763,-2.5252321786016223,-0.18971300903856753
1789665142811796500,10.74379638671875,0.9741432116288691,-2.71725755623579,0.17441373309791086
1789665142821823200,10.7538232421875,0.8071476458329707,-2.944039189952612,0.4120978691011667
1789665142831849200,10.76384912109375,0.5956468025520444,-3.2614018428266047,0.5850163952052593
1789665142841875200,10.773875244140624,0.47282925504818557,-3.5090789650559424,0.8561381059080362
1789665142851902500,10.78390234375,0.43858810888081784,-3.741101422035694,1.1081406901210547
1789665142861928400,10.793928466796874,0.46148003190755843,-4.042200045590103,1.2802116594851016
1789665142871955500,10.80395556640625,0.577667932138592,-4.348568133980035,1.4260802661001681
1789665142881981400,10.8139814453125,0.7793922814883292,-4.622744848339259,1.6037199755072593
1789665142892007400,10.82400732421875,0.9989413336031139,-4.951876557201147,1.7211884170681238
1789665142902034200,10.8340341796875,1.2528982667542994,-5.411732787299156,1.747737985819578
1789665142912060200,10.84406005859375,1.4589609375692902,-5.867048451358079,1.741050470879674
1789665142922087400,10.85408740234375,1.5635983929991721,-6.3085881035208695,1.7304238629251718
1789665142932113400,10.864113525390625,1.6313387809254227,-6.745479637616873,1.7634049260288476
1789665142942139400,10.874139404296875,1.6361002962388098,-7.112837616759538,1.7790040616989136
1789665142952166400,10.88416650390625,1.644509228143841,-7.443933026909828,1.8019903850108383
1789665142962192400,10.8941923828125,1.671414624595642,-7.691607226529717,1.914475192940235
1789665142972219400,10.904219482421874,1.8565363603211937,-7.672333786261081,2.168434756439924
1789665142982245400,10.914245361328126,2.087623582277447,-7.492470555585622,2.481324647814035
1789665142992271400,10.924271240234376,2.2517641970336437,-7.137067218130826,2.8018536557644604
1789665143002298400,10.93429833984375,2.231024483604729,-6.695266284683346,3.158074739342928
1789665143012324400,10.944324462890625,1.9637138556227087,-6.374773517090082,3.39460912078917
1789665143022351400,10.954351318359375,1.371707017008215,-6.477939877054095,3.25249606731534
1789665143032377600,10.964377685546875,0.5777274072408676,-6.762219760015607,3.156339293852448
1789665143042403600,10.974403564453125,0.1323883627951145,-6.802187028744816,3.3245623556166883
1789665143052430300,10.984430419921875,0.04619505720287561,-6.636926908439397,3.6613042472213504
1789665143062456300,10.994456298828124,-0.22463146994560956,-6.490515865510702,4.053722433340549
1789665143072483300,11.0044833984375,-0.5710907457053661,-6.420773051720857,4.379493433597684
1789665143082509300,11.01450927734375,-0.7077005255877972,-6.186049519088864,4.803555881258845
1789665143092535300,11.024535400390626,-0.5455880556583405,-5.810596496295928,5.313762826934457
1789665143102562300,11.034562255859376,-0.3437152377486229,-5.618473503506183,5.482517803618312
1789665143112588300,11.04458837890625,-0.3667782795585692,-5.842060725095868,5.297452328124642
1789665143122614300,11.0546142578125,-0.31976401492729783,-6.216192728418111,4.9297068109691144
1789665143132641300,11.064641357421875,-0.06668810239434242,-6.496632887086272,4.660255079305172
1789665143142667300,11.074667236328125,0.27527342355474826,-6.574622135695814,4.603205742871761
1789665143152694500,11.084694580078125,0.4716344923056662,-6.532464078924059,4.641977664336562
1789665143162720500,11.094720458984375,0.43117958618998525,-6.379585885807871,4.647138408100605
1789665143172746500,11.10474658203125,0.19643077298626302,-6.156636962121724,4.590158629772067
1789665143182773200,11.114773193359374,-0.06786649852395057,-5.932914715975523,4.499005363684892
1789665143192799200,11.12479931640625,-0.27097382666468617,-5.671097424712777,4.319012369149923
1789665143202826200,11.134826171875,-0.3844681038975715,-5.4266304967015975,4.080153928670287
1789665143212852500,11.1448525390625,-0.3285679374992847,-5.211449284407496,3.82587346265316
1789665143222878500,11.15487841796875,-0.21553075638413427,-4.976496619194745,3.562495497944951
1789665143232905500,11.164905517578125,-0.17222352957725523,-4.703185289493203,3.302871332812309
1789665143242931500,11.174931396484375,-0.15800912626385688,-4.376949009811878,3.093401483902335
1789665143252958200,11.184958251953125,-0.08169394834637642,-3.957443787063658,2.980719692096114
1789665143262984200,11.194984130859375,-0.018628712624311445,-3.4667888063371177,2.8542975442290306
1789665143273010200,11.20501025390625,0.07803009207658469,-2.9941224867656824,2.668852129507065
1789665143283037400,11.215037353515624,0.1550104559045285,-2.5610157319054005,2.4304355875760315
1789665143293063400,11.2250634765625,0.2553179923713207,-2.1738865921050308,2.205575861832499
1789665143303089400,11.23508935546875,0.39391397763490676,-1.8495672519609332,1.9153455460339783
1789665143313116400,11.245116455078126,0.40284313402175903,-1.6722943300396202,1.5374819549679755
1789665143323142400,11.255142333984375,0.4246072951275855,-1.5841665492534636,1.1408142947107553
1789665143333169400,11.26516943359375,0.4960545747477561,-1.5343004023224114,0.7133738950490951
1789665143343195400,11.2751953125,0.6824994488358497,-1.5336299557149409,0.28630408226549625
1789665143353221400,11.285221435546875,0.9063783468484878,-1.5646201372623443,-0.23374796559810637
1789665143363248400,11.295248291015625,1.2039573449093848,-1.6650012504220009,-0.949483913603425
1789665143373274400,11.3052744140625,1.6228794340074062,-1.7990660219967365,-1.9563357280701397
1789665143383300900,11.31530078125,2.12618200712204,-1.8707722448140383,-3.249304577797651
1789665143393326800,11.325326904296874,2.6049650560081004,-1.7360481325477362,-4.544650678050518
1789665143403352800,11.335352783203126,2.817748559510708,-1.4043138399720192,-5.600958305081725
1789665143413379600,11.345379638671876,2.9123288774371145,-0.8971972615271806,-6.2816270313590765
1789665143423405600,11.355405517578125,2.7608102822363376,-0.3077151190847158,-6.550019024837017
1789665143433432800,11.365432861328125,2.534795541238785,0.2705547244697809,-6.567821808031201
1789665143443458800,11.375458740234375,2.2512240988075733,0.781974553066492,-6.41774698189795
1789665143453484800,11.38548486328125,2.0026269391238687,1.1566495772242544,-6.2598413160085675
1789665143463511800,11.39551171875,1.8056769645690918,1.400222186744213,-6.18288667114377
1789665143473537800,11.405537841796875,1.5849299348413943,1.5642928050041198,-6.00787497215271
1789665143483564800,11.415564697265625,1.4959692103624342,1.7386849107921123,-5.807216790729761
1789665143493590800,11.4255908203125,1.4907657965004444,1.9251152448981999,-5.618612035194039
1789665143503616800,11.43561669921875,1.4586650233626364,2.0062042130887505,-5.398364187160134
1789665143513643800,11.445643798828126,1.4723568641066551,2.0161065984219313,-5.285902175584435
1789665143523669800,11.455669677734376,1.604959161913395,1.9560849681794643,-5.3200154575884335
1789665143533695700,11.46569580078125,1.8518097701907157,1.8889006067007779,-5.45808829576075
1789665143543722800,11.47572265625,2.1701848149776457,1.8868571181744336,-5.601294405168295
1789665143553748700,11.485748779296875,2.5284920571804044,2.0292840599030253,-5.786251744112372
1789665143563775700,11.495775634765625,2.6660043388605117,2.2402724966824055,-5.906259348762035
1789665143573801700,11.5058017578125,2.6154946333289146,2.36760591417551,-5.949139874589443
1789665143583827700,11.51582763671875,2.628039642125368,2.477798227253556,-5.97083440452516
1789665143593854700,11.525854736328125,2.820525038486719,2.742607101547718,-5.934581772404909
1789665143603880700,11.535880615234374,3.036157501679659,3.1040929737865923,-5.8583583644241095
1789665143613907700,11.54590771484375,3.1833985656917094,3.4944758546859025,-5.8395028573065995
1789665143623933700,11.55593359375,3.246735019570589,3.9265842461586,-5.665203690499067
1789665143633959700,11.565959716796876,3.3092309309720993,4.416618756899237,-5.405840222129226
1789665143643986700,11.575986572265625,3.2428865274488925,4.814254385405778,-5.2531414772331715
1789665143654012700,11.5860126953125,3.0300819811582564,4.932776135411858,-5.262657493597269
1789665143664040000,11.5960400390625,2.861599391674995,4.755061022680998,-5.55310992771387
1789665143674066000,11.60606591796875,2.693969035106897,4.300607528409362,-6.118219260922074
1789665143684092000,11.616091796875,2.632658534097671,3.741428169772029,-6.678369510418176
1789665143694118700,11.62611865234375,2.837767265188694,3.3658401224225756,-7.095345214688778
1789665143704144600,11.63614453125,3.1042753446161746,3.125464847639203,-7.2178212552785865
1789665143714171600,11.646171630859374,3.316743206298351,2.85677883965075,-7.108025832563638
1789665143724197600,11.65619775390625,3.4116800825774667,2.4685008220762015,-6.930861923974752
1789665143734224000,11.666223876953126,3.3290041374564168,1.9168314006775617,-6.81603669039905
1789665143744251000,11.6762509765625,3.1942204039573667,1.352590082475543,-6.690864834854007
1789665143754276900,11.68627685546875,3.0552082391083237,0.8098375425040721,-6.527231438967585
1789665143764302800,11.696302734375,2.943833438247442,0.345596813711524,-6.269263224348426
1789665143774329600,11.70632958984375,2.723440628784895,0.03383154245316982,-5.883771622622013
1789665143784355600,11.71635546875,2.510385907125473,-0.1507137085586786,-5.363517914706469
1789665143794382800,11.7263828125,2.240409274804592,-0.29395956545472146,-4.82139490481019
1789665143804408800,11.736408935546875,1.9707401009976864,-0.4125549652189016,-4.279420947995781
1789665143814434800,11.746434814453124,1.754125641030073,-0.4877461075425148,-3.733758658057451
1789665143824461800,11.7564619140625,1.6044892063140868,-0.5273989034950732,-3.228364665621519
1789665143834487600,11.766487548828126,1.5078887807369232,-0.5967734684944153,-2.7945120608299967
1789665143844514800,11.776514892578126,1.4245266069173812,-0.623842677205801,-2.2853256903737784
1789665143854540800,11.786540771484376,1.2069149526059626,-0.6374398254036903,-1.940749451881647
1789665143864566800,11.79656689453125,0.850174229067564,-0.7010358070015907,-1.588813498276472
1789665143874593800,11.80659375,0.5850117190301418,-0.734030898630619,-1.1301987926721573
1789665143884619800,11.816619873046875,0.3106757589885965,-0.8077461231827735,-0.7147492750555277
1789665143894646500,11.826646484375,0.11189276032038033,-0.89238664637506,-0.299493818706274
1789665143904672800,11.8366728515625,0.05873509756326675,-1.071526238951087,0.006959317618608474
1789665143914698800,11.84669873046875,0.05016366857290268,-1.3013631685853004,0.3100613899499178
1789665143924725800,11.856725830078124,0.23623795578293502,-1.6045248621493577,0.5096662629276514
1789665143934751700,11.866751708984374,0.44595520358271895,-2.0592554197967052,0.6163374161422253
1789665143944777700,11.87677783203125,0.629218013568595,-2.535973645107448,0.7113268993914127
1789665143954804700,11.8868046875,0.9109644325297326,-2.956342206686735,0.8707780411571264
1789665143964830700,11.896830810546875,1.20236488808617,-3.3182933583497998,1.1102572438836098
1789665143974857700,11.906857666015625,1.4414027767859399,-3.6444404984429477,1.3814391603410243
1789665143984883700,11.9168837890625,1.5990649893082678,-3.9601989309906958,1.6462784297734498
1789665143994909700,11.92690966796875,1.7533986419297753,-4.296551238755882,1.8478730152636766
1789665144004936700,11.936936767578125,1.919742758079618,-4.663353337581455,1.9875228934943674
1789665144014962700,11.946962646484375,1.9651378970764577,-5.076635740292072,2.0169775360375644
1789665144024990000,11.956989990234375,1.9955973327480256,-5.487940413188934,2.0337936462819575
1789665144035016000,11.967015869140624,2.0702242653176186,-5.889518641841411,2.0378239247113465
1789665144045042000,11.9770419921875,2.1696727738022803,-6.322671573930978,1.9590046550184488
1789665144059454700,11.991454833984376,2.2215794866502283,-6.808382376253604,1.8694588241279124
1789665144069480700,12.001480712890626,2.214362833269685,-7.117278814077377,1.8354998559027909
1789665144079506700,12.011506591796875,2.265809088999033,-7.35748574655652,1.884127985471487
1789665144089533700,12.02153369140625,2.3863038926437494,-7.4563693146348,2.0494050569117066
1789665144099559700,12.0315595703125,2.478376903924346,-7.377792037004232,2.3229554560661314
1789665144109586700,12.041586669921875,2.4873218424022197,-7.191002806457877,2.6656489495515823
1789665144119612700,12.05161279296875,2.312566163998842,-6.924922597053647,3.043767976683378
1789665144129638700,12.061638671875,1.9169024200871585,-6.825441063082218,3.259562936961651
1789665144139666000,12.071666015625,1.4165925990477204,-6.880116071599722,3.3153549668103452
1789665144149692000,12.08169189453125,0.9822735457882285,-6.815069306671619,3.516925586903095
1789665144159718700,12.09171875,0.769568660479784,-6.559359100112319,3.875716813230514
1789665144169744600,12.10174462890625,0.6228805541753769,-6.311774332341551,4.254571168899536
1789665144179770600,12.1117705078125,0.6009237200416624,-6.1161582367390395,4.655294826549292
1789665144189797600,12.121797607421875,0.8423287762641907,-5.828569375360011,5.1207180431246755
1789665144199824000,12.131823974609375,1.0665561954535543,-5.626255827945471,5.4215264515608546
1789665144209851000,12.141850830078125,0.8517861943088472,-5.6596811276853085,5.410859511595964
1789665144219876900,12.151876953125,0.3253260329686105,-5.750443933150172,5.26780362431407
1789665144229902800,12.16190283203125,-0.44651977866292,-5.747803647774457,5.369592850705981
1789665144239929600,12.1719296875,-1.1631691882513462,-5.581711168298125,5.642853911525011
1789665144249955600,12.18195556640625,-1.7645299845360218,-5.447015697604417,5.8464341178745025
1789665144259981600,12.191981689453126,-2.0930337707579136,-5.416679011529684,5.906030800703167
1789665144270008800,12.2020087890625,-2.0916367634415627,-5.5059927872300145,5.7121156637996435
1789665144280034800,12.212034912109376,-1.897160485523939,-5.7512786304086445,5.2338656988769765
1789665144290061800,12.222061767578126,-1.52303841907382,-6.105328799688816,4.394685157510638
1789665144300087800,12.232087890625,-1.15876554646492,-6.408803796985745,3.482501339253783
1789665144310113800,12.24211376953125,-0.8705845644116401,-6.595088000619411,2.632200268936157
1789665144320140800,12.252140869140625,-0.5176186467042192,-6.719014824539423,1.878456369575858
1789665144330166800,12.262166748046875,-0.12474869822952896,-6.689181996333598,1.3341203598052263
1789665144340193800,12.27219384765625,0.30392328905370086,-6.452361783683299,0.9713812726348638
1789665144350219800,12.2822197265625,0.6221908183455467,-6.053229194617271,0.7500625804990529
1789665144360245800,12.292245849609374,0.7564672599095851,-5.495031832754612,0.6972942823857069
1789665144370272500,12.3022724609375,0.730327441002801,-4.816398996219038,0.7471721197545528
1789665144380298800,12.312298828125,0.6036627165514975,-4.020063909366726,0.8665724061608314
1789665144390326000,12.322325927734376,0.4178793751120567,-3.2369051149517296,0.9613485389202833
1789665144400979000,12.33297900390625,0.22891280052661894,-2.5196245678529143,0.971975731396675
1789665144411006000,12.343005859375,0.08150222516655921,-1.9431939224243162,0.8797089511096478
1789665144421032000,12.353031982421875,-0.017714556921459734,-1.4600301742359996,0.6841255887329578
1789665144431058000,12.363057861328125,-0.08627546745035797,-1.0619704750984906,0.43606268205642695
1789665144441085200,12.373085205078125,-0.08967848082687706,-0.7301590256333351,0.0766448482632637
1789665144451111200,12.383111083984375,-0.039411972934007646,-0.49750645405650135,-0.2577098559439182
1789665144461137200,12.39313720703125,0.1320096291432157,-0.29806407816410063,-0.5591133076637983
1789665144471164000,12.403163818359374,0.3461924049844965,-0.13878420131206512,-0.8794874173134565
1789665144481190000,12.41318994140625,0.6213128664672375,-0.0669067135810852,-1.2655804920643567
1789665144491217000,12.423216796875,0.8911458525337278,-0.01233867256939411,-1.65979959012568
1789665144501243000,12.433242919921875,1.1854081272620707,0.027218261793255805,-2.0729811628103256
1789665144511269000,12.44326904296875,1.5152783064663409,0.08107318609952927,-2.488015669885278
1789665144521296100,12.453296142578125,1.8547732961714267,0.18971651616990565,-2.8540795175641773
1789665144531322000,12.463322021484375,2.077780087524652,0.2691027720957994,-3.1958225784569976
1789665144541348900,12.473348876953125,2.261894984295219,0.3409334980756044,-3.573240763843059
1789665144551374800,12.483374755859375,2.432922728216648,0.403712318071723,-3.929904915013909
1789665144561400800,12.49340087890625,2.601311794197559,0.44913551411926744,-4.359313984400034
1789665144571428000,12.503427978515624,2.7513912965059277,0.5015367324858904,-4.837301498994231
1789665144581454000,12.5134541015625,2.8098095832049843,0.5182178181737661,-5.408280016496777
1789665144591481000,12.523481201171874,2.825878089952469,0.6014239246487617,-5.853538396921754
1789665144601507000,12.533507080078126,2.9135750781059264,0.7979115423887968,-6.166490832138061
1789665144611532800,12.54353271484375,2.858659246569872,0.9255629397898912,-6.397663978812098
1789665144621560000,12.55356005859375,2.7999568822324274,0.9244938492536544,-6.5764721474766725
1789665144631586000,12.5635859375,2.933217936208844,0.9400082292497157,-6.693575847378373
1789665144641613000,12.573613037109375,3.246853677514195,0.8587795603275299,-6.950220119917392
1789665144651639000,12.58363916015625,3.531994561219215,0.7414876443773508,-7.2874202766835685
1789665144661665000,12.5936650390625,3.7863349407300353,0.8403069150477648,-7.4982982388257975
1789665144671691800,12.60369189453125,3.9002413058951495,0.9858628024518489,-7.65284699550271
1789665144681718000,12.613718017578124,3.895160349369049,1.1389525924921036,-7.797685674548148
1789665144691745000,12.6237451171875,3.9098026227056977,1.312583650779724,-7.993495831418037
1789665144701771000,12.63377099609375,4.045795439733564,1.534239612045884,-8.233952939265967
1789665144711797000,12.643796875,4.229690410143137,1.9143600421279667,-8.470556878817082
1789665144721824000,12.653823974609375,4.430543821877241,2.3667086730748412,-8.660895326277613
1789665144731850000,12.66385009765625,4.513851050639152,2.9296698883384464,-8.771709570646285
1789665144741877000,12.673876953125,4.255025926929712,3.650286594122648,-8.608698106050491
1789665144751903000,12.683903076171875,3.7428701852738855,4.466245834377408,-8.171930490595102
1789665144761929000,12.693928955078125,2.905391771650314,5.127175256440043,-7.615368620979785
1789665144771956000,12.7039560546875,1.9560465358652173,5.494447310864925,-7.0572168518245215
1789665144781982000,12.71398193359375,1.2661259971179066,5.657080589798093,-6.545664921280741
1789665144792009000,12.724009033203124,0.9292800606168806,5.569290078142285,-6.2690393524646755
1789665144802035200,12.73403515625,0.8061386879861354,5.207150125908852,-6.231909352988004
1789665144812061200,12.744061279296876,0.9343312065266072,4.6731893796801565,-6.343398720139264
1789665144822088000,12.754087890625,1.0770049626231193,4.171653816238045,-6.374827293103933
1789665144832114000,12.764114013671875,1.1596714092634617,3.6721436211436984,-6.186235397049784
1789665144842141000,12.774140869140625,1.2927519921064377,3.1358348504841325,-5.947506720429659
