time,seconds_elapsed,z,y,x
1789701306727415800,0.054415771484375,-0.21434242338240145,-0.034037001897394656,0.09432780447006225
1789701306737436700,0.064436767578125,-0.2192600060403347,-0.04997574478536844,-0.0063315411090850825
1789701306747458800,0.074458740234375,-0.14564064307808874,-0.058085693743824954,-0.11275310347676276
1789701306757479700,0.084479736328125,-0.10437632027566432,-0.0459580335766077,-0.1354828216791153
1789701306767501600,0.09450146484375,-0.10012216996252536,-0.024246260245144365,-0.0888923354178667
1789701306777522700,0.104522705078125,-0.05372866757810116,0.0010807809740304947,-0.03542962529957294
1789701306787544800,0.114544921875,-0.03712181617021561,0.04303542412817478,0.007845452803373336
1789701306797565700,0.124565673828125,-0.05367255347669124,0.06802490395605564,0.029703064346313476
1789701306807587600,0.134587646484375,-0.06675356884598732,0.04055646679401397,0.022380174112319944
1789701306817608700,0.144608642578125,-0.057468438628315924,-0.04091068705916404,-0.03582710018455982
1789701306827630800,0.154630859375,0.01606967579126358,-0.09663374332487583,-0.07448503988087177
1789701306837651700,0.164651611328125,0.10210077655911445,-0.05958440786898136,-0.08520750942528248
1789701306847673600,0.174673583984375,0.13488368674218654,-0.022822657182812688,-0.05583353090286255
1789701306857694700,0.18469482421875,0.0762397745937109,-0.010258359163999557,0.029834581771492955
1789701306867715600,0.194715576171875,0.02035948193967342,0.05904752451330423,0.06403028136193752
1789701306877737700,0.20473779296875,0.025284078860282895,0.1474813025087118,0.025467034211754797
1789701306887758800,0.2147587890625,0.06563830108046531,0.07024754844158887,-0.03203647572994232
1789701306897780700,0.22478076171875,-0.050125090128183364,-0.12736819654554127,-0.1468190392076969
1789701306907801600,0.234801513671875,-0.37032033607959747,-0.21032383539080618,-0.2637538122832775
1789701306917823700,0.24482373046875,-0.6210024853438139,-0.08992869272828101,-0.2943488570332527
1789701306927844900,0.254844970703125,-0.7075947271257639,0.03116904524564743,-0.25313012693822384
1789701306937866800,0.26486669921875,-0.7115940258949994,0.09279109642207622,-0.1721212382465601
1789701306947887600,0.2748876953125,-0.45956922985017296,0.1677636275589466,-0.04549216963052749
1789701306957909800,0.28490966796875,-0.0831473620250821,0.2898056606456637,0.21054069301187991
1789701306967930400,0.294930419921875,0.143275375251472,0.7555696534827351,0.5308855765670538
1789701306977952300,0.3049521484375,0.6330553267091512,0.03745294782072305,-0.2552928579300642
1789701306987973000,0.31497314453125,0.38444121589064595,-1.2650275343567132,-1.423016202354431
1789701306997994200,0.324994140625,0.03515811488181352,-0.9628811553150415,-0.9659855510711669
1789701307008016400,0.335016357421875,-0.03892915785312653,-0.8239756657108664,-0.5762251859843731
1789701307018037200,0.345037353515625,0.17281038955450057,-1.3183461598291992,-0.5482715956538915
1789701307028059100,0.35505908203125,0.292998026946187,-1.4400655368328095,-0.9732382986783981
1789701307038080300,0.365080322265625,0.4037745696529746,-1.1918167521953582,-1.676069756925106
1789701307048102100,0.37510205078125,0.5522568658977747,0.026530279529094696,-3.066336366844177
1789701307058123300,0.385123291015625,-0.6077613109767437,0.4548673357695341,-1.6198095250427722
1789701307068145200,0.395145263671875,-0.9999661466062069,-0.1668494353234768,0.191888599511981
1789701307078166300,0.405166259765625,-0.34051731849014755,-0.3387698903009295,0.693601273086667
1789701307088188200,0.415188232421875,0.24420886159688232,-0.1319806587770581,0.5888584575861692
1789701307098209000,0.425208984375,0.6651575611516833,-0.3893503229811787,0.3898702552020549
1789701307108231400,0.4352314453125,-0.1935965724736452,0.2841734999775886,-0.18935469712018965
1789701307118252300,0.445252197265625,-1.0125476880207658,0.6086337098971009,-0.8901005812644958
1789701307128274200,0.455274169921875,-2.4710142662018537,0.6548217528373003,-0.5775006127476692
1789701307138295300,0.46529541015625,-2.419160744845867,0.033444588962197305,-0.7760124297916888
1789701307148316200,0.475316162109375,-0.8571364692956208,-0.9326414998739957,-2.1411703174173833
1789701307158338300,0.48533837890625,0.1493283916801214,-1.8011469199240207,-3.6982355092555284
1789701307168359200,0.495359130859375,0.07920037796497345,-1.751260899248719,-4.776660860070586
1789701307178381300,0.50538134765625,-0.38046895125880836,-1.1933645661592482,-3.7178193306475875
1789701307188402200,0.515402099609375,-0.43789282009303565,-0.34572014783024785,-1.1125310340344905
1789701307198424300,0.52542431640625,-0.7797562924951315,0.13342296653985977,1.037766008168459
1789701307208445200,0.535445068359375,-0.6005623393833637,0.14106909737884998,1.9203139820963142
1789701307218467300,0.54546728515625,0.1379834428558126,0.4806915128558874,1.5740969906598328
1789701307228488200,0.55548828125,-0.003328267639875412,1.608912867975235,1.6477748058110475
1789701307238510300,0.56551025390625,-1.6670175586804747,3.2207138586074113,3.1991338949620722
1789701307248531500,0.575531494140625,-3.3508906828328966,4.452449364215135,4.788928805491328
1789701307258553300,0.58555322265625,-2.7757529998242854,4.752002219632268,5.122594358390569
1789701307268574200,0.59557421875,-1.9194412909150123,5.109456644397974,4.664719657498598
1789701307278595300,0.60559521484375,-1.9490017319202422,4.733394549795985,3.3012124596893786
1789701307288617500,0.615617431640625,-2.2392390619814395,3.222997001108527,1.8705565562367439
1789701307298638300,0.625638427734375,-2.339779311225563,0.9516916527807712,-0.029418986707925796
1789701307308660200,0.63566015625,-2.1169993143655357,-0.9802864636242389,-1.5081564917623995
1789701307318681300,0.645681396484375,-0.8233481814622878,-2.008492031764984,-2.5507155794262886
1789701307328703200,0.655703125,1.1901930965162812,-2.4729092861682176,-2.7448610179543493
1789701307338724000,0.66572412109375,2.8044600388705727,-1.7598188842356204,-1.8096926299512386
1789701307348746200,0.675746337890625,3.6325612600788473,-0.3548486261814833,-0.5300941339284181
1789701307358767400,0.685767333984375,3.2560955531120297,0.019843933632969855,-0.180355398106575
1789701307368789200,0.695789306640625,1.6873767483592033,0.13816986880600451,-1.0340537096470594
1789701307378810000,0.70581005859375,0.6714005471944808,-0.02432838557064533,-2.4637124187558888
1789701307388832300,0.715832275390625,-0.3262535230770707,-1.5496698208898305,-3.6348996398985385
1789701307398853400,0.725853271484375,-1.6381142664097248,-1.9125351647883653,-3.6440374706000087
1789701307408874200,0.735874267578125,-1.9889459120348094,-1.4515344408303499,-2.570960495075583
1789701307418896100,0.745896240234375,-2.2382094266727566,-1.0434154122322796,-1.2264976049542426
1789701307428917200,0.755917236328125,-1.2270505626618862,0.5814391212403774,-0.1225967443600297
1789701307438939400,0.765939453125,1.1855889637216925,1.0503554406285285,1.3837415920644998
1789701307448960300,0.775960205078125,3.523560787133872,1.091770570078492,1.6791194998845458
1789701307458982100,0.785982177734375,3.2488030580163,1.3922387867748736,3.062975658239424
1789701307469003300,0.796003173828125,2.1090987703740596,0.49735915454030033,4.211868629987538
1789701307479025400,0.806025390625,1.672102899120748,-0.7463800925940275,4.320313514876365
1789701307489046300,0.81604638671875,2.4658348177373406,-2.1923007851958274,3.685819095274806
1789701307499068200,0.826068115234375,3.626524610263109,-2.6428859136015177,2.2445903598815202
1789701307509089300,0.83608935546875,4.490187558718025,-3.8966748455852267,0.7329922032326459
1789701307519111200,0.846111083984375,5.941091008168459,-4.20838634082973,-0.7852747636556625
1789701307529132300,0.85613232421875,5.835327617448568,-3.3922190107822416,-1.214917057275772
1789701307539153400,0.8661533203125,4.545022433972359,-1.3672756104320287,-1.5310127589538693
1789701307549175300,0.87617529296875,3.7112007892906664,-2.8680782323002814,0.9553796936437488
1789701307559196200,0.886196044921875,2.6746950103163716,-4.140971677726507,3.152979169769585
1789701307569218000,0.896218017578125,3.9953976701438423,-2.6335540216326714,4.184288256883621
1789701307579239400,0.906239501953125,3.0951088723421094,-1.7417974898546933,5.318671641764045
1789701307589261300,0.91626123046875,-10.692785184764862,-1.4961024813532828,4.477770560215413
1789701307599282200,0.9262822265625,-17.535342217820883,-1.1944061841666698,2.20675922639817
1789701307609304000,0.936303955078125,-12.647974665409325,-0.5989040507823229,1.3617422339633107
1789701307619325200,0.9463251953125,-9.881737681949138,-0.23023615808486936,0.7752469983771443
1789701307629347300,0.956347412109375,-6.920075741544365,0.056119362106919285,-0.1292734456449747
1789701307639368200,0.9663681640625,-3.509626662066579,0.15546470247805116,-0.5266092144221067
1789701307649389300,0.976389404296875,-0.5711971286892891,-0.17876608308851719,-0.550107871170342
1789701307659411200,0.9864111328125,0.7175029576778411,-1.335510352858901,-1.1718369172230363
1789701307669432000,0.99643212890625,1.6707926933050155,-2.2075860326111316,-2.111310308943689
1789701307679454200,1.0064541015625,2.8435364962399006,-2.5674545327812432,-2.924077767419815
1789701307689475300,1.016475341796875,3.8385096568644044,-1.2267483648449182,-3.9271512323915956
1789701307699497200,1.026497314453125,4.506031316798925,0.14932780715823174,-3.6549464026272296
1789701307709518000,1.03651806640625,4.755880522370338,1.541233416455984,-3.2326603169888255
1789701307719540500,1.04654052734375,3.455751864016056,3.0772622500061986,-3.2944445729896423
1789701307729561300,1.056561279296875,3.69467051025033,0.46580315580368037,-2.5108041325375434
1789701307739583200,1.066583251953125,3.2769045323848722,-1.768493773600459,-2.183347663411498
1789701307749604400,1.076604248046875,-0.3953483943521976,-1.816504648053646,-1.5995532112166284
1789701307759626200,1.086626220703125,-5.647579186481237,-0.14385317513942716,0.46838761933892964
1789701307769647400,1.0966474609375,-6.40189416372776,1.0023504113942383,2.1567148002907635
1789701307779668200,1.106668212890625,-5.0347033089697355,1.9056003970891235,2.3149004521653054
1789701307789690400,1.1166904296875,-2.99676657153368,1.6803671618580818,1.1477993312925099
1789701307799711200,1.126711181640625,-0.9865957929015159,1.9319383689165115,0.11602701058089733
1789701307809733000,1.136733154296875,0.2732709976911545,2.201887528708577,-0.13365999016612767
1789701307819754200,1.146754150390625,1.0538859528422355,2.305692186576128,0.23375790247023104
1789701307829776400,1.1567763671875,1.5295874023258684,2.5720640724033115,1.0161401595547794
1789701307839797200,1.16679736328125,1.5611305415809154,2.060523247775435,1.274179685844481
1789701307849819100,1.176819091796875,1.64161569865942,1.9624644400835036,1.1213462086528538
1789701307859840300,1.18684033203125,-0.20534604697823522,6.436598981884122,0.46690118017345666
1789701307869862400,1.1968623046875,-4.333729461288452,10.911920103120803,0.8977025807008147
1789701307879883300,1.20688330078125,-0.6015466011803597,0.07686053684055805,2.1042329179033636
1789701307889904400,1.216904296875,3.1887223910629747,-1.423376267838478,2.994268909499049
1789701307899926300,1.22692626953125,2.977954319036007,-2.4980939963072535,2.7487434123456476
1789701307909947100,1.236947021484375,2.3572119459331033,-4.175937777167558,1.8012151628546416
1789701307919969300,1.24696923828125,2.06825354976654,-3.219274181193113,0.9679834468901157
1789701307929990400,1.256990478515625,1.360846454167366,-2.4550252544313667,-0.20010347014963625
1789701307940012300,1.26701220703125,-0.07139350360631942,-2.502028997668624,-1.5160226950928568
1789701307950033200,1.277033203125,-1.9798972209215162,-2.9003093538194893,-3.035205607782304
1789701307960055300,1.28705517578125,-3.107704150021076,-3.533218550056219,-4.3345016147047275
1789701307970076200,1.297076171875,-3.1529239324510097,-3.796882930490374,-4.780082066690921
1789701307980098000,1.30709814453125,-2.545187171393633,-3.266666046965122,-4.141140604552627
1789701307990119000,1.317118896484375,-2.0554630417764184,-1.799406213736534,-2.539830612796545
1789701308000140000,1.32714013671875,-1.6909703889369965,-0.47007367272973055,-0.9958863299466669
1789701308010162200,1.337162109375,-1.3253706516385078,0.39431437512934203,0.12835567321293057
1789701308020183000,1.34718310546875,-1.1054046162206679,0.9366378760337829,0.8560350108597428
1789701308030205000,1.357204833984375,-0.9967932887237518,1.0949567988991737,1.3274977267950772
1789701308040226000,1.36722607421875,-0.737283105359599,0.5921259349495173,1.5556524024307727
1789701308050248000,1.377248046875,-0.4245451166115701,-0.1817763708204031,1.6912050744757054
1789701308060269000,1.38726904296875,-0.20682605640292168,-0.7560369787335396,1.7050447992578148
1789701308070291000,1.397291015625,-0.2687117269515991,-0.7634387794226407,1.3774641192302106
1789701308080312000,1.40731201171875,-0.5177728508852422,-0.2837093895971775,0.7930883600160479
1789701308090334000,1.417333984375,-0.7147030978262424,0.08316518994271754,0.18828173412643373
1789701308100354800,1.427354736328125,-0.99832378622666,0.16779752982854843,-0.4378929662235081
1789701308110376200,1.437376220703125,-1.47090228138417,0.4632984795063734,-0.5785510716486721
1789701308120398000,1.447398193359375,-1.954643537199497,0.8649819220989942,-0.07000007648654281
1789701308130419000,1.4574189453125,-2.1758615454398096,1.1074398483753203,0.6117442431330681
1789701308140440800,1.46744091796875,-1.8115280286848543,0.9263228182464838,0.9456776531882584
1789701308150462000,1.4774619140625,-0.5946528230786323,0.5406067601144313,0.8518648855682462
1789701308160484000,1.487484130859375,0.7154400337986647,-0.17718495137691498,0.06000884382613003
1789701308170505000,1.4975048828125,1.1966790975347161,-0.7038590477287769,-0.6936439431846141
1789701308180526800,1.50752685546875,0.4725871168553829,-1.001536172401905,-1.3386917593739927
1789701308190548000,1.5175478515625,-1.1018363292798399,-1.2185960380494594,-1.765259175593406
1789701308200570000,1.527570068359375,-2.3104770827651024,-1.5920190163195131,-2.1506901331737636
1789701308210591000,1.537591064453125,-2.598430101281404,-1.714233191102743,-2.2562075863085687
1789701308220612000,1.547612060546875,-2.0016203924298286,-1.035251979520917,-1.570204367135465
1789701308230634000,1.557634033203125,-1.4074644129574299,-0.10850596742630005,-0.40882469264939425
1789701308240654800,1.56765478515625,-1.1014297943055629,0.27811551511287685,0.29354835430532694
1789701308250677000,1.577677001953125,-0.8874600036278366,0.2978109801858663,0.8263267588816583
1789701308260698000,1.587697998046875,-0.43383068522065876,0.3192418907493353,1.4001673878170549
1789701308270720000,1.597719970703125,0.11632540900558233,0.4557546399980783,1.6768091771155595
1789701308280740900,1.607740966796875,0.33627310504913327,0.5584609812349081,1.4940804740063844
1789701308290763000,1.617762939453125,0.05224252067357302,0.5446943216890097,1.2228422973170876
1789701308300784000,1.6277841796875,0.050286710430681704,0.5975415302574634,1.0672940082088112
1789701308310806000,1.637805908203125,-0.1827458003744483,0.32509880008399483,0.28624738364219665
1789701308320827000,1.647826904296875,-0.824638513533771,-0.040352468654513356,-0.25884090580046176
1789701308330849000,1.65784912109375,-0.9385071770370006,0.03463701361715794,-0.3966524626880884
1789701308340870000,1.667869873046875,-0.49553778433203693,0.41946752108633517,-0.6593859920129179
1789701308350891000,1.67789111328125,-0.28162235419005155,0.7956763306826352,-0.7682008792579174
1789701308360913200,1.6879130859375,-0.048449265870451924,1.1632254484832285,-0.863643074710667
1789701308370934000,1.69793408203125,0.14908230796456337,1.4998580344945192,-1.0079320109188556
1789701308380956000,1.707955810546875,0.30784429842233657,1.828891835939884,-1.0994187467440961
1789701308390977000,1.71797705078125,0.42474838409870863,2.138703050521016,-1.0835656363129615
1789701308400999200,1.727999267578125,0.47501785113364453,2.399196984225511,-1.0499882147513329
1789701308411020000,1.73802001953125,0.42436786034852264,2.5537755515187976,-1.0392270206317304
1789701308421042000,1.7480419921875,0.33191841697096824,2.6112363913625476,-1.0580810664445162
1789701308431063000,1.75806298828125,0.1735807894051075,2.634561152848601,-1.0404695680387317
1789701308441085200,1.768085205078125,-0.0024558687195181846,2.6353496728777883,-0.929390389123559
1789701308451106000,1.77810595703125,-0.16100655451416968,2.6291017183989287,-0.7648908779270946
1789701308461127200,1.788127197265625,-0.2772767262011766,2.5903040779709814,-0.5327998857557773
1789701308471149000,1.798149169921875,-0.41882396248579024,2.5582120726615187,-0.2525811147533357
1789701308481170000,1.808169921875,-0.5413870968371629,2.53461784658432,0.03498772675096989
1789701308491192000,1.818192138671875,-0.660018152436614,2.562550394126773,0.29979835461080073
1789701308501213200,1.828213134765625,-0.8510317226797341,2.5487977631062266,0.47513066385835406
1789701308511235000,1.838235107421875,-1.0418436328709124,2.4552614012748,0.5330671583898365
1789701308521256000,1.848255859375,-0.8429626902535557,2.2752672376960517,0.49595907848402854
1789701308531277800,1.85827783203125,-0.3916208982616663,2.144065454337001,0.3637297056429088
1789701308541299200,1.86829931640625,-0.13635931225270032,2.0798224070072173,0.2196085272170603
1789701308551321000,1.878321044921875,-0.22840134387314318,1.8501421292394398,0.05005991593748331
1789701308561342000,1.888342041015625,-0.6884674173295497,1.2995254317641258,-0.23683117243573068
1789701308571363000,1.898363037109375,-1.4560121707662939,0.429792515745759,-0.5933494853951037
1789701308581385000,1.908385009765625,-2.5125515607267617,-0.49535073732733725,-0.8857638672344386
1789701308591406000,1.918406005859375,-3.624444881379604,-1.210952245298028,-0.8930304972365498
1789701308601428000,1.928427978515625,-4.243486880305409,-1.497107274481654,-0.45448564297556876
1789701308611449000,1.938448974609375,-4.1783790328398345,-1.310657066631317,0.39188480989485974
1789701308621471000,1.948470947265625,-3.94218484313339,-0.8230839775681495,1.1774703930653632
1789701308631491800,1.958491943359375,-3.8493583831369875,-0.4521031317532062,1.4593949450723827
1789701308641514000,1.968513916015625,-3.7378982420802114,-0.3626841421127319,1.2593573797658084
1789701308651535000,1.97853515625,-3.611664894783497,-0.4181663753598928,0.9839278888665139
1789701308661556000,1.988555908203125,-3.5019638723537323,-0.36491876929700373,0.9062203798078
1789701308671577900,1.998577880859375,-3.4495801896438,-0.1079939262509346,1.1236541933342814
1789701308681599000,2.008598876953125,-3.5408044751405714,0.33938042341470714,1.6080087587423622
1789701308691621000,2.01862109375,-3.656435179880261,0.7130833876699209,2.17078307313174
1789701308701642000,2.02864208984375,-3.786142925289273,0.47457449128031726,2.5614596762806174
1789701308711663900,2.038663818359375,-3.3401018700540064,-0.5870318266808986,2.781375223620236
1789701308721685000,2.04868505859375,-2.1324416520386933,-1.876554335346818,3.010574147611856
1789701308731707100,2.05870703125,-0.06494973429441452,-2.873863829964399,2.9295395399570463
1789701308741728000,2.06872802734375,2.610909643626213,-3.5602585326731204,2.6144538921043274
1789701308751750000,2.07875,4.710003152814507,-4.00799060973525,2.1772500771887597
1789701308761771000,2.08877099609375,5.191887674847245,-4.1693332643359895,1.3668290357083082
1789701308771792000,2.0987919921875,3.8495691032782196,-3.8211955339699983,0.4561439315766096
1789701308781814000,2.10881396484375,1.7205618096023796,-2.8936750303715466,-0.6743938837915658
1789701308791835100,2.118835205078125,-0.2491118312075734,-1.6941466808855532,-2.3483415339961646
1789701308801857000,2.12885693359375,-1.817370324972272,-0.36971944757699965,-4.402525057356059
1789701308811878000,2.1388779296875,-2.9334859394952653,0.8632879776626825,-6.29612960396409
1789701308821899800,2.148899658203125,-2.823822034205496,1.708157086059451,-7.674141127943992
1789701308831921200,2.158921142578125,-0.8746800170317292,2.0506717158466574,-8.372436696326732
1789701308841943000,2.168943115234375,1.6788324996367097,1.8340303678721188,-8.459690616887807
1789701308851964000,2.1789638671875,3.4741353697076436,1.3263964875549077,-7.559129431885481
1789701308861986000,2.188986083984375,4.49058123421073,0.7363280696570873,-5.79067482125163
1789701308872007000,2.1990068359375,5.065305367982387,0.03431143492460251,-3.723350369028747
1789701308882028000,2.209028076171875,5.22522354273796,-0.702141137894988,-1.9343465991020201
1789701308892050000,2.2190498046875,4.905677700605988,-1.2682611094504594,-0.20970701866671443
1789701308902071000,2.229071044921875,4.191458879165351,-1.665478220283985,1.4506760704353452
1789701308912093000,2.239093017578125,3.07608502292037,-1.9415467397391795,2.7568139060765504
1789701308922113800,2.24911376953125,1.8833993789359926,-2.0226298627108332,3.835907073150575
1789701308932136000,2.259135986328125,0.8444564359426497,-1.7262334254980087,4.6821045075416565
1789701308942157000,2.269156982421875,-0.04144990850239992,-1.0151163694649934,5.095949512571096
1789701308952179000,2.279178955078125,-0.7263688395701349,-0.07569032401740551,5.0393958507001395
1789701308962199800,2.28919970703125,-1.1329496988154948,0.8129162192970514,4.86415969530344
1789701308972222200,2.29922216796875,-1.2760944334246218,1.5107114369422197,4.3833238055408
1789701308982243300,2.309243408203125,-1.326276368306577,2.067435803642869,3.77720587785691
1789701308992264200,2.31926416015625,-1.208731500508636,2.3664625893592834,3.1769223554149266
1789701309002286300,2.329286376953125,-0.9117325673580169,2.459181789588928,2.55699802069664
1789701309012307500,2.339307373046875,-0.5208836763821542,2.4024603699356315,1.9902686850711702
1789701309022329300,2.349329345703125,-0.17787921725139022,2.0925059474915266,1.4585834825590251
1789701309032350200,2.35935009765625,0.07372808403372764,1.648741605016589,0.9857119958043098
1789701309042372400,2.369372314453125,0.11473930885791778,1.2581909663349389,0.7206742811903357
1789701309052393500,2.3793935546875,0.12295067236423492,0.9387672892779111,0.37275603879392144
1789701309062415400,2.389415283203125,0.09853044379167258,0.7041746895492077,0.016539046868681906
1789701309072436200,2.399436279296875,0.04319503513667732,0.6346686071246862,-0.31910598940998314
1789701309082458600,2.409458740234375,0.04085808008909225,0.7267021631777286,-0.6778145058900118
1789701309092479500,2.4194794921875,0.1260802025616169,0.8064660202443599,-1.053892674843967
1789701309102500400,2.429500244140625,0.24913258173465727,0.8412105858892202,-1.4724378203883766
1789701309112522200,2.439522216796875,0.17178864529132842,0.8337889114558696,-1.8152502640783785
1789701309122543400,2.44954345703125,-0.19973578761471433,0.7937456548810005,-1.8127049635097383
1789701309132565200,2.459565185546875,-0.6862976720750331,0.814567493635416,-1.6207725248560307
1789701309142586400,2.46958642578125,-1.177704640212655,0.9379945513397455,-1.298182492722571
1789701309152608500,2.4796083984375,-1.6410463743388652,1.0801567046523093,-0.788649500785768
1789701309162629400,2.48962939453125,-2.0668413448810576,1.221882804635167,-0.2447258712083101
1789701309172651300,2.4996513671875,-2.480586981189251,1.3515502180337906,0.2805523868709802
1789701309182672400,2.50967236328125,-2.8925784673064947,1.5185393540889023,0.6703928314566612
1789701309192694500,2.519694580078125,-3.2262463582932948,1.6501415349423885,0.9375704807087778
1789701309202715400,2.52971533203125,-3.3307629638224836,1.64454356880486,1.0739198560893535
1789701309212736300,2.539736328125,-3.1457267144232985,1.469801918926835,1.0713850769147277
1789701309222758400,2.54975830078125,-2.7777666777342556,1.0982120013028382,1.0018667195305229
1789701309232779300,2.559779296875,-2.296225270050764,0.44574002646207805,1.0106552984029054
1789701309242801400,2.569801513671875,-1.8170545370213687,-0.5154185428440571,1.378299401010573
1789701309252822300,2.579822265625,-1.615482455623895,-1.4248749819636344,1.9859774176180363
1789701309262844400,2.589844482421875,-1.6787006899505852,-1.8453928888857363,2.737914852078259
1789701309272865300,2.599865234375,-1.8433616753190756,-1.769771538451314,3.3587998485222457
1789701309282887400,2.609887451171875,-2.0560773742824794,-1.3892740917503832,3.756445998422801
1789701309292908500,2.619908447265625,-2.1725291861467064,-0.9240186329573392,4.0205557845368975
1789701309302930400,2.629930419921875,-2.051687030369043,-0.5893208144009113,4.196211626650393
1789701309312951300,2.639951416015625,-1.6852653091631828,-0.48792497124075884,4.317579413737357
1789701309322972400,2.649972412109375,-1.2189800689309835,-0.7254243983268738,4.414678728747368
1789701309332994600,2.65999462890625,-1.077688268712163,-1.4119552946358918,4.610420788817107
1789701309343015400,2.670015380859375,-1.0229097998201846,-2.182607074177265,4.86384171539545
1789701309353037300,2.680037353515625,-0.9247539614945649,-2.703760361281037,5.038132698896527
1789701309363058400,2.690058349609375,-1.2424291874490678,-2.9725708724319935,4.950269706526399
1789701309373080600,2.70008056640625,-1.9486258843451738,-3.1109733809500932,4.451848475712538
1789701309383101400,2.710101318359375,-2.625512753996253,-3.159573453468084,3.5440400960609315
1789701309393123300,2.720123291015625,-3.1375656197994948,-2.9515953044205903,2.2112030540645122
1789701309403144400,2.73014453125,-3.6245910118520257,-2.4485779779881236,0.5829416347578168
1789701309413165300,2.740165283203125,-4.052050116214156,-2.0799340506881476,-0.9959136563450097
1789701309423187500,2.7501875,-3.8197663779497146,-2.123544059833884,-2.2094617633551357
1789701309433208600,2.76020849609375,-2.602497204589844,-2.356059853288531,-2.9774887473508715
1789701309443230500,2.77023046875,-0.869290432947874,-2.632766670647263,-3.1827228583872316
1789701309453251300,2.780251220703125,1.1579016961771995,-2.983186958992481,-2.6862904633030293
1789701309463273200,2.790273193359375,3.1402994286775585,-3.4722236908674238,-2.056046102361381
1789701309473294600,2.800294677734375,4.643648812419176,-3.9050586430490015,-1.8432251894578338
1789701309483316500,2.81031640625,5.424838937109708,-4.273480452030897,-2.0006933407127856
1789701309493337300,2.82033740234375,5.382057780003548,-4.5245296810418365,-2.398580313631892
1789701309503359200,2.830359130859375,4.2390208408072585,-4.554665876108408,-2.8611706448689103
1789701309513380400,2.84038037109375,2.0705375690504906,-4.033973776775598,-2.85510973739475
1789701309523401200,2.850401123046875,0.2125038097783923,-3.175640791171789,-2.5400071384072302
1789701309533423400,2.86042333984375,-0.40860535081028937,-2.424914193806052,-2.2695763325780627
1789701309543444500,2.870444580078125,0.0630593905031681,-1.8135808695614337,-2.1186144944772125
1789701309553466400,2.88046630859375,0.9931915379047394,-1.1960042670130728,-1.9681310875430702
1789701309563487200,2.8904873046875,1.8777704331383107,-0.5967372281372547,-1.7548332047775386
1789701309573509400,2.90050927734375,2.432557109774649,0.0012058686584234238,-1.526311741656065
1789701309583530500,2.910530517578125,2.763651350881159,0.6690180359721183,-1.281322543336451
1789701309593552400,2.920552490234375,3.3212878639906642,1.4534972653359173,-1.0826216334611176
1789701309603573200,2.9305732421875,3.7242630999594923,2.4211387669205666,-0.7278866967871784
1789701309613594400,2.940594482421875,3.5639682008460163,3.206221222874522,-0.28289222799539565
1789701309623616500,2.950616455078125,3.078326664367318,3.7242578392624854,0.22920330790579319
1789701309633637400,2.960637451171875,2.7214117533057927,3.867041339343786,0.48104836346954105
1789701309643659300,2.9706591796875,2.639350432951748,3.6836283072322606,0.37786914402395483
1789701309653680400,2.980680419921875,2.6075275999724865,3.291761909776926,-0.09524608835875988
1789701309663702500,2.99070263671875,2.661486569175124,2.842601261216402,-0.8410735155060887
1789701309673723400,3.000723388671875,2.6243831654444336,2.553870828586817,-1.4529016375303268
1789701309683745300,3.010745361328125,2.4611095427811143,2.5150422084987163,-1.7699714449375867
1789701309693766400,3.020766357421875,2.413623568984866,2.666688229471445,-1.8425424678906797
1789701309703788300,3.030788330078125,2.4867227074652907,2.936659016573429,-1.8341273985058069
1789701309713809400,3.040809326171875,2.574928229662776,3.2394717505693436,-1.8527824146151541
1789701309723830500,3.05083056640625,2.6308850946843623,3.5733857252717014,-1.940577894707024
1789701309733852400,3.060852294921875,2.656367034204304,3.8773569816529747,-2.144156347490847
1789701309743873300,3.070873291015625,2.5220652390033007,4.1756174591720105,-2.376599660231173
1789701309753895200,3.080895263671875,2.0926637684017417,4.487095730182528,-2.523462830841541
1789701309763916500,3.09091650390625,1.29591834718287,4.712765018743276,-2.546020699608326
1789701309773938400,3.1009384765625,0.2624669873431325,4.803904256305098,-2.453745736014843
1789701309783959300,3.110959228515625,-0.9341066039904952,4.685089076310396,-2.20292680862844
1789701309793981400,3.1209814453125,-2.1457681666016577,4.244292935991287,-1.7878402791053056
1789701309804002300,3.131002197265625,-3.402789212374389,3.220853559339046,-1.0033642646118999
1789701309814024400,3.1410244140625,-5.283957471257448,1.5431389578163623,0.9346189374268055
1789701309824045300,3.15104541015625,-6.72800944737792,-0.9045230743706226,3.6901755369186398
1789701309834066400,3.16106640625,-6.159021226909756,-4.309501028960943,4.973212775218487
1789701309844088300,3.17108837890625,-4.906459790894389,-7.308489952719211,4.700616608048975
1789701309854109200,3.181109130859375,-4.728812482702732,-9.112311060288548,4.411468242268264
1789701309864131300,3.19113134765625,-5.457240154498815,-9.501247834032773,4.103698762647808
1789701309874152400,3.20115234375,-5.486822222813964,-7.341933957159519,3.2338077334582804
1789701309884174300,3.21117431640625,-4.204242080631852,-3.797098034545779,1.2713897628650068
1789701309894195200,3.2211953125,-2.3731442590802905,-0.9866799640536308,-0.46146074268519877
1789701309904217600,3.231217529296875,-0.8732613824054598,1.1784697793662546,-1.4895909075021743
1789701309914238500,3.241238525390625,-0.13729571631997822,2.8522704223155975,-2.193687563379109
1789701309924259300,3.25125927734375,0.01880494597405195,3.568530101934075,-2.6516268539398906
1789701309934281500,3.261281494140625,-0.7979512898772955,2.2227187198132277,-2.174186744095385
1789701309944302300,3.27130224609375,1.1777028866469859,-0.7847054393351077,-0.7933917268767953
1789701309954324500,3.281324462890625,5.4858039856821295,-4.082148901879787,-0.5297641713216901
1789701309964345300,3.291345458984375,8.28148275220394,-6.398260775661468,-1.0155439472272991
1789701309974367000,3.301366943359375,9.13847367554903,-7.803965777730942,-1.4706161579191683
1789701309984387800,3.311387939453125,8.142762263777852,-8.254462643331289,-2.1362465972796083
1789701309994410000,3.321409912109375,3.6066333303570746,-7.487163096827268,-1.2869655176594852
1789701310004431000,3.33143115234375,-3.2792443735092878,-5.569080234783888,0.4064744762614369
1789701310014453000,3.341452880859375,-4.182648380722105,-3.242749749326706,-0.416097752392292
1789701310024473900,3.351473876953125,-1.2577990444079041,-1.3657295500338076,-3.292262845036387
1789701310034495000,3.361494873046875,2.2038208348587154,-0.10833236442506312,-5.367448239892721
1789701310044517000,3.37151708984375,4.579579368090629,0.7453595173746347,-6.235051742666959
1789701310054538000,3.3815380859375,5.682352393698692,1.3091583525061607,-6.18948884588778
1789701310064559900,3.391559814453125,6.047492112269997,1.5879583427518604,-5.103800810593366
1789701310074581000,3.4015810546875,5.9772390108704565,1.2733809366822242,-3.360770856334269
1789701310084603100,3.41160302734375,5.708849940001964,0.6324936011731624,-1.5981716937303543
1789701310094624000,3.4216240234375,5.201760834085941,0.05581599524617195,-0.05531593676954508
1789701310104646000,3.43164599609375,4.510980171377956,-0.317825009688735,1.4963032646223902
1789701310114667000,3.4416669921875,3.7150901979446407,-0.5585948367476463,2.9435169196441766
1789701310124688000,3.45168798828125,2.7123031486988065,-0.6270721606463193,4.257114715902507
1789701310134710000,3.4617099609375,1.6356605896472929,-0.4222808249413967,5.329677604424953
1789701310144731100,3.471731201171875,0.3372549556933343,0.19224398882091046,5.755493033233285
1789701310154753000,3.4817529296875,-1.1134651000142097,1.068653898385167,5.261532873481512
1789701310164774000,3.49177392578125,-2.0443980424046515,1.8171604816138742,4.054233889994025
1789701310174795800,3.501795654296875,-2.1222480286739764,2.1784248200565575,2.48165139555037
1789701310184817200,3.511817138671875,-1.6894250591911375,2.3074434141576288,1.2493977112874388
1789701310194839000,3.521839111328125,-1.0848447163380681,2.2970780874878165,0.29975130059868094
1789701310204860000,3.53185986328125,-0.70226797914505,2.10038822517395,-0.5139046311497688
1789701310214881000,3.541881103515625,-0.5757459511000663,1.8263012349247931,-1.024988651920855
1789701310224903000,3.55190283203125,-0.5072201118845492,1.395418001332879,-1.3376426887124777
1789701310234924000,3.561924072265625,-0.30066410459466275,0.7560340561240911,-1.58507811114043
1789701310244946000,3.57194580078125,0.10308047177884727,0.12740122203230858,-1.7902429563328623
1789701310254967000,3.581967041015625,0.5681634966144338,-0.28765549687445163,-1.9704002015188335
1789701310264989000,3.591989013671875,0.9929308411419391,-0.2607768422991037,-2.212393140631914
1789701310275009800,3.602009765625,1.2006512160360812,0.023051205241680143,-2.348603984324634
1789701310285032000,3.612031982421875,1.0511071357786654,0.37330432032644745,-2.330606555341184
1789701310295053000,3.622052978515625,0.43687049130797384,0.7195107903689145,-2.0661483941808343
1789701310305075000,3.632074951171875,-0.6352782634556293,1.0875403851628302,-1.6137541705265641
1789701310315095800,3.642095703125,-1.7125889310270548,1.3900357237726448,-0.8048875188812613
1789701310325117000,3.652116943359375,-2.5563643989682197,1.5883698461621998,0.3465872860535979
1789701310335139000,3.66213916015625,-3.2501766844570636,1.7649872267842293,1.8349366690620779
1789701310345160000,3.672159912109375,-3.9884026966899633,1.9658418075621127,3.2330788346618413
1789701310355181800,3.682181884765625,-4.852253568932413,2.1942285383880136,4.194415390883386
1789701310365203000,3.692202880859375,-5.339010665437579,2.313914655998349,4.708002042125165
1789701310375225000,3.70222509765625,-4.984379481399059,2.200603918638825,4.917420160847902
1789701310385246000,3.712245849609375,-3.8639597399413583,1.884239629152417,4.739895894514024
1789701310395267800,3.722267822265625,-2.318342409312725,1.4632844998568295,4.019724009887874
1789701310405289000,3.7322890625,-0.8818922864980995,1.0225468117266894,2.894425848738849
1789701310415309800,3.742309814453125,0.13352160460874438,0.5899737253516912,1.928352619384229
1789701310425332000,3.75233203125,0.6849976953923702,0.06601824030876159,1.4108648690506815
1789701310435353000,3.76235302734375,0.8005068195790052,-0.5214782812744378,1.2724240743488073
1789701310445375000,3.772375,0.4356482560366392,-1.0817366673201323,1.2752470228150485
1789701310455395800,3.782395751953125,-0.16154650660976766,-1.496093129003048,1.117890222980082
1789701310465418000,3.79241796875,-0.9408766826473176,-1.7066992884665726,0.6036182198226452
1789701310475439000,3.802439208984375,-1.8456985938340424,-1.713423628285527,-0.012778817552328108
1789701310485461000,3.8124609375,-2.5558716470152136,-1.5627531743466854,-0.40446372096091504
1789701310495481900,3.82248193359375,-2.98136149713099,-1.59560622715652,-0.15078589701205491
1789701310505504000,3.83250390625,-3.2844653230279683,-2.2708564355164764,1.1365119213417172
1789701310515524900,3.84252490234375,-3.1191245387017723,-2.7880986866563555,3.00809606706053
1789701310525546000,3.8525458984375,-2.7738877904742956,-2.7730840728759762,4.367327194985747
1789701310535568000,3.86256787109375,-2.7141408855199813,-2.599299869853258,5.214700979679822
1789701310545589000,3.872589111328125,-3.0446570344775914,-2.268345329478383,5.767646996885538
1789701310555611000,3.88261083984375,-3.5791076100498436,-1.7933605038315057,6.002831717288494
1789701310565631700,3.8926318359375,-4.418639449071884,-1.301567166724801,6.090926180326938
1789701310575654100,3.902654052734375,-5.158078344225883,-1.0939157654136418,5.774434465068579
1789701310585675000,3.912675048828125,-4.694510984650254,-1.4390233343034982,4.30146852915287
1789701310595697000,3.92269677734375,-2.9697359412670132,-2.393337736803293,2.4517881722062826
1789701310605718000,3.932718017578125,-0.3140554280221462,-3.516048804068565,0.986899744284153
1789701310615739000,3.94273876953125,2.3693067267440258,-4.215551410153508,-0.3574515021562576
1789701310625761000,3.952760986328125,4.434944102662802,-4.5383501166015865,-1.3923638744592666
1789701310635782000,3.962781982421875,5.811594859683513,-4.881595398750901,-2.1792864053219554
1789701310645804000,3.972803955078125,6.187257725834846,-5.246743300628662,-2.98897080309093
1789701310655825000,3.982824951171875,5.2315048149645325,-5.573628399607538,-3.955702204093337
1789701310665847000,3.992846923828125,2.462531392277777,-5.576265177851915,-4.790159224069118
1789701310675868200,4.0028681640625,-1.2467092028558253,-4.98499147581756,-4.670999760681391
1789701310685890000,4.01289013671875,-3.1274203656211492,-4.0895173848211765,-4.018632999780774
1789701310695911000,4.022910888671875,-2.560274850410223,-3.1880893538564443,-3.529031619760394
1789701310705931800,4.032931884765625,-0.5136407195165753,-2.1902251479655503,-3.1566432452350854
1789701310715954200,4.0429541015625,1.4490730191528796,-1.0701742398202418,-2.482261636403203
1789701310725975000,4.05297509765625,2.868325192798674,-0.02668167069852352,-1.7246815198808907
1789701310735997000,4.062996826171875,3.98599300519973,0.9614140053719281,-1.0346224494457243
1789701310746018000,4.07301806640625,4.916569096976518,1.9839836134523152,-0.39067163471281524
1789701310756040000,4.0830400390625,5.188914796516299,3.004654694435,0.32075112626850605
1789701310766061000,4.09306103515625,4.5873248676508664,4.022093953889608,1.371971074771881
1789701310776083000,4.1030830078125,3.4970720086589453,4.979931269818544,2.246190780815482
1789701310786104000,4.11310400390625,2.523272568966448,5.611250566515326,2.500218148854375
1789701310796125000,4.123125,2.150849415388703,5.870149339982867,2.2138278496101496
1789701310806146800,4.133146728515625,2.49440800127089,5.711278043931722,1.1925748770862816
1789701310816168200,4.143168212890625,3.23108561501801,5.236317183682322,-0.2753647551000118
1789701310826190000,4.153190185546875,3.933420229658484,4.752286881792545,-1.6406313637971877
1789701310836211000,4.1632109375,4.413814805394411,4.422500216153264,-2.654962720364332
1789701310846232800,4.17323291015625,4.589225732836127,4.176072801724076,-3.2951170654237267
1789701310856254000,4.18325390625,4.470691707870364,3.974033395075798,-3.5665041490644214
1789701310866276000,4.193276123046875,4.20825482340455,3.7353877205640074,-3.5794396184831854
1789701310876297000,4.203296875,3.7531519253134724,3.430757123491168,-3.5516245598405596
1789701310886318800,4.21331884765625,3.1949265064001082,3.1328713245034217,-3.5138808123797176
1789701310896340000,4.223340087890625,2.57842659317255,2.823947414150834,-3.4515397992789745
1789701310906360800,4.23336083984375,1.835865182083845,2.5033687218397853,-3.4030011015594
1789701310916383000,4.243383056640625,0.8393596973255276,2.204882618871331,-3.3421365907520055
1789701310926404000,4.253404052734375,-0.16940116563290356,1.877419427743554,-3.1313083129703996
1789701310936426000,4.263426025390625,-0.9262743029296397,1.5858084712415932,-2.581798699954152
1789701310946446800,4.27344677734375,-1.6109110560551285,1.2315256622493267,-1.4781541522085666
1789701310956469000,4.283468994140625,-2.3170877330765127,0.6120815122634172,0.3055436202645302
1789701310966490000,4.293489990234375,-3.127157623031735,-0.7879337537318467,2.2106723081886765
1789701310976513000,4.303512939453125,-3.843372878986597,-2.9056168125778434,3.482680202952027
1789701310986534000,4.313533935546875,-4.418742324924469,-5.009243289020657,4.035529774045944
1789701310996554800,4.3235546875,-4.6812788703724735,-6.785590114209056,3.681013156297803
1789701311006577000,4.333576904296875,-5.637071820992231,-7.848268445315957,2.9232004000633953
1789701311016597800,4.34359765625,-6.0376171994656325,-7.418542565065622,1.8519477173566816
1789701311026620000,4.353619873046875,-5.475238752526044,-4.649737776944041,0.8393015373975038
1789701311036640800,4.363640869140625,-4.5619791217312216,-1.5002321285039186,-0.15082067606449126
1789701311046663000,4.373662841796875,-3.717771399852633,0.6364829630702734,-1.011252679774165
1789701311056683800,4.383683837890625,-3.5992911509007213,2.0290064120054243,-1.401354405644536
1789701311066706000,4.393705810546875,-3.9496681846261024,2.0058423940390346,-0.9183476015836
1789701311076727000,4.40372705078125,-2.825060343828797,-0.4791664952456951,1.2539257101058958
1789701311086748000,4.413747802734375,1.1625067788198589,-3.92551983179748,3.477484387874603
1789701311096769800,4.423769775390625,6.179256205686927,-5.991600129178166,3.3834149420797823
1789701311106790700,4.433790771484375,9.001269436904787,-7.305148825597763,2.4896336264759302
1789701311116813000,4.44381298828125,9.243812703377008,-8.078937734121084,1.3950783941149711
1789701311126834000,4.453833984375,7.660579051059484,-8.040286808687448,0.5440437488257884
1789701311136855800,4.463855712890625,3.5605548852711912,-6.053663494381309,0.3938502647489309
1789701311146877000,4.473876953125,-3.033890725791454,-2.815344420978427,0.7893290074825287
1789701311156898800,4.48389892578125,-5.303362428951263,-1.1394576194047927,-2.48713421087563
1789701311166920000,4.493919921875,-0.739812404641509,-0.41262160071432585,-6.210712835702299
1789701311176941800,4.50394189453125,3.415902084186673,0.46674598961174485,-7.032754026219249
1789701311186963000,4.513962890625,5.589573572236299,0.6092214466571807,-7.675546903088688
1789701311196983800,4.52398388671875,6.358081910008192,0.3264385242551565,-7.571240140917896
1789701311207005700,4.534005615234375,5.818728364825248,-0.0998462756305933,-6.136270465919375
1789701311217027000,4.544027099609375,4.877883392490446,-0.4769646012872457,-4.068634463529288
1789701311227049000,4.554049072265625,4.513318258936703,-0.8200608303546905,-2.1838968217268584
1789701311237069800,4.56406982421875,4.547412836240231,-0.9989449868649244,-0.5160331676110625
1789701311247091700,4.574091796875,4.390341283087432,-1.067837321305275,1.2180568166062236
1789701311257112800,4.58411279296875,3.743716280709207,-1.0525976665973662,2.8165143415406346
1789701311267135000,4.594135009765625,2.8355191940009594,-0.8310901738911867,4.061302513206005
1789701311277155800,4.60415576171875,1.7529731099940835,-0.015412088665366171,4.883129768711329
1789701311287177000,4.614177001953125,0.3789442259095609,1.2924170610636472,5.014561853694915
1789701311297198800,4.62419873046875,-0.7959551476240158,2.55794903781116,4.7139504291355605
1789701311307219700,4.6342197265625,-1.078598369294405,3.4389854381322857,3.862735166582465
1789701311317241900,4.644241943359375,-0.8805893872059881,3.860437995555997,2.696302738751471
1789701311327263000,4.654262939453125,-0.8091851430099457,3.9418461126983164,1.55657127084136
1789701311337284900,4.664284912109375,-0.9114168524723499,3.65181219625473,0.4982645789474249
1789701311347305700,4.6743056640625,-1.3248445819377899,3.134567607027292,-0.5467816493570804
1789701311357328000,4.684327880859375,-1.8584195437192916,2.3574089298099277,-1.5196166279315948
1789701311367349000,4.694348876953125,-2.1280641676068304,1.274255965951085,-2.2545921139359475
1789701311377369900,4.704369873046875,-1.6930290750324726,0.006407528954744338,-2.7722891231060025
1789701311387391700,4.714391845703125,-0.633096827763319,-0.910744140842557,-3.0995974159330126
1789701311397412900,4.724412841796875,0.554555790489912,-1.2907792307287453,-3.099298725247383
1789701311407435000,4.73443505859375,1.6004688647568226,-1.2297452085733414,-2.87457051692903
1789701311417455900,4.744455810546875,2.2126959229707714,-0.8216904773831367,-2.5602605296239256
1789701311427477800,4.754477783203125,2.1980057188391684,-0.17876374500095843,-2.053482097092271
1789701311437499000,4.764498779296875,1.5579145021438598,0.632958880597353,-1.3054074755400418
1789701311447520800,4.774520751953125,0.4158563448518514,1.2919295698076485,-0.2205757648140192
1789701311457542000,4.7845419921875,-1.054761566632986,1.6610948906332252,0.9504933829069137
1789701311467563000,4.79456298828125,-2.640602186578512,1.8655711690396068,1.9304460845321416
1789701311477585000,4.8045849609375,-4.006456824296713,2.0141642321825026,2.588023858079314
1789701311487605800,4.814605712890625,-4.849954059818387,2.090470642271638,2.955745994359255
1789701311497627600,4.824627685546875,-4.900525140148401,2.038505477234721,3.3960581505537033
1789701311507649000,4.83464892578125,-4.177078763896227,1.9399673615932465,3.9235760042533276
1789701311517671000,4.8446708984375,-3.043850394269824,1.8355963020145891,4.228721272850036
1789701311527691800,4.85469189453125,-1.8515486350364982,1.7593319775015115,4.1106221321702
1789701311537713700,4.864713623046875,-1.1468125122122466,1.4981278497010468,3.5341385875105855
1789701311547734800,4.87473486328125,-1.1541985308103262,0.9898124168604612,2.6826868858531117
1789701311557756000,4.884755859375,-1.6948691499412059,0.447743182978034,2.1318498236253856
1789701311567777800,4.89477783203125,-2.0709784446857866,0.027271453285217285,2.066502906706929
1789701311577799000,4.904798828125,-1.9530799411445854,-0.21012334438264368,2.4755410959765314
1789701311587820800,4.91482080078125,-1.4380335926137864,-0.18170564367175102,3.2269901623979207
1789701311597841700,4.924841552734375,-0.9423146064959466,0.07112170092761516,3.921324425934255
1789701311607863800,4.93486376953125,-0.8507621119581162,0.33480361701846123,4.173737052252888
1789701311617885000,4.944885009765625,-1.2983335916310548,0.3817810567706823,3.818890471898019
1789701311627906800,4.95490673828125,-2.1918998031795023,0.26687106752097606,2.9885131224513053
1789701311637927700,4.964927734375,-3.2360505439490077,-0.08773673564195632,2.363182252514362
1789701311647948800,4.97494873046875,-4.5081852799624205,-1.0561766941279171,2.6753561045736074
1789701311657971000,4.984970947265625,-4.997063606405258,-2.1591887891888617,3.663903031542897
1789701311667991800,4.99499169921875,-4.13831736382544,-2.6759242598503827,4.230513416963816
1789701311678013700,5.005013671875,-3.16361016163826,-2.8308354200989005,4.214452216739953
1789701311688034800,5.015034912109375,-2.597052383187413,-2.880699813464284,4.134386161856353
1789701311698057000,5.025056884765625,-2.152866015908122,-2.9933021102935076,4.092688708333671
1789701311708077800,5.035077880859375,-1.6814584642261265,-3.290629106354713,3.872942380081117
1789701311718099700,5.045099609375,-1.1596914291381835,-3.725421622344851,3.303119462354481
1789701311728120800,5.055120849609375,-0.5157143109202385,-4.220183161607385,2.2315178200796244
1789701311738142700,5.065142822265625,0.7037923391681165,-4.673165998804569,0.9685375736415386
1789701311748163800,5.075163818359375,2.3355039719939232,-5.078657016986608,-0.1301455523043871
1789701311758185000,5.08518505859375,3.6972292548224326,-5.567516638728976,-1.0118874705463647
1789701311768206800,5.095206787109375,4.603672191339731,-6.006096856564283,-1.972379684898257
1789701311778227700,5.105227783203125,4.729261395514011,-6.3373687923252575,-3.0342034450024364
1789701311788249900,5.115249755859375,3.812167593383789,-6.408016446000337,-4.091070459482074
1789701311798271000,5.12527099609375,1.9678525628626344,-6.038033963572978,-4.620752505478262
1789701311808292900,5.13529296875,-0.38641573083400726,-5.129330388647317,-4.380270847710967
1789701311818313700,5.145313720703125,-1.3521513987973333,-4.027210273990034,-4.1486669084042305
1789701311828335900,5.1553359375,-0.8154512907326221,-3.00010477604568,-4.143827067157626
1789701311838356700,5.165356689453125,0.5254924853518604,-2.046580647140741,-4.19253469170332
1789701311848377900,5.1753779296875,1.862821870331466,-1.062814524707198,-3.941817471125722
1789701311858399700,5.185399658203125,2.8974814369171855,-0.028984102421998975,-3.3426018701761957
1789701311868420900,5.1954208984375,3.6604312637791034,0.8968880494475364,-2.5912942580521103
1789701311878442800,5.20544287109375,4.242601329642534,1.670180114364624,-1.8652824152261018
1789701311888463600,5.215463623046875,4.405949771107733,2.457533437860012,-1.1728589537471532
1789701311898486000,5.225486083984375,3.8676276147991415,3.293979585826397,-0.2834410940498113
1789701311908507000,5.2355068359375,2.8809149175196884,4.1600703459501265,0.7168997310876846
1789701311918528800,5.24552880859375,1.952469115769863,4.838775078678131,1.264442427945137
1789701311928550000,5.2555498046875,1.5645573011592029,5.27086008927524,1.478238907882571
1789701311938570800,5.26557080078125,1.8136261700078844,5.434399961659312,1.3069886072516441
1789701311948593000,5.275593017578125,2.4581997928142547,5.297198645624518,0.670299892476201
1789701311958613800,5.28561376953125,3.1991692585363984,4.976996969932317,-0.14734569343030451
1789701311968636000,5.295635986328125,3.8347891750365495,4.589030502524972,-0.9883096110820769
1789701311978656300,5.30565625,4.347592566946148,4.222211452564597,-1.7017618320643901
1789701311988678100,5.31567822265625,4.631495141027868,3.822825180998444,-2.2720307399928568
1789701311998699300,5.32569921875,4.657250929053127,3.534641860857606,-2.604353646111488
1789701312008721200,5.33572119140625,4.523967370983958,3.453572766411304,-2.7818811273157595
1789701312018742300,5.3457421875,4.226850802803039,3.5823604743659496,-2.9425100806891917
1789701312028763400,5.355763427734375,3.659090662825107,3.7479093484848733,-3.0663264299720523
1789701312038785300,5.365785400390625,2.760695715945959,3.923279943916201,-3.163651078170538
1789701312048806100,5.37580615234375,1.710967467305064,3.9912066481947894,-3.2261388062655922
1789701312058828000,5.385828125,0.5500333446294069,3.8063451708406206,-3.1729554976105687
1789701312068849400,5.395849365234375,-1.0669377421170472,3.1886393889546394,-2.7856641529858113
1789701312078871300,5.405871337890625,-2.6381808046504855,1.9185861353904008,-1.5909382353454828
1789701312088892200,5.41589208984375,-4.068292810484767,-0.006585808131098747,1.168965453439951
1789701312098914000,5.4259140625,-5.24805204513967,-2.77279765715003,4.2734880508154625
1789701312108935200,5.43593505859375,-4.624137179480493,-5.994817922180891,5.452373425245285
1789701312118956300,5.445956298828125,-5.427697249150276,-8.474477851653099,5.36321688593328
1789701312128978200,5.455978271484375,-6.5178223901093,-9.735477445667982,5.0006671838551755
1789701312138999300,5.465999267578125,-5.626447551125287,-8.484953652960062,3.9135768805474043
1789701312149021200,5.476021240234375,-4.906686585387587,-4.441713450667262,2.3875983163684604
1789701312159042000,5.4860419921875,-3.6515637744516134,-1.2124591427296398,0.4406324741899967
1789701312169064200,5.496064208984375,-2.2183763066947457,0.7084212410777807,-1.1934674420118332
1789701312179085300,5.506085205078125,-1.4515589907497166,2.077434050565958,-2.446144028839469
1789701312189107200,5.516107177734375,-1.8783061474502085,3.076533935731649,-3.3394378531873223
1789701312199128000,5.526128173828125,-3.1040251692473886,3.079374712115526,-3.627576165142655
1789701312209149200,5.536149169921875,-2.8094176612779496,0.6998065574675798,-2.384345452052355
1789701312219171300,5.54617138671875,1.5961872419148682,-3.510293601542711,0.09769231246709822
1789701312229192200,5.556192138671875,7.1201827188253395,-7.008555989030003,1.77595168839097
1789701312239214000,5.566214111328125,9.99520273308754,-8.180677276152371,1.9539169764906166
1789701312249235200,5.576235107421875,9.655623572230338,-8.539850195273756,1.5784744750916957
1789701312259257300,5.58625732421875,6.765934396624565,-7.802714900887012,1.8231933320373295
1789701312269278200,5.5962783203125,0.8543789872810245,-5.492728231987357,2.9695564930468796
1789701312279300000,5.606300048828125,-3.681187928342819,-2.629630710709095,2.3915070142447945
1789701312289321200,5.6163212890625,-2.388686111605167,-1.1402455549120902,-1.5804501590788365
1789701312299342000,5.626342041015625,1.3944316206440328,-0.3596393675893545,-4.786850245651602
1789701312309364200,5.6363642578125,3.511084751920402,0.13019465214312076,-6.150147015580535
1789701312319385300,5.64638525390625,4.848480187873542,0.1583008026868105,-6.719476596832275
1789701312329407200,5.6564072265625,5.778922424137592,-0.17675357422232627,-6.107240186268091
1789701312339428000,5.666427978515625,5.699411080527305,-0.7315186235487461,-4.396671947413683
1789701312349450000,5.676449951171875,5.292814146929979,-1.177839080247283,-2.543375738057494
1789701312359471400,5.686471435546875,5.116600670933723,-1.3574609033823013,-0.9575067688003182
1789701312369493200,5.6964931640625,4.9553001019090415,-1.2386036378115415,0.7098381221383809
1789701312379514000,5.70651416015625,4.739284484617412,-0.8617460089176893,2.456050505825877
1789701312389535200,5.71653515625,4.389420368850231,-0.48464872604906556,4.216150837351382
1789701312399557000,5.72655712890625,3.58462520442754,-0.04395955323576927,5.755412953734398
1789701312409578200,5.736578125,2.107936448596418,0.7622340798079967,6.240387842997908
1789701312419600100,5.74660009765625,0.05699322233200073,1.9400334125667809,5.550349815350771
1789701312429621200,5.756621337890625,-1.5462733103193342,2.9577345378279682,4.210070056132972
1789701312439643100,5.76664306640625,-2.1921721903800964,3.452572064936161,2.6036943054199218
1789701312449664000,5.7766640625,-2.106917334681749,3.5753023725479838,1.124839311465621
1789701312459686400,5.786686279296875,-1.5409386712931095,3.3632892688959837,-0.0877946033090353
1789701312469707300,5.796707275390625,-1.0461200680810958,2.98014919873178,-0.879471635222435
1789701312479728000,5.80672802734375,-0.5446340428691357,2.4685832396626473,-1.4140870459675787
1789701312489750300,5.816750244140625,-0.19575981492213904,1.8530004412800072,-1.968512195815146
1789701312499771100,5.826771240234375,-0.22297281601838767,1.0706541322916745,-2.390995849852264
1789701312509793300,5.836793212890625,0.018508337647654114,0.15945114176571368,-2.8173411477535963
1789701312519814100,5.846814208984375,0.5595639740407466,-0.6107318512201309,-2.9867449437350033
1789701312529836300,5.856836181640625,1.0682990935981274,-1.0966945824772119,-3.2323920214414597
1789701312539857200,5.866857177734375,1.4833657493770123,-1.2773527629226444,-3.4913872410207984
1789701312549879300,5.87687939453125,1.5918261240959166,-1.1786954048156737,-3.539830077150464
1789701312559900200,5.886900146484375,1.1682827318727969,-0.7773673515319823,-3.2173727314859626
1789701312569922300,5.89692236328125,0.2936778259038925,-0.0833066442400217,-2.4312939579710364
1789701312579943200,5.906943115234375,-0.7757680996417999,0.4908353057295084,-1.0820581543594598
1789701312589964000,5.916964111328125,-1.7419091335356234,0.7980038968473673,0.3074970924198627
1789701312599986400,5.926986328125,-2.505556587272882,1.0731868656396866,1.5102850282236933
1789701312610007300,5.93700732421875,-3.0425106700986624,1.4580436765938996,2.3908587794691325
1789701312620029200,5.947029296875,-3.4670623625814914,1.8814859465301035,2.9382714202061293
1789701312630050300,5.95705029296875,-3.617452830535173,2.1551456512778997,3.284045928572118
1789701312640072200,5.967072265625,-3.3157840058773753,2.166370225125551,3.469496896252036
1789701312650093300,5.97709326171875,-2.751204249501228,2.002175688225031,3.4172467767938968
1789701312660115200,5.987115234375,-2.1329297278165815,1.7779256188124417,3.2028666517496105
1789701312670136300,5.99713623046875,-1.5296616366058586,1.5213585031628607,3.065394702079892
1789701312680157200,6.0071572265625,-1.065865728971362,1.1565075384050607,3.0211481485962866
1789701312690179000,6.017178955078125,-0.9826385797083377,0.6796236011385918,2.9976480305433273
1789701312700200200,6.0272001953125,-1.3140360415451229,0.11395955665707587,2.8321242908656594
1789701312710222300,6.037222412109375,-1.8626397917628288,-0.2267366255313158,2.6129195221439003
1789701312720243200,6.0472431640625,-2.110916048929095,-0.1173790097117424,2.6208497306212784
1789701312730265000,6.05726513671875,-2.066208892196417,0.24309622417986393,2.9886876022353768
1789701312740286200,6.0672861328125,-1.9736738163620233,0.6178647718399762,3.5312177316278217
1789701312750308400,6.077308349609375,-1.9083843287192284,0.8535743928998708,3.9344215156555173
1789701312760329200,6.0873291015625,-1.8297119201511143,0.8150602455884218,4.02594156922847
1789701312770350300,6.097350341796875,-1.7253034511715173,0.4067997626930475,4.0867070035755635
1789701312780372200,6.107372314453125,-1.832325317519903,-0.3364776877105236,4.637641973219812
1789701312790393000,6.11739306640625,-1.8915332932919262,-1.0362053347229958,5.387155979925394
1789701312800415200,6.127415283203125,-1.9350585467636585,-1.5046902769565582,5.919981584644317
1789701312810436400,6.137436279296875,-2.1508051378555595,-1.8299591729104518,6.0545320939093825
1789701312820458200,6.147458251953125,-2.5734376988440752,-1.999987238270044,5.739672948288917
1789701312830479000,6.15747900390625,-3.1298131059765812,-2.0778356171041725,5.167443553942442
1789701312840501200,6.167501220703125,-3.540349717110395,-2.1529484334945677,4.423279968354105
1789701312850522400,6.1775224609375,-3.4505531263291833,-2.4103256964832545,3.4141949880078433
1789701312860543200,6.187543212890625,-2.8336890559643506,-3.0439141071558,1.9626427192598581
1789701312870565000,6.197565185546875,-1.5113807145059108,-3.791937875303626,0.2513309685617685
1789701312880586200,6.207586181640625,0.3538286720165983,-4.217512481093406,-1.1653314808517694
1789701312890608400,6.2176083984375,2.293485031431913,-4.477496711710095,-1.9411884278208016
1789701312900629200,6.227629150390625,3.8100457789242266,-4.957759770020842,-2.3147680579572913
1789701312910651100,6.237651123046875,4.758938740897178,-5.464433865395188,-2.5738860271334647
1789701312920672300,6.24767236328125,4.992852710711956,-5.826314874431491,-3.063356474250555
1789701312930694100,6.257694091796875,4.275568364220858,-6.235500655478239,-3.8491006089836355
1789701312940715300,6.26771533203125,2.817681047232449,-6.301062384191155,-4.242818187263608
1789701312950736400,6.277736328125,1.2060989600479601,-5.451247636085748,-3.538091124528646
1789701312960758300,6.28775830078125,-0.026995558953285214,-4.041559117338061,-2.618043148767948
1789701312970779100,6.297779052734375,-0.4313970283329487,-2.6687065835565327,-2.018367529091239
1789701312980801000,6.307801025390625,0.08991700229048728,-1.4600409878909586,-1.5529057340711354
1789701312990822100,6.317822265625,1.107144080299139,-0.4764338554114103,-1.223022622320056
1789701313000844000,6.327843994140625,2.176460534246266,0.4011006742686033,-0.7822831806242465
1789701313010865000,6.337864990234375,3.1235797645449637,1.2540998976290225,-0.39095512782931324
1789701313020887000,6.347886962890625,3.647597501169145,2.0570517722725867,-0.16226619918644428
1789701313030908200,6.357908203125,3.9730847160488363,2.721382527211308,-0.0786187786847353
1789701313040929000,6.367928955078125,3.938342488491535,3.241879980754852,-0.2658709505677223
1789701313050951000,6.377950927734375,3.5414439420878887,3.562241230922937,-0.39425475389659403
1789701313060972000,6.387971923828125,3.1109839023441075,3.9219799672335385,-0.2249105791479349
1789701313070994200,6.397994140625,2.7746786485910415,4.162278669649362,-0.27819851722121236
1789701313081015000,6.40801513671875,2.6773493242174387,4.198742898693681,-0.6076759707808495
1789701313091037000,6.418036865234375,2.9083862772911786,4.094307541707158,-1.0813836160987615
1789701313101058000,6.42805810546875,3.1662031007409093,3.891767784321308,-1.6274848819762466
1789701313111080200,6.438080078125,3.4133924394533035,3.58006505690515,-2.2278812171429396
1789701313121101000,6.44810107421875,3.685706574811041,3.1581232546597717,-2.8276725721538067
1789701313131122200,6.4581220703125,3.9684705002516507,2.6906787613898513,-3.3053304164022204
1789701313141144000,6.46814404296875,4.228206309065222,2.241864149788022,-3.6378555670946833
1789701313151165000,6.4781650390625,4.517072935295105,1.9776415509492158,-3.766784144824743
1789701313161187000,6.48818701171875,4.7004985346272585,1.8737474612325429,-3.8390935942322013
1789701313171208200,6.498208251953125,4.454369518622756,1.9425626387834547,-3.9112703571707006
1789701313181230000,6.50822998046875,3.8574233239099383,2.225920146203041,-3.919789763712883
1789701313191251000,6.5182509765625,2.802671986410022,2.6162363916069267,-3.873179403707385
1789701313201273000,6.528273193359375,1.3067302485764025,2.9441473265022036,-3.8096003732442854
1789701313211294200,6.538294189453125,-0.28126258096694945,3.0525024872809645,-3.7269934017062183
1789701313221315000,6.548315185546875,-1.7649448489472268,2.830428592863679,-3.42607218054533
1789701313231337000,6.5583369140625,-3.351738239572942,2.1678531571596857,-2.7502620002150535
1789701313241358000,6.568358154296875,-4.710605210360884,0.7864478990882635,-1.096240993490815
1789701313251380200,6.578380126953125,-5.353002365911006,-1.2837176217794417,1.7455606417804956
1789701313261401000,6.588401123046875,-5.402600217294693,-4.195484773680567,4.016788248696923
1789701313271423000,6.598423095703125,-6.390262178122997,-7.347053199869394,4.553628934276103
1789701313281444000,6.608444091796875,-7.460113761860132,-9.061987232717872,4.837898880365491
1789701313291466000,6.618466064453125,-7.02894586610794,-8.48460177078247,4.908415016615391
1789701313301486800,6.62848681640625,-5.838655885088444,-4.834660629096627,4.178803103470802
1789701313311508200,6.63850830078125,-4.292878687722981,-1.188378009918332,2.5522651469558477
1789701313321530000,6.648530029296875,-2.6003283361181615,1.0983066938489674,1.0466846431612968
1789701313331551000,6.658551025390625,-1.2437491840064525,2.75672096709609,-0.08471943364739418
1789701313341573000,6.668572998046875,-0.9594222470328211,3.9999090100884436,-1.028125488641858
1789701313351594000,6.678593994140625,-1.2292118323490022,4.257077014240623,-1.4956868862897157
1789701313361616100,6.6886162109375,-1.3035109942689538,2.568311441871524,-0.2889075427621603
1789701313371637000,6.698636962890625,1.3183107962548732,-0.42333764051795003,2.060655934244394
1789701313381659100,6.7086591796875,5.814762968325614,-3.6976340362310407,3.0752298673957585
1789701313391680000,6.718679931640625,9.241035055357218,-6.720837363791466,2.475344404360652
1789701313401700900,6.728700927734375,9.401807801115512,-9.09981047515571,1.517671339082718
1789701313411723300,6.73872314453125,5.937501459243893,-10.498852512204646,1.2670821287989615
1789701313421744000,6.748744140625,-3.4062381837844846,-9.689965402293204,3.195348531204462
1789701313431766000,6.75876611328125,-7.799875293546915,-6.88086484414041,3.35341084896028
1789701313441787000,6.768786865234375,-3.572878068010509,-4.345844261974096,-0.9318360287100076
1789701313451809300,6.778809326171875,1.5736518772408365,-2.1441794361054898,-4.487789557665586
1789701313461830100,6.788830078125,5.0981426387012005,-0.6136883629381656,-5.9927709265232085
1789701313471852000,6.79885205078125,6.78138447921276,0.25212825641930103,-7.270288524618745
1789701313481873200,6.808873046875,7.161310848027467,0.8041822932213545,-7.810560353690385
1789701313491895300,6.818895263671875,6.3298541789114475,0.8577677529364823,-7.120709373047948
1789701313501916200,6.828916259765625,4.935761288702488,0.6649445029228925,-5.609793353444338
1789701313511937000,6.83893701171875,3.6219396205604073,0.5430173283874988,-4.125706888577342
1789701313521959200,6.848959228515625,3.4746541328847407,0.37021512213945384,-2.4368437010526653
1789701313531980000,6.85897998046875,3.954437883245945,0.1761813272923231,-0.7536117974132299
1789701313542002200,6.869002197265625,4.182489098507165,0.165123926705122,0.8675830445080995
1789701313552023300,6.879023193359375,4.160104248219728,0.12447802806198596,2.4932564931482073
1789701313562045200,6.889045166015625,3.988074779909849,0.20313538519144056,4.339073452664912
1789701313572066000,6.899066162109375,2.8302468065559863,0.9858762464553117,5.443611442118883
1789701313582087000,6.9090869140625,1.0422307324923574,2.0935820522904396,5.610395410990715
1789701313592109300,6.919109375,-0.6321428880393505,2.8755361470907923,5.063754046887159
1789701313602130200,6.929130126953125,-1.6951321847915648,3.259805513545871,3.8863822918906807
1789701313612152000,6.939152099609375,-2.158487362921238,3.082200290930271,2.3949358196496964
1789701313622173200,6.949173095703125,-2.40160521441102,2.6463082892656327,0.9662211133927107
1789701313632195000,6.959195068359375,-2.472071666300297,2.2113106060922143,-0.3213391552895307
1789701313642216200,6.96921630859375,-2.2601602694571015,1.7590233499437569,-1.2765829475939272
1789701313652238000,6.979238037109375,-1.6553566392421721,1.1454834555655717,-2.1072464205056427
1789701313662259200,6.98925927734375,-0.7416238379776477,0.29301088642776013,-2.6939240269213913
1789701313672280000,6.999280029296875,0.4617009811818599,-0.5619423936098814,-2.8857921681672334
1789701313682302000,7.009302001953125,1.538131943309307,-1.1642103678673505,-3.0142607271701096
1789701313692323000,7.019322998046875,2.518060679537058,-1.434545896628499,-3.16959566578865
1789701313702345200,7.02934521484375,3.16273337880373,-1.3376508720189333,-3.1698733136862516
1789701313712366000,7.039365966796875,3.2699066363215445,-0.9197294113308191,-2.984429068008065
1789701313722388000,7.049387939453125,2.43168821798563,-0.2503425420463085,-2.6617788301199674
1789701313732409000,7.0594091796875,0.5143196416914463,0.42701136059463024,-2.074078310397267
1789701313742431200,7.06943115234375,-1.896259737291932,0.8016425456106663,-1.1371399901121855
1789701313752452000,7.0794521484375,-4.275626231887936,0.7785930939346551,0.021490531796216964
1789701313762473200,7.08947314453125,-5.819189552596211,0.7163099485009908,1.0925737031549214
1789701313772495000,7.0994951171875,-6.09713380279541,0.9018091392368077,1.9676587938562033
1789701313782516000,7.109515869140625,-5.258286438906192,1.1416320408344267,2.699059051722288
1789701313792538000,7.1195380859375,-3.676567867326736,1.2963795349538325,3.2412340840667486
1789701313802559200,7.129559326171875,-1.9070821600794792,1.4510405198335647,3.687371585413813
1789701313812581000,7.1395810546875,-0.45615372231826185,1.7274240965873002,3.9478757482513784
1789701313822602000,7.14960205078125,0.17097674438655375,2.0075825157046316,3.856574890387058
1789701313832624000,7.1596240234375,-0.2315940754998475,2.2037159131795168,3.6389667432069777
1789701313842645200,7.169645263671875,-1.431696352416277,2.2145915274590253,3.6969624205797906
1789701313852667100,7.179667236328125,-2.5525880952998996,1.9209499419122933,4.018661933614314
1789701313862688000,7.18968798828125,-2.9997476331710815,1.5099451287448404,4.356956315357983
1789701313872709000,7.199709228515625,-2.916037668827176,1.044815342158079,4.464682822844386
1789701313882731300,7.209731201171875,-2.5847388450592756,0.6351975994348525,4.1814442656293505
1789701313892752100,7.219752197265625,-2.2952054254837333,0.279411400142312,3.4453622796878216
1789701313902774000,7.22977392578125,-2.1391227372378108,-0.004932780227065086,2.4985434936404225
1789701313912795100,7.239795166015625,-2.047805658891052,-0.24583061757981775,1.5637322485119103
1789701313922817000,7.249817138671875,-2.0267571717739106,-0.403078111821413,1.1524214381352067
1789701313932838100,7.259838134765625,-2.3980700260221957,-0.8995996464937924,1.7828893786996602
1789701313942860000,7.269860107421875,-2.710578809124231,-1.7099574134796858,3.179059075182676
1789701313952881200,7.279881103515625,-2.4516204144239424,-2.2367747176945207,4.266000909930467
1789701313962902000,7.289902099609375,-2.112961875542998,-2.3795137941122055,4.629770801453292
1789701313972924400,7.29992431640625,-2.1694968327134845,-2.3743080421626566,4.597440018951892
1789701313982945500,7.309945556640625,-2.36249660833776,-2.1530232522964474,4.453943986687064
1789701313992967700,7.3199677734375,-2.73158068062067,-1.9108090716481207,4.281159316095709
1789701314002988500,7.329988525390625,-3.263421365955472,-2.0604186183571813,4.1637537106379865
1789701314013010400,7.340010498046875,-3.3342157346248626,-2.824690925994515,3.589107026016712
1789701314023031600,7.350031494140625,-2.1211188785135744,-3.78066537066102,2.3071254342496395
1789701314033053400,7.360053466796875,-0.05307111698482185,-4.535474268904328,0.7186100421369075
1789701314043074600,7.370074462890625,2.194319723802805,-5.048785610336065,-0.4582867888242006
1789701314053095700,7.380095703125,3.9099148509085175,-5.477728231254219,-1.2457125930339097
1789701314063117600,7.39011767578125,4.80807832711935,-5.861579080036282,-1.9233195936530827
1789701314073138400,7.400138427734375,4.984660051906109,-6.057014558374881,-2.6762153517514466
1789701314083160300,7.410160400390625,4.125659542304277,-5.909130520284176,-3.5564871974408625
1789701314093181700,7.420181640625,2.1586054363429543,-5.105608152276277,-3.8363685531824827
1789701314103203600,7.43020361328125,0.14382307226210833,-3.8591888722777363,-3.46402518684268
1789701314113224400,7.440224365234375,-0.9586191139563918,-2.6494728907763956,-3.130061527779698
1789701314123246300,7.450246337890625,-0.937462051898241,-1.6393004074543713,-2.8302497291654345
1789701314133267500,7.460267333984375,0.016011515863239765,-0.8233318148493767,-2.7058839293062684
1789701314143288600,7.47028857421875,1.1135618383869528,0.039305005428195,-2.475581135725975
1789701314153310500,7.480310546875,2.3081018780663607,0.9984417135179042,-1.969209238168597
1789701314163331600,7.49033154296875,3.4313913297414778,1.9425930339217186,-1.3010013495355843
1789701314173353500,7.500353515625,4.105469863973558,2.658247733384371,-0.7844751377105712
1789701314183374300,7.510374267578125,4.322665923221409,3.223204506379366,-0.5530518156677484
1789701314193396500,7.520396484375,3.9589425011888144,3.6671377756804224,-0.4340250387489795
1789701314203417600,7.53041748046875,3.0496967822104692,4.055069756296277,-0.19757132132351396
1789701314213439500,7.540439453125,2.2210160075485703,4.277755645132064,-0.09674187987446785
1789701314223460400,7.55046044921875,1.9490093307048082,4.259796794593334,-0.17965689444839952
1789701314233481500,7.5604814453125,2.182474972230196,4.115062744966149,-0.3025783407181501
1789701314243503600,7.570503662109375,2.735363706290722,3.723694944682717,-0.7196732874542474
1789701314253524500,7.5805244140625,3.3220804756730793,3.1258874569654465,-1.3448527662217615
1789701314263546400,7.59054638671875,3.8425586399942633,2.3978508303135633,-1.955313399285078
1789701314273567500,7.6005673828125,4.289240915742516,1.6633768640905617,-2.4678105017244816
1789701314283589600,7.610589599609375,4.558324398615956,0.9801555307209491,-2.8725334581434727
1789701314293610500,7.620610595703125,4.681707617178559,0.5742109235525131,-3.0530045915842052
1789701314303632400,7.63063232421875,4.717227843371034,0.5381266337364912,-3.132419489082694
1789701314313653500,7.640653564453125,4.453557617717981,1.0532505775481462,-3.2325971886247395
1789701314323674400,7.65067431640625,3.5517280202150343,1.937384943884611,-3.4580858599215745
1789701314333696500,7.660696533203125,1.9810288552999495,2.873977811732888,-3.7563673802286384
1789701314343717600,7.670717529296875,-0.383560925924778,3.6782717486351726,-4.000881654512882
1789701314353739500,7.680739501953125,-3.103712450036406,4.070820283135771,-4.038784391927719
1789701314363760400,7.690760498046875,-5.575102563813329,3.9847371599197383,-3.743270582768321
1789701314373782300,7.7007822265625,-6.939801601755619,3.561616377022862,-2.930038721650839
1789701314383803600,7.7108037109375,-6.481373943156004,3.284631327244639,-1.0324147102683783
1789701314393825500,7.720825439453125,-5.19754876934886,3.4668285538256165,2.59196645822525
1789701314403846400,7.730846435546875,-4.870918521913886,2.2778970016777516,5.525356243869662
1789701314413867500,7.740867431640625,-4.86180933278501,-1.0035761537969112,6.0229983070045705
1789701314423889400,7.750889404296875,-3.4754829849243163,-3.327308439454436,6.760568485677242
1789701314433910500,7.76091064453125,-1.466660990552604,-4.854660630074143,7.067953934416175
1789701314443932400,7.770932373046875,-0.8356254792332649,-5.895109593716263,6.527809531116485
1789701314453953500,7.78095361328125,-1.6756863105654716,-6.060621058434248,4.918125678768754
1789701314463975400,7.790975341796875,-2.5219264150544998,-4.619468895408511,2.3194974245667455
1789701314473996300,7.800996337890625,-2.6227754379868506,-2.278276356384158,-0.06855974148511886
1789701314484018700,7.811018798828125,-3.0715748520195483,-0.10274316611588001,-1.5507885957866907
1789701314494039600,7.82103955078125,-3.626518472783267,1.1489268740177154,-2.2527269045859573
1789701314504060400,7.831060302734375,-3.508754847668111,0.0012824410259723662,-1.7017033798754215
1789701314514082300,7.841082275390625,-0.4123837003052234,-3.4935336053997275,0.021582301732897758
1789701314524103400,7.851103515625,5.05437247055769,-6.784942463955283,0.6832283476322889
1789701314534125600,7.86112548828125,9.182029908680915,-8.113170258590578,0.12402853072881698
1789701314544146400,7.871146484375,9.493071541839837,-8.735363415023684,-0.6569435672968625
1789701314554168600,7.88116845703125,5.781296752053499,-8.368197743582725,-0.6757353615283965
1789701314564189400,7.891189453125,-0.8697486981093883,-6.355826824557781,0.5722288098245859
1789701314574210300,7.901210205078125,-6.2036757766723625,-3.0362083550840615,1.306559568184614
1789701314584232400,7.911232421875,-6.117529525092244,-0.6865747354507445,-0.3821463829517364
1789701314594253600,7.921253662109375,-0.9885618322774767,0.0052080900371074676,-5.554951171666383
1789701314604275500,7.931275390625,4.520573052370548,1.0780822364658116,-7.810958997619152
1789701314614296300,7.94129638671875,7.502129779812694,1.8805793530791997,-8.402239713916183
1789701314624318700,7.951318603515625,7.729109566450118,1.9860563280731438,-8.297629584884643
1789701314634339600,7.961339599609375,6.945734498935938,1.5519401039093732,-7.029190196257829
1789701314644361500,7.971361572265625,5.336847934445738,0.9500690200150013,-5.103258958801627
1789701314654382600,7.981382568359375,4.453860107795894,0.2821720970273018,-3.0493612666457888
1789701314664403500,7.991403564453125,4.8644578014671795,-0.6489969922065735,-0.8517284727722406
1789701314674425600,8.001425537109375,5.146684843552112,-1.3146306464374065,1.4618547593146562
1789701314684446500,8.011446533203125,5.33401124971509,-1.8170085059225558,3.7607524634450673
1789701314694468600,8.021468505859374,6.031940907394886,-2.2779566229104993,6.230139420706033
1789701314704489500,8.031489501953125,5.872373445773125,-1.9879028327226638,8.389626900580526
1789701314714511400,8.041511474609376,4.344319536624848,-0.5496691874921321,9.444805231320858
1789701314724532500,8.051532470703124,1.756434502494335,1.5843734700024128,9.110774352240561
1789701314734554600,8.0615546875,-0.911145853511244,3.150644297081232,7.1651727841526265
1789701314744575500,8.071575439453126,-2.827113769227266,3.764307525578141,4.316399264042079
1789701314754596400,8.081596435546874,-4.17291346091032,3.570891570368409,1.4069617241322994
1789701314764618500,8.091618408203125,-5.2286687147557735,3.1001299153745174,-0.7711515457570552
1789701314774639600,8.1016396484375,-5.51655743586421,2.482198508039117,-2.344787933167815
1789701314784661500,8.11166162109375,-4.786442833894491,1.6932868491858244,-3.3293501744151115
1789701314794682600,8.1216826171875,-3.2514415898263453,0.7570821038722991,-3.8050060311913487
1789701314804704500,8.13170458984375,-1.3003601290225981,-0.0680436086565256,-3.7665906680792567
1789701314814725400,8.141725341796874,0.7907973264694214,-0.5818009402900934,-3.7443572089612482
1789701314824747500,8.15174755859375,2.581543263888359,-0.8058791602671146,-3.69090209762752
1789701314834768600,8.1617685546875,4.078979624193907,-0.9398796344339847,-3.5514725841492414
1789701314844789500,8.17178955078125,4.973699097430706,-0.8523574183255433,-3.3517852935850616
1789701314854811400,8.181811279296875,5.035829098129272,-0.47841947627067566,-3.049169543465972
1789701314864832500,8.19183251953125,4.0539252624362705,0.18661562754511832,-2.6302675473079082
1789701314874854700,8.201854736328125,1.9726216769605873,1.134561664056778,-1.9919947782114147
1789701314884875500,8.21187548828125,-0.9512842410236596,1.9540081619054077,-0.5123123935222625
1789701314894897400,8.2218974609375,-4.231107875725627,2.122960122466087,1.4682418300032616
1789701314904918500,8.23191845703125,-6.417251307335496,2.0975334202647207,3.0902400972619652
1789701314914940700,8.241940673828125,-6.9956824789315455,2.121647870823741,3.9204815453693267
1789701314924961500,8.25196142578125,-6.321204423987865,2.103341229760647,4.1242838700369
1789701314934982700,8.261982666015625,-4.673737661212683,1.9016893611252306,4.154480855379998
1789701314945004500,8.272004638671875,-2.7655641987651585,1.561582377001643,4.25863797994703
1789701314955025400,8.282025390625,-1.1766476785056292,1.1767618064045906,4.482705094008147
1789701314965047600,8.292047607421875,-0.2075614580053836,0.8311199845075606,4.6445405005618925
1789701314975068200,8.302068115234375,0.004005655444785952,0.5878361288011074,4.361021665100753
1789701314985090000,8.312090087890626,-0.43753290073946116,0.5580845491379499,3.1364374925523992
1789701314995111000,8.32211083984375,-1.1125070686370133,0.5964256779700517,1.746939528918266
1789701315005132000,8.332132080078125,-1.5456559090733528,0.46448856607377526,0.8080886530101299
1789701315015154000,8.34215380859375,-1.6254834790259598,0.3743342478960752,0.35349107409268615
1789701315025175000,8.352175048828125,-1.5900601373367012,0.49379474005699153,0.4239578182429075
1789701315035197000,8.362197021484375,-1.6427997938774526,0.6526882479399442,0.9733812142804265
1789701315045218000,8.372218017578126,-1.7885060495376586,0.768884185346961,1.911091980242729
1789701315055240000,8.382239990234375,-1.9939199010550974,0.905551832896471,3.107565910594165
1789701315065260800,8.3922607421875,-2.1743149005196987,1.059614267361164,4.242729339936376
1789701315075283000,8.402282958984374,-2.51856044575274,0.9192723152130842,5.4172401525437825
1789701315085304000,8.412303955078125,-2.856889314287901,0.36304946829378604,6.543815494021773
1789701315095325000,8.422324951171875,-2.790138083529472,-0.1514332550048828,7.225919221538305
1789701315105346800,8.432346923828124,-2.549811324062943,-0.48664779091179367,7.310477327144145
1789701315115368000,8.442367919921875,-2.3694245079047977,-0.7198305238425732,6.918166693052649
1789701315125390000,8.45239013671875,-2.328003387105465,-1.0271563513487576,6.370600615319609
1789701315135411000,8.462410888671876,-2.4201421570986508,-1.622887032791972,5.6868929597377775
1789701315145432800,8.472432861328125,-2.3326298778623342,-2.5701877571374174,4.646921550479531
1789701315155454000,8.482453857421875,-1.958174049413204,-3.927921047720313,3.2842315142720935
1789701315165476000,8.49247607421875,-0.9421335508406161,-5.22326656345129,1.462479613214731
1789701315175497000,8.5024970703125,0.7893477121829986,-6.287004632744193,-0.36885201709270476
1789701315185518000,8.51251806640625,2.6059084743380545,-7.27229109661281,-1.7980097909420727
1789701315195540000,8.5225400390625,3.9811657311737534,-8.123952933889626,-2.9860043545007704
1789701315205560800,8.532560791015625,4.459028742605447,-8.77744548394978,-4.141534572306275
1789701315215583000,8.5425830078125,4.025979855412245,-9.164372086915373,-5.3952481009662145
1789701315225604000,8.55260400390625,2.4121979200959203,-9.318310018217563,-6.839183757230639
1789701315235626000,8.5626259765625,0.22313319421187042,-8.62408681384027,-7.443590497082472
1789701315245646800,8.572646728515625,-0.7075380285024643,-6.7880708251088855,-6.166294432783126
1789701315255668000,8.58266796875,-0.7280339963033795,-4.84013818372488,-4.76259083366394
1789701315265690000,8.592690185546875,-0.09840528304204345,-3.1352719559043645,-3.7485026382029054
1789701315275711000,8.6027109375,0.8389724515736102,-1.7537445327579975,-2.949239681205153
1789701315285732900,8.61273291015625,1.6955509947255252,-0.57695817643404,-2.2480378699868915
1789701315295754000,8.62275390625,2.317647120524943,0.336773455786705,-1.6547580888271332
1789701315305776000,8.632776123046876,2.9127579165041446,1.0823568450450896,-1.0895464642882347
1789701315315797000,8.642796875,3.5296532587900757,1.7044804433733225,-0.5041407775044441
1789701315325819100,8.652819091796875,4.0281148216143245,2.217943760496378,-0.0592471387386322
1789701315335840000,8.662840087890626,4.285212098617851,2.7264234439879655,0.2185053882807493
1789701315345860900,8.67286083984375,4.232379795357585,3.234675748464465,0.35078444548249244
1789701315355883000,8.682883056640625,3.900322262176871,3.6732273247271774,0.5518558838814497
1789701315365904100,8.692904052734375,3.5526994955956934,3.9561715751707554,0.6636375119775533
1789701315375926000,8.702926025390624,3.3210300898373126,3.9183237828135487,0.38250761747956274
1789701315385947000,8.71294677734375,3.2912200579851865,3.692527068480849,-0.22778291971385478
1789701315395969000,8.722968994140626,3.522358425606787,3.3958372012794014,-1.0025427190959453
1789701315405990000,8.732989990234374,3.7382168065100907,3.1526217346340415,-1.7658160788238046
1789701315416012000,8.743011962890625,3.890217632269859,2.963534164017439,-2.524932903394103
1789701315426033000,8.753032958984376,4.029846759973466,2.83176948607862,-3.0746371621996165
1789701315436054000,8.763053955078124,4.187362257501483,2.8059634291708466,-3.351669558250904
1789701315446076000,8.773075927734375,4.4032226842314,2.852924502310157,-3.5606332112044092
1789701315456096800,8.7830966796875,4.503098770478368,2.94568403455019,-3.782283911773562
1789701315466119200,8.793119140625,4.402550776319205,3.1198335637539625,-3.9480654256045815
1789701315476140000,8.80314013671875,4.096271535256505,3.339446621015668,-4.0087756226331
1789701315486162000,8.813161865234376,3.5832521625086664,3.488290444049239,-4.061256920498609
1789701315496183000,8.82318310546875,2.529468793258071,3.5300036796629426,-4.097320167526602
1789701315506204000,8.833203857421875,0.910676920825243,3.471815110066533,-3.8699814844489095
1789701315516226000,8.84322607421875,-0.9231436036884784,3.032121378031373,-3.548026827609539
1789701315526247000,8.853246826171874,-3.1269635617643594,2.1495821719318626,-3.231118932765722
1789701315536269000,8.86326904296875,-5.933342585998774,0.8101005773544311,-2.047707605344057
1789701315546290000,8.8732900390625,-8.214891680443287,-0.9376403310745954,1.3307710493773222
1789701315556312000,8.88331201171875,-7.943338592585921,-3.2279017242848873,5.604497000601888
1789701315566333000,8.8933330078125,-5.304604537966847,-5.912749295303225,7.015129522201418
1789701315576355000,8.90335498046875,-4.697026766863465,-7.671767384549975,6.896054814487695
1789701315586376000,8.9133759765625,-6.566115004113316,-8.14024706608653,6.7938815572142595
1789701315596396800,8.923396728515625,-6.557891365647316,-6.5457976077497,6.185324127423763
1789701315606419200,8.933419189453126,-4.66948994064033,-3.5369904698103665,3.63456061720252
1789701315616440000,8.943440185546875,-3.2831501487761736,-1.1903975330471992,0.6930313642442226
1789701315626462000,8.9534619140625,-2.446881695464253,0.4084340858966112,-1.4958417845904826
1789701315636483000,8.963483154296876,-1.8565753771573303,1.7145827351927756,-3.179354258736968
1789701315646505200,8.973505126953125,-1.229124446326494,2.754548299232125,-4.354250855791569
1789701315656526000,8.983526123046875,-0.7082695576474071,3.4146734191745516,-5.002714179512858
1789701315666547000,8.993546875,-0.9154223617866635,2.9980186174213883,-4.988146140456199
1789701315676569000,9.003569091796875,-1.2570803747445345,0.5035463187426328,-3.693412619143724
1789701315686590000,9.01358984375,1.2360995460361242,-3.2941263008207082,-1.254602586454153
1789701315696612000,9.023612060546874,5.884566572391987,-6.706304396048187,0.3849421511501074
1789701315706633200,9.03363330078125,8.724912748157978,-8.437998425039648,0.6532283461660147
1789701315716655000,9.043655029296875,7.5794789769530295,-9.258543239519,0.26640111192166804
1789701315726676000,9.053676025390626,4.1071863125026224,-9.974057069206237,0.36676001324951646
1789701315736697900,9.06369775390625,0.019289222359657285,-9.229471458813547,0.8424427580326795
1789701315746719200,9.07371923828125,-1.4468597270175814,-6.109319330629706,0.8682207578897476
1789701315756740000,9.083739990234376,-0.3372007412880659,-2.7451795823842287,-0.41342064213752744
1789701315766762000,9.093761962890625,1.944598820786178,-0.4107891245901584,-2.0582623171061276
1789701315776783000,9.103783203125,3.9801436946496365,1.0602262617796658,-3.226242266640067
1789701315786805000,9.113804931640624,5.059771699252725,1.959278211262822,-3.812219615831971
1789701315796825900,9.123825927734375,5.509858815008402,2.190322178599238,-3.7577158722281454
1789701315806848000,9.133847900390625,5.266643932884931,1.691213550043106,-2.9967285776108503
1789701315816869000,9.143869140625,5.0150645425200455,0.9835697230786085,-1.9847937607914208
1789701315826891000,9.15389111328125,4.895846334682405,0.5410130028277635,-0.9247510388851166
1789701315836911900,9.163911865234375,4.877997958780825,0.484202151325345,0.0819645819813013
1789701315846933000,9.17393310546875,4.8691179022327065,0.8065139510393142,1.1791752972871063
1789701315856955100,9.183955078125,4.997311443686485,1.2782213624507188,2.522752636745572
1789701315866976000,9.19397607421875,5.03187889919877,1.6714467732995748,3.960547598297894
1789701315876998000,9.203997802734374,4.482198898051679,1.8920868355214595,5.356472087848186
1789701315887019000,9.21401904296875,2.6916227642416954,1.9714590629220008,6.256538767331838
1789701315897041200,9.224041259765626,-0.31701530074104667,2.0844927369058133,5.667788446295261
1789701315907062000,9.23406201171875,-3.6886429205238818,2.237842639186978,3.9879920700624583
1789701315917083100,9.244083251953125,-5.483040950709581,2.2506296400457617,1.8676757401034234
1789701315927105000,9.25410498046875,-5.13262709210515,2.260823701801896,0.1835492257118225
1789701315937126000,9.2641259765625,-3.805982182747125,2.1858231136143207,-0.9169739751428365
1789701315947148000,9.27414794921875,-2.391730301606655,1.946570120859146,-1.546423970836401
1789701315957169200,9.284169189453126,-1.1589011555433273,1.536723830077052,-1.8919126479983328
1789701315967191000,9.29419091796875,0.1281635116416961,0.8115408392906188,-2.1564830373615025
1789701315977212400,9.30421240234375,1.364708974814415,-0.08895020308494567,-2.400557166662812
1789701315987233300,9.3142333984375,2.4199241304337975,-0.8575929808914661,-2.5062632742375133
1789701315997255700,9.324255615234375,3.071614599508047,-1.3660370085477829,-2.6154776821941135
1789701316007276500,9.334276611328125,3.207913413745165,-1.536117680877447,-2.5915549548149106
1789701316017298400,9.34429833984375,2.804592140817642,-1.3763660948604344,-2.6029426102697846
1789701316027319600,9.354319580078124,1.7455998047471046,-1.0457967544108628,-2.5954864490449427
1789701316037341400,9.364341552734375,0.03034778285748325,-0.5381266337364912,-2.4175316823393107
1789701316047362600,9.374362548828126,-1.7731231869667767,0.09448913251161575,-1.7953624913036823
1789701316057384400,9.384384521484375,-3.290405818992853,0.5595598823875189,-0.8426017479866743
1789701316067405600,9.394405517578125,-4.366745011183619,0.7829442748814821,0.20544658474326133
1789701316077426400,9.404426513671876,-4.871743282300233,0.8889227696567773,1.078452823343873
1789701316087448300,9.4144482421875,-4.652950893771648,1.0245365242391824,1.7111700041398406
1789701316097469700,9.4244697265625,-3.992390305021405,1.2119950323492288,2.289619003653526
1789701316107491600,9.43449169921875,-2.9728707321614025,1.3160674012422562,2.9028865108311175
1789701316117512400,9.444512451171875,-1.84937757460773,1.5080448480814694,3.6040222710758445
1789701316127534300,9.454534423828125,-0.8715688992738724,1.8757161309570074,4.304653004407882
1789701316137555500,9.464555419921876,-0.29641170784719284,2.3168887033730745,4.905027127742767
1789701316147576600,9.47457666015625,-0.22997085821218788,2.7222791837900875,5.261683095607161
1789701316157598500,9.484598388671875,-0.7027531323134899,2.8121505933731794,5.037947989979386
1789701316167619600,9.49461962890625,-1.4577981774002313,2.301586504822969,4.203689707446098
1789701316177641500,9.504641357421875,-2.090449599483609,1.4432640406131743,3.186467305612564
1789701316187662300,9.514662353515625,-2.2766642450124026,0.8538806823700666,2.1999939700469375
1789701316197684500,9.5246845703125,-2.0736052860580383,0.7873509854078292,1.6100339809596538
1789701316207705600,9.53470556640625,-1.8358739499121903,0.9057377108573913,1.7645424056261776
1789701316217727500,9.5447275390625,-1.7400830871522426,1.0425462281823157,2.387209901572764
1789701316227748400,9.554748291015626,-1.756305177026242,1.1177777025163174,3.2933290129631754
1789701316237769500,9.56476953125,-1.858629387077689,0.9386679205566644,4.434624369189143
1789701316247791600,9.57479150390625,-2.1607915482103826,0.30072949798107146,5.634662421762943
1789701316257812500,9.5848125,-2.376097994319349,-0.5533575206160545,6.6980129530429835
1789701316267834400,9.59483447265625,-2.081968625255674,-1.130245554423332,7.273658293312788
1789701316277855500,9.60485546875,-1.5859399886667727,-1.3070493975281714,7.270766079002619
1789701316287877600,9.614877685546874,-1.3707108455777168,-1.2645856358081102,6.714144003632664
1789701316297898500,9.6248984375,-1.5984727225035429,-1.128451656743884,5.851759112289548
1789701316307919600,9.634919677734375,-2.159811305001378,-1.0368699361115694,4.77666232137531
1789701316317941500,9.64494140625,-2.8860587101489306,-1.1259756220191717,3.3605741647183893
1789701316327962400,9.65496240234375,-3.226706377020478,-1.7941975391775369,1.599369379082322
1789701316337984500,9.664984619140625,-2.338652206891775,-2.9632804815173146,-0.08854454489350318
1789701316348005600,9.675005615234374,-0.48341122014336285,-4.029306954008341,-1.3659195196479559
1789701316358027500,9.685027587890625,2.00031223244071,-4.800890461441874,-2.0678771176695823
1789701316368048400,9.69504833984375,4.076744412487745,-5.700200769600272,-2.3040087635338304
1789701316378069500,9.705069580078124,5.468217475587129,-6.4587260580182075,-2.3960651159405706
1789701316388091600,9.715091552734375,6.16516864362359,-7.078577619761228,-2.762299644011259
1789701316398112500,9.725112548828125,5.8353451531052585,-7.671764461940526,-3.4430390974372624
1789701316408134400,9.735134521484374,4.16352399353534,-8.272688035851717,-4.247826955336332
1789701316418155500,9.745155517578125,0.7794367051519453,-8.250342933052778,-4.480718011844158
1789701316428177400,9.755177490234376,-1.759639874406904,-7.155268645253777,-3.7684897796988484
1789701316438198500,9.765198486328124,-2.1922820804953576,-5.706599530726671,-3.1522470561027527
1789701316448219600,9.7752197265625,-1.1782663657486439,-4.207651012292504,-2.685499897447228
1789701316458241500,9.785241455078125,0.3838040870308876,-2.7330495841294526,-2.353187512722611
1789701316468262400,9.795262451171874,1.6385294230818748,-1.4686439810633658,-1.9854583621799944
1789701316478284300,9.8052841796875,2.6509952780380845,-0.24769582692980766,-1.4707593657821416
1789701316488305700,9.8153056640625,3.4354540491357444,0.9884937354773282,-0.8821914155751466
1789701316498327600,9.82532763671875,4.0045074437946075,2.1252496947079895,-0.3187269269645214
1789701316508348400,9.835348388671875,4.126541585835814,3.168281660580635,0.4786287351071834
1789701316518370300,9.845370361328126,3.550091358923912,4.211978227841854,1.5250667100310324
1789701316528391400,9.855391357421874,2.703367562571168,5.139485287436843,2.308622394809127
1789701316538412500,9.86541259765625,2.091336903712153,5.700765417745709,2.562043029126525
1789701316548434400,9.875434326171876,2.010856715069711,5.977379296123981,2.38239548702836
1789701316558455600,9.88545556640625,2.4380787958055734,6.050745561107993,1.6156325316190718
1789701316568477400,9.8954775390625,3.227847948271036,5.961823415073752,0.5511480278730392
1789701316578498300,9.905498291015626,4.095858862802386,5.786532314619421,-0.5674059197127819
1789701316588520400,9.9155205078125,4.6195261785537,5.588143247172236,-1.5204828893721103
1789701316598541600,9.92554150390625,4.9227831491857765,5.318479334062338,-2.3032950623065234
1789701316608562400,9.9355625,5.125005511185527,4.881050624349713,-2.883139023309946
1789701316618584300,9.945584228515624,5.247581505018473,4.2552065441936255,-3.2905297376334666
1789701316628605400,9.95560546875,5.272848632743955,3.6250557067543268,-3.6131162626355886
1789701316638627600,9.965627685546876,5.028621358707547,3.092614132916927,-3.8686464364528654
1789701316648648400,9.9756484375,4.536954278329015,2.6695950568288564,-4.0621681901246305
1789701316658670300,9.98567041015625,3.9792034911900758,2.280801490947604,-4.151065201717615
1789701316668691500,9.99569140625,3.1651939236983657,1.930922469872236,-4.320868226149678
1789701316678712300,10.00571240234375,2.0222937626242636,1.7007926947712897,-4.556332348015904
1789701316688734500,10.015734375,0.893552183023095,1.445631354266405,-4.8276405212014915
1789701316698755600,10.025755615234376,-0.14092910438627004,1.021152142497897,-5.064695127129554
1789701316708777500,10.035777587890625,-1.2306617388963699,0.21708850722014902,-4.848118661084771
1789701316718798300,10.04579833984375,-2.5582611725002526,-1.053702412968874,-3.350742506533861
1789701316728820500,10.055820556640626,-4.585412019766867,-2.726413507115841,-0.3553478078752756
1789701316738841600,10.065841552734375,-7.331662738513946,-5.023924725323915,2.667678409552574
1789701316748862500,10.075862548828125,-9.861296951466798,-7.882561175540089,4.481201995968818
1789701316758884400,10.08588427734375,-9.548107784885168,-9.836137960290909,5.573649442395568
1789701316768905500,10.095905517578124,-6.982123324656486,-9.850321968466043,6.0209799529194825
1789701316778927600,10.105927734375,-4.608267994697392,-7.35039958768785,5.389112374690175
1789701316788948500,10.115948486328126,-3.5796073762655256,-3.120084323644638,3.546316516560316
1789701316798970400,10.125970458984375,-2.5840485247075557,-0.16700316458046435,1.5125947664707897
1789701316808991500,10.135991455078125,-1.7384470103830099,1.3682891713887453,-0.2844417955249548
1789701316819012400,10.146012451171876,-1.5790122352302074,1.946146927011013,-1.5853051978945731
1789701316829034500,10.156034423828125,-1.8675848469495773,0.6946440601378678,-1.8559277269035577
1789701316839055600,10.1660556640625,-0.8073486482977866,-2.4375205774009228,-0.6005097324132919
1789701316849077500,10.176077392578126,2.0484616385817525,-5.638023422628641,0.8804197297275066
1789701316859098400,10.186098388671875,5.917797810864448,-7.25824971177876,1.1714128465920686
1789701316869120300,10.196120361328125,8.126108650618791,-8.127561187514662,0.4296791184991598
1789701316879141600,10.2061416015625,7.8152867976903915,-8.504643272814155,-0.39175300020873544
1789701316889163500,10.21616357421875,6.066096859496832,-7.853163816142081,-0.6931535293191671
1789701316899184400,10.226184326171875,3.541760168430209,-5.79526390260756,-1.1013853706419467
1789701316909205500,10.23620556640625,0.20257892035245895,-2.5993933933556077,-1.861326371076703
1789701316919227400,10.246227294921875,-1.9871520143553614,0.2694920636743307,-2.77917654453218
1789701316929248500,10.25624853515625,-0.7646472784295678,1.8242618380516766,-3.781508251225948
1789701316939270400,10.2662705078125,1.9015043599471448,2.486675945714116,-4.4075604211747645
1789701316949291500,10.27629150390625,3.946758726920187,2.6473399704009295,-4.464434401041269
1789701316959313400,10.2863134765625,5.094505158981681,2.1434294945210217,-3.783552324274182
1789701316969334300,10.296334228515626,5.269889198416471,1.077344569841027,-2.496961192885041
1789701316979355100,10.306355224609375,5.211845005726814,0.08653612768054007,-1.280313366293907
1789701316989377000,10.316376953125,5.14182045238614,-0.6307645854234695,-0.10586802013814449
1789701316999398000,10.32639794921875,4.864649816907942,-0.9248252731651068,1.0874132516518236
1789701317009420000,10.336419921875,4.584003614273667,-0.6773492264658212,2.2552806807219983
1789701317019441000,10.34644091796875,4.408021024423838,-0.15425181955695152,3.2369998074978588
1789701317029463000,10.356463134765624,4.205246873760223,0.45555590255558487,3.8021968189895152
1789701317039484000,10.36648388671875,3.4402842457711693,1.1927934882730244,3.8169796698406335
1789701317049505000,10.376505126953125,2.050508634239435,1.905816085666418,3.0510742080435156
1789701317059527000,10.38652685546875,0.5580208362519741,2.3681670551896095,2.1837308175101877
1789701317069547800,10.3965478515625,-0.8257447212100029,2.601193136253953,0.9211837017923593
1789701317079570200,10.406570068359375,-1.8875918621897696,2.7136189074724912,-0.2586611653193831
1789701317089591000,10.416591064453126,-2.3547651373028753,2.72003578877747,-1.1313175675690172
1789701317099613000,10.426613037109375,-2.409305705785751,2.5848259388208388,-1.760686899241805
1789701317109634000,10.436634033203125,-2.1200059488356113,2.2011048538982867,-2.217764312276244
1789701317119655000,10.446655029296876,-1.5120342099785804,1.5136673641383647,-2.2114117283791304
1789701317129677000,10.456677001953125,-0.6947568728625774,0.5328840569078922,-2.2374340583860874
1789701317139698000,10.466697998046875,0.18830838467134162,-0.6645926207453012,-2.175757062152028
1789701317149720000,10.476719970703124,0.8636720085442066,-1.769993072247505,-1.932821581491828
1789701317159741000,10.486740966796875,1.0191700287699699,-2.58708043974936,-1.6361802296072243
1789701317169763000,10.49676318359375,0.3995575364798307,-2.9074738386213776,-1.0783142916560173
1789701317179784000,10.506783935546874,-0.9582260229855776,-2.384157820525765,-0.2843979563832283
1789701317189805000,10.51680517578125,-2.4059815297991034,-1.1869248885005712,0.49993514250814913
1789701317199827000,10.526826904296875,-3.0548738925874233,0.17607026813328266,1.2060989600479601
1789701317209847800,10.536847900390624,-3.021119507023692,1.3517951327055693,1.878814681494236
1789701317219870200,10.5468701171875,-2.5846681179106232,2.2446850524276494,2.4672452690571545
1789701317229891000,10.55689111328125,-2.144269452476501,2.9030817411422727,2.945233952695131
1789701317239913000,10.566912841796874,-1.8491706538587807,3.395510453543067,3.3146386352345347
1789701317249934000,10.57693408203125,-1.779580984804034,3.724929454913735,3.556042960804701
1789701317259955000,10.586954833984375,-2.0715555139213797,3.8656513462901114,3.7722368572726843
1789701317269977000,10.59697705078125,-2.5238918699085713,3.693488022467494,3.926068990112841
1789701317279998000,10.606998046875,-2.6995652476787564,3.0661954970687626,3.8533851544350384
1789701317290020000,10.61702001953125,-2.50988789447546,2.269704927393794,3.449358655847609
1789701317300041000,10.627041015625,-2.0709055255800486,1.6175778204679487,2.9158631890431046
1789701317310062800,10.637062744140625,-1.6190297728419303,1.047883497557044,2.4158792389571664
1789701317320084000,10.647083984375,-1.4136847487770021,0.49746086134910583,2.085781607672572
1789701317330105000,10.65710498046875,-1.423341634916514,0.018976503148674963,1.8980583111464977
1789701317340127000,10.667126953125,-1.5636650284945963,-0.23397534461319444,1.8694445033416152
1789701317350147800,10.67714794921875,-1.4569469673983753,-0.12137304778397083,2.1180010387539863
1789701317360170000,10.687169921875,-1.0100245992839336,0.3989706765025854,2.58291192189306
1789701317370191000,10.697191162109375,-0.7019768141787499,1.086582353785634,3.0274855349242684
1789701317380213000,10.707212890625,-0.690216306823492,1.4932985298484562,3.1934619868054983
1789701317390234000,10.717234130859374,-0.8022966986704617,1.4634697932958602,2.905466590452194
1789701317400255000,10.7272548828125,-0.8196845443882048,1.0726000056624412,2.4305291110783815
1789701317410276900,10.73727685546875,-0.8582822052646428,0.39110008925795553,2.4788114959493277
1789701317420298000,10.747298095703124,-1.0657559119213371,-0.6107786129713058,3.162785108990967
1789701317430320000,10.757320068359375,-1.262550915110111,-1.5077742144465445,3.9326629815503953
1789701317440341000,10.767341064453126,-1.4297241755604744,-2.0181816511303183,4.261652943854034
1789701317450363000,10.77736279296875,-1.8134487676143645,-2.3134441158771515,4.134610618261993
1789701317460384000,10.787384033203125,-2.3895839372277257,-2.4255922391980884,3.9091163940072056
1789701317470406100,10.79740625,-3.1120413024425506,-2.3507997408032417,3.7776620971918105
1789701317480427000,10.807427001953124,-3.799574653792381,-2.229077733451128,3.5029017377257343
1789701317490448000,10.81744775390625,-4.156421760314703,-2.434785599479079,2.8448306277036663
1789701317500470000,10.827469970703126,-3.7371050458759068,-3.085881609791517,1.7872791380912065
1789701317510491000,10.837490966796874,-2.2640531852424144,-3.879275382494926,0.48155485168695444
1789701317520513000,10.847512939453125,0.008564414727687835,-4.457964912766218,-0.7286474520266055
1789701317530534100,10.8575341796875,2.427261049193144,-4.823752281591296,-1.450521464395523
1789701317540555000,10.867554931640624,4.301633656586707,-5.248629552766681,-1.7706483212858437
1789701317550577000,10.877576904296875,5.565077428883314,-5.601747409632802,-2.11422619639039
1789701317560598000,10.887597900390626,6.111293261051178,-5.815155767035484,-2.7224492796599864
1789701317570620200,10.8976201171875,5.4563610335767265,-5.944381281885504,-3.7684564619511365
1789701317580641000,10.90764111328125,3.0327146677494046,-5.773482278910279,-4.772207387793064
1789701317590663000,10.917662841796876,-0.237180278134346,-5.048354233181477,-4.676380284675956
1789701317600684000,10.92768408203125,-2.001746649158001,-4.0486622273415325,-3.8477076933205123
1789701317610706200,10.9377060546875,-1.9026818792939184,-3.006497691953182,-3.230328074648976
1789701317620727000,10.94772705078125,-0.46764118488579987,-1.9902076025336979,-2.812457467365265
1789701317630748200,10.957748046875,1.0953247554287313,-1.0396779792696238,-2.4627923813015222
1789701317640770000,10.96777001953125,2.35105488460809,-0.08369652034044266,-1.864382836037874
1789701317650791000,10.977791015625,3.3401313884094357,0.7758914337605237,-1.3082388995736836
1789701317660813000,10.98781298828125,3.7539185257717964,1.6255869394004343,-0.8329588903725147
1789701317670834200,10.997834228515625,3.871368554893136,2.317657934179902,-0.5248977343291044
1789701317680856000,11.00785595703125,3.519939089505374,2.8653847554326055,-0.25373276900649067
1789701317690877000,11.017876953125,2.8280864136517048,3.376441011413932,0.23499767339825628
1789701317700898000,11.02789794921875,2.4457357402995226,3.7765947602212426,0.578030774101615
1789701317710920200,11.037920166015626,2.2129729863464833,3.987036084511876,0.48851358478367324
1789701317720941000,11.047941162109375,2.4561545507222413,4.067126104792952,0.12916764718294144
1789701317730963000,11.057962890625,2.9394109456300734,4.007445835334062,-0.47383039491474627
1789701317740984000,11.067984130859376,3.333058381283283,3.8782618215382096,-1.1720324397951365
1789701317751005000,11.0780048828125,3.7025434355825184,3.778640002313256,-1.8523989682555198
1789701317761027000,11.088027099609375,3.8402904028013345,3.730992700475454,-2.33875449822247
1789701317771048200,11.098048095703126,3.8728149543091654,3.657282736620307,-2.652030758565664
1789701317781070000,11.108070068359375,3.9121401257425545,3.531287874254584,-2.8446704687058926
1789701317791091000,11.118091064453125,3.9057153533920643,3.3555513681203126,-2.9337749855697153
1789701317801112800,11.12811279296875,3.75037836894691,3.1621500259578226,-2.993455839550495
1789701317811134200,11.13813427734375,3.3044799370527267,3.0119290693521497,-3.071383713361621
1789701317821155000,11.148155029296875,2.5195138009548184,2.9472312639921903,-3.131528093200922
1789701317831177000,11.158177001953124,1.3158449906632304,2.8950609317719933,-3.1786960870891807
1789701317841198000,11.168197998046875,-0.284277252613008,2.7928058414340016,-3.1011528286814687
1789701317851220000,11.178219970703125,-2.06118551107645,2.5373405495464803,-2.8202520667642355
1789701317861241000,11.188240966796876,-3.5549347073018547,2.0364251638293265,-2.2127076134085653
1789701317871263000,11.198262939453125,-4.1923236793011425,1.2150234402596949,-0.9437719656974076
1789701317881284000,11.2082841796875,-3.829112006182968,0.13443068227767943,1.1894909395962954
1789701317891306000,11.218305908203124,-4.132723781602085,-1.6158172405362128,3.493179969656467
1789701317901326800,11.228326904296875,-5.763190017476678,-4.197053630432486,5.67260198405683
1789701317911348200,11.23834814453125,-6.761105076771974,-6.754572460132837,6.787622496819496
1789701317921370000,11.2483701171875,-5.969256779944897,-8.185669677612186,6.250704069828987
1789701317931391000,11.258390869140625,-5.2428369408398865,-7.682975591784715,4.516278570047021
1789701317941412900,11.268412841796875,-4.650877302367985,-4.951131876313686,2.895177836149931
1789701317951434000,11.27843408203125,-3.00938318426162,-2.0707155559659003,1.1274918718010187
1789701317961456000,11.2884560546875,-1.2784002261489629,0.04905541507005691,-0.5851075806200504
1789701317971477000,11.29847705078125,-0.4507704218447208,1.6691940259367226,-1.9894588299930094
1789701317981498600,11.30849853515625,-0.9447451946437359,2.8520184933811423,-3.0974715098202226
1789701317991520800,11.318520751953125,-2.378406417392194,2.640855869078636,-3.2582746507167815
1789701318001541600,11.328541748046876,-1.4544570502787828,0.16237199764847754,-1.9560691860884427
1789701318011563800,11.338563720703124,2.6705440281167623,-3.6400638907939196,-0.5267389782816171
1789701318021584600,11.348584716796875,7.029073291879892,-7.054505254778266,-0.11028759014606475
1789701318031606800,11.358606689453126,8.819014927178621,-8.702966873809695,-0.22960195183455942
1789701318041627600,11.368627685546874,7.212518472695351,-8.689933789235353,-0.11306348460018634
1789701318051648500,11.3786484375,3.7986999167844653,-7.161254149404168,0.3728863871753216
1789701318061670700,11.388670654296876,-0.9366282314226031,-4.626963635078072,1.1831839484065771
1789701318071691800,11.39869189453125,-5.38705018146336,-2.1044833855330944,0.3841127145886421
1789701318081713700,11.408713623046875,-3.9769580503508446,-0.8161293361246585,-3.3941274747520684
1789701318091734500,11.418734619140626,1.4463815881118178,-0.06272738206982613,-6.208522047659755
1789701318101757000,11.4287568359375,5.3718438445031635,0.6523281824558973,-7.30405460062027
1789701318111777800,11.43877783203125,6.603334435439109,0.9068032942622899,-7.553212901318073
1789701318121798700,11.448798583984376,6.335795259398221,0.7249263856768607,-6.660876523825526
1789701318131820800,11.45882080078125,5.275880547785759,0.20703180810809135,-4.85929062796235
1789701318141841700,11.468841552734375,4.370200120073557,-0.437853072604537,-2.626044084393978
1789701318151863800,11.47886376953125,4.36409537345767,-1.064230236724019,-0.6845838538944721
1789701318161884700,11.488884765625,4.7523517637223005,-1.408081083551049,1.1559984198391438
1789701318171905800,11.49890576171875,5.021362181359529,-1.3439093478918074,3.112012076348066
1789701318181927700,11.508927734375,5.393146160250902,-0.9758967042326927,5.045281401607394
1789701318191948500,11.518948486328124,5.297975475215911,-0.30431203264296053,6.941539969855547
1789701318201970700,11.528970703125,4.502050138208269,0.680590984866023,8.481677407768368
1789701318211991800,11.53899169921875,2.3966822249256072,2.004037974965572,9.076639442926645
1789701318222013700,11.549013671875,-0.600822013232857,3.324520270040631,8.215223688876629
1789701318232034600,11.55903466796875,-3.0108067873239515,4.047604242721199,5.982698445320129
1789701318242055700,11.5690556640625,-4.130741375613212,3.995256800368428,3.2427181851446627
1789701318252077800,11.579077880859375,-3.994603889417648,3.675259122815728,0.8653583541959524
1789701318262098700,11.5890986328125,-3.254063755023479,3.1530326535224913,-0.9596130934298038
1789701318272120800,11.599120849609376,-2.3777532141804696,2.294160738736391,-2.0761627154558897
1789701318282141700,11.6091416015625,-1.578760890817642,1.1952613396912812,-2.779962726473808
1789701318292163600,11.61916357421875,-0.6893126359820365,0.10184709405899048,-3.06299290163517
1789701318302184700,11.629184814453126,0.3383423490712419,-0.8109224151313305,-2.9924983926951882
1789701318312205800,11.639205810546875,1.243274552232027,-1.3848954382747412,-2.8437340646386144
1789701318322227700,11.649227783203125,2.217003849297762,-1.625942328709364,-2.855895042553544
1789701318332248600,11.65924853515625,3.1670015576422212,-1.5776082136511802,-3.0076117906749245
1789701318342270700,11.669270751953125,3.7540228629291055,-1.297123046797514,-3.103740507087111
1789701318352291800,11.679291748046875,3.697055359560251,-0.9340186334460974,-3.0805706439018246
1789701318362313700,11.689313720703124,2.7271640332221985,-0.5158317998200654,-3.1177503277391194
1789701318372334600,11.69933447265625,0.8491384562790393,0.01818447598814964,-3.021441578584909
1789701318382355700,11.709355712890625,-1.3651532114505767,0.4893155488163233,-2.516083241984248
1789701318392377600,11.719377685546876,-3.226559077504277,0.6898878055214881,-1.3868430652111767
1789701318402398700,11.729398681640625,-4.483389276880025,0.8063508694320917,-0.14759353071153164
1789701318412420900,11.7394208984375,-5.07363655847609,1.153731643950939,0.6626444092869758
1789701318422441700,11.749441650390626,-4.765704581770301,1.524703721937537,1.1010329039424658
1789701318432463600,11.759463623046875,-3.791881761202216,1.6637714163661002,1.4389163667976856
1789701318442484700,11.769484619140625,-2.4870669908583163,1.638614763277769,1.9078458379283547
1789701318452505900,11.779505859375,-1.1744956150382757,1.5819979730427265,2.5252508833020926
1789701318462527700,11.78952783203125,-0.14834522586166857,1.5167928026825188,3.3248139922901987
1789701318472548600,11.799548583984375,0.19907412710189817,1.4617629893779753,4.160529487894475
1789701318482570800,11.80957080078125,-0.2875374234527349,1.3422235867619514,4.800114508633316
1789701318492591600,11.819591552734375,-1.4127426456212997,1.095176579129696,4.914996733093261
1789701318502613800,11.82961376953125,-2.427468116072565,0.8012491623789072,4.406412712444364
1789701318512635000,11.839634765625,-2.8389485839277504,0.6135983465671538,3.782107678423822
1789701318522655700,11.84965576171875,-2.6239929970830675,0.5838409216850996,3.3885113884359597
1789701318532677600,11.859677734375,-2.2031378210306167,0.5919236903756857,3.2082772786214946
1789701318542698500,11.869698486328126,-1.9200633683361112,0.6398316889762878,3.0321704778701064
1789701318552721000,11.879720947265625,-1.8193717279225587,0.6808657101541757,2.745423035751283
1789701318562741800,11.88974169921875,-1.743760314360261,0.6850239988774061,2.455364277127385
1789701318572763600,11.899763671875,-1.884786157119274,0.47133273288011546,2.6120164358243345
1789701318582784800,11.90978466796875,-2.3566646873138843,-0.31751287499964237,3.6558176325038074
1789701318592805600,11.9198056640625,-2.4213776902429758,-1.2281132234573364,4.984475342988968
1789701318602827800,11.929827880859374,-1.9754437486439942,-1.624988973507285,5.593005884772539
1789701318612848600,11.9398486328125,-1.5236949832864104,-1.7542016288757323,5.4153065541327
1789701318622870800,11.949870849609376,-1.3465963950186968,-1.805801467731595,4.725662494239211
1789701318632891600,11.9598916015625,-1.3855039255619048,-1.7889438564330338,4.01727866256237
1789701318642912500,11.96991259765625,-1.6177338878124952,-1.594626568469405,3.3506472294658423
1789701318652935000,11.979934814453125,-1.8907938731014728,-1.366273739913106,2.6765210566997526
1789701318662955800,11.989955810546874,-2.0752415089577436,-1.3783376871943473,1.9985691881656646
1789701318672977700,11.999977783203125,-1.7707739934921263,-1.9007588022768496,1.095804940161109
1789701318682998800,12.009998779296875,-0.7705705309987068,-2.6859289365142582,-0.03923369375765323
1789701318693021000,12.02002099609375,0.4894190091907978,-3.369596260085702,-1.0736457153230905
1789701318703041800,12.030041748046875,1.9413984173096714,-3.8017695334881543,-1.7321628155469893
1789701318713062700,12.040062744140625,3.384455683304369,-4.252439417567849,-2.2456804932057857
1789701318723084800,12.050084716796874,4.3235131877005095,-4.719974511730671,-2.784927655404806
1789701318733105700,12.060105712890625,4.386219234721362,-5.212951505663991,-3.634669338274002
1789701318743127800,12.0701279296875,3.37185660623312,-5.838225092455745,-4.71566716992557
1789701318753148700,12.080148681640624,1.4349498012542723,-6.297139073267578,-5.442321402308345
1789701318763170800,12.0901708984375,-0.42509032940417524,-5.980310673400759,-5.047776725554466
1789701318773191700,12.100191650390625,-1.3321649879537523,-4.847359951671958,-4.0724370706826445
1789701318783212500,12.110212646484374,-0.9937804437085985,-3.4201965665102003,-3.116794634449482
1789701318793235000,12.12023486328125,0.24154227273613213,-2.162827437952161,-2.268384492444992
1789701318803255800,12.130255859375,1.4664602072834967,-1.037858947148919,-1.3857114308327436
1789701318813277700,12.140277587890624,2.5144915888786312,-0.07251227850317954,-0.3791191440850496
1789701318823298800,12.150298828125,3.421037985770404,0.8607330324828624,0.4782376899629831
1789701318833320700,12.16032080078125,3.8269770399808882,1.8577385757178067,1.1859727023422717
1789701318843341800,12.170341796875,3.753332250316441,2.7787913446068764,1.7162492071002722
1789701318853362700,12.18036279296875,3.052108519527316,3.6388451626539227,2.424863924923539
1789701318863384800,12.190384765625,2.2994658594071864,4.406662595552206,2.859880312797427
1789701318873405700,12.20040576171875,2.004784117157757,4.9720712039679285,2.722893516296148
1789701318883427600,12.210427490234375,2.1460864387705922,5.343496870940923,2.2887211780309675
1789701318893448700,12.22044873046875,2.4913299089998007,5.565278504413366,1.5711954239994286
1789701318903470800,12.230470947265625,3.038169718284905,5.533896693199873,0.5761386767446994
1789701318913491700,12.24049169921875,3.6720612035572526,5.287806547901034,-0.49287119547128677
1789701318923512600,12.2505126953125,4.284910777583718,4.935012516161799,-1.5071458534151314
1789701318933534700,12.26053466796875,4.66243037751764,4.437242442733049,-2.404145546543598
1789701318943555600,12.2705556640625,4.823615211208164,3.7431484176933765,-3.0395564964681863
1789701318953577700,12.28057763671875,4.702335979187488,2.9962153673917054,-3.458925817877054
1789701318963598800,12.290598876953124,4.390829358865321,2.3204694844692946,-3.7540713782459494
1789701318973620700,12.300620849609375,3.8454789113551375,1.8512731790959833,-3.9931951916635033
1789701318983641000,12.31064111328125,3.044737698498368,1.6696920385867355,-4.1574306450963014
1789701318993662200,12.320662109375,2.0693337462186814,1.6883131524264812,-4.2534862962722775
1789701319003684000,12.33068408203125,1.0344783647999167,1.7796189787268637,-4.370312348276377
1789701319013705000,12.340705078125,0.05488865126818418,1.9069009582936762,-4.487656286674738
1789701319023727000,12.35072705078125,-0.9647352587491274,1.9218132807433603,-4.632014488726854
1789701319033748200,12.360748291015625,-1.920704442718625,1.7064713249295949,-4.538878524389863
1789701319043770000,12.37077001953125,-2.4525413286611437,1.0317430946171282,-3.829944657614827
1789701319053791000,12.380791015625,-2.629995744629204,-0.05658464153110981,-2.139846375337243
1789701319063812000,12.39081201171875,-3.529294362349808,-1.70161277898252,0.2937736874938011
1789701319073834200,12.400834228515626,-5.277441221231222,-3.879260769447684,2.9921716449588533
1789701319083855000,12.410855224609374,-7.236458735731244,-6.379986283302307,4.634439670047164
1789701319093877000,12.420876953125,-8.503536772876977,-8.635794202768801,5.096566767686605
1789701319103898000,12.430898193359376,-8.026778507816791,-9.27472923516631,4.932949153891205
1789701319113920300,12.440920166015625,-5.739898573738336,-7.302216863799095,4.5098640268296
1789701319123941000,12.450941162109375,-3.777561851687729,-2.9948703825235365,3.6871097196072338
1789701319133962200,12.460962158203126,-2.772350205643475,0.14752747973799704,1.9859639736145733
1789701319143984000,12.470984130859375,-2.44480810406059,2.137677799126506,0.2271025362342596
1789701319154005000,12.4810048828125,-2.7444728954195976,3.429944053542614,-1.386320502641797
1789701319164027100,12.491027099609376,-2.7566514089912175,3.6149884862482544,-2.4947557917952534
1789701319174048300,12.50104833984375,-2.0240543425559996,1.9000474391371012,-1.9004215331465004
1789701319184070100,12.511070068359375,0.47785102873295543,-1.1206862834393978,0.45627661804556846
1789701319194091000,12.521091064453126,4.829838615767658,-4.397407860472798,2.2706997836500404
1789701319204112100,12.531112060546874,8.895208524543046,-6.671110333070159,2.0566315010339022
1789701319214134300,12.54113427734375,9.257585208141803,-8.045902895003557,1.2087006669789553
1789701319224155100,12.551155029296876,6.966135481929778,-8.624702899911998,0.6096019704073667
1789701319234177000,12.561177001953125,2.5745021132051944,-7.939047032871842,1.0387696322530506
1789701319244198100,12.5711982421875,-2.6290412203833458,-5.644401140967011,1.1527514007419346
1789701319254220300,12.58122021484375,-3.800874922735989,-3.298220876657963,-1.273138944619894
1789701319264241200,12.5912412109375,-0.1777186198621988,-1.6203776803195475,-4.145151009237766
1789701319274262300,12.60126220703125,3.4350811241701242,-0.29634090763330456,-5.246124291947484
1789701319284284200,12.6112841796875,5.17173745174408,0.6641121437519788,-5.632997703421116
1789701319294305000,12.621304931640625,5.6875768503487105,1.3445160816133022,-5.392991261950135
1789701319304327000,12.631326904296875,5.596437028264999,1.6155588818609714,-4.331145290014147
1789701319314348300,12.641348388671876,5.140577758848667,1.379697869631648,-2.8559230996042486
1789701319324370200,12.6513701171875,4.763562893566489,0.9242249691843986,-1.465840614080429
1789701319334391000,12.66139111328125,4.653301899166405,0.5510907447278499,-0.2507163437947631
1789701319344412200,12.671412109375,4.648279687090218,0.38353579148352146,0.8687696239441632
1789701319354434000,12.68143408203125,4.647934526914358,0.3882739259213209,2.082227130061388
1789701319364455200,12.691455078125,4.551562649396062,0.6357669237554073,3.3531957449048755
1789701319374477000,12.70147705078125,4.262864365470409,1.1085954481512308,4.551177449470758
1789701319384498200,12.711498291015625,3.3053041129171845,1.7546558023840189,5.138103477689624
1789701319394520000,12.72152001953125,1.4878898026727139,2.4895956325531006,4.890533615227043
