time,seconds_elapsed,z,y,x
1789666884548923100,0.074923095703125,0.4690712176889181,-0.33140286866426466,0.4166489565342664
1789666884558873900,0.084873779296875,0.14748656320571898,-0.3173188137322664,0.34811413029469546
1789666884568825900,0.094825927734375,-0.08239888174533844,-0.3230091343283653,0.10443579537793993
1789666884578778000,0.104778076171875,-0.5364058012932539,-0.3252969530045986,0.37934900731816884
1789666884588730000,0.114730224609375,-1.170401623722911,-0.40560178508013484,0.75084898163639
1789666884598681900,0.124681884765625,-1.569410294148326,-0.349787543399632,0.8658951644863933
1789666884608634000,0.134634033203125,-1.8873504546493292,-0.13278291507065296,0.842798877993971
1789666884618585000,0.144585205078125,-2.089942234483361,0.0582426378712058,0.7423446995981037
1789666884628536800,0.154536865234375,-2.1520435936093327,0.047158349277079105,0.6492964135445654
1789666884638489000,0.164489013671875,-2.3565987824708223,-0.44261371113508935,0.6204083188429474
1789666884648441000,0.174441162109375,-2.3231010020166636,-1.3497934374943374,0.7052766594417392
1789666884658392800,0.184392822265625,-1.987283239519596,-0.30456513062119484,0.3235330120719969
1789666884668344000,0.194343994140625,-1.7683488121718167,-0.03196808666884899,-0.12216916659772395
1789666884678296000,0.204296142578125,-1.1481903764367103,-0.08387918343096971,0.0348487566716969
1789666884688247800,0.214247802734375,-0.5509177262485027,-0.381604531159997,0.2296579198054969
1789666884698200000,0.224199951171875,-0.40121114890575404,-0.6481976585224271,0.2696677125021815
1789666884708152000,0.234152099609375,-0.40991701793074603,-0.6728826024457812,0.41208325605392454
1789666884718103000,0.24410302734375,-0.9155681999981403,-1.1034481483906506,0.4186811930142343
1789666884728055000,0.254054931640625,0.07120061138272285,-0.8493880471259355,0.11032105402424931
1789666884738007000,0.264007080078125,1.2393500722646713,-0.6233807587824761,0.23241050644926725
1789666884747958800,0.273958740234375,2.302129525658488,-0.2646758955642581,0.7360599202401935
1789666884757911000,0.2839111328125,3.106137631356716,0.9332407809413968,1.3615543101757763
1789666884767863000,0.293863037109375,2.570893859580159,1.9530799411445854,1.2202686474367976
1789666884777814000,0.30381396484375,2.1593308280080556,1.5345901790492236,0.5393425853975117
1789666884787766000,0.31376611328125,1.5473124441087245,0.13128712355494498,0.7701819700725376
1789666884797718000,0.323718017578125,1.6498878524422644,-0.9372443174943328,1.0219411009185015
1789666884807670000,0.333669921875,2.3027163856357333,-1.148088669627905,0.6754051066607236
1789666884817622000,0.3436220703125,2.6869506807774304,-0.8519155197769402,0.3319171017967164
1789666884827573000,0.353572998046875,2.34434954175055,-0.5447556964874267,0.5905246372327209
1789666884837525000,0.36352490234375,1.8915473218172787,-0.5058234698943793,1.0339115246973931
1789666884847477000,0.37347705078125,1.5472019694715737,-0.26275325693860646,0.7695721676111221
1789666884857429000,0.383428955078125,0.9690484457731247,-0.12174728792384266,0.6661367814473808
1789666884867381000,0.393381103515625,1.3219634735435246,0.05270166261792183,1.1197168538853526
1789666884877333000,0.4033330078125,2.373044890359044,0.40704643093049525,1.4118404360845684
1789666884887284000,0.413283935546875,2.8787679686188694,-0.371511007168889,1.0070786089599133
1789666884897236200,0.423236328125,3.173466369742155,-1.3432106981031595,0.6718212568245828
1789666884907188000,0.43318798828125,4.168386338874697,-1.7577191354773938,0.41536534646451473
1789666884917140000,0.443139892578125,4.151751430416107,-2.355403435206413,-0.01358940328285098
1789666884927088600,0.453088623046875,3.6599130851238963,-2.2791689213097093,-0.325680399364233
1789666884937040600,0.46304052734375,2.87065480479002,-1.5414973280891775,-0.18978826623186468
1789666884946991600,0.47299169921875,1.3167068681895733,-1.012360933277011,0.07112425821088254
1789666884956943600,0.482943603515625,0.40111119566261766,-0.9144216603115201,-0.00885594502016902
1789666884966895600,0.4928955078125,-0.14681202494502066,-0.7878314624011516,-0.4345433635346591
1789666884976847600,0.50284765625,-0.9993570747971534,-0.8299211301118135,-1.2197151052072643
1789666884986799600,0.512799560546875,-1.8160674256801603,-0.8882394635677338,-2.019356686259061
1789666884996750600,0.52275048828125,-2.31613233204782,-0.939896001046896,-2.33438563548848
1789666885006702600,0.53270263671875,-2.346094339591265,-1.0369915166646242,-1.8776105664014815
1789666885016654800,0.54265478515625,-1.8877976138949393,-1.0060989502727984,-0.7864578359603881
1789666885026606600,0.552606689453125,-1.384502055042982,-0.6718953449741005,0.22641528462246058
1789666885036558600,0.56255859375,-0.9043927259892225,-0.23222762416303155,0.7382227973625064
1789666885046510600,0.572510498046875,-0.5600508807748555,0.17555705791413784,1.0613357573915272
1789666885056461600,0.582461669921875,-0.40071664338707924,0.20082418563961982,1.2455933505684136
1789666885066413600,0.59241357421875,-0.3975099563002586,-0.0075993690878152845,1.5655729079425333
1789666885076365800,0.60236572265625,-0.3618915304303169,-0.20479864222854374,1.847779930152744
1789666885086317600,0.612317626953125,-0.1651964074194431,-0.30782676276564597,1.8388675787702202
1789666885096269600,0.62226953125,0.26341595863103867,-0.415892585209012,1.8414054266847668
1789666885106221600,0.6322216796875,1.0554483798533678,-0.5623766933739185,1.8975293188363314
1789666885116172500,0.642172607421875,2.2122171995431184,-0.7246931614428758,1.8770380272105336
1789666885126124500,0.65212451171875,2.4204466930031776,-0.9705915835618972,1.8533844721615313
1789666885136076800,0.662076904296875,2.0698592313975093,-1.1956453705728054,1.767185467480868
1789666885146028500,0.672028564453125,1.4459581020027399,-1.1577300659373402,1.7154174324512481
1789666885155980500,0.68198046875,0.28845453829765316,-1.0047472434028983,1.6016403927542269
1789666885165932500,0.6919326171875,-0.7044505838811397,-1.013131040866673,1.5084658499725163
1789666885175883500,0.701883544921875,-1.2591378917962313,-1.2338318933650851,1.2722308898642658
1789666885185835500,0.71183544921875,-1.7370295448005197,-1.3445628433644772,1.109012504519522
1789666885195787800,0.721787841796875,-1.914089408493042,-1.2476271944835782,0.9025702598024159
1789666885205739800,0.73173974609375,-1.7837433651804924,-1.200293488639593,0.554294472672604
1789666885215691500,0.74169140625,-1.6557774950027464,-1.2028963646143673,0.14986410599201916
1789666885225642800,0.751642822265625,-1.619539475929737,-1.0560405005276203,-0.10060524077173322
1789666885235594500,0.761594482421875,-1.671188999146223,-0.7315145318955183,0.022511070482991634
1789666885245546500,0.77154638671875,-1.6387375128746031,-0.3868181741550564,0.104839225079678
1789666885255498800,0.781498779296875,-1.6986743874430656,-0.0017453823626041411,-1.6925820619173346
1789666885265450800,0.79145068359375,-1.9596429529219865,0.40499680492430923,-2.702658245258033
1789666885275402500,0.801402587890625,-2.5027631571620703,0.37065906651467084,-1.5723779117822647
1789666885285353700,0.811353759765625,-3.250904414209723,0.3682265786707401,-0.29197416379116475
1789666885295305700,0.8213056640625,-3.3336861577928065,0.31577246107310053,-0.4364071481125429
1789666885305257500,0.831257568359375,-2.7719594527602194,-0.004334522072970867,-0.7649704459693283
1789666885315209700,0.841209716796875,-1.8713976832360029,-0.28187077599316834,-0.4698014681922272
1789666885325161700,0.85116162109375,-1.4002531664043665,-0.1537710503026843,-0.2181064155584201
1789666885335113500,0.861113525390625,-1.2143816352248191,0.2665697464868426,-0.41618046223968264
1789666885345064700,0.871064697265625,-1.095696803611517,0.7076128473043442,-0.6128108494512736
1789666885355016700,0.8810166015625,-0.9939362187922001,0.9651169515430926,-0.8026858441185206
1789666885364968400,0.890968505859375,-1.141601645696163,1.048301138447225,-0.5549250621937215
1789666885374920700,0.900920654296875,-1.331750123542547,1.0612824928343296,-0.41713951653018594
1789666885384872700,0.910872802734375,-1.477431683152914,1.047969422274828,-0.30186551627367736
1789666885394824400,0.920824462890625,-1.5011965896219015,0.9128960581794381,0.1773256019566208
1789666885404775700,0.930775634765625,-1.1179045437663793,0.6892915931940078,0.29014212605841455
1789666885414727700,0.940727783203125,-0.6957505600750445,0.21642770522385835,0.41470805159956214
1789666885424679400,0.950679443359375,-0.3578127366840839,-0.01621639078557491,0.2440845045648515
1789666885434631700,0.960631591796875,-0.5274170236736536,-0.05705372034758329,-0.03219853442385793
1789666885444583700,0.970583740234375,-1.094821774342656,-0.2688487973347306,-0.4497211319874972
1789666885454535700,0.98053564453125,-1.7012690801113843,-0.3264686271324754,-0.5005144767660648
1789666885464486700,0.990486572265625,-2.265512151879072,-0.062003451709449285,-0.3060191288217902
1789666885474438700,1.000438720703125,-2.796386038008332,0.2660100667774677,-0.12421535853780806
1789666885484390700,1.010390625,-2.872261655464768,0.6473819582253694,0.08668649593666196
1789666885494342700,1.0203427734375,-2.5674282292962074,1.175867780174315,0.14215594276748597
1789666885504294700,1.030294677734375,-2.061357360512018,1.4811942505568265,0.06876198605895043
1789666885514246700,1.04024658203125,-1.7397212681025265,1.7144988563016057,-0.08268982751592993
1789666885524198700,1.05019873046875,-1.8072925830721853,1.5734139768317341,-0.34251660254858435
1789666885534149600,1.060149658203125,-1.9222791446894407,1.011808852352202,-0.34981961903832853
1789666885544101600,1.0701015625,-1.8270353944182396,0.8652095933750271,-0.036592823860049244
1789666885554053600,1.0800537109375,-1.6050339807152747,1.2591554274529217,0.0559756427872926
1789666885564005600,1.090005615234375,-1.413624104630947,1.5437161731824278,0.12951762966439126
1789666885573957600,1.09995751953125,-1.1670534823387861,1.6113398028612136,0.38990729927681383
1789666885583908600,1.10990869140625,-0.5970867722272872,1.5665464291498064,0.8674282923378049
1789666885593860600,1.119860595703125,0.18424480676054952,1.50676620644778,1.1161859763454645
1789666885603812600,1.1298125,0.7930968355834483,1.3694582151681185,1.120696731768176
1789666885613764600,1.1397646484375,1.0941963359206914,1.1485951578453182,0.9950945219818502
1789666885623716600,1.149716552734375,0.9714724580496549,0.8880220214247703,0.6331085912663489
1789666885633668600,1.159668701171875,0.5338415037631988,0.8672592193812131,0.09800360690597444
1789666885643620600,1.16962060546875,0.18560089754462242,0.9858438054904342,-0.4197890446582809
1789666885653571600,1.179571533203125,-0.1666045206516981,0.39191374372839927,-0.988124902164936
1789666885663523600,1.189523681640625,-0.45165304989814753,-0.326418942771852,-1.4487164608001708
1789666885673475800,1.199475830078125,-0.10124328294694424,0.512749908156693,-1.094561808232218
1789666885683427600,1.209427490234375,0.24159634101092814,0.8699576646849513,-0.865643454747647
1789666885693379600,1.219379638671875,0.7361807701408862,1.1650985488787293,-0.4974527511078864
1789666885703331600,1.22933154296875,1.1853688912302256,1.4008607769086956,-0.38578656608499584
1789666885713282600,1.239282470703125,1.5959095940172672,1.5479954579368234,-0.21419901459002866
1789666885723234600,1.249234619140625,2.0471938106030225,1.5912956704810262,-0.010041945642564679
1789666885733186800,1.259186767578125,2.462954878386855,1.508595759962499,0.0018172580054379066
1789666885743138600,1.269138671875,2.99426657141149,1.3648615350276232,0.06369870675343554
1789666885753090600,1.279090576171875,3.650474810171127,0.9390402610003947,0.15893226899076252
1789666885763042800,1.289042724609375,4.4337803195804355,0.3673264149606228,0.22564188909716903
1789666885772993500,1.29899365234375,5.4204199516236775,0.15344839421957732,0.42379802457131444
1789666885782945500,1.308945556640625,7.5521654380917544,0.4482955561637878,0.39464649316053835
1789666885792897800,1.318897705078125,7.010579603812098,-0.15453765076100826,0.9230503724470734
1789666885802849500,1.328849609375,5.7352843579411505,-0.5908735968008637,1.6562984501369296
1789666885812801500,1.338801513671875,5.096103241828084,-0.24851357305347918,1.1794226961769163
1789666885822753800,1.34875390625,3.8047850819170472,-0.1777732726588845,1.1511574095487593
1789666885832704500,1.35870458984375,3.1519892819494006,-0.1539838162705302,1.0515799409221858
1789666885842656500,1.368656494140625,2.792227164763212,-0.13599544737637043,1.00716409528628
1789666885852608800,1.37860888671875,2.250437332344055,-0.12038023735433816,0.9073771486274897
1789666885862560500,1.388560546875,1.5795038181394339,-0.14302169275134802,0.6473102812286466
1789666885872512500,1.398512451171875,0.9219622849494218,-0.18043927699774504,0.4553711205732077
1789666885882464800,1.40846484375,0.2876221791267395,-0.31611499090045686,0.10526106722094118
1789666885892416800,1.418416748046875,-0.2711965295046568,-0.35626083106696604,-0.1491170139517635
1789666885902367500,1.428367431640625,-0.8244313005238771,-0.18948826037198305,-0.23265151213090865
1789666885912319700,1.43831982421875,-1.5157359871059655,-0.17442659257948398,-0.2394162935581058
1789666885922271700,1.448271728515625,-2.1036732381939887,-0.24986294183582067,-0.28882896110061557
1789666885932223200,1.45822314453125,-2.58905729278028,-0.3803665137976408,-0.42938316775988783
1789666885942175500,1.468175537109375,-2.409862170624733,-0.3903545315876603,-0.3599353183286264
1789666885952127500,1.47812744140625,-2.778138433656096,-0.8953747222751378,-0.320802418064326
1789666885962078200,1.488078125,-3.1796453506380318,-1.5148077663451431,-0.13713015049472452
1789666885972030500,1.498030517578125,-2.913625931510329,-0.9487617368087172,-0.5500902989810332
1789666885981982500,1.507982421875,-2.9216853193253276,0.11028203718811273,-0.5223421680947765
1789666885991934200,1.517934326171875,-3.3647534962296484,1.0951228031158446,-0.06204060538206249
1789666886001886500,1.527886474609375,-3.514376486942172,1.5028510788306593,0.29711879667062313
1789666886011838500,1.53783837890625,-3.278675049188733,1.3824012833714485,0.29210641186870634
1789666886021789400,1.54778955078125,-2.6965836015194653,1.2524968463465571,0.26442652391307053
1789666886031741400,1.557741455078125,-2.5713392652601,1.1316486992195247,0.1541928559113294
1789666886041693400,1.567693359375,-2.515971598303318,0.7058154424935579,-0.04376286161988974
1789666886051645200,1.577645263671875,-2.564795542705059,0.32398499362319705,-0.1455019652597606
1789666886061597400,1.587597412109375,-2.4206056829571723,0.1711290123388171,-0.31959464970976115
1789666886071549400,1.597549560546875,-2.1105103907376526,-0.22242928372621534,-0.593323254975304
1789666886081501400,1.60750146484375,-1.8621102149307727,-0.32845307894796133,-0.5314524166695773
1789666886091452400,1.617452392578125,-1.2223065830051898,-0.3369818378403783,-0.4766626957312226
1789666886101404400,1.627404296875,-0.7782341974943876,-0.11181553036570549,-0.4729900716330856
1789666886111356200,1.637356201171875,-0.5555138218671083,-0.1706131717711687,-1.045547967281565
1789666886121308400,1.647308349609375,-0.6168214002668857,-0.6044026481986046,-1.5016723904401064
1789666886131260400,1.657260498046875,-0.46950902458429333,-0.8472092417821288,-1.5086428139746189
1789666886141212400,1.66721240234375,-0.22740181144177912,-0.6385401878610253,-1.39037094707638
1789666886151163400,1.677163330078125,0.07302899585366249,-0.19037585686147213,-1.2754869690507649
1789666886161115400,1.687115478515625,0.4724117602884769,0.15855565423071383,-1.0380274355836212
1789666886171067400,1.6970673828125,1.232136487624049,0.41514878110438586,-0.5248642704509199
1789666886181019400,1.707019287109375,1.5890163273721933,0.7497761647731065,-0.2328327504493296
1789666886190971400,1.716971435546875,1.447233528766036,0.6243307529836892,-0.03965586469247937
1789666886200923400,1.72692333984375,1.449611363813281,-0.14558745158612726,0.6222540928401052
1789666886210875400,1.73687548828125,1.811594079658389,-1.041251804457605,1.1289796261407434
1789666886220826400,1.746826416015625,2.222419444605708,-1.4511772979557513,0.9624785658635199
1789666886230778400,1.7567783203125,2.323540562477708,-1.1828534012779592,0.5066534909777343
1789666886240730400,1.76673046875,1.8271347631394863,-0.9058937782019376,-0.045226942823082206
1789666886250682400,1.776682373046875,0.8973428074777126,-0.5879644313558936,-0.5601410432763397
1789666886260634400,1.78663427734375,-0.1455126327842474,-0.221734287199378,-0.5732062765546143
1789666886270586400,1.79658642578125,-1.145609712293744,-0.14745470676273106,0.5011619078241288
1789666886280537300,1.806537353515625,-3.1486955011010167,-0.9945154799848794,3.8662411288768053
1789666886290489300,1.8164892578125,-2.315242105209827,-2.637785960114002,5.4498932988673445
1789666886300441300,1.82644140625,-0.017112462842464447,-1.7824211766660212,3.132775462913513
1789666886310393300,1.836393310546875,2.6049346608698367,-0.9852683436900377,-0.6154141638174653
1789666886320345300,1.846345458984375,4.4280040742665525,-1.4843698118530213,-1.2557101093046366
1789666886330297300,1.85629736328125,4.9761868225932115,-1.2207267664678394,1.0048562567353247
1789666886340249300,1.866249267578125,4.040381890252232,-1.3662648259542882,3.5032089039787646
1789666886350200300,1.876200439453125,1.8660417091608046,-1.9989146406024694,3.4455373439937826
1789666886360152600,1.886152587890625,-0.22552198904454707,-1.7884682017453013,2.063940947264433
1789666886370104300,1.896104248046875,-1.6000515161275863,-0.895186944618076,1.1195020420908928
1789666886380056300,1.906056396484375,-2.6186802776277065,-0.9438828787259756,0.7041817038118838
1789666886390008600,1.916008544921875,-3.5937849546998737,-2.143688437718153,0.6106646312028169
1789666886399960300,1.925960205078125,-4.271547438141703,-3.427481462821364,0.43646395633369683
1789666886409912300,1.935912353515625,-4.707933360803127,-4.396526693724096,-0.2798392701655626
1789666886419863600,1.945863525390625,-4.911840314888954,-4.9610330926030874,-1.6031155798733234
1789666886429815300,1.955815185546875,-4.849588149115443,-5.351101500725746,-2.7616508247137066
1789666886439767300,1.965767333984375,-4.774968084678053,-5.838916581851244,-4.274775752538442
1789666886449719600,1.975719482421875,-5.024609200456738,-6.460913923451304,-4.524288858023286
1789666886459671300,1.98567138671875,-5.773821301606297,-7.124303013625741,-3.634622576522827
1789666886469623300,1.995623291015625,-6.310672508579493,-7.322493928152323,-3.901766031244397
1789666886479574500,2.005574462890625,-6.689489454847574,-7.114290738177299,-4.3351790755748745
1789666886489526300,2.0155263671875,-7.029415237185359,-7.249871175011992,-4.135134642136097
1789666886499478300,2.025478271484375,-6.552670416128635,-7.314201900625228,-3.6150650586158033
1789666886509430500,2.035430419921875,-5.488118107843399,-7.016445865496992,-2.8856840316176413
1789666886519382500,2.045382568359375,-4.238860097287595,-6.79494421800971,-2.0983003129839894
1789666886529334300,2.055334228515625,-2.91364229812324,-6.499324610388278,-1.6162363427311182
1789666886539286300,2.065286376953125,-1.4698264688462017,-5.89479979711473,-1.4238713578790425
1789666886549237500,2.075237548828125,-0.22359138630814848,-5.343973840802907,-0.8533341544032096
1789666886559189200,2.085189208984375,0.9189327079951762,-4.913481067833304,0.41465281428098677
1789666886569141500,2.0951416015625,0.9573831424206495,-4.565996540679038,1.5429928273439406
1789666886579093500,2.105093505859375,0.724827016955614,-4.2838294120877976,2.8043337821424004
1789666886589045200,2.115045166015625,0.787688839060068,-2.9578198780238627,4.144955778926611
1789666886598997200,2.124997314453125,0.9191418937664478,-1.5268340119644999,5.069169057673215
1789666886608948500,2.134948486328125,0.8624841869991272,-1.1955074234068392,5.141805254817009
1789666886618900200,2.144900146484375,0.6911619901757687,-0.69241147878021,6.097653442755341
1789666886628852500,2.1548525390625,1.1889233688414096,-1.5829583425074816,4.921878893822432
1789666886638804500,2.164804443359375,1.2609879035770892,-1.237142333087325,5.019040460413694
1789666886648756200,2.174756103515625,0.18363792690858244,-0.8240542839050292,5.364222263583541
1789666886658708200,2.184708251953125,-0.661080374840647,0.3222548088297248,6.978621454015374
1789666886668660500,2.194660400390625,-2.00769708199501,2.0902952857047317,10.117912582433224
1789666886678611200,2.204611083984375,-1.6094085425376892,3.8363200378656384,12.968494905531406
1789666886688563500,2.2145634765625,-1.5686825643956661,5.920017240479588,15.306188496524095
1789666886698515500,2.224515380859375,-2.060184809601307,7.781909428745508,16.244903763353825
1789666886708467500,2.234467529296875,-2.9795231757879255,8.905476820579171,16.232330697506665
1789666886718419200,2.244419189453125,-4.578471114587783,9.128817958453297,15.523000524890422
1789666886728371500,2.254371337890625,-5.206162283915281,8.678384221217035,14.368237784326075
1789666886738323500,2.264323486328125,-5.289468343633413,8.167827146929502,13.42573013947606
1789666886748274400,2.2742744140625,-4.901219552153349,7.907185913708806,12.203055307680367
1789666886758226400,2.284226318359375,-4.862029697537422,7.4237722824126475,10.901031629359721
1789666886768178400,2.294178466796875,-5.068562323951721,6.822134422752261,9.826032745862006
1789666886778130200,2.304130126953125,-4.64078816229105,6.084478319361805,9.092624947565794
1789666886788082400,2.31408251953125,-4.19219800709486,5.216491370227932,8.322807865282893
1789666886798034400,2.324034423828125,-4.466330590051412,4.438000567623972,7.4056591180950395
1789666886807986200,2.333986083984375,-5.277263526576757,3.6257770067662,5.982080021160841
1789666886817937400,2.3439375,-5.928237371814251,2.8461642143949866,4.466021962493658
1789666886827889400,2.353889404296875,-5.917405012154579,2.237945807300508,3.4734237143069504
1789666886837841200,2.363841064453125,-4.483420841062069,1.6746759644791482,2.9981121409237383
1789666886847793400,2.37379345703125,-3.4498037692666053,0.8901061342224478,2.1022019965976475
1789666886857745400,2.383745361328125,-4.714773435956239,-1.6007628792673347,0.484642296308279
1789666886867697400,2.393697509765625,-4.367839236161113,-3.8212791206002232,-1.3980319832235575
1789666886877648400,2.4036484375,-3.322430019763112,-5.884464865583181,-2.735601606699824
1789666886887600400,2.413600341796875,-2.6654583954155444,-7.347447167623042,-4.045804499822855
1789666886897552400,2.423552490234375,-1.3034791378259658,-4.925239894688129,-3.2306782032608985
1789666886907504400,2.43350439453125,0.17074235110878944,-4.451038912895322,-1.8509926085889339
1789666886917456400,2.443456298828125,1.2115449504941702,-2.768884867620468,-0.36067397133409973
1789666886927408000,2.453408203125,2.114054931476712,-1.3397154033333063,0.7728682865470647
1789666886937360400,2.4633603515625,3.6332109561592336,-0.42261517146229743,1.6333178259134291
1789666886947311000,2.47331103515625,3.2590181625604626,-0.39430706860572096,1.2793985895365476
1789666886957263000,2.48326318359375,3.369464742660522,-0.4660416407346725,0.38722529365122316
1789666886967215400,2.49321533203125,7.227100540277362,-1.9603736052840948,0.9827513924330472
1789666886977167000,2.5031669921875,10.837724401575326,-2.594902511677146,0.3146580700904131
1789666886987119000,2.513119140625,7.3257351020306345,-2.2969325415372848,-0.6801251209199428
1789666886997071400,2.5230712890625,3.91392057941854,-4.61430464451313,-1.9257704939365385
1789666887007023400,2.5330234375,1.1159130776882171,-4.00344127586782,-3.8298762685537335
1789666887016974300,2.542974365234375,-4.537376887655258,-5.278520248639583,-6.202464062795043
1789666887026926300,2.55292626953125,-4.754147414967417,-5.585788793000579,-6.346677887940406
1789666887036878300,2.56287841796875,-1.4019617238879203,-5.783479356789589,-4.7787931959241625
1789666887046830000,2.572830078125,-0.16401932646408676,-6.095090314269066,-3.6566619743734594
1789666887056782300,2.5827822265625,-0.2744383609700948,-4.65065430726707,-3.8300124621540306
1789666887066734300,2.592734375,-0.276406957629323,-3.3206250161677597,-4.3308506909817455
1789666887076686000,2.60268603515625,-0.5603842043824494,-2.714378201407194,-4.725078556871414
1789666887086637300,2.61263720703125,-0.7490304609723388,-1.6667909103177487,-3.7150463588029146
1789666887096589300,2.62258935546875,-0.7677472902715206,-0.7324998896710574,-3.434839424368739
1789666887106541000,2.632541015625,-1.0330033238112926,-0.10114274518191814,-3.7729058425754305
1789666887116493300,2.642493408203125,-1.0818307753443717,0.25964959183484315,-4.514131036624312
1789666887126445300,2.6524453125,-0.756743081176281,0.384651936031878,-5.175062212252617
1789666887136397300,2.662397216796875,-1.342206489496678,1.1273869501218199,-4.93866636249423
1789666887146349300,2.672349365234375,-1.5165494954459369,0.8048942408829927,-5.147497328978776
1789666887156300300,2.68230029296875,-0.9663982235252857,0.10429857886433601,-5.212373413515091
1789666887166252000,2.692251953125,0.7185621113419532,-0.39166473740339275,-4.751561490127444
1789666887176204300,2.702204345703125,1.3159101648539304,0.6001207330957055,-2.8561832118451593
1789666887186156300,2.71215625,1.6126144989721476,0.6666808251962065,-1.0688444525212049
1789666887196108300,2.7221083984375,2.6738866165429354,0.12268880655765532,0.03601765432059765
1789666887206060300,2.732060302734375,3.854451906883716,-0.21803514042049646,1.4175702119082212
1789666887216012300,2.74201220703125,3.854543676820397,0.1365548348248005,1.9246710082620382
1789666887225963300,2.75196337890625,3.0375995171815156,1.016581181320548,2.3089789531618354
1789666887235915300,2.761915283203125,1.3146281622193754,2.263047223070264,3.3425428334653375
1789666887245867300,2.7718671875,-0.058371671078354115,2.51158476152122,4.682300322374701
1789666887255819300,2.7818193359375,-0.2022235310435295,2.6600983296871186,5.3360746119856834
1789666887265771300,2.791771240234375,0.3530208262324333,2.8986037189453837,5.9149926903158425
1789666887275723300,2.80172314453125,0.41693990230485795,3.1063667639374732,5.806816977757215
1789666887285675300,2.81167529296875,0.15473931081295011,3.3869021996736524,5.30831099126935
1789666887295626200,2.821626220703125,-0.3268208015710115,3.253029151278734,4.811469723123312
1789666887305578200,2.831578125,-0.9518202475965023,3.0622979051083323,4.888137952262163
1789666887315530200,2.8415302734375,-1.4471883744500578,2.4501766453564167,4.581564988949895
1789666887325482200,2.851482177734375,-1.4907694497622548,1.8372534215718506,3.6281121717154976
1789666887335434200,2.861434326171875,-1.5985937185347079,1.084624205455184,3.3537720834881064
1789666887345386200,2.87138623046875,-1.6354782188177108,0.7662836474597453,3.5599347075462338
1789666887355338200,2.881338134765625,-1.8496797724246978,0.5388432575732469,3.602074644139409
1789666887365289200,2.891289306640625,-1.731663633853197,0.3299731281220913,3.580304126358032
1789666887375241200,2.9012412109375,-2.473932783997059,-0.781599874535203,3.425398226806521
1789666887385193500,2.911193359375,-5.517646984666586,-2.7255940074265004,2.372714635491371
1789666887395145200,2.921145263671875,-5.416957243949175,-2.036091986352205,2.2072283052146435
1789666887405097200,2.93109716796875,-2.1413597025096416,-0.6723544869184493,3.193755709055066
1789666887415049200,2.94104931640625,-0.3464718429803848,-0.012276713249087332,3.269950475463271
1789666887425001200,2.951001220703125,-0.2983253594487905,0.1299532446026802,3.020018852305412
1789666887434952200,2.9609521484375,-0.513499557480216,0.3786743229269981,3.2543788123220203
1789666887444904400,2.970904541015625,-0.6170657304167747,0.8924082736849784,3.650657765522599
1789666887454856200,2.980856201171875,-1.1033885271579027,1.4057897577434777,3.710694008812308
1789666887464808200,2.99080810546875,-1.6439210529923438,1.6356722800850867,3.785715639787912
1789666887474760200,3.00076025390625,-1.9668343257308005,1.3644289888292551,4.59190576570034
1789666887484712400,3.01071240234375,-2.775776380699873,1.0028513466537,4.749635198239982
1789666887494664200,3.020664306640625,-2.9445559073030947,1.9868968705505132,3.4175422526091337
1789666887504615400,3.030615478515625,-2.847809351253509,3.029717239499092,2.467774261367321
1789666887514567200,3.040567138671875,-3.1204864747047423,3.2187773375868796,1.3115864564359188
1789666887524519200,3.050519287109375,-4.416495422780513,2.007134187415242,-1.1155997739553452
1789666887534471200,3.06047119140625,-3.813530698430538,-0.25188334174752236,-2.98699395006001
1789666887544423400,3.07042333984375,-0.2678033799350262,-1.263403148025274,-3.0448540183544157
1789666887554375200,3.080375244140625,2.7781834418416023,0.42996378065943713,-1.8817694396466016
1789666887564327200,3.0903271484375,4.676636889785528,2.4620710812896487,-1.4070552476346492
1789666887574278400,3.1002783203125,4.927216747719049,4.0506677219450475,-1.2971800376817584
1789666887584230100,3.110230224609375,4.57019779176116,5.156179817128181,-1.2520114009171723
1789666887594182100,3.12018212890625,3.89849680031538,5.363074262592196,-1.7137731723755598
1789666887604134400,3.130134521484375,1.3506161520540714,-3.860329274484515,-4.724011219900846
1789666887614086100,3.140086181640625,1.48034844738245,1.1213631597876548,-3.5340097004339097
1789666887624038100,3.1500380859375,1.4153507822930813,0.3264882086157799,0.9481848137035965
1789666887633990400,3.159990478515625,-1.5327520038366318,-4.452719413328171,2.3324352320730686
1789666887643941000,3.169941162109375,2.084996594774723,-13.425254338657854,6.6797150798082345
1789666887653893000,3.17989306640625,1.1747907985925674,-13.438701849251984,7.94072870234847
1789666887663845400,3.189845458984375,2.368558830986172,-17.043856339228153,1.7970032442480324
1789666887673797000,3.199797119140625,4.950389533513784,-14.896507625436781,-0.47454526518583295
1789666887683749000,3.2097490234375,4.287093966841698,-8.896284044820069,-2.25126735342741
1789666887693701400,3.219701416015625,-0.06113499831184745,-3.7497429936528204,-2.778385101893544
1789666887703653400,3.2296533203125,-0.03150923698544502,-0.8386971417635679,-3.0088766960442066
1789666887713604000,3.23960400390625,1.5660463706731795,1.001588194850087,-3.931308936592936
1789666887723556400,3.249556396484375,3.0213492241263387,2.4299808295458556,-3.660150985532999
1789666887733508400,3.25950830078125,4.403695562440157,3.282099178418517,-3.340339770463109
1789666887743460000,3.269460205078125,3.6989980180606246,3.9130210002303123,-3.5789901211500164
1789666887753412400,3.279412353515625,2.7488179388865825,3.837508370867371,-3.7221155665367838
1789666887763364400,3.2893642578125,2.862403693795204,3.2658576531916856,-3.981715181750059
1789666887773316000,3.299316162109375,2.9348621962845325,2.8589982692658897,-5.3087341851174825
1789666887783268000,3.30926806640625,3.3476261280789967,2.7891987568527457,-6.492586242043972
1789666887793219300,3.31921923828125,3.718111299331486,2.7956314202487467,-7.317170687302947
1789666887803171000,3.329171142578125,4.05332963463068,2.834310987254977,-7.7391130740702145
1789666887813123300,3.339123291015625,3.857283330917358,3.016248101595044,-7.954535109382867
1789666887823075300,3.349075439453125,3.491686223967373,3.396644426009059,-8.047673996329307
1789666887833027300,3.35902734375,3.147210815501213,3.8795980385780333,-7.877000618803501
1789666887842979000,3.36897900390625,3.0744071528360246,4.392769094756245,-7.564337521922588
1789666887852931300,3.378931396484375,2.7887349387332794,4.721913370838761,-7.337333769887685
1789666887862882000,3.388882080078125,2.522034259343147,4.90938649199605,-7.327597973293066
1789666887872834300,3.398834228515625,2.253037285709381,4.866373864221573,-7.276420743763446
1789666887882786300,3.408786376953125,1.057527231954038,4.521859585049748,-6.358374755474925
1789666887892738300,3.41873828125,-1.6544713808402418,4.240342737060785,-4.377070882625878
1789666887902690000,3.42868994140625,-5.445317076992988,3.8055630805522203,-2.327924768911302
1789666887912642300,3.438642333984375,-8.758307068237661,2.397627542951703,0.9267007116481661
1789666887922594300,3.44859423828125,-16.373919434845448,-1.5607617082685232,9.070894761794804
1789666887932545800,3.4585458984375,-16.456990516763923,-6.036237143284082,19.983868173360822
1789666887942497000,3.4684970703125,-2.1803635330341753,-10.108822098004817,23.705628935110568
1789666887952448800,3.47844873046875,3.520592584978044,-15.952207934224605,22.3382194691658
1789666887962401000,3.488401123046875,2.3073148193418977,-16.265273182165622,15.694134505665302
1789666887972353000,3.49835302734375,-3.52545843744874,-11.176204661279916,10.099695373219252
1789666887982304800,3.5083046875,-5.776342344516515,-2.980624415028095,5.28855999661684
1789666887992256800,3.5182568359375,-3.3970927542984484,2.3299451688230035,1.4189572823524474
1789666888002209000,3.528208984375,-0.7767021656215191,2.2505174118429423,-2.011460818442702
1789666888012159700,3.53815966796875,1.2754071818128228,1.0055968459695577,-4.866532854175567
1789666888022112000,3.548112060546875,2.559223880052566,0.8722732481509446,-5.986197393351793
1789666888032064000,3.55806396484375,4.034071976453066,0.9959440514832735,-6.188451319533586
1789666888042016000,3.56801611328125,4.298398620188236,0.09935118559002876,-6.768698016119003
1789666888051967700,3.5779677734375,-2.0995947367087004,-2.98576294696033,-7.860840926641226
1789666888061920000,3.587919921875,-9.743645554554462,-8.339026594156026,-6.89584087947607
1789666888071872000,3.5978720703125,-6.927853974330425,-12.805356015163659,-2.6035592808634043
1789666888081823000,3.607822998046875,0.9648154843784869,-10.04109705377817,-3.505780508032441
1789666888091775000,3.61777490234375,4.638522847707569,-3.0098627844721078,-4.187288315482437
1789666888101727000,3.62772705078125,5.992517244023085,1.61539346216619,-5.621308434671163
1789666888111678700,3.6376787109375,5.280333435541391,3.8564305134803054,-5.504215256163477
1789666888121631000,3.647630859375,3.964140946614742,5.42082502529323,-5.383141483587027
1789666888131583000,3.6575830078125,3.562506603860855,6.236028478744625,-5.281686019194126
1789666888141534700,3.66753466796875,3.4579029045701026,6.164111243525147,-5.192932215464115
1789666888151487000,3.677487060546875,3.5717291902363297,4.825045828533172,-5.149353770500421
1789666888161438000,3.68743798828125,3.924237975293398,2.7791093245148657,-4.839632864551246
1789666888171389700,3.6973896484375,3.9703766261339184,1.0733125378459691,-4.300607528409362
1789666888181342000,3.707342041015625,3.754282390648126,-0.7643582323551178,-2.3309978927463293
1789666888191294000,3.7172939453125,4.614150622995197,-2.044448895809054,-1.4275044536843895
1789666888201246000,3.727245849609375,5.397162994676828,-3.182414230829477,-0.9203460819244385
1789666888211198000,3.737197998046875,6.34098347569108,-4.407127874976396,0.4799471242293715
1789666888221150000,3.74714990234375,6.337997737878561,-4.845371408203244,1.1413564387634396
1789666888231102000,3.75710205078125,3.633137890923023,-3.7484506157547233,1.8297651116430758
1789666888241053000,3.767052978515625,2.05687276244387,-2.11409584800899,2.8325696965456006
1789666888251005000,3.7770048828125,2.1970190458893777,-1.0138017797350882,1.9934093211844561
1789666888260957000,3.78695703125,1.735996110099554,-0.006046878948807716,1.8401655096262692
1789666888270909000,3.796908935546875,0.3468400552382693,1.211574761110544,1.6462018574059007
1789666888280861000,3.80686083984375,-2.1804431741416455,1.6491045931100845,0.49042467910200355
1789666888290813000,3.81681298828125,-5.91930470829606,1.6534645418852567,-0.13416092542558908
1789666888300764700,3.8267646484375,-5.028077753350138,2.6032354557365176,0.4222149200983345
1789666888310716000,3.8367158203125,-2.126095497882366,2.6520336811751126,1.433283767738193
1789666888320668000,3.84666796875,0.2713824074655771,1.6994669991254805,1.6320521898917852
1789666888330620000,3.856619873046875,0.9651244772624223,1.0751970364183188,1.4891937248781322
1789666888340572000,3.866572021484375,0.8447467971913516,0.7953899149566889,1.112348224813491
1789666888350524000,3.87652392578125,1.0575251130621879,0.42918928915560245,0.5376124006040394
1789666888360476000,3.886475830078125,0.7222427726160734,0.2423398528546095,-0.14192732164338231
1789666888370428000,3.896427978515625,-0.867123683368042,0.24515140314400194,-0.892468771700561
1789666888380380000,3.9063798828125,-2.2388271201796828,0.6336217284202575,-1.2828170196779072
1789666888390331100,3.9163310546875,-2.337703673995286,1.1265186428546905,-1.2595889965645968
1789666888400283000,3.926282958984375,-1.539780879560113,1.1047440334200858,-0.7309431617483496
1789666888410235000,3.93623486328125,-0.9462589602075516,0.5265279658794403,0.09283318199813366
1789666888420187000,3.946186767578125,-0.620862200090289,-0.0005856909334659576,0.8654995162323117
1789666888430139000,3.956138916015625,-0.3357226315595209,-0.3792056533247232,1.5921386971764266
1789666888440091000,3.9660908203125,-0.3191524589002132,-0.1628489675104618,1.7861802369385957
1789666888450043000,3.97604296875,-1.116554882723093,0.451391184091568,1.4877324201539157
1789666888459995100,3.9859951171875,-2.6297972994476555,0.42690147047936916,1.381029410496354
1789666888469945900,3.99594580078125,-4.110079695856571,-0.22282442052364348,1.9830173987686632
1789666888479897900,4.00589794921875,-3.6321857047647237,-1.069834632602334,3.5894220833152533
1789666888489849900,4.015849853515625,-0.9278509045965969,-1.3861860626071691,5.559478878223896
1789666888499801900,4.0258017578125,1.1734826386034487,-0.9297375951260328,6.5197676789581775
1789666888509753900,4.03575390625,1.0499357539117335,-0.6277198109000921,7.406761526378989
1789666888519706000,4.0457060546875,-1.157405948549509,-0.3757780169636011,7.820788317716121
1789666888529657900,4.055657958984375,-2.64200445459187,-0.3224608527958393,7.361435360965133
1789666888539609900,4.06560986328125,-1.9531847166933118,-0.16616028401553629,6.6123904330760235
1789666888549561900,4.075561767578125,-1.1675522256411612,-0.21298867068588734,5.745065747243165
1789666888559512800,4.085512939453125,-1.2483470331907272,-1.1149217285633086,4.7097830803230405
1789666888569464800,4.09546484375,-1.3751783463805913,-2.288594921302795,3.943668944211304
1789666888579417000,4.1054169921875,-1.6296353380084037,-3.3663632695138452,3.543031503540277
1789666888589368800,4.115368896484375,-2.3992295713208613,-4.268835841095448,3.1181784900233147
1789666888599320800,4.12532080078125,-3.843540636768937,-4.643478132027387,2.756777373458445
1789666888609272800,4.13527294921875,-4.8918935054034,-4.170867634296417,3.0967233218014236
1789666888619225000,4.14522509765625,-4.60828114643991,-3.1384143455833193,4.579914006872475
1789666888629176800,4.1551767578125,-3.3912551341861485,-2.1705501411587,5.58595479721725
1789666888639128000,4.165128173828125,-2.5501468396276232,-1.416598736527562,5.53837646896243
1789666888649079800,4.175079833984375,-2.0832833611160515,-0.5708183585047721,4.948135032585263
1789666888659031800,4.18503173828125,-2.058366362002492,0.06799100168645382,4.041062273731828
1789666888668984000,4.194984130859375,-2.67710382502377,0.3307207316190004,3.337410731273889
1789666888678936000,4.20493603515625,-2.946649664711952,0.5891524720966815,2.503977793648839
1789666888688887800,4.2148876953125,-2.3144448173522947,0.29466975955069064,1.6282982441857456
1789666888698839800,4.22483984375,-1.3978957896232604,-1.1624585557639597,1.1511509798079729
1789666888708792000,4.2347919921875,-0.5834510455846786,-2.9613410378873346,0.9524665826760232
1789666888718742800,4.24474267578125,1.4885679941952228,-4.252674395367503,0.5528014941684901
1789666888728695000,4.254695068359375,4.602696039783955,-5.057892461377382,-0.2758811801895499
1789666888738647000,4.26464697265625,6.013799686026573,-6.008018180015683,-1.851844841504097
1789666888748598800,4.274598876953125,6.645895812314748,-7.434650234779715,-3.240264946773648
1789666888758550800,4.28455078125,4.452918150770664,-8.981548837390541,-4.709789802324772
1789666888768503000,4.2945029296875,0.5044811153747141,-9.478273785680532,-5.069246799084544
1789666888778455000,4.304455078125,-2.3014462195694447,-6.460015513306856,-2.682390825515985
1789666888788406800,4.31440673828125,-1.1515902480080724,-3.8231776476979253,-0.186161161775887
1789666888798358000,4.32435791015625,1.5189873901173472,-2.5440596286684274,0.08532353702038525
1789666888808310000,4.33431005859375,2.633869663453102,-1.513148308700323,0.3336728594228625
1789666888818261800,4.34426171875,3.064378218513727,-0.40278760444223877,0.4325339234083891
1789666888828214000,4.354214111328125,3.3678713359892365,0.28379706788063047,0.44115649806410073
1789666888838166000,4.364166015625,3.764240305560827,0.7079448557376861,0.28581863683611153
1789666888848117800,4.37411767578125,4.035850384302437,1.1774568029314278,-0.07783785744011401
1789666888858070000,4.384070068359375,4.240656040793657,1.7608190011888742,0.23739947384297846
1789666888868022000,4.39402197265625,4.155966417762637,2.101025938555598,0.09374912779927254
1789666888877972700,4.40397265625,3.4872155082941054,1.7101000368207693,-1.2818740397393702
1789666888887925000,4.413925048828125,2.637086871933937,0.836086082482338,-3.3498516951739785
1789666888897877000,4.423876953125,2.6902199117064476,0.4490285466134548,-4.008869146135449
1789666888907828700,4.433828857421875,2.81039644318223,0.5303355414688586,-4.509666458430886
1789666888917781000,4.443781005859375,3.0458465365231033,0.7520294966578484,-5.152533569580316
1789666888927733000,4.45373291015625,3.306592106901109,1.1993266894340515,-5.639995599484443
1789666888937685800,4.463685791015625,3.622917817942798,1.6827660396933555,-6.161070560654998
1789666888947637800,4.4736376953125,3.970019190998375,2.1067951696068046,-6.799526285102963
1789666888957589800,4.48358984375,4.166258386935294,2.4730758749067783,-7.381459327340125
1789666888967540700,4.493540771484375,4.25301400258541,2.723900647512078,-7.922399849453568
1789666888977492700,4.50349267578125,4.338212451921403,2.829368270155787,-8.548990364062785
1789666888987444700,4.51344482421875,4.276684801030159,2.95071969062984,-8.720109147268532
1789666888997396700,4.523396728515625,4.114096238021553,3.1598984476387497,-8.486937520253658
1789666889007348700,4.5333486328125,3.8086075628146525,3.304613208043575,-7.900067021614313
1789666889017300700,4.54330078125,3.113442985934019,3.506946044680476,-7.184329320043325
1789666889027252700,4.553252685546875,2.05855574709475,3.905057474005222,-6.578998451083899
1789666889037204700,4.563204833984375,0.7406450560733675,4.160907965818048,-5.602672707784175
1789666889047156700,4.57315673828125,-1.1902943649336695,4.025430404835939,-4.060476291514933
1789666889057107700,4.583107666015625,-3.9863147845000024,3.419322706285119,-1.5479811371505259
1789666889067059700,4.593059814453125,-6.526210279226302,2.0179653780311346,2.4101088388621807
1789666889077011700,4.60301171875,-9.04619286673665,-0.6269914966255427,8.654905730473995
1789666889086963700,4.612963623046875,-10.178781184893847,-5.106450448319316,15.002212563967705
1789666889096915700,4.622915771484375,-6.794491798067092,-9.067985011827945,16.973355985069276
1789666889106867700,4.63286767578125,-3.4006282349482175,-10.312702164083719,15.858158362174033
1789666889116820000,4.642820068359375,-1.8259665961429477,-8.142511503887176,13.174583295309542
1789666889126771700,4.652771728515625,-3.021542700871825,-3.059844666737318,8.773003702110051
1789666889136723700,4.6627236328125,-3.995931923151016,0.24386720855236052,3.5230379323035477
1789666889146674700,4.6726748046875,-2.9850267416402696,1.2057429862171412,-0.23765783251821992
1789666889156626700,4.682626708984375,-2.039718067894876,2.217463868024945,-2.418106851878762
1789666889166578700,4.69257861328125,-0.6614563685461878,3.3377941776335236,-3.803049051904678
1789666889176531000,4.702531005859375,2.4405811340153214,3.274389334693551,-4.644601583099365
1789666889186482700,4.712482666015625,5.627479816782474,0.8639058173000812,-5.660745542046428
1789666889196434700,4.7224345703125,6.313755277025699,-2.173953227600455,-5.997003449526429
1789666889206386700,4.73238671875,4.089299358156323,-3.6343881832450626,-6.341651584210991
1789666889216338700,4.742338623046875,-1.6065958232045172,-4.986424723491073,-8.27152600633502
1789666889226290700,4.752290771484375,-14.656388371241091,-8.50802473194599,-10.334283881294727
1789666889236242000,4.762241943359375,-20.837719045114515,-12.282792276740073,-5.4890919213116165
1789666889246193700,4.772193603515625,-5.798723687672615,-12.497777089679241,3.33626302254349
1789666889256145700,4.782145751953125,7.606901236885785,-8.833860614132881,2.0298902091026303
1789666889266097700,4.79209765625,11.00239707738161,-4.024250255140662,-0.011984160043299198
1789666889276050000,4.8020498046875,9.50285760731697,0.48585751731693744,-1.2454627099260687
1789666889286001700,4.812001708984375,7.905731038725376,3.5544425398707387,-2.3058809871464967
1789666889295953700,4.82195361328125,6.621105069929361,5.198830625852942,-2.955850331516564
1789666889305906000,4.831906005859375,5.483019907921553,6.039371349656582,-3.2980922818422314
1789666889315857700,4.841857666015625,4.58233831140995,6.321532925289869,-3.506991052865982
1789666889325808600,4.85180859375,4.061405973580479,6.032021571415663,-3.7074703705906864
1789666889335761000,4.861760986328125,4.353656981551647,4.37593837146461,-3.5463153475165363
1789666889345712600,4.871712646484375,5.671294408589601,1.799141425320506,-3.316913009907305
1789666889355664600,4.88166455078125,5.771405472636222,-1.1934177576512097,-1.4021508167192338
1789666889365617000,4.891616943359375,6.181967802733182,-3.2566455882102248,-1.2029396192342041
1789666889375569000,4.90156884765625,6.661109748059511,-5.047681448486447,-0.3636766602814197
1789666889385520600,4.911520751953125,7.641925788515806,-6.520755520951748,1.3626371369764207
1789666889395472600,4.92147265625,5.9538932065963746,-6.021524142798781,2.5705335018351674
1789666889405425000,4.9314248046875,3.234246124875545,-3.307500746178627,2.1473981058910487
1789666889415376600,4.941376708984375,2.299070722609758,-1.265675184610486,1.2742685331717132
1789666889425327900,4.951327880859375,1.3301966104902325,0.38767888263761996,0.3121174456968903
1789666889435280000,4.96127978515625,0.23389409607052802,1.5872235987365244,-0.20120967782586813
1789666889445231600,4.971231689453125,-2.272497188460827,1.812396043691039,-0.439296549411118
1789666889455184000,4.981183837890625,-7.595482601770758,1.2358511242330072,0.03949965121746063
1789666889465135900,4.991135986328125,-7.09586368560493,2.366269697135687,1.417081843869388
1789666889475087600,5.001087646484375,-3.2125743912935256,2.4019892452925444,2.9394720281675455
1789666889485039600,5.01103955078125,0.110878578309156,1.6714356673836708,2.717992592512071
1789666889494992000,5.020991943359375,1.478979497116804,1.574777374139428,2.5534794911816716
1789666889504943900,5.03094384765625,2.392711129337549,1.3877075730860233,2.095485255563259
1789666889514895600,5.0408955078125,3.131787036398053,1.158808216562867,1.5672108844079076
1789666889524847900,5.050847900390625,2.6054414413481948,0.7822925329744815,1.2426581738993525
1789666889534798800,5.060798828125,1.308711047130078,0.5980997486621141,0.6162010764114558
1789666889544750600,5.07075048828125,-1.22514092964828,0.7426438286751508,-0.2546050217963755
1789666889554702800,5.080702880859375,-4.885596451085806,0.7557669296205043,-0.8410451661944389
1789666889564654800,5.09065478515625,-5.136971843311191,0.6381716468095779,-1.003957992721349
1789666889574606600,5.100606689453125,-1.9839071872152387,0.1564490373402834,-0.3038620969183743
1789666889584558800,5.110558837890625,0.31884806912615893,-0.3236509393632412,0.4997831668168306
1789666889594510800,5.1205107421875,1.1687724150858818,-0.4057762648642063,1.1301968929760158
1789666889604462800,5.130462890625,0.906371478716284,-0.15992401997447012,1.4508400288254022
1789666889614414600,5.14041455078125,-1.0906262223489582,0.40672026771605013,1.0617587320439517
1789666889624366800,5.150366943359375,-4.120326364582777,0.6082073011785746,0.8195471086788922
1789666889634317600,5.160317626953125,-5.548894940367341,0.33485797755420205,1.9164304186612366
1789666889644269800,5.170269775390625,-3.495180203562975,-0.37408407252728937,3.71219184615463
1789666889654221800,5.180221923828125,0.10698358016461133,-1.4823217932820318,5.644653654423355
1789666889664173800,5.190173828125,1.7631904064953325,-1.5703396839529276,6.642716013234853
1789666889674125600,5.20012548828125,1.206664484976232,-1.4748440047472715,7.40787971675396
1789666889684077800,5.210077880859375,-1.8692220927625893,-1.0963058754205703,7.466433028009534
1789666889694029800,5.22002978515625,-3.784505679476261,-0.750983786997199,7.037550612846016
1789666889703981600,5.229981689453125,-2.580780462822318,-0.5657002848386764,6.956321359401941
1789666889713933800,5.239933837890625,-1.1811759695850312,-0.4955313545912504,6.9844660883903495
1789666889723885800,5.2498857421875,-1.1865635078422725,-0.7486328399568796,6.5042077062547206
1789666889733837800,5.259837890625,-1.8234354702301323,-1.4340057984024286,5.829286583718657
1789666889743788800,5.269788818359375,-2.3332617460250855,-2.424589784157276,5.303397500264644
1789666889753740800,5.27974072265625,-2.779701445189118,-3.7066222293287514,4.977641697576642
1789666889763692800,5.28969287109375,-3.6648762604892253,-4.631694170731306,4.497700710827112
1789666889773644800,5.299644775390625,-4.605441539099812,-4.415098999986053,4.254924804642796
1789666889783596800,5.3095966796875,-4.517617709696292,-3.21299466253221,5.222131421941518
1789666889793548800,5.319548828125,-3.400433296898007,-1.9691390955418346,6.7899109000176185
1789666889803500500,5.32950048828125,-2.4139397953271864,-1.0437065041333435,6.8504252822130915
1789666889813452800,5.339452880859375,-1.6428654064595698,0.030890812826156615,5.716163477885723
1789666889823404800,5.34940478515625,-1.2776964617937803,1.0394599526047705,4.2064401751980185
1789666889833356800,5.359356689453125,-2.0636989552021023,1.0644944406181573,2.8728432547450065
1789666889843307800,5.369307861328125,-3.278319075357914,0.45436230885684487,1.6857264969341457
1789666889853259800,5.379259765625,-2.522504214942455,-0.5407610738933086,1.2762671596430242
1789666889863211500,5.38921142578125,-0.6793373315431177,-2.0890905860900877,1.149373156480491
1789666889873163800,5.399163818359375,0.7942110073704272,-3.536004965904355,1.0161560877762734
1789666889883115800,5.40911572265625,2.620226922547817,-4.51823671837747,0.6553411005362868
1789666889893067800,5.41906787109375,5.009162040477991,-5.7258343925505875,-0.610600918316841
1789666889903019800,5.429019775390625,6.292993059504032,-7.167243160685897,-2.2027023522228
1789666889912971800,5.4389716796875,6.542133824545145,-8.614642693668603,-3.5427272598966955
1789666889922923800,5.448923828125,4.044650653612614,-9.702417472109198,-5.1923927017599345
1789666889932875300,5.458875244140625,0.7615754697687923,-8.781334892603754,-5.521998750135302
1789666889942827300,5.4688271484375,-1.5540519814968108,-5.36884816981852,-3.082261957989633
1789666889952779000,5.478779052734375,-0.862309780280292,-3.322808789947629,-1.2192822667479515
1789666889962730200,5.488730224609375,1.4868503766223788,-2.0275211418837307,-0.729066261960566
1789666889972682200,5.49868212890625,2.9032334245726465,-0.8556243111670017,-0.0328890009060502
1789666889982634000,5.508634033203125,3.708533031386137,-0.024008067575097082,0.6406228393539786
1789666889992586200,5.518586181640625,4.221184739865363,0.6143021109223366,1.2645508567556738
1789666890002538200,5.528538330078125,4.167476822814345,1.3099421963602305,1.1951748304516077
1789666890012490000,5.538489990234375,4.393979055067897,1.9079577738702296,1.246657764929533
1789666890022442000,5.54844189453125,4.544861690452695,2.5466391237676143,1.234706630373001
1789666890032394200,5.558394287109375,4.718801084037125,2.9936890637844797,1.0857125852137803
1789666890042346200,5.56834619140625,4.528211876685917,2.4714807146698234,-0.6624363194942474
1789666890052298000,5.578298095703125,3.924368323674798,1.2825327959090471,-2.5917174519002435
1789666890062250200,5.588250244140625,3.81935516680032,0.7475345233261584,-3.3032834207445383
1789666890072201000,5.598200927734375,3.8650840677961704,0.7363608028829097,-3.8539872119814156
1789666890082153000,5.608153076171875,3.8912309009656307,0.6854185511529445,-4.577905881920457
1789666890092105200,5.618105224609375,3.938760713903606,0.7027011098653078,-5.424477118059992
1789666890102057200,5.62805712890625,4.004551282936334,0.8238643142908811,-6.182403856062889
1789666890112009000,5.638009033203125,4.049908720271289,0.9679846159338951,-6.950058207353949
1789666890121961200,5.647961181640625,3.9506636254042387,1.156232813116908,-7.64098470827341
1789666890131913200,5.657913330078125,3.836399240581691,1.4134651146769523,-8.334208380219339
1789666890141865000,5.667864990234375,3.60722925042361,1.76118140476048,-8.85419086997807
1789666890151817000,5.67781689453125,3.5077392408847805,2.226658981871605,-9.155515411242842
1789666890161769200,5.687769287109375,3.553015137416124,2.873222609451413,-9.024906917601824
1789666890171721200,5.69772119140625,3.3648373751208185,3.6433307836353777,-8.756130308720468
1789666890181673000,5.7076728515625,2.6898317891716954,4.04585126157403,-8.427984980547429
1789666890191625200,5.717625244140625,2.0157906643405554,4.076796434935927,-8.006260620445012
1789666890201576200,5.727576171875,1.0775979600802064,4.0338586259633304,-7.439236393526196
1789666890211528000,5.73752783203125,-0.34967706876248117,3.849302853557467,-6.418410414242744
1789666890221480200,5.747480224609375,-2.447755555689335,3.1169220602214334,-4.861389061546325
1789666890231432200,5.75743212890625,-5.493962157696485,1.3666764754951,-2.620480312786996
1789666890241384000,5.767384033203125,-9.614652679416537,-1.4478028530865907,1.5381874728888272
1789666890251336200,5.777336181640625,-16.593172426623106,-5.491455727833509,10.830889002597331
1789666890261288200,5.7872880859375,-14.742833313506841,-10.304000971233844,19.655179824352263
1789666890271240200,5.797240234375,-6.557656387847661,-12.809825269532203,20.361960312485692
1789666890281192200,5.807192138671875,-1.7610159850656986,-12.418178067785501,19.54074680496454
1789666890291144200,5.817144287109375,-0.6753340872511268,-6.889421075561642,12.481931870293616
1789666890301096200,5.82709619140625,-1.9489160994634032,-0.6356722312092781,5.415060470417141
1789666890311048000,5.8370478515625,-1.0300162708245217,1.6723276477873323,1.0979045427888632
1789666890321000200,5.847000244140625,0.8792264282897114,3.319674583575129,-1.380636027264595
1789666890330951200,5.856951171875,3.1680384994745254,4.072158838263154,-3.023517800337076
1789666890340903200,5.866903076171875,5.057715935766697,2.686332256618142,-4.835690556666255
1789666890350855200,5.876855224609375,5.520004945969581,0.45231940485239025,-6.286316065958142
1789666890360807200,5.88680712890625,4.830948330575228,-1.1160054321467876,-6.622849283248185
1789666890370759000,5.896759033203125,4.092339456504583,-2.2442770561486483,-6.9921601500242945
1789666890380711200,5.906711181640625,-0.5622939835265278,-5.023483995819092,-7.77621793910563
1789666890390663200,5.9166630859375,-15.119848763310909,-12.217198399323225,-4.9657396628588435
1789666890400615200,5.926615234375,-14.866722728025913,-16.81079460232854,0.9494766070798039
1789666890410567200,5.936567138671875,-1.4827541933499275,-10.532374842578172,1.9862489280357956
1789666890420519200,5.946519287109375,7.008068497774005,-3.3189866013109683,-1.2297650823175907
1789666890430471200,5.95647119140625,8.164076854485273,0.5186573786348104,-3.6316599273249506
1789666890440423000,5.9664228515625,7.337403912514448,3.333369931450486,-4.1108524337947365
1789666890450375200,5.976375244140625,6.370066946834325,4.937369308421015,-4.514841815242171
1789666890460326100,5.986326171875,5.309441456604004,5.824624437126517,-5.159155033546686
1789666890470278100,5.996278076171875,4.450521611022949,6.261713539621233,-5.529162650415301
1789666890480230100,6.006230224609375,3.9813033860787748,5.894893320617079,-5.246833316999673
1789666890490182100,6.01618212890625,3.9551790570020673,4.301472620806098,-4.431261614757776
1789666890500134100,6.026134033203125,4.738103750400245,2.0305828675419093,-3.9315141037762165
1789666890510086100,6.036086181640625,5.293152000582218,-0.2595475927650928,-3.2080054759427905
1789666890520038100,6.0460380859375,5.302202737522125,-2.9077473948657513,-0.7695859038755297
1789666890529990100,6.055990234375,6.37046792885065,-4.469837721389532,-1.0874018534749745
1789666890539942100,6.065942138671875,6.5081847931921475,-5.980090893170237,0.7548045143291354
1789666890549894100,6.07589404296875,4.747389757400751,-5.635643834015727,2.2677666528075933
1789666890559846100,6.08584619140625,2.8549019398629665,-3.376466145855188,2.644856921413541
1789666890569798100,6.095798095703125,1.933947955173254,-1.0538432827442883,1.9796365241587162
1789666890579750100,6.105750244140625,0.9270178147733211,0.33674832134544846,1.1800950424805283
1789666890589702100,6.1157021484375,-1.8120833244800567,0.9368173242539167,0.5658092981711029
1789666890599653000,6.125653076171875,-6.516481496894359,1.3347498898804186,0.3791489547014236
1789666890609605000,6.135605224609375,-5.349857638144493,2.8579753559589385,1.0891793845415114
1789666890619557000,6.14555712890625,-2.848518960827589,2.9825036529034374,2.5261279583975673
1789666890629509000,6.155509033203125,-0.5309750084161758,1.7455097883760928,2.3450673346310853
1789666890639461000,6.165461181640625,0.5645271494060754,1.17836690351367,1.905953740571439
1789666890649413000,6.1754130859375,0.7691670939415692,1.0332441468298434,1.5777303787261248
1789666890659365000,6.185365234375,1.351169109761715,0.9067693919926881,1.1262050468608735
1789666890669317000,6.195317138671875,2.5350550689578055,0.7793097177714109,0.7608985934205352
1789666890679269000,6.20526904296875,3.7561563678264616,0.6451900011390447,0.6176891230121254
1789666890689221000,6.21522119140625,4.163706656625867,0.553958993640542,0.22805910630673168
1789666890699173000,6.225173095703125,2.731363238477707,0.715367699214816,-0.172940153414011
1789666890709125000,6.235125,0.9876062120530754,0.8991273528069257,-0.6689239279478788
1789666890719077000,6.2450771484375,-0.858067758796364,0.9427385309964418,-1.1974293313801287
1789666890729029000,6.255029052734375,-3.3494898761242626,0.7279694066345691,-1.7840023083776235
1789666890738980000,6.26497998046875,-5.976306698456407,0.4808049101024866,-2.1572648353889585
1789666890748932000,6.27493212890625,-4.360613961082697,-0.15155775816738604,-1.0448077433735132
1789666890758884000,6.284884033203125,-0.3692958153374493,-0.8094295462250709,0.8319774781197309
1789666890768836000,6.294836181640625,0.5761247943498193,-0.7609107222497463,1.8187454127177596
1789666890778788000,6.3047880859375,-0.6741548143386841,-0.09774784204661846,2.885397031369805
1789666890788740000,6.314739990234375,-3.0833237420022486,0.3999269543141126,3.7754315616607665
1789666890798692400,6.3246923828125,-4.652954400902987,-0.11678513547182083,4.263805445712805
1789666890808644000,6.33464404296875,-3.1852807261765,-1.6403133838891981,4.714057688902318
1789666890818596000,6.34459619140625,-0.31366672096550463,-2.1915362305641173,5.527383950304984
1789666890828548000,6.354548095703125,1.132415738069266,-1.705661762112379,6.757637692922353
1789666890838500000,6.3645,0.7279505558036268,-0.7240244684010744,7.991671538600325
1789666890848452000,6.3744521484375,-1.4855280419774353,0.22292028211355208,8.407827743181587
1789666890858404000,6.384404052734375,-2.976004938533902,0.46167409317493435,7.720161120840906
1789666890868356400,6.3943564453125,-2.214934203416854,0.4347270495384931,6.765408326923847
1789666890878308000,6.40430810546875,-0.9731558810919523,0.46315644068717954,5.852503793177008
1789666890888259000,6.414259033203125,-0.8342546292714774,0.04044891476631164,5.516877169337868
1789666890898211300,6.42421142578125,-1.2597465252138673,-1.155527879717946,5.392690817698836
1789666890908163000,6.4341630859375,-2.0234645599693057,-2.6162790617048737,5.0378918758779765
1789666890918115000,6.444114990234375,-3.4789550449490547,-3.9286002621561287,4.460527164469659
1789666890928067300,6.4540673828125,-4.361276808905601,-4.377602505284548,4.223602030140161
1789666890938019800,6.464019775390625,-4.201412410163879,-3.9563966160982846,4.728173600277304
1789666890947971600,6.4739716796875,-3.3547470660001038,-3.059648267382383,5.964898584735393
1789666890957923600,6.483923583984375,-2.574204591563344,-2.0480442899525166,6.259319337961077
1789666890967875800,6.493875732421875,-2.1880343599230048,-0.8826894282251596,5.237561630785465
1789666890977827600,6.50382763671875,-2.0766618971496817,0.24944296285808085,3.796500945435464
1789666890987779600,6.513779541015625,-2.332508297309279,0.8850994119763373,2.7251146994769573
1789666890997731600,6.523731689453125,-2.6685066770702597,1.2005799043655394,2.174452993816137
1789666891007683800,6.533683837890625,-2.2046318589806555,0.9912146848738193,1.5936165146440266
1789666891017635600,6.543635498046875,-1.2122213153857737,-0.2250374203979969,1.153794333923608
1789666891027586800,6.5535869140625,-0.39305473045706746,-2.168924001261592,0.8539055245503783
1789666891037538800,6.563538818359375,1.3203895022250711,-3.8395775783568618,0.45530309683829545
1789666891047490600,6.573490478515625,3.8982863724350927,-5.136592488604784,-0.49028702419698234
1789666891057442600,6.583442626953125,5.074268426638842,-6.699219406223297,-2.1857415728107092
1789666891067394800,6.593394775390625,5.662021553331614,-8.384898118492961,-3.4134406625092026
1789666891077346600,6.6033466796875,4.323439537942409,-9.975036727893352,-5.166851433268189
1789666891087298600,6.613298583984375,1.2500151125334202,-10.232380673134326,-5.780487773758173
1789666891097250800,6.623250732421875,-1.8103971249587834,-7.142926465553045,-3.7272076289787885
1789666891107202800,6.633202880859375,-1.7449261432692407,-4.257891837754846,-1.6531541607618332
1789666891117154600,6.643154541015625,0.20485066467672586,-2.842242949298024,-0.6804822637945414
1789666891127106600,6.6531064453125,2.0408207684397697,-1.6185972266435622,-0.11918196748048067
1789666891137058800,6.663058837890625,2.7491686520203946,-0.3755547296017408,0.9910299759566783
1789666891147010600,6.673010498046875,3.2148186630889772,0.5854156236559153,1.6278765116423368
1789666891156962600,6.682962646484375,3.572146538865566,1.2264601955533028,1.5464309850990772
1789666891166914800,6.692914794921875,4.141493071252107,1.810967472192645,1.5890426308572292
1789666891176866800,6.70286669921875,4.720238423363864,2.4100977329462765,1.583492595514655
1789666891186817500,6.712817626953125,4.652340652918816,2.524007605242729,0.9469622861713171
1789666891196769800,6.722769775390625,4.3494285502016545,1.9826725308537483,-0.17458499801158903
1789666891206721800,6.7327216796875,3.695008071641624,1.0306722505152226,-2.002410081502795
1789666891216673500,6.742673583984375,3.24327318867892,0.23393559712469578,-3.211918557733297
1789666891226625800,6.752625732421875,3.085717943662405,-0.0392044676631689,-4.059978571125865
1789666891236577800,6.762577880859375,2.958117691926658,-0.03868365865945816,-4.928901339805126
1789666891246529500,6.772529541015625,3.0561396747395393,0.08565233058333396,-5.743239116337895
1789666891256481500,6.7824814453125,3.271300721028447,0.5563286453813314,-6.4509443181008095
1789666891266433800,6.792433837890625,3.563216505695879,1.1912591183125971,-6.915819253143668
1789666891276385800,6.8023857421875,3.817922503648698,1.782432867103815,-7.446685540488362
1789666891286337500,6.812337646484375,3.8427097389027476,2.287974159055948,-8.032490455722808
1789666891296289800,6.822289794921875,3.825459328894317,2.610881586575508,-8.550373927375674
1789666891306241800,6.83224169921875,3.8165287112027406,2.8290508747696874,-8.963791646903752
1789666891316193500,6.842193603515625,3.6671298846349116,3.118935153609514,-9.074105540534854
1789666891326145500,6.8521455078125,3.5201121079847213,3.4709622926294803,-8.781076533928513
1789666891336096800,6.8620966796875,3.1599829110518094,3.798943954673409,-8.257526707077027
1789666891346048500,6.872048583984375,2.6557354583024977,3.758237265753746,-7.754159836554527
1789666891356000800,6.882000732421875,1.96898010558784,3.6051445531040427,-7.26947720823586
1789666891365952800,6.891952880859375,0.6952493325546384,3.3737095406234263,-6.219326934790611
1789666891375904500,6.901904541015625,-1.662132416987419,2.8951743290185927,-4.418538326784968
1789666891385856500,6.9118564453125,-5.1189223918795586,1.6769938860327005,-2.0562387023240327
1789666891395808800,6.921808837890625,-9.135152422171831,-0.6805395469397306,1.5446438094213604
1789666891405760800,6.9317607421875,-14.009600871777534,-4.177881312450766,9.15835677214861
1789666891415712500,6.94171240234375,-11.35867018340826,-8.324886425122617,17.807344803011418
1789666891425664800,6.951664794921875,-3.960011883985996,-10.93378239083886,19.64886464985609
1789666891435616800,6.96161669921875,-1.0653288456156849,-10.936390527510643,19.262067810750008
1789666891445568500,6.971568603515625,-1.1960045592740178,-6.3300885721892115,13.687490732115506
1789666891455520500,6.9815205078125,-3.328330768239498,-0.7309346861809491,6.096645727017521
1789666891465472800,6.99147265625,-2.818777610297501,0.7308955232143401,1.6259785690665245
1789666891475424800,7.0014248046875,-1.338933459175378,0.9798404734224081,-1.28963298330307
1789666891485375700,7.011375732421875,0.41310631549134846,0.29705227077305313,-3.5213095010757445
1789666891495327700,7.02132763671875,2.4868168154895303,-1.876492376026511,-5.150671282839775
1789666891505279700,7.03127978515625,3.9736324130594727,-3.255606892812252,-6.348632529139518
1789666891515231500,7.0412314453125,4.5371258355036375,-3.0747540665775537,-6.929874666503071
1789666891525183700,7.051183837890625,4.402452868902683,-3.1195126612365245,-7.2873922196328635
1789666891535135700,7.0611357421875,0.9637550155401229,-4.615566042751073,-7.57736943745315
1789666891545087500,7.07108740234375,-9.950058938503265,-8.079781199207902,-5.057185189890861
1789666891555039700,7.081039794921875,-13.5255454354465,-10.54882679568529,-1.040115786164999
1789666891564991700,7.09099169921875,-3.0153856395468113,-6.043455988621711,0.8560995274633169
1789666891574943700,7.10094384765625,6.479185493201017,-1.3973890091449022,-3.1758430357456207
1789666891584895500,7.1108955078125,8.329683596271275,1.1310621315032243,-5.798032782799005
1789666891594847700,7.12084765625,7.638735468041896,3.061803984111547,-5.723606779628992
1789666891604799700,7.1307998046875,6.503433799272775,4.198925854045153,-5.662850989893078
1789666891614751500,7.14075146484375,5.333127452617884,5.0842684271276,-5.7227603919327255
1789666891624702700,7.15070263671875,4.44942943187207,5.087897723540664,-5.548809015649557
1789666891634654700,7.16065478515625,3.6808521205171942,3.6682138804793354,-4.936151164802909
1789666891644606500,7.1706064453125,3.3370246545657514,1.2679185796231032,-4.081914216341078
1789666891654558700,7.180558837890625,3.7357322962179778,-1.017853100952506,-2.942608280366659
1789666891664510700,7.1905107421875,4.259280369503796,-3.321765418374538,-1.1222744294136762
1789666891674462500,7.20046240234375,6.2679404513120645,-5.343978516978025,0.20113047510981558
1789666891684414700,7.210414794921875,7.860215488219261,-6.5629930727005,0.7071013906508684
1789666891694366700,7.22036669921875,5.014794493407011,-5.51372133565545,2.817297016350925
1789666891704318700,7.230318603515625,3.159068426555395,-3.0456507216900586,3.4332883955344555
1789666891714270500,7.2402705078125,3.36312852537632,-0.45958676550686356,2.705764102318883
1789666891724222700,7.25022265625,2.7312369817495346,1.2623036623507737,1.933979227094352
1789666891734174700,7.2601748046875,1.1827917342185974,1.8211439982920885,1.1029264626041053
1789666891744126500,7.27012646484375,-4.252284519267082,0.765557086750865,-0.87981650313735
1789666891754077700,7.28007763671875,-7.425829214942455,0.9803104290217161,-1.0830866206243634
1789666891764029700,7.29002978515625,-4.107276328873634,2.596476044604182,0.5966960193440318
1789666891773981700,7.299981689453125,-0.9880313786625862,2.7137621153354643,1.5536331715628504
1789666891783933700,7.30993359375,0.9587158523291349,2.26587046379745,2.110054463663697
1789666891793885700,7.3198857421875,1.6906828041672706,1.9786936903506516,2.2494269862577316
1789666891803837700,7.329837646484375,2.2713339899003504,1.7328864536464212,2.401980477464199
1789666891813789700,7.339789794921875,2.8791350483655926,1.6092022063106297,2.1926552977219225
1789666891823741700,7.34974169921875,3.4286914231330154,1.2789549374222755,1.693716180513799
1789666891833693700,7.359693603515625,2.8902094000875946,0.8822580510705709,0.9109095605373382
1789666891843645700,7.369645751953125,1.1474380236994475,0.6696037269055843,0.09553425765037536
1789666891853597700,7.37959765625,-1.928774351927638,0.43732817194759843,-0.5786262557767331
1789666891863549700,7.3895498046875,-6.0872553828597065,0.47525604380369185,-0.9925115928165614
1789666891873501700,7.399501708984375,-6.2859554159522055,0.6540443387240171,-1.1109821971572935
1789666891883453700,7.40945361328125,-3.0390380255520344,0.5179693963706493,-0.16110431580021978
1789666891893404700,7.41940478515625,-0.6035201662756502,0.44377135673761364,0.9637215516619384
1789666891903356700,7.429356689453125,0.9049718410514295,0.2570154439389706,1.908759884033352
1789666891913308700,7.43930859375,0.9306978184603154,-0.11115034445524215,2.622873929925263
1789666891923260700,7.4492607421875,-0.8543946232415736,-0.2191238124400377,2.729728915274143
1789666891933212200,7.459212158203125,-3.9238545289337634,-0.22485154243707656,2.401243687622249
1789666891943164400,7.469164306640625,-5.92221445826292,-0.4608452411353588,2.1826466755352913
1789666891953116400,7.479116455078125,-4.227647506138682,-0.5661065275520086,2.4823858473047613
1789666891963068400,7.489068359375,-1.2070824181273578,-1.035011156502366,3.9937645159840582
1789666891973020400,7.4990205078125,0.5363929418116807,-1.6425094326287506,5.764288918629289
1789666891982972400,7.508972412109375,0.8294722173005342,-1.2439917605906725,6.803194159960746
1789666891992924400,7.51892431640625,0.3615560148656368,-0.23122341555655002,7.166683773237466
1789666892002876200,7.528876220703125,-0.2219401850350201,0.936169674000144,7.00789021859765
1789666892012828400,7.538828369140625,-1.0588036816306412,1.7768278867036102,6.749895115971565
1789666892022779400,7.548779296875,-1.5741526663698255,1.5663041448265314,6.921750981280208
1789666892032731400,7.5587314453125,-1.1679800956644117,0.23529870217144488,6.7705994658261535
1789666892042683400,7.568683349609375,-0.7173999356947839,-0.9796844060778618,6.1315183029562235
1789666892052635400,7.578635498046875,-1.0801426761269568,-1.4275567683935164,5.53917843299508
1789666892062587100,7.588587158203125,-1.6464030790664255,-1.7596973036825656,4.668983744683861
1789666892072539400,7.598539306640625,-2.368742809250951,-2.3695471113711593,3.8391342185035344
1789666892082491400,7.608491455078125,-3.195441470184922,-3.14482888880074,3.3202117591917513
1789666892092443400,7.618443359375,-4.0987218510180705,-3.5193168659538028,2.7777093945890665
1789666892102395400,7.6283955078125,-4.808500351923704,-3.0854923182129856,3.0671313166141507
1789666892112347400,7.638347412109375,-4.284972736904025,-2.1249106720119713,4.710373739692568
1789666892122299400,7.64829931640625,-3.277619402655959,-1.2945564111799002,5.4296267559081315
1789666892132251100,7.658251220703125,-2.5669091738581655,-0.48551732557713984,5.1465036417663095
1789666892142203400,7.668203369140625,-1.5198264712899923,0.22884674955308437,5.125417599117756
1789666892152154400,7.678154296875,-0.7142033316105604,0.6567261251538992,4.784824877303839
1789666892162106400,7.6881064453125,-1.4423784899502992,1.0681722523480652,3.2499457983106375
1789666892172058400,7.698058349609375,-1.9326783736288546,1.193600128480792,2.0469391051895913
1789666892182010400,7.70801025390625,-0.9630991819798946,0.5162696067154408,1.3658200047962368
1789666892191962400,7.71796240234375,0.11294022354669868,-1.0991010590970516,0.8776704310193657
1789666892201914400,7.727914306640625,1.3787772476553917,-3.008670359817147,0.7501429522588848
1789666892211866400,7.737866455078125,3.9006221219062804,-4.477518339020014,0.4672919330567121
1789666892221818400,7.747818359375,5.771283892083168,-5.85815144367516,-0.7902721335515379
1789666892231770400,7.757770263671875,6.034591129642725,-7.350129538574814,-1.7186641592875123
1789666892241722400,7.767722412109375,4.434555980128049,-9.625578562578559,-2.638011293302476
1789666892251674400,7.77767431640625,1.7939457563735544,-11.819893025684356,-4.608934934173524
1789666892261626400,7.78762646484375,0.7432723358370363,-12.142173845738172,-5.759222867411375
1789666892271578400,7.797578369140625,0.1507189692556858,-9.285254720833898,-4.840429860147833
1789666892281529300,7.807529296875,-0.9643309157319366,-5.627065975284576,-2.5749565789744255
1789666892291481300,7.8174814453125,2.057399855057895,-3.6863609470665453,-1.8768746533423661
1789666892301433300,7.827433349609375,3.4917338625013827,-1.6765537410497664,-0.6653349635452032
1789666892311385300,7.83738525390625,2.608389477498829,0.10255787267684936,0.9344453344255685
1789666892321337300,7.84733740234375,2.985262303961813,1.2109803023487329,1.7891344105690716
1789666892331289300,7.857289306640625,3.3001240799307823,2.2121195843875405,1.9723814384639262
1789666892341241300,7.867241455078125,3.8820653054744003,3.072461571726203,2.142888227251172
1789666892351193300,7.877193359375,4.526023718991875,3.6204771467924117,2.151748410055041
1789666892361145300,7.887145263671875,4.483642959380149,3.3159032483428716,0.5402443565428257
1789666892371097300,7.897097412109375,3.5119697180613874,1.806027093181014,-1.728252364104986
1789666892381049300,7.90704931640625,2.7790368438005446,-0.13717033637464046,-2.8566812244951723
1789666892391001300,7.91700146484375,2.9547838713288304,-0.8417769876003265,-4.025533865210414
1789666892400953300,7.926953369140625,3.213337776881456,-0.7280418873488903,-5.127767961636185
1789666892410905300,7.9369052734375,3.515709781372547,-0.41376492553055283,-6.034925476163625
1789666892420856600,7.946856689453125,3.5886379472002385,0.11985855156779289,-6.85399086574018
1789666892430808300,7.956808349609375,3.3964436427399516,0.6943523837149143,-7.757196427771449
1789666892440760300,7.96676025390625,3.497630811585486,1.1879571541577576,-8.516939275285601
1789666892450712300,7.97671240234375,3.770620654247701,1.9042536586552856,-8.891997745802998
1789666892460664300,7.986664306640625,3.795024443142116,2.473513097280264,-9.298890447476506
1789666892470616300,7.9966162109375,3.5477903885051605,3.113640554332733,-9.49726431735456
1789666892480568300,8.006568359375,3.452241225546598,3.5448084500849246,-9.719372114041446
1789666892490520600,8.0165205078125,3.5188156384333964,3.826279705366492,-9.836965643286705
1789666892500472300,8.026472412109374,3.145293291442096,4.115085541319847,-9.666492172247171
1789666892510424300,8.03642431640625,2.7668028006494043,4.104831858330964,-9.108450877729057
1789666892520376300,8.046376220703126,2.4139766202062365,3.816070446041226,-8.491803664985298
1789666892530328300,8.056328369140624,1.4716086760878562,3.4107664748638866,-7.887507984292506
1789666892540280300,8.0662802734375,-0.20942586363777518,2.6870348519295453,-6.729101918789744
1789666892550231600,8.0762314453125,-2.785454017366469,1.847446898806095,-4.401495422047376
1789666892560183300,8.086183349609374,-6.842452988159656,0.7717062570303678,-0.5559779322475195
1789666892570135300,8.09613525390625,-13.58934716874957,-1.3938070590049028,6.287882000100613
1789666892580087300,8.10608740234375,-18.05892886955142,-5.086705298885703,17.881856146377324
1789666892590039600,8.11603955078125,-9.206181768640874,-8.06907977245152,24.48413493528366
1789666892599991300,8.1259912109375,-1.7972024200819432,-10.942821437340974,24.31235330425501
1789666892609943300,8.135943359375,0.7245547758854926,-9.9372368663311,21.102381204414367
1789666892619895600,8.1458955078125,-1.1678745894633233,-3.6066923670679327,12.63621759212017
1789666892629847300,8.155847412109376,-2.3598376182615755,0.36250878554582594,6.115865975794196
1789666892639799300,8.16579931640625,-0.8816752827465534,0.792293702507019,1.5637901161789893
1789666892649751600,8.17575146484375,0.6415818936444818,0.38320378305017944,-1.9501088163793086
1789666892659703300,8.185703369140626,2.5507284389078615,-1.9673913750916718,-4.884100659570097
1789666892669655300,8.1956552734375,3.553804241967201,-3.7231723821133373,-7.048993797880411
1789666892679606500,8.2056064453125,2.865549590605497,-3.1649311811089516,-8.051052532851696
1789666892689558300,8.215558349609376,1.6564252913869917,-2.9298060819387435,-8.568034087228774
1789666892699510300,8.22551025390625,-0.7962497466564178,-4.6133600571393965,-8.925605416372418
1789666892709462500,8.235462646484375,-6.823402250730991,-7.997700297370552,-6.164138716053962
1789666892719414500,8.24541455078125,-9.488430438035726,-11.4434889857769,0.21167992617487907
1789666892729366300,8.2553662109375,-4.641613214938342,-8.406605507910252,0.07588146267533302
1789666892739318300,8.265318359375,1.7069759134508669,-2.7622482060849665,-3.616877076473832
1789666892749270500,8.2752705078125,6.272852773272991,-0.10414894126057624,-6.861535289770364
1789666892759222300,8.28522216796875,7.611009256726503,2.1868939577162263,-6.735660254392028
1789666892769174300,8.29517431640625,7.21766694149971,3.681445117974281,-6.362451211133599
1789666892779126500,8.30512646484375,5.936835688811541,4.9816345666050905,-6.607317952117324
1789666892789078500,8.31507861328125,5.182874931830168,5.9438166337400675,-5.922123272848129
1789666892799030300,8.3250302734375,4.517689021366834,5.659187791210413,-5.427228462594747
1789666892808981500,8.3349814453125,4.064771066099405,4.290176735287904,-5.338997805956006
1789666892818933500,8.34493359375,4.3838405228912825,2.409734744852781,-4.340459354065358
1789666892828885200,8.35488525390625,4.482814107340574,0.3502811721354723,-2.9688661726951597
1789666892838837500,8.36483740234375,4.843710781514645,-1.4191951827615499,-1.6033961503803729
1789666892848789500,8.37478955078125,5.194864644831418,-3.314868644598126,0.25051088435053825
1789666892858741200,8.3847412109375,6.220363876622915,-5.222535326567292,3.4718402445077894
1789666892868693200,8.394693359375,8.183290088999271,-5.764674118554592,4.57612659728825
1789666892878645500,8.4046455078125,5.000156896245479,-4.674243272647261,5.684198313826323
1789666892888597500,8.414597412109375,3.086614600241184,-2.5137936697423457,5.293776854482293
1789666892898549200,8.42454931640625,2.074638866889477,-0.5255974070310593,4.0600796934127805
1789666892908501500,8.43450146484375,0.10460136120319366,0.8336462881147861,3.0017727092579007
1789666892918453500,8.44445361328125,-3.4858687698602675,1.5860171455562113,1.6502920493289828
1789666892928405200,8.4544052734375,-5.704755948686599,2.6408301501154896,1.7685016646459697
1789666892938357800,8.464357666015625,-5.712315570285916,2.9432874948024748,3.0312963253840803
1789666892948310000,8.47431005859375,-3.183306211233139,2.8950305366337297,3.5945854574277996
1789666892958261000,8.484260986328126,-1.2497393643319605,2.494926472187042,2.5540093602746725
1789666892968212700,8.494212646484375,-0.24522848696820437,2.2194377984464166,1.8435484300628304
1789666892978165000,8.5041650390625,0.7478728884350508,1.8443933564543722,0.8881751661598681
1789666892988117000,8.514116943359374,1.2411252652436493,1.3967413588911295,-0.06721709470450878
1789666892998068700,8.52406884765625,0.7154815348528325,0.9276233794510363,-0.24036329208463428
1789666893008021000,8.53402099609375,0.5223489996943622,0.6699748983055352,-0.792905404664576
1789666893017973000,8.543972900390624,0.4120527147851884,0.1797843202203512,-1.5291355669051407
1789666893027925000,8.553925048828125,-0.9338118588276207,-0.3909919527083635,-2.138167336209118
1789666893037876700,8.563876708984376,-3.3951544797122475,-0.35870939326286316,-2.5393966052934527
1789666893047829000,8.5738291015625,-4.65442096632421,0.06869944221675396,-2.9355776510775087
1789666893057781000,8.583781005859375,-3.4727369010865687,0.337927886518836,-2.574053200393915
1789666893067732700,8.593732666015624,-1.3368185128480194,0.18053250823915004,-0.9003843671306967
1789666893077685000,8.60368505859375,-0.33540947395712134,-0.1016805053204298,0.7375628721490501
1789666893087637000,8.613636962890626,0.28308263600096106,-0.32099428737461566,1.9467939927428959
1789666893097587700,8.623587646484374,-0.10790361761897801,-0.4070318178832531,3.1895845608502627
1789666893107540000,8.6335400390625,-1.7464675274923442,0.0023106150299310683,4.0538323234558105
1789666893117492000,8.643491943359376,-2.949293749479949,0.41315877633094783,4.805564882993698
1789666893127444000,8.65344384765625,-2.2002157961040734,0.1603822851359844,5.596569714733958
1789666893137396000,8.66339599609375,-0.20054741452485322,-0.2379606148570776,6.496941514644027
1789666893147348000,8.673347900390626,1.613097460183501,-0.12168167534172535,7.346717684304714
1789666893157300000,8.683300048828125,1.587112247316539,0.31691549362838267,8.665266965490579
1789666893167251700,8.693251708984375,-0.5422127340063453,0.6920154651999473,10.004224243932962
1789666893177204000,8.703203857421874,-3.010228987435996,0.8340303189963102,10.182358458858728
1789666893187156000,8.713156005859375,-4.822087563249468,0.7268646602630615,8.861824141335488
1789666893197108000,8.72310791015625,-4.1566231281057,0.45038113026618953,6.598730741035938
1789666893207060000,8.73306005859375,-2.884571686461568,-0.7188631401151419,5.488953974145651
1789666893217012000,8.743011962890625,-2.715655966258049,-2.5014438912570474,5.131280353671312
1789666893226964000,8.7529638671875,-2.8825556704640385,-4.015760074692964,4.967438283470273
1789666893236915700,8.762915771484375,-3.738393332120776,-4.927006319838762,4.505599355122447
1789666893246867000,8.772866943359375,-4.50454955380857,-4.568661083713174,4.018288716387748
1789666893256819000,8.78281884765625,-4.66943324201703,-3.2812545442879197,4.500545578864217
1789666893266771000,8.79277099609375,-4.131244064438343,-1.6940619252115487,6.025630993595719
1789666893276723000,8.802722900390625,-2.877390835046768,-0.5221604183197022,6.108886784431338
1789666893286675000,8.812675048828124,-1.1347445463430135,0.3501788808047771,5.20038253147006
1789666893296626700,8.822626708984375,0.18680150550603866,0.7904448597699403,4.704111756688356
1789666893306579000,8.832578857421876,-0.21443360879719256,1.084969073370099,3.4669892973452803
1789666893316531000,8.842531005859374,-0.993594858008623,0.8779261593461036,1.748644579270482
1789666893326483000,8.85248291015625,-0.7231611295700073,-0.4096101439386606,0.7729840218812227
1789666893336435000,8.86243505859375,0.027591807813383638,-2.048184575206041,0.578176027791202
1789666893346387000,8.872386962890625,2.2043863597869873,-3.5431016461670395,-0.061168462190032004
1789666893356339000,8.8823388671875,4.204371259969473,-4.6275931651532645,-0.42528672875910994
1789666893366290700,8.892290771484374,4.71216179215312,-5.6349996908932924,-1.2223559751048683
1789666893376243000,8.902242919921875,4.274803809589147,-7.116678510096669,-1.6733654664024709
1789666893386195000,8.91219482421875,1.957763715046644,-9.210745715555548,-2.3401596888452767
1789666893396146000,8.92214599609375,-0.7582020478129387,-11.284522412657736,-2.864780944320559
1789666893406098000,8.932097900390625,-0.7406558697283268,-10.67654482858181,-2.9010177943497895
1789666893416050000,8.9420498046875,-1.5730816761374473,-7.154729716071486,-2.144256592994928
1789666893426002000,8.952001953125,0.2347358075916767,-5.239295907232165,-1.3174860358685254
1789666893435954000,8.961953857421875,2.783225527662039,-3.9240497592449186,-1.0737509292632341
1789666893445906000,8.971906005859376,3.716214818060398,-2.239710186624527,-0.6740320647418498
1789666893455858000,8.98185791015625,3.43224473170042,-0.5883715508520603,-0.11127250953018665
1789666893465810000,8.991809814453125,4.467029678231477,0.5058674551665783,0.3754688048839569
1789666893475762000,9.001761962890624,4.900571025116742,1.1238269195526838,0.42359424562752246
1789666893485714000,9.0117138671875,4.733453586506843,1.7105641472011803,-0.13298691321015357
1789666893495666000,9.021666015625,4.5147146817311645,1.6870815648049116,-1.4548814131706953
1789666893505618000,9.031617919921874,3.4005981320708987,1.0892144558548926,-2.9977281100422144
1789666893515570000,9.04156982421875,2.6707974183559418,-0.17582769154906272,-4.2205338747411965
1789666893525522000,9.05152197265625,2.445141573798656,-0.914983093586564,-5.173648838323355
1789666893535474000,9.061473876953125,2.5054221472382543,-0.9197820183008909,-5.949442072406411
1789666893545425000,9.0714248046875,2.7854470031037923,-0.6414554907858372,-6.728520319509506
1789666893555377000,9.081376953125,3.110266693985462,-0.13596739032566546,-7.3406889255344865
1789666893565329000,9.091328857421875,3.314496304154396,0.5448550652086734,-8.010010328367352
1789666893575281000,9.101281005859375,3.236124485968053,1.1587526869833469,-8.768300054463744
1789666893585233000,9.11123291015625,3.2849466768041253,1.7247984242588281,-9.371752270069718
1789666893595185000,9.121184814453125,3.4726530221953986,2.3965099370986223,-9.873728563016652
1789666893605137000,9.131136962890626,3.535084636189043,3.114785632714629,-10.25132152044773
1789666893615089000,9.1410888671875,3.5159275157764553,3.629484629112482,-10.45744264345169
1789666893625041000,9.151041015625,3.3236990167856213,4.147780773219466,-10.332595782077313
1789666893634993000,9.160992919921876,3.010366350080073,4.502866715288162,-9.873476049560308
1789666893644945000,9.17094482421875,2.506069797492027,4.573372330144047,-9.29839652647972
1789666893654897000,9.18089697265625,1.9154557284101843,4.397220228946209,-8.83140036149919
1789666893664849000,9.190848876953124,1.2319782283224165,4.208313275593519,-8.087539558249711
1789666893674801000,9.20080078125,-0.2400736614882946,3.877902925097942,-6.4148705496788025
1789666893684753000,9.2107529296875,-3.535392971485853,3.420491750064492,-3.4174586659789083
1789666893694705000,9.220704833984374,-8.052749984419345,2.5879730046749114,0.4089689234256744
1789666893704656000,9.23065576171875,-15.767983001208304,-0.13169687339961528,6.655387863281369
1789666893714607900,9.24060791015625,-15.752889476972818,-7.23868401056528,20.65810715885162
1789666893724560100,9.25056005859375,1.5912638140380382,-15.692295599800348,29.73323035199642
1789666893734511900,9.260511962890625,5.118616102409362,-16.92479741360545,25.289320852589604
1789666893744464000,9.2704638671875,-0.23486454853788016,-10.072759435498714,19.221493808299304
1789666893754415900,9.280415771484375,-6.1826692290008065,1.0113953031152487,9.97805987510681
1789666893764368000,9.290367919921875,-6.993069081562757,5.69003885654807,4.600395946148038
1789666893774319900,9.30031982421875,-3.903234934753179,5.30301346938312,-0.8132961585253476
1789666893784272000,9.31027197265625,0.1567874755144119,3.6225755803763864,-4.270082041764259
1789666893794224000,9.32022412109375,3.0582360624969005,0.4647966091096401,-6.585919190257787
1789666893804176000,9.33017578125,6.099005441886186,-2.2443729177385565,-7.999670720660686
1789666893814127900,9.3401279296875,8.857202911275625,-2.687687762880325,-7.107461768940091
1789666893824080000,9.350079833984376,8.232421491914987,-3.041809828352928,-5.805901031956076
1789666893834031900,9.360031982421875,1.092041203713417,-4.909899117693305,-2.045566501662135
1789666893843984000,9.36998388671875,-17.145957115787265,-12.292489494889974,6.007907705378532
1789666893853935900,9.379935791015624,-15.127302586448192,-16.37387501118183,7.377971485224366
1789666893863886800,9.389886962890625,-2.862575250969827,-9.274121332401037,1.0439105022728443
1789666893873838800,9.3998388671875,3.7256396490097043,-2.7843466406464574,-7.560812270405888
1789666893883790800,9.409790771484374,5.9630479884326455,0.5681044233709573,-9.87473978588581
1789666893893742800,9.419742919921875,5.96042933036685,3.1441584421932696,-9.818431623208522
1789666893903694800,9.42969482421875,5.665547389370203,4.38490961342752,-9.021641193804145
1789666893913646800,9.439646728515624,4.963974991273879,5.285590625417232,-7.79557613504827
1789666893923599000,9.44959912109375,3.6975522031664845,5.5344601723015305,-7.827260144078731
1789666893933551000,9.459551025390626,2.998857990854978,5.002295661839843,-7.9173174316227435
1789666893943503000,9.469503173828125,2.3275581275559962,3.4275948600679635,-7.325045366200804
1789666893953455000,9.479455078125,2.594439278079569,1.3556366105645894,-5.611291483047604
1789666893963407000,9.489406982421874,3.754951083689928,-0.6779232269614934,-4.323651719388366
1789666893973359000,9.499359130859375,4.510042306005954,-2.1498907994896173,-3.056198711450398
1789666893983311000,9.50931103515625,5.17050411055684,-3.5055519599735736,-1.726077650414407
1789666893993263000,9.51926318359375,6.236026725178957,-4.960334588944912,-0.4217851503789425
1789666894003215000,9.529215087890625,8.857540764927863,-6.268586348000168,1.8654449123114347
1789666894013167000,9.5391669921875,6.631840398955345,-6.017002865982056,4.613367363663017
1789666894023118000,9.5491181640625,2.862472667378187,-4.0633804885238405,4.408929663701355
1789666894033070000,9.559070068359375,1.4362743278563022,-2.0807763467311857,2.8972245395466683
1789666894043022000,9.56902197265625,-0.23194062391519546,-1.2832576030522584,1.994228528612852
1789666894052974300,9.578974365234375,-4.559155004221201,-0.5796686044365167,1.8361185723230242
1789666894062926000,9.588926025390625,-6.787668674048781,1.0243500617563723,2.4146301156789063
1789666894072878000,9.598878173828124,-3.9251393080472945,2.1469757888257504,3.031699060966074
1789666894082830000,9.608830078125,-0.4519190073579549,2.7750311152905223,3.2127950483068823
1789666894092782000,9.618781982421876,1.0808856034487486,3.2626831148087976,2.953468404816091
1789666894102734000,9.628734130859375,2.3201649485647677,3.369070190384984,2.2468965909972787
1789666894112686000,9.63868603515625,2.9278549478709697,3.1488194197416304,1.5500319322004914
1789666894122638300,9.648638427734374,2.6537539290964602,2.7917729912549256,1.0388339296609164
1789666894132590000,9.658590087890625,2.5516806250661612,2.1635773795366284,0.2576855982854962
1789666894142542000,9.6685419921875,1.8830599178485572,1.4381564883410929,-0.17167466352283953
1789666894152494000,9.678494140625,0.41253494534417984,0.9700766197770834,-0.554934268413484
1789666894162446000,9.688446044921875,-2.0882833613604306,0.760010558539629,-1.5491700546741485
1789666894172398000,9.698398193359376,-6.425934380006789,0.5067068286001682,-2.0853107752904294
1789666894182349300,9.708349365234374,-8.299865965634584,0.32599604118466374,-2.1536554127201435
1789666894192301000,9.718301025390625,-5.3904269644200795,-0.13431085529029368,-1.1110954482734203
1789666894202253000,9.728253173828126,-2.6524270644068717,-0.4540606955617666,0.49549102258086203
1789666894212205000,9.738205078125,-1.7486520319245755,-0.3223468710273504,1.4512418876245616
1789666894222157300,9.7481572265625,-0.8189796109892428,0.09673954178690909,2.2562658923670647
1789666894232109000,9.758109130859374,-0.7894086485899985,1.0163619856119155,3.190515704220533
1789666894242061000,9.76806103515625,-2.7530104221403597,1.7421265756785869,4.213953327307105
1789666894252013300,9.778013427734376,-5.106660291677713,1.276870532363653,5.239032287859916
1789666894261965000,9.787965087890624,-4.373130036045611,-0.07632043861448765,5.058427883428335
1789666894271917000,9.7979169921875,-1.0156585135176777,-0.9036714259773492,4.921304893326759
1789666894281869000,9.807869140625,1.5874141528725623,-0.4506652079045772,5.607220288085937
1789666894291821300,9.8178212890625,2.0519814832709726,0.38241175588965415,6.567694966781139
1789666894301773000,9.82777294921875,0.12618249389231204,0.8926204551309347,7.420345230573416
1789666894311725000,9.83772509765625,-1.4634553263790904,0.9187561823844909,7.286526542714237
1789666894321677300,9.84767724609375,-1.276425857336074,0.3921767785787582,5.912378708425164
1789666894331629000,9.857629150390625,-0.9897387671023606,-0.6954448551267385,4.803109891057014
1789666894341580000,9.867580078125,-1.959666333797574,-2.1530711830914018,3.846360954886675
1789666894351532300,9.8775322265625,-2.6721540936619044,-3.300402312350273,2.5742221272200343
1789666894361484000,9.887484130859375,-2.645926596471667,-4.021128323727846,1.9203684887625276
1789666894371436000,9.89743603515625,-2.1307979764848946,-4.478416164642572,2.4823662658214567
1789666894381388300,9.90738818359375,-1.555533306095749,-4.421612911924719,3.614394612008333
1789666894391340000,9.917340087890626,-2.4430951626628636,-3.147484956267476,5.2700844287276265
1789666894401292000,9.9272919921875,-3.088088179925084,-1.3690911354213953,7.687952211153506
1789666894411244000,9.937244140625,-2.5105934123963114,-0.5603928260803223,7.823204731208086
1789666894421196300,9.9471962890625,-2.2880384564638137,-0.09602350247204303,7.090257536160945
1789666894431148000,9.95714794921875,-2.528664491137862,0.6912748759657145,6.160707572561502
1789666894441100000,9.96710009765625,-3.363014543607831,1.2936942413926125,4.713945752960443
1789666894451052300,9.97705224609375,-3.6190152575463053,1.2075170101523398,3.098667733867466
1789666894461004000,9.987004150390625,-3.1719056962966916,0.6137649353057145,2.090465089313686
1789666894470956000,9.9969560546875,-2.463881345582008,-0.35080548827052116,2.053139859525859
1789666894480908000,10.006907958984375,-1.785301116016507,-1.7032026785224674,2.3567586492076513
1789666894490860300,10.0168603515625,-0.7011877826929092,-3.604540157470107,2.311113042581081
1789666894500811000,10.02681103515625,1.5821546249091625,-5.047857974097132,1.3468202669024467
1789666894510763300,10.03676318359375,5.020739081025123,-6.401977750357985,0.5855293131634592
1789666894520715300,10.04671533203125,6.7210606511533255,-7.8477043816924095,-0.515289948028326
1789666894530667000,10.0566669921875,6.283990253359079,-9.050243018910288,-1.8268091844469307
1789666894540619000,10.066618896484375,4.591771325665712,-9.948499434101581,-3.0021658002287146
1789666894550571300,10.0765712890625,2.273432423484325,-10.517055692893265,-3.5898444003805516
1789666894560523000,10.08652294921875,-1.280225688010454,-8.549757256782055,-3.051845484676957
1789666894570475000,10.09647509765625,-3.23599033819437,-5.4282145510226485,-2.120654183611274
1789666894580427300,10.10642724609375,-0.1815665274620056,-3.986899890911579,-1.7576427092403173
1789666894590379300,10.116379150390625,3.8428152451038358,-2.916371430826187,-1.5797054781913757
1789666894600331000,10.1263310546875,4.230217648887634,-1.4015648335248232,-1.223341186749935
1789666894610283300,10.136283203125,3.887041340321302,-0.38651685312092304,-0.63085693988204
1789666894620235300,10.1462353515625,4.7086873940408225,0.37280104697942734,-0.6879325798004865
1789666894630187000,10.15618701171875,4.202412234856188,1.3231529755890368,-0.7388076115131378
1789666894640139000,10.166138916015624,3.6031703304216265,2.0429156948924065,-0.8423311143517493
1789666894650091300,10.17609130859375,2.953492370213568,2.3389368690520524,-1.9079805702239274
1789666894660043300,10.186043212890626,2.322141801595688,2.151754839795828,-3.356611690828204
1789666894669994200,10.195994140625,2.0311434240341186,2.0562673438966272,-4.082320751315355
1789666894679946200,10.2059462890625,2.104447145175934,1.8353753527402876,-4.674830132624507
1789666894689898000,10.21589794921875,2.1638757779613136,1.7017945652902124,-5.425031829333305
1789666894699850000,10.22585009765625,2.316345098015666,1.6565426341563463,-6.189067405605316
1789666894709802200,10.23580224609375,2.830087524341047,1.6367232504427431,-6.8463312908977265
1789666894719754200,10.245754150390624,2.9911472703471778,1.7552251267045735,-7.591740492632985
1789666894729706000,10.2557060546875,2.864423216924071,1.771582387265563,-8.388390052261949
1789666894739658200,10.265658203125,2.7872920464485884,1.98501880171895,-9.202208773356675
1789666894749610200,10.2756103515625,2.8298125067919493,2.335522676694393,-9.840326644152402
1789666894759562000,10.28556201171875,3.150163527826965,2.7832588454097507,-10.138986934643983
1789666894769514000,10.295513916015626,3.3886157255932687,3.1716648732781407,-10.276766927349566
1789666894779466200,10.30546630859375,3.4492084337219593,3.538405012783408,-10.30896940729618
1789666894789418200,10.315418212890625,3.0213194135099646,3.889771642068028,-9.794480254256724
1789666894799370000,10.325369873046874,2.210925990688801,3.8784564673274753,-8.540488493177294
1789666894809322200,10.335322265625,1.1081208163768053,3.715549047628045,-6.9674150003463025
1789666894819274200,10.345274169921876,-0.4328609634056687,3.6276422161161896,-4.995841955655813
1789666894829226000,10.35522607421875,-2.702052972841263,3.3620646955370903,-2.1453268525749443
1789666894839177200,10.36517724609375,-5.598118113219738,2.5857997522890566,1.8263526728510855
1789666894849129200,10.375129150390626,-9.174162244045734,1.087815110450983,7.673420996975898
1789666894859081000,10.3850810546875,-8.862316308766603,-2.3483114311188458,15.494123974496125
1789666894869033200,10.395033203125,-3.790384216120839,-7.537173620665073,24.57257777336836
1789666894878985200,10.404985107421876,0.2660499603964388,-10.416142664813995,24.858149449706076
1789666894888937200,10.414937255859375,-1.1979682605624198,-8.560670280462503,21.35243499264717
1789666894898889000,10.424888916015625,-5.862281090825796,-1.426925484752655,13.533484411752223
1789666894908841200,10.43484130859375,-6.753814919763803,2.156537982419133,5.760494787043332
1789666894918793200,10.444793212890625,-3.7498879550814626,1.4620663562387226,0.5454746584117413
1789666894928745000,10.454744873046875,0.20785817592963576,-0.5074480023562908,-3.1603631425410508
1789666894938696400,10.464696533203124,2.9575311242103575,-3.758821203121543,-5.419630847072601
1789666894948648400,10.4746484375,4.132862021028996,-5.49587471331954,-6.406138377168774
1789666894958600200,10.48460009765625,4.791610007399321,-5.561370391058921,-7.239947746890783
1789666894968552400,10.494552490234375,4.669543132132292,-6.054989774549007,-8.015962514770031
1789666894978504400,10.50450439453125,0.7155224513851106,-7.853194795802235,-8.363905014824867
1789666894988456400,10.51445654296875,-10.002965183782576,-11.668997530817984,-6.759560769939422
1789666894998408200,10.524408203125,-12.289784327584504,-13.33691905260086,-1.1130097574621438
1789666895008360400,10.5343603515625,-3.370489409533143,-6.398807303628325,-0.16652736376225946
1789666895018311200,10.544311279296876,3.8043069430112837,-2.092389043113589,-4.231246407413482
1789666895028263400,10.554263427734375,6.645683046346902,0.5378811345428228,-7.341455233731866
1789666895038215400,10.56421533203125,6.919711584407091,2.7277666752904652,-7.6578469957470885
1789666895048167400,10.57416748046875,5.940870058894157,4.156794685280323,-7.313551327762007
1789666895058119400,10.584119384765625,5.118139132547379,5.3719075573891395,-7.115781853517889
1789666895068071400,10.594071533203126,4.551111983019113,6.034056292113662,-6.443077822509408
1789666895078023400,10.6040234375,3.729497493481636,5.40253007466793,-5.736166401472687
1789666895087975200,10.61397509765625,3.523165942597389,3.952484995612502,-4.8082934311747545
1789666895097927400,10.623927490234376,3.8589188231647014,1.9647721325039862,-4.15775096309185
1789666895107879400,10.63387939453125,4.296772480291128,-0.2919903112083673,-2.662928000155091
1789666895117831400,10.64383154296875,4.976300219839811,-2.68691444042027,-1.2437982838451862
1789666895127783400,10.653783447265624,6.155362704402208,-5.09956068880558,0.9048325787112116
1789666895137735400,10.6637353515625,8.522547762817144,-7.178561842557787,3.731617262114584
1789666895147687400,10.6736875,7.331676767039299,-6.719010148364305,6.0001721426904195
1789666895157639200,10.68363916015625,4.380346543295682,-3.6423785974770784,4.947230777221918
1789666895167591400,10.69359130859375,2.934033344244957,-1.000806689083576,3.213446205691993
1789666895177543400,10.70354345703125,1.4601251590430735,0.6098737730860709,2.054927035203576
1789666895187494400,10.713494384765625,-2.2597300613462923,1.5514847613573073,0.0260638310611248
1789666895197446400,10.7234462890625,-5.888306927964091,3.208105136924982,0.923798852726817
1789666895207398400,10.7333984375,-6.0509589115977285,3.5903093875437975,2.7100501090750098
1789666895217350400,10.743350341796875,-3.211258632519841,3.4878678347229957,3.5434079356372354
1789666895227302400,10.753302490234375,-0.9617477673709391,3.300381854084134,2.8919647193223237
1789666895237254400,10.76325439453125,0.4766173222195357,2.9573557676434516,2.286131453798711
1789666895247206400,10.773206298828125,1.8412930523514746,2.4025761052697896,1.6320266170591116
1789666895257158400,10.783158447265626,2.535367203646898,1.7299164979249237,1.1881854099556803
1789666895267110400,10.7931103515625,2.07993785008043,1.0717495263129473,0.9785621240496635
1789666895277062400,10.8030625,0.9944634575366973,0.4244850569874048,1.0833917410507798
1789666895287014400,10.813014404296876,-0.5424556028515101,-0.1925952864766121,0.5823880925282836
1789666895296966400,10.82296630859375,-3.7717987581163643,-0.6527385168224573,-0.17597557558715343
1789666895306918400,10.83291845703125,-7.088401094639301,-0.882298967602849,-1.038935344208777
1789666895316870400,10.842870361328124,-6.85900723259747,-1.0045160649955271,-1.4888681461855768
1789666895326822400,10.852822509765625,-3.809450151118636,-1.080895540320873,-1.3359542972341178
1789666895336774400,10.8627744140625,-1.1865624849289655,-1.174349484565854,-0.4134016451761126
1789666895346726400,10.872726318359375,0.07737696193009615,-1.1961410451352597,0.37611528609395023
1789666895356677400,10.882677490234375,-0.035005846929550166,-0.7952958069324493,0.9140519502162933
1789666895366629400,10.89262939453125,-1.555197790531069,0.13672551521658896,1.283752693092823
1789666895376581400,10.902581298828125,-3.0865111398667096,1.2441127566218375,1.3053209663003682
1789666895386533400,10.912533447265625,-3.0387428419977427,1.686909130847454,1.9101333643436431
1789666895396485400,10.9224853515625,-1.6391531079381703,1.2548942628771067,2.801156905671954
1789666895406437400,10.932437255859375,0.15943112189099193,0.3854349031031131,3.8513314367756246
1789666895416389400,10.942389404296875,1.3892775988817214,0.2850163805425167,4.6985298649027945
1789666895426341400,10.95234130859375,1.6021731844566762,0.8133242155760526,5.34781064248681
1789666895436293400,10.96229345703125,0.012484218519926071,1.273787763917446,6.04877396877408
1789666895446245400,10.972245361328126,-1.0386454213514924,1.274990709966421,6.523150307133793
1789666895456197400,10.982197265625,-0.9878817410588264,0.3063262950748205,6.046339435103535
1789666895466149400,10.9921494140625,-2.1265210298180577,-0.5170218863874674,4.782124970695376
1789666895476101400,11.002101318359376,-2.905526211684942,-1.402387840345502,4.135662465402484
1789666895486053400,11.012053466796875,-3.093388624420762,-2.3453163409560918,2.9147438296243546
1789666895496005400,11.02200537109375,-2.573721191960573,-2.7321207788467405,2.1062335902012883
1789666895505957400,11.031957275390624,-1.8311743939191103,-2.9387796619892117,2.5728812340050933
1789666895515909400,11.041909423828125,-1.1060961786814034,-3.346833224135637,3.6014603116333483
1789666895525861400,11.051861328125,-3.3943130604520437,-3.7601965831279753,3.838372294220328
1789666895535813400,11.0618134765625,-5.0883589113116265,-2.4818366889894006,5.54955018940568
1789666895545765400,11.071765380859375,-4.052014460378885,-0.5610901606947183,6.952460007798671
1789666895555716400,11.08171630859375,-3.141178549599647,0.6450023696124554,6.9496607324689625
1789666895565668400,11.09166845703125,-2.4945447793930766,1.417742061343789,6.940349883288144
1789666895575620400,11.101620361328125,-1.915467126587033,2.2588100238919258,6.256377439290285
1789666895585572600,11.111572509765624,-1.1219506042867897,2.717072847318649,5.766329484546184
1789666895595524400,11.1215244140625,-1.379479842966795,2.6653420755594968,4.992113875043392
1789666895605476400,11.131476318359375,-2.3952637364298104,2.314718958118558,3.7367452726528048
1789666895615428400,11.141428466796874,-1.994569889396429,0.8823252710878848,3.2976229107648134
1789666895625380400,11.15138037109375,-0.5979483209600672,-1.4261410563766956,3.5558436388403174
1789666895635332400,11.161332275390626,1.0905903473179788,-3.274437850010395,3.0502623071387407
1789666895645284400,11.171284423828125,3.302150032800436,-4.854048635655642,2.4143436999529597
1789666895655236600,11.181236572265625,5.455196665972471,-6.811604260909557,1.5069719581529497
1789666895665188400,11.191188232421876,5.944771157985925,-8.307842351341247,-0.2726344533532858
1789666895675140400,11.201140380859375,5.1188218541145325,-9.182183053416013,-1.7929805646032093
1789666895685092400,11.21109228515625,3.781508251225948,-9.938957698774336,-2.685290054088831
1789666895695044400,11.22104443359375,2.5899405053555964,-9.74809025900364,-3.2591771525144577
1789666895704996400,11.230996337890625,-0.05734978068470955,-6.9935010432392355,-2.750383580768108
1789666895714948400,11.2409482421875,-2.209437944088131,-4.47185549095273,-1.6790660161316393
1789666895724900600,11.250900634765625,-1.1422561640821396,-3.354758171916008,-1.1346487578183413
1789666895734852400,11.260852294921875,3.3010055389404296,-2.1273031201064585,-1.275634268566966
1789666895744803300,11.27080322265625,6.241939748615026,-0.8086287512362003,-0.9483511101812123
1789666895754755300,11.28075537109375,3.9418218550398945,0.29428982032239437,-0.8914362137824297
1789666895764707300,11.290707275390625,3.697092476700246,1.0017045147061348,-0.4122188651323318
1789666895774659300,11.300659423828124,3.96490900837779,1.3503677302509545,-0.05472936905324459
1789666895784611600,11.310611572265625,3.749829210631549,1.6662848604917526,-0.42776247122287747
1789666895794563300,11.320563232421875,3.3167835383087394,1.7439356709271667,-1.2766495830893516
1789666895804515300,11.330515380859374,2.9236475593090057,1.4475608610242605,-2.2962767079770563
1789666895814467300,11.34046728515625,2.6665458983913064,1.0443599996060133,-3.4440403834342956
1789666895824419300,11.35041943359375,2.6235361932262777,0.5120289004057645,-4.259426207715273
1789666895834371300,11.360371337890625,2.8620407057017085,0.3687538174152374,-4.857144848105311
1789666895844323300,11.3703232421875,2.9824250347092747,0.31029753679335115,-5.496235947847366
1789666895854275600,11.380275634765624,2.834266271330416,0.3225824333488941,-6.277402691662311
1789666895864227300,11.390227294921875,2.759284387843311,0.4701408927470445,-6.83162939632833
1789666895874179300,11.400179443359375,3.041243134380877,0.6119996791988611,-7.461469852644204
1789666895884131300,11.41013134765625,3.1421386268034577,0.9603016602158546,-8.286384552770853
1789666895894083300,11.420083251953125,2.94245747371912,1.4433844521224497,-8.956119797101616
1789666895904035300,11.430035400390626,2.704810454855859,1.8403490494996309,-9.292648922738433
1789666895913987300,11.4399873046875,3.0302403865903615,2.27773216650486,-9.53666986054778
1789666895923939600,11.449939697265625,2.9329467180520292,2.786331676983833,-9.660439448079467
1789666895933891300,11.459891357421874,2.4200021641060707,3.144741795039177,-9.52227191736102
1789666895943844400,11.46984423828125,2.154063408999145,3.093375764939189,-9.265510740444064
1789666895953796000,11.479796142578126,1.8123200558453798,2.6206460247427223,-8.632483470785617
1789666895963748000,11.489748046875,0.7604796373561025,2.031138747859001,-7.413339735725522
1789666895973700400,11.499700439453125,-1.006821711589396,1.739183507964015,-5.422044337955117
1789666895983651000,11.509651123046876,-4.056034801936149,1.3194038521885871,-2.493007486823201
1789666895993603300,11.519603271484375,-8.767866923743487,0.38442952545285225,1.7996067047446964
1789666896003555300,11.529555419921875,-14.396715690791606,-1.495880363035202,8.79980636883974
1789666896013507300,11.53950732421875,-13.406789292162657,-4.438943401432037,20.510611243295667
1789666896023459000,11.549458984375,-2.1927096582576633,-8.965983019468188,29.66077769472599
1789666896033411300,11.559411376953125,4.7483507113873955,-9.583719196492433,26.00280697584152
1789666896043363300,11.56936328125,1.179974046449363,-4.682982459419965,17.61524519109726
1789666896053315000,11.579315185546875,-2.270805582112074,1.4532026663035154,8.328031737411022
1789666896063267300,11.589267333984376,-1.8004783730126916,2.9705916813135147,3.80313906827569
1789666896073219300,11.59921923828125,-1.864479866671562,3.882903509864211,-0.502602315890789
1789666896083171000,11.609171142578125,-0.20741656964197755,3.523283431497216,-3.810644913861155
1789666896093123000,11.619123046875,2.639407423835993,1.2252145794063807,-6.257204537764191
1789666896103075300,11.629075439453125,5.436425330007076,-1.5634090079069136,-8.302424417945742
1789666896113027300,11.63902734375,6.362544150114059,-3.182619982534647,-8.621883750838041
1789666896122979000,11.64897900390625,5.782650504750013,-4.145700459814071,-8.0143603402704
1789666896132931300,11.658931396484375,2.4928923360109327,-6.169837804478407,-7.704217117255926
1789666896142883300,11.66888330078125,-11.264330688500404,-11.48586214660406,-5.393366525003314
1789666896152835000,11.6788349609375,-20.82646582969427,-18.62344491304159,1.6301736826688051
1789666896162787000,11.688787109375,-9.278270268774031,-15.371511155784129,3.9701474935531613
1789666896172739300,11.6987392578125,0.8771171810507774,-6.488147967335581,-2.980670007735491
1789666896182691300,11.70869140625,7.4572390832066535,-2.2898066351801156,-7.952638920372724
1789666896192643000,11.71864306640625,8.31684632652998,1.0142138676673174,-7.821244829311967
1789666896202595300,11.72859521484375,7.193438509172201,3.3334587787777186,-7.512392230629921
1789666896212546300,11.73854638671875,5.731576151072979,5.1018280492156745,-7.45647920475006
1789666896222498300,11.748498291015625,4.825553193533421,6.418818410521745,-6.914023017376661
1789666896232450300,11.7584501953125,4.089844717079401,6.847789673012494,-5.6838686434805386
1789666896242402300,11.76840234375,3.5074434728085992,6.043668754589557,-4.363188195484876
1789666896252354000,11.77835400390625,3.5022447351217267,4.298539489963651,-3.653626552200317
1789666896262306300,11.788306396484375,3.7970354907035824,2.1434230647802353,-2.4316443788439033
1789666896272258300,11.79825830078125,4.162066780464351,-0.291737213230133,-0.6012152503341436
1789666896282210300,11.808210205078124,5.285620436033606,-3.112114952200651,1.6129513297110796
1789666896292162300,11.818162353515625,6.8028960537970065,-5.418689766830205,4.414258457508683
1789666896302114300,11.8281142578125,9.263886354112625,-6.60670888030827,6.778560069441795
1789666896312066300,11.83806640625,9.19026348401904,-5.327307952684164,6.4924833661913866
1789666896322018000,11.84801806640625,5.883886188912391,-2.541337510228157,4.86939145847708
1789666896331970300,11.85797021484375,2.726877617496252,-0.4898533089548349,3.827191851775348
1789666896341922300,11.86792236328125,-0.2047591870009899,0.5079471840500831,2.127436391097307
1789666896351874300,11.877874267578125,-4.658992512023449,2.1731845813155175,0.27399522031247614
1789666896361826300,11.887826416015624,-7.544681804338097,3.7048072888612746,1.0796125147730111
1789666896371778300,11.8977783203125,-4.974851190075278,2.9008903685778376,3.3667879246667027
1789666896381730300,11.907730224609375,-3.9072242966502904,2.3004332431346177,3.0717022777914997
1789666896391682000,11.91768212890625,-1.1265396856427192,2.924695022535324,2.262172193801403
1789666896401634300,11.92763427734375,0.7176999415546655,2.2991128081858156,1.7454659492343663
1789666896411586300,11.93758642578125,1.3552964188247918,1.6217898852050303,0.4870689389333129
1789666896421538300,11.947538330078125,1.3571506683893502,1.1336106469422578,-0.2059384599134326
1789666896431490300,11.957490234375,0.8893360266327858,0.6107564011394977,-0.2387444587111473
1789666896441442300,11.9674423828125,0.3052237406603992,0.15599427931010723,-0.2197676633015275
1789666896451394300,11.977394287109375,-0.688172233775258,-0.23521394649744032,-1.3063137767300008
1789666896461346000,11.987345947265625,-2.350294860021025,-0.457086765384674,-2.55447025578469
1789666896471297300,11.99729736328125,-3.959377093213796,-0.3126315326988697,-3.528354743412137
1789666896481249300,12.007249267578125,-4.260985127595067,-0.12723930946886539,-4.045511362095177
1789666896491201300,12.017201171875,-2.8705934299916027,-0.20498305888473986,-3.7618127861529587
1789666896501153300,12.0271533203125,-1.5623405018925667,-0.457926138818264,-2.615169346897304
1789666896511105300,12.037105224609375,-0.8800964891225099,-0.7760843259841204,-0.5831342347204684
1789666896521057300,12.047057373046876,-0.7376819684840739,-0.6934744318366051,1.088596323956549
1789666896531009300,12.05700927734375,-1.7222075309827922,-0.4060241021454334,2.097286459766328
1789666896540961300,12.066961181640625,-3.669522040468454,-0.14278174651563166,2.639311854507029
1789666896550913300,12.076913330078124,-4.343565211126208,-0.5317459927886724,2.8033117456182834
1789666896560865300,12.086865234375,-2.18547488469854,-1.1180074196189642,3.3156329069688915
1789666896570817300,12.0968173828125,0.4527344153940677,-1.0823322951257228,4.716417696031928
1789666896580769300,12.106769287109374,1.595154683996737,0.2232856082946062,6.106505442252755
1789666896590721000,12.116720947265625,1.3597300173580646,1.7060650822162626,7.072474042189121
1789666896600673300,12.12667333984375,0.1860449880503118,2.1479659689068793,7.993169668203592
1789666896610625300,12.136625244140625,-1.0484721110999584,1.7405945438057184,7.605927423417568
1789666896620577300,12.146577392578125,-1.0492308205127716,0.7563485289007424,6.163634273663162
1789666896630529300,12.156529296875,-0.6300310104519128,-0.21594225979447362,5.119258491966128
1789666896640481300,12.166481201171875,-0.45623277890384195,-1.2254723535597323,4.5685181681111455
1789666896650433300,12.176433349609376,-0.7217389878123999,-2.106097250470519,4.06911610956639
1789666896660385000,12.186385009765624,-1.732879439383745,-2.9726620578467844,3.7971386588171123
1789666896670337300,12.196337158203125,-3.1136271103292703,-3.68070102160871,3.5855455341428515
1789666896680289300,12.206289306640626,-4.198727993385494,-3.7185716103196143,3.754271869254112
1789666896690241300,12.2162412109375,-4.380898331959545,-2.5368571499437094,5.02426959323883
1789666896700193300,12.226193359375,-3.8658419004261493,-0.9153758922964333,6.730517630806565
1789666896710145300,12.236145263671874,-2.8878000008583067,-0.03011456775665283,7.224987493646144
1789666896720096300,12.24609619140625,-1.8607178837895393,0.5499404056489468,7.076137825393676
1789666896730048300,12.25604833984375,-1.6981098854281007,1.1042898599117994,6.1996402375459665
1789666896740000300,12.266000244140624,-2.64168764372766,1.3527034797221422,5.164248557293415
1789666896749952300,12.2759521484375,-3.3777585237532852,1.0889327163040636,3.8882290888011455
1789666896759904300,12.285904296875,-3.424270099559426,0.5855827969163656,2.6788673275649546
1789666896769856300,12.295856201171874,-2.5624726527154444,0.03853460557758808,2.2651143847331405
1789666896779808300,12.305808349609375,-1.5522954932183026,-0.8834136508464813,2.2121216302141544
1789666896789760300,12.31576025390625,-0.3026818193589337,-2.2974533505409953,2.170486136011779
1789666896799712300,12.325712158203125,1.3842214845359324,-3.653520753738284,1.9621753940090536
1789666896809664300,12.335664306640625,3.392048330390453,-5.231574957591295,1.011228714376688
1789666896819616300,12.3456162109375,4.040791640096902,-6.880569660586119,-0.6981728187859058
1789666896829568300,12.355568359375,4.209876287126541,-8.180408980605005,-2.433092824086547
1789666896839520300,12.365520263671876,3.750687581026554,-9.125145407420396,-3.9320951185345647
1789666896849472300,12.37547216796875,1.0119979451835155,-9.504021390399336,-4.3208273096174
1789666896859424300,12.38542431640625,-1.3553646617554127,-8.494853700205683,-4.058675671833753
1789666896869376300,12.395376220703126,-1.9946305335424839,-6.337721843546628,-3.2760739267796275
1789666896879328300,12.405328369140625,-0.2605504861973226,-4.530274946695566,-2.6148212641119954
1789666896889280300,12.4152802734375,2.3435144061006605,-3.4125416678428646,-2.1653122405052185
1789666896899232300,12.425232177734374,3.89171780769974,-2.534185300385952,-1.6933295192837714
1789666896909184300,12.435184326171875,4.563427859234809,-1.3195131577819585,-1.2539976062983273
1789666896919136300,12.44513623046875,4.188855710929632,-0.203138307800889,-0.8450152388691902
1789666896929088300,12.455088134765624,3.300553411258757,0.5894681139171123,-0.5009644855558872
1789666896939039000,12.4650390625,2.456015142251551,1.0870476332098244,-0.5552174692690373
1789666896948990700,12.47499072265625,2.279457821253687,1.2681979810863733,-0.9989771355688571
1789666896958943000,12.48494287109375,2.6736498851776123,1.3815671706348658,-1.6130647269576788
1789666896968895000,12.49489501953125,2.458127019838989,1.3789105186462403,-2.4858576150685545
1789666896978846700,12.5048466796875,1.9413097161129116,1.2029378656685352,-3.6926083170235153
1789666896988798000,12.5147978515625,1.8335295787431298,0.9139806385457515,-4.483656987905502
1789666896998750000,12.52475,1.974301008349657,0.7338625563263893,-5.14383529933989
1789666897008701700,12.53470166015625,2.496108667708933,0.7794429887622595,-5.646113790103793
1789666897018654000,12.544654052734375,2.886913865673542,1.040475851649046,-5.860042371988296
1789666897028606000,12.55460595703125,3.239407453161478,1.4760954661130905,-6.465811047843098
1789666897038557700,12.5645576171875,3.752184541586041,1.9013596907794474,-7.150595392745733
1789666897048510000,12.574510009765625,3.7489170642226934,2.3271745350658892,-7.808957594668865
1789666897058462000,12.5844619140625,3.611774492637813,2.753664502134919,-8.369335807701944
1789666897068414000,12.5944140625,3.6967166291251776,3.080342680364847,-8.902406911614536
1789666897078365700,12.60436572265625,3.603104279448092,3.5778210773706434,-9.235570944732427
1789666897088318000,12.61431787109375,3.2991631259441374,4.149741844159364,-9.339363327640294
1789666897098270000,12.62427001953125,2.9574060365259647,4.343192286160588,-9.016746407499909
1789666897108221700,12.6342216796875,2.3548820416808125,4.171911005869507,-8.285926872131228
1789666897118174000,12.644174072265624,1.4177194111205638,3.59606692815721,-7.132165417563915
1789666897128126000,12.6541259765625,-0.189139593064785,2.880488801062107,-5.375307721221446
1789666897138078000,12.664077880859375,-2.903700165301561,2.3040280527561903,-2.733839273202419
1789666897148029700,12.67402978515625,-6.551196251922845,1.7755571361154316,1.1581143890798091
1789666897157982000,12.68398193359375,-9.371700247621536,0.714563981616497,6.624960576313733
1789666897167934000,12.693933837890626,-9.719879479041696,-2.149226782622933,14.861417607355117
