time,seconds_elapsed,z,y,x
1789150639881917700,0.055917724609375,2.510027595207095,0.21872955242544412,0.30750472773704673
1789150639891888600,0.065888671875,3.243462281510234,-0.5254024689808487,0.13606314231771974
1789150639901859800,0.07585986328125,4.207221973225474,-0.7770718757167459,-0.0936348903024569
1789150639911830800,0.085830810546875,4.875307112261653,-0.7576572734117507,-0.3618173326829448
1789150639921801700,0.0958017578125,4.865105451720953,-0.5697320245727896,-0.6879997998178005
1789150639931772700,0.105772705078125,3.943159533384442,-0.24066432085782288,-1.0818696460500359
1789150639941743600,0.11574365234375,2.4724966137140987,0.07866641721874475,-1.3904349522233008
1789150639951714800,0.12571484375,1.045968019324541,0.18382862717509268,-1.47754186552912
1789150639961685800,0.135685791015625,-0.15061141722798346,0.10384177500754595,-1.3988283942982553
1789150639971656700,0.14565673828125,-0.8978390665620565,-0.10747808568328618,-1.2611920478470622
1789150639981627600,0.155627685546875,-1.2444073556542397,-0.30464871725142,-1.31837275557518
1789150639991598600,0.1655986328125,-1.2108686586678028,-0.5930331129223108,-1.4600316355407237
1789150640001569800,0.17556982421875,-0.9001859219491481,-0.8337970947623252,-1.7154276615843176
1789150640011540700,0.185540771484375,-0.37357086230814457,-0.9811565244570374,-1.5543813595816491
1789150640021511700,0.19551171875,0.33039982910156246,-1.0963041218549012,-1.1901534220930188
1789150640031482600,0.205482666015625,0.6923422129362821,-1.0740791383042931,-0.9619937049560249
1789150640041453600,0.21545361328125,0.37675884469449517,-0.9053621555432677,-0.6974848365217446
1789150640051424800,0.2254248046875,-0.30194881064295764,-0.7114478954225778,-0.26420170218124983
1789150640061395700,0.235395751953125,-1.0924199738979339,-0.5650374370157718,0.1998784292221069
1789150640071367000,0.245366943359375,-1.8858575857430695,-0.4993868609756231,0.5171546459216624
1789150640081337600,0.255337646484375,-2.5090175413817164,-0.5142708341136575,0.757619206423685
1789150640091308500,0.26530859375,-2.7704280054092405,-0.5176464480265974,0.8697640418089926
1789150640101279700,0.27527978515625,-2.6384792030751703,-0.4444198837742209,0.920970789694041
1789150640111250700,0.285250732421875,-2.2563708140462637,-0.2639326759815216,0.8751925696637481
1789150640121222000,0.295221923828125,-1.8045874157667159,-0.13656886335015297,0.8900669712558388
1789150640131192600,0.305192626953125,-1.5225930133938788,-0.07942834150195122,0.7784487170279025
1789150640141163500,0.31516357421875,-1.5204992559850214,0.03892711202651262,0.4404069948710501
1789150640151134700,0.325134765625,-1.739401534628868,0.15230653070807457,0.12206559662539511
1789150640161105700,0.335105712890625,-1.868715312284231,0.15258885478079318,-0.09724193835109472
1789150640171075800,0.345075927734375,-1.7119570628643035,-0.016358721865713594,-0.20571433230135588
1789150640181046800,0.355046875,-1.2980974447876215,-0.2098980111941695,-0.26759006597790863
1789150640191018800,0.365018798828125,-0.8256593810141086,-0.2658797183960676,-0.4866343469083309
1789150640200989700,0.37498974609375,-0.5618196440130472,-0.07263765844851731,-0.8051745191290974
1789150640210960600,0.384960693359375,-0.4731143555998802,0.18603724313527345,-0.874753447594121
1789150640220931800,0.394931884765625,-0.5661228941649198,0.06164426300823688,-0.35796960774622855
1789150640230902800,0.40490283203125,-0.6151689568847417,0.1298708270162344,-0.031527010104153305
1789150640240873700,0.414873779296875,-0.6182990716040134,0.32875703033059833,0.1780345174109563
1789150640250843600,0.42484375,-0.43170273328125475,0.2760831325024366,0.5899418689087033
1789150640260814600,0.434814697265625,-0.5386228928208351,0.3991320045441389,0.12095828383746557
1789150640270785800,0.444785888671875,-0.8472177173495292,0.7701049593135714,-0.33303942035753276
1789150640280756700,0.4547568359375,-0.7154734976768493,1.0677043425753712,-0.5676709273245185
1789150640290727700,0.464727783203125,-0.20188100121617317,1.0575406759575008,-0.3551028201382607
1789150640300699000,0.474698974609375,0.6616366935491561,0.7450906373053788,0.18851609087157994
1789150640310669600,0.484669677734375,1.4138959073096513,0.35542467250376936,0.3301811448495835
1789150640320640800,0.494640869140625,1.795733662703633,0.36210984935611484,0.054221488029765896
1789150640330611700,0.50461181640625,1.9243758247077465,0.4463368233114481,0.2808774358405731
1789150640340582700,0.514582763671875,1.6755460253119467,0.6650429948613047,0.5822958111349493
1789150640350553900,0.524553955078125,1.1226163747191429,0.9309823344901204,0.6421056983228772
1789150640360524500,0.534524658203125,0.4167652763903141,1.1878437569111584,0.7450798967156559
1789150640370495700,0.544495849609375,-0.3577197977036238,1.404097566872835,0.9901628377333282
1789150640380466700,0.554466796875,-0.806340932559967,1.3597414155349135,1.2813638982601463
1789150640390437600,0.564437744140625,-0.5840279686897992,0.9186109286949038,1.5759426185265182
1789150640400408800,0.574408935546875,0.03105097182393074,0.537537727932632,1.6345178493529557
1789150640410379800,0.5843798828125,1.1912468433529138,0.1353662095621228,1.6884519763752817
1789150640420351700,0.594351806640625,2.572407771274447,-0.4385945386216044,1.52729081582129
1789150640430321700,0.60432177734375,3.879788008192181,-1.0291019324585795,1.2577743483580648
1789150640440292600,0.614292724609375,4.724602756053209,-1.0906392279610038,0.9398403253369033
1789150640450263800,0.624263916015625,4.632547572690248,-0.6243363059416412,0.3687638273525983
1789150640460234800,0.63423486328125,3.450294183132052,-0.23698621686697005,0.44418848617114126
1789150640470205700,0.644205810546875,2.0122247885525226,-0.11049889480918645,1.2355610552452503
1789150640480176600,0.6541767578125,0.840136819177866,0.20851561692506074,1.056776121325791
1789150640490147600,0.664147705078125,0.09191080645620822,0.018515899899601937,0.5734586073478684
1789150640500118800,0.674118896484375,0.0018190321207046509,-0.4831669630587101,0.24509395560203118
1789150640510089700,0.68408984375,0.42427755171656606,-0.742759271748364,0.160678802130837
1789150640520060700,0.694060791015625,0.8332792083680629,-1.0291659376055002,-0.18664107251362874
1789150640530031600,0.704031494140625,1.1866910797446966,-1.4232441658914088,-0.3858034441545605
1789150640540002800,0.7140029296875,1.3440975639402866,-1.711200691539049,-0.2583611594595015
1789150640549973800,0.723973876953125,0.8423720308840275,-1.823931290923059,0.09688788248272612
1789150640559944700,0.73394482421875,0.07734393644332885,-1.8755688314408063,0.3469199886066839
1789150640569915600,0.74391552734375,-0.7526344768136739,-1.5157809952914714,0.08685379706127569
1789150640579886600,0.753886474609375,-1.6185814445525406,-0.9669444592311978,-0.14341094779726116
1789150640589858800,0.76385888671875,-2.369872105541825,-0.5635311241060496,-0.2728841355317272
1789150640599829800,0.773829833984375,-2.8994729029953477,-0.3018155396521091,-0.39653051680885254
1789150640609800700,0.78380078125,-3.409432011389732,-0.05777472809851169,-0.5707509192917496
1789150640619771000,0.79377099609375,-3.743594992417097,0.04627309087514877,-0.7165067862473428
1789150640629742600,0.80374267578125,-3.8124493329346176,0.03769523214399814,-0.7743310525760054
1789150640639713800,0.8137138671875,-3.5810219192385673,-0.041027591437101364,-0.7021567738555371
1789150640649684700,0.823684814453125,-3.3225644597977397,-0.11529781952351331,-0.4477571749707684
1789150640659654700,0.833654541015625,-2.9630443346738815,-0.10618307743668555,-0.03363877809373662
1789150640669625900,0.8436259765625,-2.537866619247198,-0.2173144249305129,0.26986252268822863
1789150640679597600,0.85359765625,-2.0686744055271147,-0.23506138628423212,0.20784359941501168
1789150640689568800,0.86356884765625,-1.7879864095777271,-0.013686580047011374,-0.05809332906100899
1789150640699539700,0.873539794921875,-1.9202274728566406,0.2320434997677803,-0.11647705590333789
1789150640709511000,0.883510986328125,-1.9838556031584738,0.4621358654677868,-0.15694814596883952
1789150640719481600,0.893481689453125,-1.9612655856877563,0.7251756842628121,-0.12615273807486518
1789150640729451800,0.90345166015625,-1.995759975963831,0.515737691795826,-0.23130546781681477
1789150640739423700,0.913423828125,-1.719251896047592,0.11895371168255806,-0.26217774033928287
1789150640749394700,0.923394775390625,-1.4763807127952575,-0.6584525105550885,-0.4830646717280149
1789150640759366000,0.933365966796875,-1.3016840711027382,0.043532267734408374,0.404467849146761
1789150640769336600,0.943336669921875,-0.7110451598405838,0.5272141945779323,0.7690214749258011
1789150640779307500,0.9533076171875,0.03326864787340164,0.8040966607645154,1.2344086703397332
1789150640789278700,0.96327880859375,0.6659317603945731,0.5058049113243818,1.016057522772625
1789150640799249700,0.973249755859375,1.389067755523324,0.3969128671899438,0.6548807164829223
1789150640809220900,0.983220947265625,1.5580419279158115,0.6256672622844577,0.348330220730789
1789150640819191800,0.99319189453125,1.1282160944223403,1.021965796968341,-0.6316215675789862
1789150640829162500,1.00316259765625,0.7996984258055686,1.0990373462110756,-1.1827075630664825
1789150640839133700,1.0131337890625,0.9190408445447683,0.6982578667208552,-0.02952069351673126
1789150640849104600,1.023104736328125,0.7562029829502105,0.8390706512510776,1.1375153992958367
1789150640859075800,1.033075927734375,0.5513783294975757,1.3592372654050588,1.788291676134616
1789150640869046800,1.043046875,0.8253232809275388,1.4323667990237474,1.7968983225688338
1789150640879017500,1.053017578125,1.227007892563939,1.6850170334905386,1.0034549385700375
1789150640888988700,1.06298876953125,1.056553710746765,2.322887359265983,0.07986499761985615
1789150640898959600,1.072959716796875,0.6172562845528126,2.556282858164608,-1.1848379261586814
1789150640908930800,1.082930908203125,0.36532442748844624,2.3931170797899366,-2.2099502775244413
1789150640918901800,1.09290185546875,0.3979243823200464,1.8328019951209424,-2.5318434134349226
1789150640928872700,1.102872802734375,0.9871855754882096,0.6592313859730958,-1.682512211062759
1789150640938843600,1.11284375,1.9617057306706904,-0.3552487314149737,-0.7974242703285068
1789150640948814600,1.122814697265625,3.2103625604629515,-0.7807783290192485,-0.5187437417440116
1789150640958785800,1.132785888671875,4.326056442442536,-1.2520561168417335,-0.7462307472512125
1789150640968756700,1.1427568359375,5.055618671226501,-1.4833084662318228,-1.1472741383746266
1789150640978728000,1.15272802734375,5.17416029497683,-1.0370093445822597,-1.347988287768513
1789150640988698600,1.16269873046875,4.495461991989612,-0.6540262185454369,-1.3680224832765757
1789150640998669600,1.172669677734375,3.3192847074747083,-0.4849097150728106,-1.3530381185039877
1789150641008640800,1.182640869140625,1.9105910449832677,-0.5760217723667621,-1.5421069844201207
1789150641018611700,1.19261181640625,0.5763099416583776,-0.8188929556190967,-1.7450443628214298
1789150641028583000,1.2025830078125,-0.46528176227807994,-1.0523954220235348,-1.6314957250528037
1789150641038553600,1.2125537109375,-0.7622744118183851,-1.207272680002451,-1.2115798756770788
1789150641048524500,1.222524658203125,-1.6182441754221915,0.10857289518266916,-0.16694940683292225
1789150641058495700,1.232495849609375,-1.2842027749478817,0.6964984558328986,0.7025478189997375
1789150641068466700,1.242466796875,-0.8389408873915671,0.45206426104754205,0.8354017534799874
1789150641078438000,1.25243798828125,-1.0463567263811826,0.03663286360949278,1.1324196835920215
1789150641088408800,1.262408935546875,-0.5647457605928182,-0.7419619838908315,1.3725392300486563
1789150641098379500,1.272379638671875,-0.34982758314907547,-1.227494507037103,1.0875661771912126
1789150641108350700,1.282350830078125,-0.0899731163918972,-1.5249541895672678,0.5728692996852099
1789150641118321700,1.29232177734375,0.028513562300801275,-1.620104708597064,0.03121417216216214
1789150641128292900,1.30229296875,0.08789689463973045,-1.556850964565575,-0.38966282299645244
1789150641138263800,1.312263916015625,0.10554477953314781,-1.446563666680455,-0.6117072355909272
1789150641148234500,1.322234375,0.012740239107608794,-1.2737681824341416,-0.6339977221257984
1789150641158205700,1.332205810546875,-0.2294897236317396,-0.9722101246744393,-0.6076930680461228
1789150641168176600,1.3421767578125,-0.5459703329741954,-0.5811234794199467,-0.5102719737358391
1789150641178147800,1.35214794921875,-0.8986696721673011,-0.20742665264457463,-0.3117270216071978
1789150641188118800,1.362118896484375,-1.4012392548322676,0.14706658422797916,-0.14634501935462466
1789150641198089500,1.37208935546875,-2.005319831469655,0.5250973485544324,0.06296156528503634
1789150641208060700,1.382060791015625,-2.4776503432154655,0.704306499235332,0.37301439746916293
1789150641218031600,1.392031494140625,-2.6862603604257105,0.7357663441210984,0.6466902496341616
1789150641228002800,1.4020029296875,-2.6160592814743517,0.7735135987132787,0.7723870789013803
1789150641237973800,1.411973876953125,-2.354872689330578,0.7824462622314691,0.7266997520249336
1789150641247944700,1.42194482421875,-1.9383704477906225,0.6904749577596784,0.5613305453218519
1789150641257915600,1.43191552734375,-1.4460370124578474,0.574153348146379,0.3793661776486784
1789150641267886600,1.441886474609375,-0.9373498236954212,0.4766220714598894,0.20040647168420253
1789150641277857800,1.45185791015625,-0.4886076928079128,0.4284843557566404,0.019302593297883867
1789150641287828700,1.461828857421875,-0.2897165210574865,0.4237491439282894,-0.035413066890416664
1789150641297799700,1.471799560546875,-0.40847500242888923,0.4203080635637045,-0.09644584693680516
1789150641307770600,1.4817705078125,-0.6778150904119015,0.5144201794564723,-0.06909205826353282
1789150641317741600,1.491741455078125,-0.9414286174416542,0.688740973573923,0.09080374026345088
1789150641327712800,1.501712646484375,-1.0581792661219835,0.8295780157625675,0.3228194204425439
1789150641337683700,1.51168359375,-0.8960773175865411,0.9254825680300592,0.5057619124328717
1789150641347655000,1.521655029296875,-0.5030845464497804,0.9719079268574714,0.6345544792257249
1789150641357625600,1.53162548828125,-0.026261399459838866,0.9324398398220538,0.623132556175068
1789150641367596500,1.541596435546875,0.4754980358660221,0.8449158701479434,0.48134281637147064
1789150641377567700,1.551567626953125,1.018716439783573,0.7810437019571661,0.1828440548508428
1789150641387538700,1.56153857421875,1.4202286174625158,0.7538070277243852,-0.24276058075102044
1789150641397510000,1.571510009765625,1.6560767702102661,0.8389668986156582,-0.6705680418930947
1789150641407480800,1.581480712890625,1.5985212378203868,0.9368041725113987,-0.8376061316564679
1789150641417451500,1.591451416015625,1.3295119892269371,0.9766744106069206,-0.6788255826286971
1789150641427422700,1.601422607421875,1.1797259169071912,0.9063719171077013,-0.3683670831199735
1789150641437393700,1.6113935546875,1.2049591423630714,0.7805413053929805,0.02457378886619117
1789150641447364900,1.62136474609375,1.4223323117434978,0.6158093006148934,0.35553459915164853
1789150641457335800,1.631335693359375,1.781569528272748,0.2542293203517794,0.7098657407976686
1789150641467306500,1.641306396484375,2.2161276509851215,-0.18527385754734277,0.9770023273870349
1789150641477277700,1.651277587890625,2.7403140221744775,-0.5936684882164001,1.1652319660000503
1789150641487248600,1.66124853515625,3.1852520846039054,-0.9526102289304137,1.2665598584905267
1789150641497219800,1.6712197265625,3.3918110145032405,-1.242097909668088,1.138359448904544
1789150641507190800,1.681190673828125,3.372016765230894,-1.4749553561672568,0.8656841520842165
1789150641517161700,1.69116162109375,3.0970471469283103,-1.5479171320036054,0.6638084846302866
1789150641527132700,1.701132568359375,2.4327017789423464,-1.3989721866831182,0.6157964411333203
1789150641537103600,1.711103515625,1.5635159754127264,-1.1483344610825181,0.8379881897766143
1789150641547074800,1.72107470703125,0.7708470098525285,-0.961169967482984,1.3162792904272675
1789150641557045800,1.731045654296875,0.2802402521818876,-0.7626479213058948,1.7267282232776284
1789150641567016700,1.7410166015625,0.2884749965637922,-0.5965630406141281,1.912820995992422
1789150641576987600,1.750987548828125,0.5509083738982677,-0.6362713661462068,1.8196143045067785
1789150641586958600,1.76095849609375,0.7339391286939382,-0.7350830380320549,1.4849521417856215
1789150641596929800,1.7709296875,0.7650304325282573,-0.7667261305302381,0.9777534380152821
1789150641606900700,1.780900634765625,0.5042009832590818,-0.704082627351582,0.4696313723223284
1789150641616871700,1.79087158203125,-0.08364508241415024,-0.5801964277029037,0.17161672279052434
1789150641626842600,1.800842529296875,-0.8003910842448473,-0.4147638734400272,0.014445654786005615
1789150641636813600,1.8108134765625,-1.5174036280572414,-0.2389896656438708,-0.2075770939659327
1789150641646784800,1.82078466796875,-2.1371897233486172,-0.1435381178408861,-0.35796427398398517
1789150641656755700,1.830755615234375,-2.604423204216361,-0.08910071747153997,-0.5271753969375044
1789150641666726700,1.8407265625,-2.868970212703943,-0.0015831775382161139,-0.7272426997952163
1789150641676697900,1.85069775390625,-2.9059003056943413,-0.010023965886235237,-0.8675737652231007
1789150641686668500,1.86066845703125,-2.8003222084134816,-0.18179653682559727,-1.0198575726427137
1789150641696639700,1.8706396484375,-2.6505980954140425,-0.5141726344361901,-1.0394786573052406
1789150641706610700,1.880610595703125,-2.4582448009997604,-0.8240519458174705,-1.1367196458082645
1789150641716582000,1.890581787109375,-2.280781032681465,-0.8014081523329019,-1.5410203582271933
1789150641726552800,1.900552734375,-2.1662989134550092,-0.8142600351214409,-1.568283628205955
1789150641736523500,1.9105234375,-2.1220494373619556,-0.9390893608391284,-1.1930118071988225
1789150641746494700,1.92049462890625,-2.0210744499623776,-0.9279609408423304,-0.8529588913500309
1789150641756465700,1.930465576171875,-1.8098136259824036,-0.6918561829850077,-0.5910554561737924
1789150641766436900,1.940436767578125,-1.5434785650342702,-0.45315702472031116,-0.24823073752410707
1789150641776407800,1.95040771484375,-1.3548241251379252,-0.2538043729379773,0.11628666616408154
1789150641786378500,1.96037841796875,-1.2020640054434537,-0.09080576782375574,0.3980748601740226
1789150641796349700,1.970349609375,-1.065211064454913,0.05856704751998186,0.5269160884141921
1789150641806321000,1.98032080078125,-1.0315285750836134,0.19499796370416878,0.5481659433223307
1789150641816292000,1.9902919921875,-1.137493041333556,0.3513216210991144,0.47236412175446746
1789150641826263000,2.000262939453125,-1.3312439275860786,0.5646843857944012,0.28281914449287576
1789150641836233700,2.010233642578125,-1.4928238980740307,0.802967072212696,0.12757946467604486
1789150641846205000,2.020204833984375,-1.5661130061686037,0.8863909130915999,0.23764519223235547
1789150641856175900,2.03017578125,-1.3618372187703847,1.207569032600522,-0.0685434662037529
1789150641866147000,2.04014697265625,-1.0149135403692722,1.31622814476192,-0.05488377416366711
1789150641876118000,2.050117919921875,-0.5191483770221471,1.2602750791326165,0.3746325001902878
1789150641886089000,2.0600888671875,0.011798574343323707,1.8989754259914158,0.26134929015850644
1789150641896060000,2.070059814453125,0.40867607795894145,2.3674577378764745,0.32929764001332223
1789150641906030800,2.08003076171875,0.827010795623064,2.462954293864965,0.7566567180670798
1789150641916002000,2.090001953125,1.1318594193607567,1.9603344423174858,1.3255461543358862
1789150641925973000,2.099972900390625,1.1201128674656151,1.859334320476651,1.4661299524158238
1789150641935944000,2.10994384765625,1.2471756513237953,1.9703426261126995,0.9941559990227222
1789150641945915000,2.119914794921875,1.3832465020239353,2.1012585782676934,0.5171119027584791
1789150641955885800,2.1298857421875,1.4518366386473178,2.1346663423508403,-0.05791925570231397
1789150641965857000,2.13985693359375,1.4030126942455767,2.1538310615479945,-0.7342015059571713
1789150641975828000,2.149827880859375,1.176055703961849,2.046453805890679,-1.0292731973722578
1789150641985799000,2.159798828125,0.8590893569290637,1.9403274270772932,-1.3235609718680381
1789150641995769900,2.169769775390625,0.30880642145276066,1.9774334611564874,-1.786989945886284
1789150642005740800,2.17974072265625,-0.26476269706487654,1.5886737975448368,-1.6352945328138768
1789150642015712000,2.1897119140625,-0.662455608716607,1.2751871093213558,-1.392899150379747
1789150642025683000,2.199682861328125,-0.5589046333491802,1.1253262181997299,-1.0295662620346993
1789150642035654100,2.209654052734375,0.3651964171946048,0.5539823745161294,0.04795728110242635
1789150642045625000,2.219625,1.9560902288764714,-0.16575637938976287,0.6524948442596942
1789150642055595800,2.229595703125,3.4803596510499712,-0.6020937867343426,0.5703457360243425
1789150642065567000,2.23956689453125,4.470285465157032,-1.0416866887435317,0.14920544115388765
1789150642075538000,2.249537841796875,4.470473096683621,-1.513590207248926,-0.39796317996047437
1789150642085509000,2.259509033203125,3.6261505162537095,-1.7399039311930535,-0.9686587888684123
1789150642095480000,2.26947998046875,2.5301392398655413,-1.5822162919685243,-1.3751222322791814
1789150642105450800,2.27945068359375,1.5891799935013056,-1.2848650382488964,-1.4938152471989392
1789150642115422000,2.289421875,0.8834370317220688,-1.0885691436886786,-1.269356503471732
1789150642125393000,2.299392822265625,0.38613282223939893,-1.1798995199084281,-0.8035113351572305
1789150642135364000,2.309364013671875,0.17430150489509105,-1.3988941530108452,-0.31182463676277544
1789150642145335000,2.3193349609375,0.14592998141348362,-1.6113976705282926,0.10379253817149438
1789150642155306000,2.329305908203125,0.1143722291111946,-1.7073820100337267,0.4594201037030667
1789150642165277000,2.33927685546875,0.0013075754672288893,-1.681444435700774,0.6244391817942261
1789150642175248000,2.349247802734375,-0.314117387342453,-1.64911277641654,0.5535454444035888
1789150642185219000,2.359218994140625,-0.9249000919669866,-1.60337364628762,0.3586885696705431
1789150642195190000,2.36918994140625,-1.5867577347904442,-1.4512050627455115,0.16043522089961915
1789150642205161000,2.379160888671875,-2.058261148062348,-1.1871741870865224,-0.018848351290938443
1789150642215132000,2.3891318359375,-2.220244438654184,-0.9595581483721732,-0.14790084309503435
1789150642225102800,2.399102783203125,-2.0881810700297354,-0.8004264478191733,-0.24406839368026703
1789150642235074000,2.409073974609375,-1.6908920630037783,-0.7434574831455946,-0.3365597034381702
1789150642245045000,2.419044921875,-1.2629343614697455,-0.7483195362240076,-0.34372510155551134
1789150642255016000,2.429015869140625,-0.9674158761352301,-0.7988534994140267,-0.3287723374975845
1789150642264987000,2.43898681640625,-0.79402622538805,-0.8934420006468892,-0.3277429213846102
1789150642274957800,2.448957763671875,-0.6972580420285462,-0.994359704901278,-0.2816792902753688
1789150642284929000,2.458928955078125,-0.6908055048882961,-1.0963666656970976,-0.19737459317501632
1789150642294900000,2.46889990234375,-0.686458415594697,-1.1310583321109413,0.011696593539882451
1789150642304871000,2.478870849609375,-0.6128665251612663,-0.7535600672259927,0.07510031310184859
1789150642314842000,2.488842041015625,-0.6802765120893717,-0.29213965655118224,0.09394876942406408
1789150642324812800,2.498812744140625,-0.7832552405267953,0.022781448389589787,0.14046151427398434
1789150642334784000,2.508783935546875,-0.9058739044576882,0.09758242235183716,0.14627506852410732
1789150642344755000,2.5187548828125,-1.1284545793533325,0.014749240842461585,0.050077150200074534
1789150642354726000,2.528725830078125,-1.326978086835146,-0.06325900472849608,-0.18599899348411708
1789150642364697000,2.538697021484375,-1.4314584520071745,-0.09147475312650204,-0.3986235435653478
1789150642374667800,2.548667724609375,-1.432367383545637,-0.07803133418560028,-0.48355307629946614
1789150642384639000,2.558638916015625,-1.354065415725112,-0.0516004233777523,-0.4768416324947029
1789150642394610000,2.56860986328125,-1.2904554056018591,0.0027267946153879162,-0.4271874112812802
1789150642404581000,2.5785810546875,-1.32154320230484,0.047772097261250014,-0.4467413855243474
1789150642414552000,2.588552001953125,-1.3909481624424456,0.09178221164047717,-0.45080392225552346
1789150642424522800,2.598522705078125,-1.3546417543083429,0.19726123246103525,-0.4508007804503664
1789150642434494000,2.608493896484375,-1.1839344745129345,0.2838417838051915,-0.4548607598982751
1789150642444465000,2.61846484375,-0.8351087618827819,0.30157851602584124,-0.3410575628466904
1789150642454436000,2.62843603515625,-0.3173877873152494,0.29811142443716526,-0.09267964453739114
1789150642464407000,2.638406982421875,0.30560967123806476,0.3058876113966107,0.24806294320914893
1789150642474378000,2.6483779296875,1.0482961700111626,0.45899727518111466,0.31301260443832724
1789150642484349000,2.658348876953125,1.6589543714731931,0.8629097920000552,-0.05175576006993651
1789150642494319900,2.66831982421875,1.9349878196150063,1.2586810879394412,-0.564182829480432
1789150642504291000,2.678291015625,1.8845973565489054,1.4197662606477737,-0.8309976733021438
1789150642514262000,2.688261962890625,1.6870616910606622,1.3242594755262136,-0.6868442731071264
1789150642524233000,2.69823291015625,1.471924317908287,1.1438576079294085,-0.24798123800875618
1789150642534204000,2.708203857421875,1.4468839846760033,1.0560898926272988,0.15493877890780566
1789150642544174800,2.7181748046875,1.6653350124210118,0.9172922473117708,0.6418967317473143
1789150642554146000,2.72814599609375,2.0206226145416495,0.6899921426787972,1.1107956616092474
1789150642564117000,2.738116943359375,2.4898142437398434,0.37876317025423045,1.3190356033980846
1789150642574088000,2.748087890625,2.9284166734069585,0.011599252378940581,1.2511515692174433
1789150642584058000,2.75805810546875,3.094499800533056,-0.3500602228611707,0.9243093595322222
1789150642594029800,2.76802978515625,3.049681584641337,-0.6453989677146077,0.6080566406615078
1789150642603999700,2.777999755859375,2.847425904893875,-0.8116644656702876,0.34112825346272435
1789150642613971000,2.787970947265625,2.3508938488274813,-0.780003252993524,0.34789844171740114
1789150642623942000,2.79794189453125,1.612715182867646,-0.5263575777485966,0.7142530159711837
1789150642633913000,2.8079130859375,1.050430843952298,-0.13872428781837223,1.268994976682961
1789150642643884000,2.817884033203125,0.6670107878029347,0.1894353611409664,1.7684858825549483
1789150642653854700,2.827854736328125,0.4351794694811105,0.4559095382988453,1.9003074052475393
1789150642663826000,2.837825927734375,0.4619418042004108,0.4231783583030104,1.6095632947079836
1789150642673796900,2.847796875,0.6116121411859988,0.015354805520176887,1.0277268447130918
1789150642683768000,2.85776806640625,0.6823755301952361,-0.457970854742825,0.3770236331105232
1789150642693739000,2.867739013671875,0.6549053394675255,-0.7606693147093058,-0.30933355059940365
1789150642703710000,2.8777099609375,0.47666415703594683,-0.8634107272595166,-0.8006386292651295
1789150642713681000,2.887680908203125,0.18393325659334658,-0.7339826755747199,-1.0143649665758012
1789150642723651800,2.89765185546875,-0.17315116581618784,-0.5039966928586364,-1.0805527912978081
1789150642733623000,2.907623046875,-0.5808902551859617,-0.2884957470908761,-1.040968019080162
1789150642743594000,2.917593994140625,-1.0052221674382686,-0.18097966748476027,-0.852152470337972
1789150642753565000,2.92756494140625,-1.3520739496469496,-0.09778758953511714,-0.6310893603984267
1789150642763536000,2.937535888671875,-1.6127525922685861,-0.013732172754406928,-0.489519254694879
1789150642773506800,2.9475068359375,-1.8749264418840408,-0.026436171504855156,-0.44121085859984155
1789150642783478000,2.95747802734375,-2.1412316922158,-0.11213117218613623,-0.4858026453245431
1789150642793449000,2.967448974609375,-2.342066983771324,-0.2660653040960431,-0.6366580273762344
1789150642803420000,2.977419921875,-2.476599372857809,-0.463086590321362,-0.80136036766842
1789150642813390800,2.987390869140625,-2.5792297262489794,-0.6589911474764347,-0.9358905647978186
1789150642823361800,2.99736181640625,-2.627183317556977,-0.81546444247514,-1.0016012004621326
1789150642833333000,3.0073330078125,-2.637686591392755,-0.8938488278821111,-0.9324494844332337
1789150642843304000,3.017303955078125,-2.5956822638779875,-0.8659370308667421,-0.746357369305566
1789150642853275000,3.02727490234375,-2.5626409950196742,-0.7945116708174348,-0.5678547959914431
1789150642863246000,3.03724609375,-2.5221190150171515,-0.6517354772597551,-0.4255564125459641
1789150642873216800,3.047216796875,-2.397571428850293,-0.4742828148573637,-0.27361380151314657
1789150642883188000,3.05718798828125,-2.2284669080764052,-0.309065072388947,-0.10699064922621473
1789150642893159000,3.067158935546875,-2.061874077862501,-0.13364771520644425,0.14167184904497115
1789150642903129900,3.0771298828125,-1.8335411230504512,0.06811959650218487,0.35548338042106475
1789150642913101000,3.08710107421875,-1.5153642311841249,0.27197686622738837,0.5505022773154079
1789150642923071700,3.09707177734375,-1.1987228783220052,0.4740238716602325,0.6848904356256127
1789150642933043000,3.10704296875,-0.9419383205294608,0.6796300308793782,0.7404406926076859
1789150642943014000,3.117013916015625,-0.734137281614542,0.8917349044680595,0.7546828607108443
1789150642952984800,3.12698486328125,-0.46988779476881026,1.1205910063713789,0.7621297426506877
1789150642962956000,3.1369560546875,-0.17102233709394932,1.3598764400914312,0.8161007676173001
1789150642972927000,3.146927001953125,0.1580868676751852,1.534653745804727,0.8847278752502054
1789150642982898000,3.15689794921875,0.5800269163548946,1.6280857704788445,0.9294586320541799
1789150642992868900,3.166868896484375,1.1034721137881278,1.7053899594336748,0.9397799734517931
1789150643002839800,3.17683984375,1.6624761158585548,1.7831801783397794,0.8978651508513837
1789150643012811000,3.18681103515625,2.2780238429278135,1.8366639312461017,0.7715667024292051
1789150643022782000,3.196781982421875,2.8561399572253228,1.7437351799190044,0.49353024390190836
1789150643032753000,3.2067529296875,3.2130110291451213,1.5936808120518922,-0.010262213355209679
1789150643042723800,3.216723876953125,3.2588632642596957,1.5071400081962345,-0.6428896152421831
1789150643052694800,3.22669482421875,2.9997511403024193,1.5364417982652783,-1.154986174056679
1789150643062666000,3.236666015625,2.434748774600029,1.6950231714591384,-1.3638849450804293
1789150643072637000,3.246636962890625,1.6503490402132273,1.8762930540621279,-1.2560399257808923
1789150643082607900,3.25660791015625,0.9058400021880865,2.0282190610200166,-0.8053856045965104
1789150643092578800,3.266578857421875,0.4667518348306417,2.0449556762874126,-0.125352436276339
1789150643102550000,3.276550048828125,0.5229471847832202,1.894437490300834,0.51847150067389
1789150643112521000,3.28652099609375,1.2771341517359018,1.6655486551716923,0.9365160032197832
1789150643122492000,3.296491943359375,2.4639590869933365,1.1498495418205856,0.9488475153960287
1789150643132463000,3.306463134765625,3.4078643236815926,0.4650570136114955,0.5548647833738476
1789150643142433800,3.316433837890625,3.8019542424052952,-0.1567597107246518,-0.2316580806467682
1789150643152405000,3.326405029296875,3.3878456180036065,-0.6206576174288988,-1.2596329818367957
1789150643162376000,3.3363759765625,2.333988306733966,-0.8308040504261851,-2.0885328060768544
1789150643172347000,3.346346923828125,1.1239677893280982,-0.676452569887042,-2.5476152753233907
1789150643182318000,3.356318115234375,0.11444763243496417,-0.2580816118657589,-2.7361580715388056
1789150643192288800,3.366288818359375,-0.7845990563511848,0.009768822081387043,-2.5605215186476706
1789150643202260000,3.376260009765625,-1.5671172147750854,-0.007241933952271938,-2.1111736769519744
1789150643212231000,3.38623095703125,-1.5927414853751658,-0.14331716856658458,-1.306930739584565
1789150643222201900,3.396201904296875,-0.5973071369796991,-0.4655716851353645,-0.32872415097430346
1789150643232173000,3.406173095703125,0.5424111791878938,-0.9309522316128015,0.3336829789580777
1789150643242143700,3.416143798828125,1.3551046956449746,-1.5397057684972881,0.6769527014289051
1789150643252115000,3.426114990234375,1.8388205247581004,-2.1504536940693852,0.6527052721399813
1789150643262086000,3.4360859375,1.8598814329653977,-2.60969354583472,0.25102526361346245
1789150643272056800,3.446056884765625,1.4999053807675837,-2.954396333315968,-0.3346010801836848
1789150643282028000,3.456028076171875,0.9665092826843261,-3.0106895906850695,-0.8750148019440471
1789150643291999000,3.4659990234375,0.3764017018198967,-2.7646280869588256,-1.241111236718297
1789150643301970000,3.475969970703125,-0.3199415634512901,-2.418489713716507,-1.2127389825843273
1789150643311940900,3.48594091796875,-1.0695336038291454,-2.070378579096496,-1.0050499526765198
1789150643321911800,3.495911865234375,-1.7396452802568674,-1.6991124865993856,-0.781387473893538
1789150643331883000,3.505883056640625,-2.269545937439799,-1.3533116747483611,-0.5816773139104247
1789150643341854000,3.51585400390625,-2.5589544154614208,-1.0649378004714847,-0.39453620118647814
1789150643351825000,3.525824951171875,-2.734216289821267,-0.897472571337223,-0.17135412633158265
1789150643361795800,3.5357958984375,-2.8091864828705786,-0.8771089977443217,0.08422199638611637
1789150643371766800,3.545766845703125,-2.835055668142438,-0.86586630371809,0.24976076010297982
1789150643381738000,3.555738037109375,-2.8548779744654893,-0.833165226599574,0.2862732852684334
1789150643391709000,3.565708984375,-2.787397260388732,-0.7615186250150203,0.19907027291068807
1789150643401680000,3.575679931640625,-2.7618460550248622,-0.6836024416416883,0.023531901430711148
1789150643411650800,3.58565087890625,-2.7871014923125506,-0.6317506738513707,-0.17530560390371827
1789150643421621800,3.595621826171875,-2.732767260056734,-0.5608756411612034,-0.27250763036953285
1789150643431593000,3.605593017578125,-2.530474170908332,-0.5142191039264202,-0.29073063000347465
1789150643441564000,3.61556396484375,-2.2178864773511884,-0.5098959800302982,-0.3491363129492849
1789150643451535000,3.62553515625,-1.9064391860008238,-0.5348118101000785,-0.37758101126495747
1789150643461505800,3.635505859375,-1.5991969451248644,-0.5177718279719352,-0.39272725206837056
1789150643471476700,3.645476806640625,-1.377241708651185,-0.3952747445940971,-0.4113689703047275
1789150643481448000,3.655447998046875,-1.2695248457759618,-0.24142507609724997,-0.38894400720261035
1789150643491419000,3.6654189453125,-1.1594348240286112,-0.09698445645868778,-0.2891339353965595
1789150643501390000,3.67539013671875,-1.0687965217262505,-0.008662614405155181,-0.0812626716564875
1789150643511360800,3.68536083984375,-0.7777256634503602,0.09111527216434478,0.13284328522207214
1789150643521332000,3.69533203125,-0.2695779883921146,0.1816103666037321,0.2829312996304594
1789150643531303000,3.705302978515625,0.35088849037885667,0.21485271099209785,0.30883528222106393
1789150643541273900,3.71527392578125,0.904106310263276,0.24396131657660006,0.24494192511178553
1789150643551245000,3.7252451171875,1.3336556649029254,0.3580108896046877,0.07226637745071202
1789150643561216000,3.735216064453125,1.6148393354147672,0.6166068807333708,-0.20754750254526733
1789150643571187000,3.74518701171875,1.6649790385901928,1.0115262360185384,-0.4990467788336798
1789150643581158000,3.755157958984375,1.4410779287457465,1.380611477345228,-0.6216442903786897
1789150643591128800,3.76512890625,1.1029992355793714,1.4687304903030394,-0.2520732200301252
1789150643601100000,3.77510009765625,0.8941267680406569,1.9614853659182785,-0.07079467919664457
1789150643611071000,3.785071044921875,0.8326046701073646,2.607951962864399,0.12623652563448995
1789150643621042000,3.7950419921875,0.8870482079565525,2.929487517508864,0.5805376058233902
1789150643631012900,3.805012939453125,1.146217615059018,2.541737907722592,1.5436917693935335
1789150643640983800,3.81498388671875,1.542163975304365,1.722012008410692,2.5584984883874653
1789150643650955000,3.824955078125,2.048477420672774,1.1603852566212416,2.7677932729914785
1789150643660926000,3.834926025390625,2.7144319774210453,0.5036024328440427,2.7872119669497013
1789150643670897000,3.84489697265625,3.420581766435504,-0.14100304640531539,2.6419232060492037
1789150643680867800,3.854867919921875,3.9667923379063605,-0.6880395473062991,2.2510987188622353
1789150643690838800,3.8648388671875,4.103818881896138,-1.0830746379256249,1.6240167674742638
1789150643700810000,3.87481005859375,3.8221500582158563,-1.2934306220203637,1.0866529348038136
1789150643710781000,3.884781005859375,3.1390555660963058,-1.2142547939747572,0.8335548104390501
1789150643720752000,3.894752197265625,2.218285121279955,-0.8419494215577841,0.9747651429194957
1789150643730722800,3.904722900390625,1.410688635700941,-0.4346574914336204,1.298466716491431
1789150643740693800,3.91469384765625,0.8911842848479747,-0.09771686238646507,1.5658561087980865
1789150643750665000,3.9246650390625,0.49795478234589097,0.08825228394865989,1.6126003243163227
1789150643760636000,3.934635986328125,0.20848726761341094,-0.0009416647642850875,1.4746850147932766
1789150643770607000,3.944607177734375,0.02394552373290062,-0.26353753918409345,1.1666688669353722
1789150643780577800,3.954577880859375,-0.2202361575961113,-0.47184302048981186,0.7513449484597892
1789150643790548700,3.964548828125,-0.5632587369054556,-0.5029612123310566,0.2791658644160256
1789150643800519700,3.974519775390625,-0.9849719910919665,-0.4093313269972801,-0.1466110955454409
1789150643810491000,3.984490966796875,-1.4264321482777595,-0.3459855207681656,-0.4815388869328424
1789150643820460800,3.994460693359375,-1.8636819942921399,-0.34936639537811276,-0.7454025527987629
1789150643830431700,4.004431640625,-2.239393375760317,-0.329720030143857,-0.926798765195161
1789150643840403000,4.01440283203125,-2.5039877305209637,-0.31600597756803034,-1.0037970300059764
1789150643850373600,4.02437353515625,-2.5863018565922973,-0.32739480206668375,-1.0033418335843831
1789150643860344800,4.0343447265625,-2.554988434439897,-0.36838615314662454,-0.9301480756230652
1789150643870315800,4.044315673828125,-2.5118361059337855,-0.4319967477917671,-0.8299945606742054
1789150643880286700,4.05428662109375,-2.4038515320330855,-0.5590887577444315,-0.7923189100135117
1789150643890258000,4.0642578125,-2.171801602524519,-0.6889391264945268,-0.7728666060466319
1789150643900228900,4.074228759765625,-1.9115040681749582,-0.8611322609335184,-0.7010194403886795
1789150643910199800,4.08419970703125,-1.687908663278818,-1.0362094263762236,-0.6163572898864745
1789150643920170800,4.094170654296875,-1.6128250729829072,-1.1208680697470903,-0.5817912226136773
1789150643930141700,4.1041416015625,-1.6371517049878834,-1.1431734250575303,-0.526958648914285
1789150643940113000,4.11411279296875,-1.6640356202602387,-1.085817799153924,-0.5255814422769471
1789150643950083800,4.124083740234375,-1.6843460023611783,-0.9974433501303195,-0.4866224007422104
1789150643960054800,4.1340546875,-1.6910013685971497,-0.8758931922137737,-0.34985593246072527
1789150643970025700,4.144025634765625,-1.6997019769251345,-0.7474450914770364,-0.1991844190759584
1789150643979996700,4.15399658203125,-1.724886102542281,-0.5843956329584121,-0.05844563136370852
1789150643989968000,4.1639677734375,-1.7540952458918093,-0.3953238444328308,0.08864452553610316
1789150643999938800,4.173938720703125,-1.8153250828802585,-0.19725392593741417,0.1424568802091293
1789150644009909800,4.18390966796875,-1.850188306468725,0.10065583844780922,0.04315696814861148
1789150644019880700,4.193880615234375,-1.8367244292616842,0.4813134441465139,-0.12573853125078602
1789150644029851600,4.2038515625,-1.7267723546802995,0.821191880211234,-0.3223312350668013
1789150644039822800,4.21382275390625,-1.5232546921730041,1.0862374858707189,-0.4188601663103327
1789150644049793800,4.223793701171875,-1.1696961058020592,1.233628772008419,-0.47650849155019964
1789150644059764700,4.2337646484375,-0.7048533194631338,1.3208973056167364,-0.43825098588094114
1789150644069735700,4.243735595703125,-0.2603881352424621,1.4258575632601975,-0.44518096780721095
1789150644079706600,4.25370654296875,0.25545827762484546,1.5044114600151777,-0.5112859730839729
1789150644089677800,4.263677734375,0.8417325639367103,1.5762053611159323,-0.5885705440228804
1789150644099648800,4.273648681640625,1.5001403585672377,1.643531176891923,-0.7671255781766027
1789150644109620000,4.283619873046875,2.049353034463525,1.7044950564205645,-1.0432770266748965
1789150644119590700,4.293590576171875,2.497533439815044,1.8327350673645735,-1.354633863262832
1789150644129561900,4.303561767578125,2.7745512228190896,1.907850806364417,-1.6009506569243968
1789150644139532800,4.31353271484375,2.637318342602253,1.7834931898117063,-1.6059446658194063
1789150644149503700,4.323503662109375,2.0153040498673915,1.5991507678955792,-1.416965377882868
1789150644159475000,4.333474853515625,1.2452864765763283,1.4871733249664305,-1.1260597201060503
1789150644169445600,4.343445556640625,0.6737292824029922,1.5317185691356658,-0.7140484333097934
1789150644179416800,4.353416748046875,0.7456950329393148,1.6853695001900195,-0.25283538177534937
1789150644189387800,4.3633876953125,1.8686995301932094,1.6210808601528406,0.2962141029158607
1789150644199358700,4.373358642578125,3.4845588563054797,1.1848492512702942,0.6118938807368278
1789150644209330000,4.383329833984375,4.6656303426027295,0.5003174198240041,0.4289724315345287
1789150644219300900,4.39330078125,4.929484692651033,-0.26481939568817614,-0.14032507407851516
1789150644229271800,4.403271728515625,4.171249327090383,-0.9147925394505262,-0.9753519298315048
1789150644239242800,4.41324267578125,2.697921572124958,-1.120914831498265,-1.7059059461317956
1789150644249213700,4.423213623046875,1.227009646129608,-0.9247767578482627,-2.101079276178032
1789150644259185000,4.433184814453125,0.1789355944365263,-0.6131500182777643,-2.2611975035503504
1789150644269155800,4.44315576171875,-0.3163543526142835,-0.3019815438687801,-2.3316066722944377
1789150644279126800,4.453126708984375,-0.3878945712149143,-0.23973580783605575,-2.04076348529458
1789150644289097700,4.46309765625,0.0259200386762619,-0.6430325308442115,-1.2311138665780423
1789150644299068700,4.473068603515625,0.6645312459468841,-1.176871111997962,-0.6398074313178658
1789150644309039900,4.483039794921875,1.1377648440122603,-1.6801082186609506,-0.4157769229400903
1789150644319010800,4.4930107421875,1.3298042501717806,-2.190796225851774,-0.22860559774097053
1789150644328981800,4.502981689453125,1.2962567853569984,-2.5882301943063735,-0.190551871015504
1789150644338952700,4.51295263671875,0.9378390685170889,-2.837218399134278,-0.31182408877350387
1789150644348923600,4.522923583984375,0.3084258977025747,-2.9479414580881595,-0.4509051176076755
1789150644358894800,4.532894775390625,-0.4265151015102863,-2.836789360067248,-0.49582485764510925
1789150644368865800,4.54286572265625,-1.1583821001052856,-2.451142275518179,-0.44473979991097
1789150644378837000,4.5528369140625,-1.8138988494694233,-2.0128958196818827,-0.2744341962516308
1789150644388807700,4.5628076171875,-2.392403670823574,-1.635692153829336,-0.05182962445716839
1789150644398778600,4.572778564453125,-2.910758267119527,-1.2707307144343851,0.07225097438560332
1789150644408749800,4.582749755859375,-3.256746710497141,-0.9882973361223936,0.11957460179356857
1789150644418720800,4.592720703125,-3.383956793871522,-0.7585007384985685,0.10774117533257231
1789150644428692000,4.60269189453125,-3.288699015074968,-0.602587123209238,0.0010481436463305727
1789150644438662700,4.61266259765625,-3.182108525881171,-0.4998743522316217,-0.16406440771482883
1789150644448632800,4.6226328125,-3.0145500655055044,-0.4393512022078037,-0.28945892956722524
1789150644458603800,4.632603759765625,-2.782113767027855,-0.37807577251195906,-0.24634888756657017
1789150644468574700,4.64257470703125,-2.5106927811175583,-0.2781698756486177,-0.17808221074389294
1789150644478546000,4.6525458984375,-2.110000687649846,-0.13054361171126364,-0.13873670890852807
1789150644488516900,4.662516845703125,-1.6718898408919571,-0.006076689565181732,-0.11635429717334918
1789150644498487800,4.67248779296875,-1.3326760062158107,0.04666238245368003,-0.0743152636713814
1789150644508458800,4.682458740234375,-1.092365613362193,0.06094166769683361,-0.10277073910939506
1789150644518429700,4.6924296875,-0.8023392957031726,0.06269874049723148,-0.19474634529696777
1789150644528401000,4.70240087890625,-0.4398468767702579,0.09413140511512756,-0.27819809709610416
1789150644538371800,4.712371826171875,-0.09860708922445774,0.1316699853926897,-0.4128714838221669
1789150644548342800,4.7223427734375,0.07611176429986953,0.17074059754312038,-0.5592472727743908
1789150644558313700,4.732313720703125,0.025645313388109204,0.2357201424539089,-0.6221159995436668
1789150644568284700,4.74228466796875,-0.18168986158072947,0.4171294335275888,-0.5236324636336416
1789150644578256000,4.752255859375,-0.2585164961516857,0.6866986540913581,-0.23398889821451155
1789150644588226800,4.762226806640625,0.023100889602303505,0.8921323793530463,0.23891714839693157
1789150644598197800,4.77219775390625,0.43113925417959686,1.0817641398489475,0.7127669421318918
1789150644608169000,4.7821689453125,0.8971949234396219,1.3045225093990565,1.0498458836711944
1789150644618139600,4.7921396484375,1.4323983632057904,1.422678933224082,1.2502705485992134
1789150644628110800,4.80211083984375,1.943598996093869,1.4639748202085494,1.1764993560761212
1789150644638081800,4.812081787109375,2.46413911973536,1.4963509031563997,0.8627828046195208
1789150644648052700,4.822052734375,2.8490099592149254,1.5133336021393538,0.6032071548037231
1789150644658024000,4.83202392578125,2.9394091920644043,1.5475205339014528,0.38992088941074904
1789150644667994600,4.84199462890625,2.752625806736946,1.6505787573158741,0.3485153315067291
1789150644677965800,4.8519658203125,2.39668237105608,1.8437977286487817,0.44088929849527775
1789150644687936800,4.861936767578125,1.961853614708781,2.0502707338303328,0.6907773017071187
1789150644697907700,4.87190771484375,1.5990426313459871,2.146014250317216,1.239807460643351
1789150644707879000,4.88187890625,1.6052210277199743,2.1172417448192835,1.8840414762318134
1789150644717849900,4.891849853515625,2.142037747901678,1.877244071176648,2.4104351482070983
1789150644727820800,4.90182080078125,2.9105963545560836,1.2693272773772477,2.7138816500619054
1789150644737791700,4.911791748046875,3.633486850491166,0.5170087346449495,2.677251416800916
1789150644747762700,4.9217626953125,4.105231086781621,-0.25481851841658354,2.327960424746573
1789150644757734000,4.93173388671875,4.189175444403291,-0.9407429732650517,1.7077902985736726
1789150644767704800,4.941704833984375,3.8587119024157523,-1.521456995101273,1.097373504652083
1789150644777675800,4.95167578125,3.137246470847726,-1.7972686171859502,0.671066858260706
1789150644787646700,4.961646728515625,1.9278017075031995,-1.5520695755079388,0.5102601371675729
1789150644797617700,4.97161767578125,0.5689478884577751,-0.9977014165446162,0.6852064427722245
1789150644807588600,4.981588623046875,-0.5179395857542753,-0.3794324478179216,0.9818515209838747
1789150644817559600,4.9915595703125,-1.10738490331769,0.11530571056902408,1.3223838909126817
1789150644827530500,5.001530517578125,-1.2702484838753938,0.31097441314160823,1.4792149133078754
1789150644837500700,5.011500732421875,-1.1394359920948742,0.07665244704782963,1.3603382123842835
1789150644847471400,5.021471435546875,-0.9084528150349855,-0.43944531023204325,1.0325612060669809
1789150644857442600,5.031442626953125,-0.8067541895359754,-0.8438505790039896,0.5631495043773204
1789150644867413500,5.04141357421875,-0.857766583892703,-1.1230670410960912,-0.0025810112028382716
1789150644877384400,5.051384521484375,-1.060928857091069,-1.3290332657992838,-0.48455421616602684
1789150644887355600,5.061355712890625,-1.3666829052358864,-1.4494874451726674,-0.8659590965680778
1789150644897326600,5.07132666015625,-1.752258678114414,-1.4906810408264397,-1.1524753602795301
1789150644907297500,5.081297607421875,-2.1254303119719027,-1.4470391752377152,-1.300123397657275
1789150644917268500,5.0912685546875,-2.4488638091921806,-1.3442322962358593,-1.230538404777646
1789150644927239400,5.101239501953125,-2.6458511931478976,-1.2212632114320994,-0.9159927090205252
1789150644937210600,5.111210693359375,-2.7172750918924806,-1.0708479012981056,-0.5316478661764413
1789150644947181600,5.121181640625,-2.727914559328556,-0.8946969691440463,-0.2832722402889281
1789150644957152500,5.131152587890625,-2.6648861484855413,-0.7789674802049994,-0.13212390317264944
1789150644967123500,5.14112353515625,-2.5032512329399585,-0.8212588079676032,-0.03810662595648318
1789150644977094700,5.1510947265625,-2.3577228180646896,-0.9095707131490111,-0.05502396808564663
1789150644987065600,5.161065673828125,-2.230574694010615,-0.9816326175361871,-0.13803119098767638
1789150644997036500,5.17103662109375,-2.17038238337636,-1.0440385125666856,-0.17436017627976833
1789150645007007500,5.181007568359375,-2.123083456584811,-1.0372969293519854,-0.17936269727479665
1789150645016978400,5.190978515625,-2.0681839916616678,-0.9338926689788699,-0.18461827971544115
1789150645026949600,5.20094970703125,-1.953933343103528,-0.7670230676501989,-0.12404935432113706
1789150645036920600,5.210920654296875,-1.8097230250895022,-0.5451014411851763,0.05744808996003121
1789150645046891500,5.2208916015625,-1.671983364394307,-0.2309066046923399,0.32285127688553183
1789150645056862700,5.23086279296875,-1.5543202770441769,0.1384329036563635,0.6621601329013704
1789150645066833400,5.24083349609375,-1.437811620426178,0.49244332544803615,0.9730334237560629
1789150645076804600,5.2508046875,-1.26419400614202,0.8399030104219913,1.1876649662781507
1789150645086775600,5.260775634765625,-0.9645891282767057,1.0910065999686718,1.2426397614598272
1789150645096746500,5.27074658203125,-0.6043617316663265,1.169091710168123,1.1846810550965368
1789150645106717700,5.2807177734375,-0.2503986561477184,1.1031184780448675,1.0942674283955245
1789150645116688400,5.2906884765625,0.1456511644721031,1.0190905337929725,0.9687444943904876
1789150645126659600,5.30065966796875,0.5737982510983943,0.9993363242700696,0.7932070910248905
1789150645136630500,5.310630615234375,0.9890396789222955,0.9625976621985435,0.6000222411572933
1789150645146600400,5.320600341796875,1.4207155241966247,0.9773220608606934,0.4076197007738054
1789150645156571600,5.330571533203125,1.8670763129055499,1.0689052427977324,0.07771342734284699
1789150645166542600,5.34054248046875,2.146929027074575,1.241676469385624,-0.3969892934270203
1789150645176513500,5.350513427734375,2.2407184868842362,1.4512509477138518,-0.9269590703234076
1789150645186484500,5.360484375,2.135782779160142,1.648771707893908,-1.3550019659228623
1789150645196455400,5.370455322265625,1.8567969109535216,1.819576018323004,-1.391076172736287
1789150645206426600,5.380426513671875,1.5083984838247297,1.876679130770266,-1.084338301185891
1789150645216397600,5.3903974609375,1.1965145546227693,1.9252295189276336,-0.48029243053570386
1789150645226368500,5.400368408203125,1.1863128940820693,2.0076029739707706,0.2387107756372541
1789150645236339500,5.41033935546875,1.7632032659769057,1.9671812394723296,0.8867997130881995
1789150645246310400,5.420310302734375,2.85608851929903,1.5506377891391514,1.2149286015830933
1789150645256281600,5.430281494140625,4.03854006177783,0.921534707187116,0.913566650917381
1789150645266252500,5.44025244140625,4.93273521887958,0.2060930659532547,0.18005824179090557
1789150645276223500,5.450223388671875,5.201806426793336,-0.500390485060215,-0.8231343195158988
1789150645286194700,5.460194580078125,4.726156415235996,-0.9669669633239507,-1.677701157519221
1789150645296165400,5.470165283203125,3.582972468784451,-0.9444467962190508,-2.2297364896208047
1789150645306136600,5.480136474609375,2.085463043242693,-0.5013371182605624,-2.3086191799387334
1789150645316107500,5.490107421875,0.6496265222817659,-0.013858721743524073,-2.0334116612270474
1789150645326078700,5.50007861328125,-0.5515151076197624,0.4867337156295776,-1.63577807854712
1789150645336049700,5.510049560546875,-1.387473179808259,0.9019067543923854,-1.098347098924592
1789150645346020400,5.520020263671875,-1.892777740395069,1.0212842444449663,-0.5339768205806613
1789150645355991600,5.529991455078125,-2.077764305433631,0.899634133285284,-0.08461845749095082
1789150645365962500,5.53996240234375,-1.9717618452608585,0.5094944134920835,0.1634140175146982
1789150645375933700,5.54993359375,-1.6917536482691764,-0.11316402236521243,0.037840303170494735
1789150645385904600,5.559904541015625,-1.400350781559944,-0.69046239053905,-0.28515239147972316
1789150645395875300,5.569875244140625,-1.1405050826311112,-1.0945300979197026,-0.7480061594258993
1789150645405846500,5.579846435546875,-0.9705682026863097,-1.4274351878404616,-1.1130644833240657
1789150645415816400,5.58981640625,-0.9155074097216129,-1.6350985718503595,-1.2232642490562051
1789150645425787400,5.599787353515625,-0.7988263191461563,-1.6872598439812658,-1.1305530129373074
1789150645435758600,5.609758544921875,-0.5650339298844337,-1.6204694502562285,-0.9214213099405169
1789150645445729500,5.6197294921875,-0.3026397155165672,-1.5522887712165712,-0.5705134572740644
1789150645455700700,5.62970068359375,0.06085632750093937,-1.4521303608968854,-0.2653499223683029
1789150645465671400,5.63967138671875,0.36437808654904363,-1.4000108820810913,-0.06739025931432843
1789150645475642400,5.649642333984375,0.35682547921240326,-1.4192904598295688,0.012247267958894371
1789150645485613600,5.659613525390625,0.06867664586305618,-1.4311241054862738,0.013257540979981422
1789150645495584500,5.66958447265625,-0.46223114253580566,-1.3002832643941045,0.010219050066918135
1789150645505555700,5.6795556640625,-1.0815805999755859,-1.0700053129941225,0.07572930432092398
1789150645515526700,5.689526611328125,-1.6490817967563867,-0.8257955746144056,0.18205898715406654
1789150645525497300,5.699497314453125,-2.209064872992039,-0.5930541557103395,0.4205232406843453
1789150645535468500,5.709468505859375,-2.690581146234274,-0.3093582101166248,0.768252390249446
1789150645545439500,5.719439453125,-2.8885090259104964,0.02805588166117668,1.0173612988475709
1789150645555410700,5.72941064453125,-2.8790654902607202,0.27964287081062794,1.1105040582515298
1789150645565381600,5.739381591796875,-2.666673031902313,0.3513976089447737,1.0082313591916114
1789150645575352300,5.749352294921875,-2.250971000829339,0.24906419267356394,0.7809409722350538
1789150645585323500,5.759323486328125,-1.6912380999624728,0.09026771542429923,0.4864832479998469
1789150645595294500,5.76929443359375,-1.3378729903370141,-0.07592413277328014,0.09367430899739265
1789150645605265700,5.779265625,-1.272646777188778,-0.17509996179640291,-0.4774882963677868
1789150645615236600,5.789236572265625,-1.7315619270443916,-0.2483206808298826,-0.843801844491437
1789150645625207600,5.79920751953125,-1.690517968994379,0.16288462334573267,-1.6077534688070416
1789150645635178500,5.809178466796875,-1.8349322851479053,0.7827800242304801,-1.9299862119354307
1789150645645149400,5.8191494140625,-2.0974317134559155,1.0817378363639116,-1.5716514972038567
1789150645655120600,5.82912060546875,-2.0278052195221186,1.4340975683391093,-0.9218363204821943
1789150645665090600,5.839090576171875,-1.3122744387000798,1.8545201981931925,-0.2223188821543008
1789150645675061500,5.8490615234375,-0.1691711562693119,2.02368083306849,0.2899588784459978
1789150645685032700,5.85903271484375,1.2392641475468873,1.7437369334846733,0.8370501782741397
1789150645695003400,5.86900341796875,2.7774785084426403,1.4222136537998913,1.1730894015021622
1789150645704974600,5.878974609375,4.178188770964741,1.4109697907298802,0.8622973591901362
1789150645714945500,5.888945556640625,5.0757431753665205,1.1603086842536925,0.49709538903757927
1789150645724916500,5.89891650390625,5.419941812717914,0.7685550995230674,0.23804175380188972
1789150645734887700,5.9088876953125,5.28663925768733,0.4310767103374004,-0.011611509072314946
1789150645744858600,5.918858642578125,4.746597730240225,0.5186386739343405,-0.25601052294643595
1789150645754829600,5.92882958984375,3.8985745417267084,1.019926984617114,-0.1372105222545564
1789150645764800500,5.938800537109375,2.945655977499485,1.7296745058625935,0.38282019056007266
1789150645774771500,5.948771484375,2.101785817012191,2.343313184440136,1.1018741770721971
1789150645784742700,5.95874267578125,1.5683593237906694,2.5628169361084696,1.8135778008215129
1789150645794713600,5.968713623046875,1.4821709866344928,2.2092589342594144,2.2400657220639286
1789150645804684800,5.978684814453125,1.863870210340619,1.248968379959464,2.200523400748521
1789150645814655700,5.98865576171875,2.494959789934754,0.142331664660573,1.7543059660330413
1789150645824626700,5.998626708984375,2.8077614185035227,-0.8706132059842348,0.9912967371340841
1789150645834598000,6.008597900390625,2.6169606142282484,-1.7408137395143508,0.2960708950528875
1789150645844568800,6.01856884765625,1.953416625753045,-2.2474644540131092,-0.20529219789914785
1789150645854539800,6.028539794921875,0.9398749582588672,-2.297846149250865,-0.47954855336584146
1789150645864510700,6.0385107421875,-0.2900485294908285,-2.0629069280415773,-0.40551735819969326
1789150645874481700,6.048481689453125,-1.452343419125676,-1.6400275526851416,0.057956678802985696
1789150645884452900,6.058452880859375,-2.217878878566623,-1.1416712038010357,0.6922180750999599
1789150645894423800,6.068423828125,-2.6314380523920056,-0.8672375920712947,1.2054239833958447
1789150645904394800,6.078394775390625,-2.8355951818466183,-0.8758972838670015,1.4024788796298204
1789150645914365700,6.08836572265625,-2.754106400683522,-0.9938117156296968,1.185030745317042
1789150645924335600,6.098335693359375,-2.443592006269097,-1.2234393864274025,0.7983490570232271
1789150645934306800,6.108306884765625,-2.1069623428672553,-1.4230571188867092,0.383514858293347
1789150645944277800,6.11827783203125,-1.8340671927511691,-1.4572732767432928,-0.03732552204877138
1789150645954249000,6.1282490234375,-1.6372423058807848,-1.423407832020521,-0.43056985679380594
1789150645964220000,6.138219970703125,-1.6460294234484434,-1.335569974091649,-0.6851166455969214
1789150645974190600,6.148190673828125,-1.816015987753868,-1.2161691031634807,-0.7563358155496418
1789150645984161800,6.158161865234375,-2.0857833612382413,-1.1428718117624521,-0.6665009385846555
1789150645994132700,6.1681328125,-2.344696747753024,-1.1335101091772317,-0.5158679671119898
1789150646004104000,6.17810400390625,-2.3372037616491315,-1.0997171451687813,-0.363913464711979
1789150646014075000,6.188074951171875,-2.0489941380232572,-0.9977321039438247,-0.37221166625153274
1789150646024045800,6.1980458984375,-1.7825228834748268,-0.9159563225328922,-0.4372733364878222
1789150646034016800,6.208016845703125,-1.537945480826497,-0.8740221376448869,-0.5382774403840304
1789150646043987700,6.21798779296875,-1.375331491115689,-0.8738526262968778,-0.6910084801144898
1789150646053959000,6.227958984375,-1.317173316657543,-0.9531740002930164,-0.8116870428282768
1789150646063929900,6.237929931640625,-1.247174482280016,-1.0259393767744303,-0.8990108137551694
1789150646073900800,6.24790087890625,-1.10967856721282,-1.0000339511454104,-0.8885790707856416
1789150646083871700,6.257871826171875,-0.9918944838315248,-0.7995125478446483,-0.6905224501632153
1789150646093842700,6.2678427734375,-0.8250520627707243,-0.43245676651895043,-0.3713321434706449
1789150646103814000,6.27781396484375,-0.6358674615204334,-0.050555298238992685,0.05189765275865793
1789150646113784800,6.287784912109375,-0.6374708050638437,0.24472119503319262,0.48321145978756247
1789150646123755800,6.297755859375,-0.7155155832529068,0.4817214404255151,0.7998392955809831
1789150646133726700,6.307726806640625,-0.8266133207380771,0.6801636993646621,0.9671730803553015
1789150646143697700,6.31769775390625,-0.8529407711714506,0.8614584241479635,1.0033971439681946
1789150646153668900,6.3276689453125,-0.6624667146325111,0.9901724823445082,0.9141388978473841
1789150646163639800,6.337639892578125,-0.3713888420939445,0.9615987142890691,0.7895863432444632
1789150646173609700,6.347609619140625,-0.06998012967705726,0.7627081270605325,0.5657077009601518
1789150646183581000,6.357580810546875,0.28792379242181776,0.6388432624608278,0.35772907698862255
1789150646193552000,6.3675517578125,0.6873007116377353,0.6267173558592796,0.24719923905190078
1789150646203522600,6.3775224609375,1.0468383724182844,0.712117172986269,0.28837398387473073
1789150646213493800,6.38749365234375,1.4013818781733511,0.9328975204616784,0.35317842794694004
1789150646223464700,6.397464599609375,1.6403052005827425,1.2242016029715537,0.2609781187585555
1789150646233436000,6.407435791015625,1.787380844900012,1.578408424118161,0.06399727414147928
1789150646243406800,6.41740673828125,1.8728309309095144,1.9884616356492042,-0.2358998464023694
1789150646253377800,6.427377685546875,1.7423136226832865,2.285764081791043,-0.5272490466956049
1789150646263348700,6.4373486328125,1.326995037969947,2.425802082556486,-0.6645064768318086
1789150646273319700,6.447319580078125,0.783362208032608,2.442115503975749,-0.6524238248500973
1789150646283291000,6.457290771484375,0.14446516955792904,2.359504440784454,-0.5182205215875059
1789150646293261800,6.46726171875,-0.5174632004141807,1.9602567009061573,-0.1453428474416025
1789150646303232800,6.477232666015625,-0.7500467984080315,1.3359563430607317,0.2720809476563707
1789150646313203700,6.48720361328125,-0.12084990069270134,0.6777987237989902,0.4350474405992776
1789150646323174700,6.497174560546875,1.099978426453471,0.10208499446809291,0.35019590500481423
1789150646333145900,6.507145751953125,2.332602405333519,-0.3624070787370205,0.02026733754365705
1789150646343116800,6.51711669921875,3.2368606912881135,-0.8077204042196273,-0.3262758810393512
1789150646353088000,6.527087890625,3.6187428703457116,-1.1000871475249527,-0.6546246958952396
1789150646363058700,6.53705859375,3.15754808512032,-1.179786122661829,-1.0498459567364304
1789150646373029600,6.547029541015625,1.8940128351479768,-0.8520183956295251,-1.453805892893672
1789150646383000800,6.557000732421875,0.4026297835320234,-0.28538287576735016,-1.6019668482296168
1789150646392971800,6.5669716796875,-0.944798970657587,0.2995388268917799,-1.536065658429265
1789150646402943000,6.57694287109375,-2.147698257881403,0.4967027364581823,-1.1877712031316012
1789150646412914000,6.586913818359375,-2.565809688183665,0.4220891017615795,-0.49304903625622387
1789150646422884600,6.596884521484375,-1.7183353657245635,0.14140110581219195,0.3400441845530644
1789150646432854800,6.606854736328125,-0.24737258632481096,-0.436620315939188,0.8969012742552905
1789150646442825700,6.61682568359375,1.0033370843440295,-1.140341416501999,1.231072511654347
1789150646452796700,6.626796630859375,1.781990968555212,-1.8214140474051237,1.2754219409905374
1789150646462767900,6.636767822265625,2.021376063257456,-2.1910566303536294,0.8763231080636381
1789150646472738800,6.64673876953125,1.7679209421485662,-2.3552830236971376,0.2984038132461719
1789150646482709800,6.656709716796875,1.1631962223887442,-2.3679987128853797,-0.1880307367737405
1789150646492680700,6.6666806640625,0.33011458241939545,-2.1573452071487904,-0.45617198862731456
1789150646502651600,6.676651611328125,-0.47319911127388475,-1.690741840878129,-0.45806558382157236
1789150646512622800,6.686622802734375,-1.0626286467462778,-1.1621052122816442,-0.3114676400186494
1789150646522593800,6.69659375,-1.4609008195906876,-0.7017983158066868,-0.043990249768132345
1789150646532565000,6.70656494140625,-1.6894015321850775,-0.29370646747648715,0.18915197762232272
1789150646542535700,6.71653564453125,-1.898510731089115,-0.040592999412119385,0.3670656451325863
1789150646552506600,6.726506591796875,-2.159355962449312,0.025989012259244916,0.4264421824045479
1789150646562477800,6.736477783203125,-2.332736260846257,-0.01790390548110008,0.44490098182205107
1789150646572448800,6.74644873046875,-2.3545190535873175,-0.1362470840498805,0.4321303841087967
1789150646582420000,6.756419921875,-2.3470897803694006,-0.23249825779795646,0.3616963731843978
1789150646592390700,6.766390625,-2.3386738342016935,-0.2700508666008711,0.23658278716523198
1789150646602361600,6.776361572265625,-2.228667399084568,-0.2727905206978321,0.05524595853956416
1789150646612332800,6.786332763671875,-2.09443896138072,-0.23679390916526316,-0.09034761226009577
1789150646622303700,6.7963037109375,-1.8995108480423688,-0.22344576729238033,-0.19540157606899738
1789150646632275000,6.80627490234375,-1.564350088149309,-0.1639548829257488,-0.29270945579577234
1789150646642246000,6.816245849609375,-1.1583908679336308,-0.08917173688113689,-0.3096814507216215
1789150646652216600,6.826216552734375,-0.8280360470175743,-0.11954115618169307,-0.26860253095608205
1789150646662187800,6.836187744140625,-0.5720628056079149,-0.19005144721269607,-0.2160392173629254
1789150646672158700,6.84615869140625,-0.3422393199771642,-0.23316578179597852,-0.17752105146348476
1789150646682129000,6.85612890625,-0.17703063759803772,-0.2263736374378204,-0.19221640669424087
1789150646692099800,6.866099853515625,-0.062436290168762204,-0.18619652535021303,-0.122036790656019
1789150646702070800,6.87607080078125,0.14633213247358798,-0.15302315454483031,-0.024380663747154176
1789150646712041700,6.886041748046875,0.431260250210762,-0.011687515184283256,0.0327168226769194
1789150646722012700,6.8960126953125,0.7538140419870615,0.14769436073750256,0.15803214181326328
1789150646731984000,6.90598388671875,1.1025082371920347,0.27817338277995585,0.267048141120933
1789150646741954800,6.915954833984375,1.5359961003243923,0.47381022890955204,0.23201505912458523
1789150646751925800,6.92592578125,2.015322170045972,0.7766963204026222,0.027577158233523368
1789150646761897000,6.93589697265625,2.477237086239457,1.1315814792022107,-0.3371790774455294
1789150646771867600,6.94586767578125,2.7354455393552777,1.4434832363218069,-0.6123310300450772
1789150646781838800,6.9558388671875,2.794218630841374,1.644716879545152,-0.5302437349995598
1789150646791809800,6.965809814453125,2.7729829505890606,1.7906021450340748,-0.07144179972745478
1789150646801780700,6.97578076171875,2.693044321477413,1.9198004796162247,0.5468411244593561
1789150646811752200,6.985752197265625,2.6110534360110758,2.011684982587397,1.1026724147778004
1789150646821723100,6.99572314453125,2.3596435569942,2.0785928652122614,1.5679178636334836
1789150646831694300,7.0056943359375,1.9339508777827024,1.8951918157994747,1.974299693175405
1789150646841665300,7.015665283203125,1.6426725142359733,1.5291004955917595,2.360730475448072
1789150646851636500,7.025636474609375,1.595486400169134,1.0489923355817794,2.5910309309408066
1789150646861607400,7.035607421875,1.824880262210965,0.36604163584709165,2.4822756649285553
1789150646871578000,7.045578125,2.1392694522321225,-0.41337504943013187,2.0054452114149925
1789150646881549300,7.05554931640625,2.26305423733294,-1.0838275021195412,1.211682459268719
1789150646891520300,7.065520263671875,2.035948193967342,-1.5277584333330392,0.3508389886813238
1789150646901491500,7.075491455078125,1.5558260054320097,-1.7371420652642846,-0.30658129274919627
1789150646911461400,7.08546142578125,0.8681739961385726,-1.5872496099606155,-0.5371625744773074
1789150646921432300,7.095432373046875,0.16642039625644683,-1.1011197054430841,-0.35431682085972277
1789150646931403500,7.105403564453125,-0.29459494074881076,-0.5763207553133368,0.00843260504156351
1789150646941374200,7.115374267578125,-0.6123001234501599,-0.1874775050714612,0.3320842385245487
1789150646951345400,7.125345458984375,-0.8270727549433707,0.024130232650041578,0.5154291373033076
1789150646961316400,7.13531640625,-0.9645441200911998,0.02169452993571758,0.5419129473421722
1789150646971287300,7.145287353515625,-1.0268307726562023,-0.08822422689795494,0.5279323527846486
1789150646981258500,7.155258544921875,-1.0254612378686665,-0.21491817744374275,0.43698513066358863
1789150646991229200,7.165229248046875,-1.1066156725108622,-0.2933013938069343,0.21043686731122432
1789150647001200400,7.175200439453125,-1.1896177808463573,-0.34269027861505746,-0.13436331612989305
1789150647011171300,7.18517138671875,-1.2851578837156294,-0.41679654831141233,-0.4828495676726103
1789150647021142300,7.195142333984375,-1.3886667735069989,-0.511291526041925,-0.7775658697787672
1789150647031113500,7.205113525390625,-1.4975024112790822,-0.5980456803873181,-0.9905253874354064
1789150647041084400,7.21508447265625,-1.676951800456643,-0.6943760568514465,-1.1565351570643483
1789150647051055400,7.225055419921875,-1.8694699300438165,-0.7487360080704093,-1.2666855306968092
1789150647061026300,7.2350263671875,-2.0897557720005513,-0.7357768655151128,-1.4277297868728638
1789150647070997200,7.244997314453125,-2.3446716133117675,-0.6765250506013631,-1.5048464904315768
1789150647080968400,7.254968505859375,-2.504169516828656,-0.6367021587789058,-1.4806353014998137
1789150647090939400,7.264939453125,-2.542368606841564,-0.6812678612142801,-1.4924761075496673
1789150647100910300,7.274910400390625,-2.408600772386789,-0.8329542141973972,-1.5474620817124842
1789150647110881300,7.28488134765625,-2.1449019051611424,-1.0499503669589758,-1.5282538156345487
1789150647120852200,7.294852294921875,-1.791159194394946,-1.194661620232463,-1.4100722573682665
1789150647130822400,7.304822509765625,-1.4226497071295976,-1.1892571308404207,-1.3253586689397692
1789150647140793300,7.31479345703125,-1.084978425720334,-1.0874877781927585,-1.163988395679742
1789150647150764300,7.324764404296875,-0.9686299281001091,-0.9266180018007755,-0.9615087709832936
1789150647160735500,7.334735595703125,-1.0408253957390785,-0.6207850432008505,-0.8301766392428428
1789150647170706200,7.3447060546875,-1.2416279540687798,-0.2122095030069351,-0.7022416756600142
1789150647180677400,7.354677490234375,-1.4196926108896732,0.2426438042372465,-0.4894628848651424
1789150647190648300,7.3646484375,-1.4499322663307188,0.7209481296956539,-0.14598109054621308
1789150647200619300,7.374619384765625,-1.2173819860845803,1.2553741553485394,0.28148981385156513
1789150647210590500,7.384590576171875,-0.8599807528108357,1.6754180150181055,0.6852278508864342
1789150647220561200,7.39456103515625,-0.48368192684352396,1.9195891749531029,0.9871586874812841
1789150647230532400,7.404532470703125,-0.008383212941884995,2.019723619875312,1.1098335385788232
1789150647240503300,7.41450341796875,0.5320411763429641,1.9418506911218165,1.0117154749803245
1789150647250474200,7.42447412109375,1.1041326235234736,1.6777905893683434,0.8059709302037954
1789150647260445400,7.434445556640625,1.5547726969867943,1.3960580528020858,0.5494148108722642
1789150647270416400,7.44441650390625,1.9783201808631419,1.1961083119094371,0.18568647520253434
1789150647280387300,7.45438720703125,2.301736142426729,1.125040386995673,-0.28679007568415255
1789150647290358300,7.464358154296875,2.4253759660989043,1.1264677894502877,-0.7953158268071711
1789150647300329500,7.47432958984375,2.413733459100127,1.2037316463947296,-1.212243600282818
1789150647310299400,7.48429931640625,2.1980542341560123,1.3829495649039745,-1.4589035082936286
1789150647320270300,7.494270263671875,1.6665093168973921,1.6453519625782966,-1.4358740764923392
1789150647330241500,7.504241455078125,0.9747907888174057,1.8703005356490612,-1.2128998722344637
1789150647340212200,7.514212158203125,0.2660246798247099,2.0983955900520086,-0.850127101990208
1789150647350183200,7.52418310546875,-0.2912204958796501,2.222717550769448,-0.4566044982930645
1789150647360154400,7.534154296875,-0.38712943206131456,2.1247364844888446,-0.04220164018515497
1789150647370125300,7.544125244140625,0.09499942012131214,1.7471897042870521,0.2733170287899673
1789150647380096500,7.554096435546875,0.9557084872066974,0.9917162046551704,0.33875385248158124
1789150647390067500,7.5640673828125,1.7044108852684496,0.13813304392695427,0.23499876937679945
1789150647400038100,7.5740380859375,2.2030665093600748,-0.44533670635819433,-0.09837024826128035
1789150647410009300,7.58400927734375,2.1821213364869356,-0.7915455144882202,-0.6096763508178293
1789150647419980300,7.593980224609375,1.623888903310895,-0.7927151427894831,-1.2304317295327782
1789150647429951500,7.603951416015625,1.0078186136722564,-0.5635042360991239,-1.6824794778369365
1789150647439922400,7.61392236328125,0.44838907966613767,-0.45345746897161004,-1.9258780459642408
1789150647449893000,7.62389306640625,-0.1565530822366476,-0.4562351169914007,-1.969838622113317
1789150647459864300,7.6338642578125,-0.3513888411164284,-0.5727683235287666,-1.6112617691889404
1789150647469835300,7.643835205078125,0.16834639588296413,-0.7977478762596845,-0.8273163544408977
1789150647479806500,7.653806396484375,1.217953063970804,-1.174211537399888,-0.06279971665367484
1789150647489776400,7.6637763671875,2.1845178762346507,-1.627023694205284,0.4885403997253626
1789150647499747300,7.673747314453125,2.8168203387498854,-2.0428394147858024,0.78751969303824
1789150647509718500,7.683718505859375,3.021833792772889,-2.3976786886170505,0.7111470127798617
1789150647519689200,7.693689208984375,2.688234875369072,-2.6862574378162623,0.307655570917204
1789150647529660200,7.70366015625,2.054806039172411,-2.802634284748137,-0.12893873379789292
1789150647539631400,7.71363134765625,1.188784252631664,-2.668745162001252,-0.3570848608009517
1789150647549602300,7.723602294921875,0.26410569446086885,-2.328625902917981,-0.34739498570729044
1789150647559573500,7.733573486328125,-0.5166536375969648,-1.9642235587105155,-0.13067111054845154
1789150647569544200,7.743544189453125,-1.1073200213879346,-1.638635221543908,0.2891694816339761
1789150647579515100,7.75351513671875,-1.5425386538356542,-1.2930278864383697,0.7073401678428053
1789150647589486300,7.763486328125,-1.9271978963911531,-1.018763201534748,1.0134781007386744
1789150647599457300,7.773457275390625,-2.2895851013839246,-0.8080120806425809,1.2237371272649615
1789150647609428500,7.783428466796875,-2.578085232388973,-0.6959726783931255,1.2765164582289754
1789150647619399400,7.7933994140625,-2.7931846116185186,-0.6327595586329698,1.1519705525625497
1789150647629370000,7.8033701171875,-2.9356933864116668,-0.5873515601545571,0.8614577665608376
1789150647639341300,7.81334130859375,-3.020463088941574,-0.5387006342321634,0.5971564033973962
1789150647649311200,7.823311279296875,-3.0394536206156015,-0.513527614530921,0.4497597469648346
1789150647659282400,7.833282470703125,-2.9374563044309614,-0.45894262238442896,0.35366646719221023
1789150647669253400,7.84325341796875,-2.7572973056793213,-0.34179975951611996,0.32585425809379664
1789150647679224300,7.853224365234375,-2.5415268953204153,-0.2553887195199728,0.3612873905247077
1789150647689195500,7.863195556640625,-2.344873857885599,-0.17520692930221557,0.4440762579683214
1789150647699166200,7.873166259765625,-2.199839948529005,-0.12609598465263844,0.45395113424006844
1789150647709137400,7.883137451171875,-2.071918502014875,-0.14331716856658458,0.32209011978730556
1789150647719108400,7.8931083984375,-1.9137755202382802,-0.1995657100111246,0.14925266869594342
1789150647729079300,7.903079345703125,-1.7187088752120732,-0.21309622271358966,-0.011297657350171356
1789150647739050500,7.913050537109375,-1.5062299076139927,-0.23454057728052138,-0.13992706947056577
1789150647749021200,7.923021240234375,-1.3357464997023343,-0.27539164310693737,-0.2115189269268885
1789150647758992400,7.932992431640625,-1.2319313204407691,-0.2910065608680248,-0.28857158880606293
1789150647768963300,7.94296337890625,-1.097595330709219,-0.26470190678834915,-0.35206853047627956
1789150647778934300,7.952934326171875,-0.81401921210289,-0.16572306164205072,-0.33781218771729615
1789150647788905500,7.962905517578125,-0.3794470608651638,-0.041377720049023625,-0.2835885031638667
1789150647798876200,7.972876220703125,0.19279168583154677,0.13471768252551555,-0.30965017880052326
1789150647808846300,7.982846435546875,0.8167179496675729,0.4241939650863409,-0.4470364960134029
1789150647818817300,7.9928173828125,1.2742249862909316,0.7305430565148592,-0.6655560589499772
1789150647828788200,8.002788330078126,1.6294278327375649,1.0947820268541575,-0.8112769276574253
1789150647838759200,8.01275927734375,1.965462452855706,1.4081670082688331,-0.7246797174394131
1789150647848730400,8.02273046875,2.1621745270013806,1.5557015022695064,-0.42320495404899117
1789150647858701300,8.032701416015625,2.226624495080113,1.7172797191917895,-0.03212729581855237
1789150647868672300,8.04267236328125,2.1014000325649977,1.9219190792053937,0.42313795322738584
1789150647878643200,8.052643310546875,1.7526865481376648,1.9730355184584856,1.0086448353633284
1789150647888614100,8.0626142578125,1.5239929433196782,1.887829762598872,1.6437988879173993
1789150647898585300,8.07258544921875,1.9313883338183164,1.7398785044908522,2.2538588312253354
1789150647908556300,8.082556396484375,2.845170819443464,1.3051187217265368,2.7737890062749386
1789150647918527500,8.092527587890626,3.786249308273196,0.7165063478559255,2.8679487607017156
1789150647928498200,8.102498291015625,4.600159799304604,0.1918225485384464,2.5887977650612592
1789150647938469000,8.11246923828125,4.9987125426560635,-0.37709962095618244,2.1164245832175017
1789150647948440300,8.1224404296875,4.8907297223210335,-0.9921750543385743,1.6466307503424584
1789150647958410200,8.13241015625,4.301825672027468,-1.2919956207811831,1.1930275892898439
1789150647968381400,8.14238134765625,3.261608179053664,-1.1193322384819389,0.9663898210231214
1789150647978352400,8.152352294921876,1.9595622889012096,-0.7160621112197637,0.9671558369595556
1789150647988323300,8.1623232421875,0.7929676562458277,-0.46312838363647457,1.0712610852088778
1789150647998294300,8.172294189453124,-0.1902151133418083,-0.33504444003701206,1.0493491861954332
1789150648008265200,8.18226513671875,-0.930839418888092,-0.3533575108408928,0.9360988007210195
1789150648018236400,8.192236328125,-1.3467360957503318,-0.5019204711064696,0.8186832583911716
1789150648028207400,8.202207275390625,-1.505949337106943,-0.6621329526335,0.6330661403641105
1789150648038178300,8.21217822265625,-1.4956296031445264,-0.7118693357050419,0.35713863681480285
1789150648048149200,8.222149169921876,-1.47318688519001,-0.709229927112162,0.10236971142729744
1789150648058120200,8.2321201171875,-1.547083896049857,-0.6441331855624913,-0.10742030934775247
1789150648068091400,8.24209130859375,-1.7909809152185916,-0.5346206714421511,-0.28662480211984365
1789150648078062300,8.252062255859375,-2.195348482328653,-0.507563153168559,-0.38237584432605654
1789150648088033300,8.262033203125,-2.651262696802616,-0.47773149400651455,-0.4539930736856535
1789150648098003500,8.27200341796875,-3.0668337949723004,-0.4351216018140316,-0.5099061726307497
1789150648107974400,8.281974365234374,-3.3779017316162583,-0.4134147969186306,-0.5920143278012052
1789150648117945000,8.291945068359375,-3.54323141002655,-0.40886224818080663,-0.6925245837658643
1789150648127916300,8.301916259765624,-3.572674362131953,-0.49010816049873823,-0.7947992555871606
1789150648137887200,8.31188720703125,-3.4321494546324014,-0.6517243713438511,-0.874978342391178
1789150648147858400,8.3218583984375,-3.1068945872038602,-0.8571756322622298,-0.9849398423880338
1789150648157829400,8.331829345703126,-2.7494840015798805,-1.0345499687314033,-1.072242278265953
1789150648167800000,8.341800048828125,-2.4341321040064097,-1.1056497500881552,-1.1834323702096938
1789150648177771300,8.351771240234376,-2.0894804621905085,-1.1159960797965527,-1.277038582406938
1789150648187742200,8.3617421875,-1.8152064249366522,-1.136071776358783,-1.2520268907472492
1789150648197713400,8.37171337890625,-1.5598247196793555,-1.1060501475825906,-1.0970800746634601
1789150648207684400,8.381684326171875,-1.3930465960264204,-0.9388266182497144,-0.8779564083538949
1789150648217655300,8.3916552734375,-1.2979279334396123,-0.648529666955769,-0.6436791581846774
1789150648227626200,8.401626220703125,-1.2594950346708298,-0.2889846996515989,-0.5163960461067035
1789150648237597200,8.41159716796875,-1.3285755851596592,0.022960896609723568,-0.4357575981626287
1789150648247567000,8.421567138671875,-1.3847417090177536,0.3486193764030933,-0.36254075158666815
1789150648257538300,8.431538330078125,-1.4280617953062056,0.6512593841806054,-0.27943112775608897
1789150648267509200,8.44150927734375,-1.4581845463693142,0.9830822318226099,-0.22735625526700168
1789150648277480400,8.45148046875,-1.2557190232634543,1.3507926776647567,-0.15569146043863147
1789150648287451400,8.461451416015626,-0.7448655963778495,1.7116025503382086,0.03992934787161648
1789150648297422000,8.471422119140625,-0.00609071809053421,1.937439304420352,0.3651230596974492
1789150648307393300,8.481393310546874,0.8013701584100723,2.115190657508373,0.6189576816432177
1789150648317364200,8.4913642578125,1.5741671332865952,2.214215679883957,0.7141042551502585
1789150648327335400,8.50133544921875,2.306884026709199,2.141230230911076,0.6941988005883991
1789150648337306400,8.511306396484375,3.061196665868163,2.135678442002833,0.4583656992793083
1789150648347277300,8.52127734375,3.856607039090991,2.1735668586313723,0.10275222620517015
1789150648357248300,8.531248291015626,4.509730171316862,2.266359124097228,-0.3789985133800655
1789150648367219200,8.54121923828125,4.629399922314286,2.477263389724493,-0.813063007356599
1789150648377190400,8.5511904296875,4.016147028183937,2.7299013492316004,-0.9953120371900498
1789150648387161300,8.561161376953125,2.8871178638130424,2.8043682689338922,-0.8328397209722548
1789150648397131300,8.57113134765625,1.6266034229665993,2.7807047770127653,-0.3105792763441801
1789150648407102500,8.5811025390625,0.8147510335087775,2.854057890254259,0.2109590645544231
1789150648417073200,8.5910732421875,1.0455793122678994,2.781658424475789,0.6918166546922176
1789150648427044400,8.60104443359375,2.4575936436146497,2.1867890360370277,0.9242769916325807
1789150648437015300,8.611015380859374,4.241826838138699,1.2322189052104948,0.6325941389381885
1789150648446986200,8.620986328125,5.557857414501905,0.0663254065617919,-0.23005437177717683
1789150648456957400,8.63095751953125,5.848887356245517,-1.2087018360227346,-1.1819152436450122
1789150648466928000,8.64092822265625,5.241390833684802,-1.9254709264680743,-2.174986370040476
1789150648476899300,8.6508994140625,3.987276323008537,-1.9313009477958083,-2.9073610258966682
1789150648486870300,8.660870361328126,2.3632173238277434,-1.4660136325597761,-2.9919875205636024
1789150648496841200,8.67084130859375,0.9578870002895593,-0.7198205869704485,-2.748287485271692
1789150648506812400,8.6808125,-0.028683658170700073,-0.03659077803343534,-2.2449612390205265
1789150648516783400,8.690783447265625,-0.6670674864262343,0.2309633033156395,-1.4005334446504711
1789150648526754300,8.70075439453125,-0.7638853541463613,0.19577625460028647,-0.3832362970802933
1789150648536725200,8.710725341796875,-0.2817524103105068,-0.16592004551887513,0.5059950636016205
1789150648546696200,8.7206962890625,0.3486123621404171,-0.807797561109066,1.1439141604222356
1789150648556667400,8.73066748046875,0.8701654622167349,-1.4033061242341995,1.4705357861593364
1789150648566637300,8.74063720703125,1.0935305654883385,-1.8785130681991575,1.3708626751385629
1789150648576608300,8.750608154296875,0.939058381178975,-2.2368775935471055,1.0197555735729633
1789150648586579200,8.7605791015625,0.5227589687347411,-2.4684517222374676,0.5927084110125899
1789150648596550100,8.770550048828126,-0.02330488774180412,-2.5430589271932837,0.3141667794421315
1789150648606521300,8.780521240234375,-0.7603191860973835,-2.4755226835370063,0.22137560995481906
1789150648616492300,8.7904921875,-1.533661519896984,-2.2167788083702327,0.2761437218495644
1789150648626463200,8.800463134765625,-2.1337322763711213,-1.9636434207350015,0.3846154764790088
1789150648636434400,8.810434326171874,-2.624011117261648,-1.717513527947664,0.4731075240002945
1789150648646405000,8.820405029296875,-3.000664748016,-1.4905126985222101,0.4622887179419398
1789150648656376300,8.830376220703124,-3.2684237042874096,-1.2920809609770774,0.4347525493059307
1789150648666347300,8.84034716796875,-3.5120237863361834,-1.13890290813148,0.34762452014684675
1789150648676318200,8.850318115234375,-3.734029291692376,-1.0748650279849767,0.2356056674950756
1789150648686289400,8.860289306640626,-3.8662124873042103,-1.0124953733116389,0.16704187088934705
1789150648696260000,8.870260009765625,-3.8814948121100663,-0.917554989901185,0.1220469467238523
1789150648706231300,8.880231201171876,-3.731241122278571,-0.810712571772933,0.06947306607090868
1789150648716202200,8.8902021484375,-3.478026824188232,-0.7139736145079135,0.06148175678974949
1789150648726173400,8.90017333984375,-3.0475013179928063,-0.6866530613839625,0.04867980495700612
1789150648736144400,8.910144287109375,-2.565300569617748,-0.6796265237480401,-0.0706217520488426
1789150648746115300,8.920115234375,-2.1823726808995008,-0.6370499493032693,-0.2374682464965619
1789150648756086300,8.930086181640625,-1.8338216935575007,-0.5907610763370991,-0.39375922546461223
1789150648766056200,8.94005615234375,-1.543266383588314,-0.5076800575464964,-0.6034639060437679
1789150648776027100,8.950027099609375,-1.3611948292136191,-0.399909418657422,-0.7751112431682646
1789150648785998300,8.959998291015625,-1.2013444589972495,-0.29514380680322644,-0.8614650730844586
1789150648795969300,8.96996923828125,-0.920029855582118,-0.13327975867688654,-0.904882263071835
1789150648805940700,8.979940673828125,-0.5095248086303472,-0.10447685804069042,-0.7453997032545506
1789150648815911400,8.989911376953126,-0.22951368902921676,-0.10302139853537082,-0.44566159093100577
1789150648825882400,8.99988232421875,-0.04865326400995254,-0.002190203520655632,-0.223458480643481
1789150648835853600,9.009853515625,0.10641513262689113,0.16600713928043842,-0.046277840115502476
1789150648845824500,9.019824462890625,0.2606920866250992,0.35444355251193044,0.10138846357129513
1789150648855795700,9.029795654296874,0.5125193142712116,0.5673562353521585,0.22709007861148564
1789150648865766400,9.039766357421875,0.8921370555281638,0.8265969541251659,0.32643600350450724
1789150648875737300,9.0497373046875,1.3179863866060972,1.1628683056086302,0.2716836189018562
1789150648885708500,9.05970849609375,1.6785820320069789,1.5120207659751177,0.08944072654824703
1789150648895679500,9.069679443359375,1.8008745327234268,1.825279490661621,-0.12662377138640732
1789150648905650700,9.079650634765626,1.7510639153718948,2.1332769338190554,-0.25276596980094906
1789150648915621600,9.08962158203125,1.7356074030429123,2.431664837110042,-0.14944544218853115
1789150648925592300,9.09959228515625,1.5803396844416855,2.576590025395155,0.1432998886382207
1789150648935563500,9.1095634765625,1.2414789009869098,2.475314009222388,0.7371007345300168
1789150648945534500,9.119534423828124,1.2568290303319691,2.1734072841554877,1.6786096506662667
1789150648955505700,9.129505615234375,1.9858365478426216,1.8740765470564364,2.563159758196771
1789150648965476600,9.1394765625,3.0688679311484095,1.362974698367715,3.258807150158286
1789150648975446500,9.149446533203125,4.028335478627682,0.6301432386547327,3.404851990123093
1789150648985417700,9.159417724609375,4.622091645127535,-0.18581833968758582,2.971465541538596
1789150648995388400,9.169388427734376,4.748747601750493,-1.0309370389312504,2.1477746841184793
1789150649005359600,9.179359619140625,4.281298432305455,-1.7164999669909475,1.2372624523356557
1789150649015330600,9.18933056640625,3.2340473874330518,-2.0725801807940005,0.5332092337416484
1789150649025301500,9.199301513671875,1.9513216993004083,-1.9107915359914303,0.3843283666333183
1789150649035272700,9.209272705078124,0.7427876210600137,-1.3696224658191203,0.7311248749908059
1789150649045243400,9.219243408203125,-0.25540683969855305,-0.6972685634225606,1.0202306437388062
1789150649055214600,9.229214599609374,-0.8318465452164411,-0.15531857200562954,1.2706667092874646
1789150649065185500,9.239185546875,-1.0589514195382594,0.010906009417772292,1.4126260335043073
1789150649075156500,9.249156494140625,-1.0819839200794696,-0.1600906087130308,1.2452063970774412
1789150649085127700,9.259127685546876,-0.9950240140289067,-0.5735211877226829,0.8969120148450136
1789150649095098400,9.269098388671875,-0.9488953000605106,-0.8349024256557226,0.5298633573798462
1789150649105069600,9.279069580078126,-0.9978758963286876,-0.818482036730647,0.12192019680533557
1789150649115040500,9.28904052734375,-1.1781015305757523,-0.7031786642491817,-0.19692628315193578
1789150649125011500,9.299011474609374,-1.478862008216977,-0.509234301251173,-0.373730436784029
1789150649134982700,9.308982666015625,-1.8634557843208313,-0.31231413731276986,-0.46377939489111303
1789150649144953600,9.31895361328125,-2.260073760217428,-0.12842296629548072,-0.4644779350819066
1789150649154924500,9.328924560546875,-2.5998978357464075,0.044804187366366384,-0.42665589822046457
1789150649164895500,9.3388955078125,-2.8888164844244715,0.16699264318645,-0.3930860023781657
1789150649174866400,9.348866455078126,-3.0492969692379233,0.1959492730796337,-0.3292128112740815
1789150649184837600,9.358837646484375,-2.9945868894070387,0.1106511627614498,-0.3186399793334305
1789150649194808600,9.36880859375,-2.858599040815234,-0.14433891282975672,-0.5425634471401571
1789150649204778500,9.378778564453125,-2.7624773386657235,-0.5314227521836757,-0.8477829500168561
1789150649214749700,9.388749755859376,-2.6328666238903997,-0.8089508227974176,-1.104961402497813
1789150649224720400,9.398720458984375,-2.4451731379806994,-0.9502660038918256,-1.327423492515087
1789150649234691600,9.408691650390624,-2.294421435499191,-1.0568582466512917,-1.4920368393495678
1789150649244662500,9.41866259765625,-2.0709832669913766,-1.05635789591372,-1.475680455571413
1789150649254633500,9.428633544921874,-1.7340923223048448,-0.9429185637384653,-1.303801501648128
1789150649264604700,9.438604736328125,-1.362687113597989,-0.7155664366573095,-1.0433677736982703
1789150649274575400,9.448575439453125,-1.1057774681210517,-0.3794803786128759,-0.7944808372877538
1789150649284546600,9.458546630859376,-1.0192273119151591,0.02121171485483646,-0.5092847893293947
1789150649294517500,9.468517578125,-0.977080361059308,0.4437000450670719,-0.22518276541912927
1789150649304488400,9.478488525390626,-0.906325739878416,0.8386685001909733,-0.0377020957096247
1789150649314459600,9.488459716796875,-0.8178437388271093,1.1633861920028925,0.06576943034657742
1789150649324430600,9.4984306640625,-0.5894061545968056,1.4499486329436302,0.046050068374769756
1789150649334401500,9.508401611328125,0.058987611019611356,1.6592290967613457,-0.00874929603312048
1789150649344372500,9.51837255859375,0.8632230957329273,1.682819231185317,-0.04648616280367132
1789150649354343700,9.52834375,1.6221698244333267,1.5874533158391713,-0.039462241816520686
1789150649364314600,9.538314697265625,2.319608483725786,1.5095850632607937,0.01112237156521296
1789150649374285600,9.54828564453125,2.8876889416992664,1.4955419248610735,0.04386890667709522
1789150649384256500,9.558256591796875,3.2498288939327,1.4888631777495145,0.08881943457843736
1789150649394227500,9.5682275390625,3.3797043971240517,1.5505430965930223,0.027307693642377853
1789150649404198700,9.57819873046875,3.267552182149887,1.8292419645518063,-0.17031961391838266
1789150649414169600,9.588169677734374,2.803171752625704,2.1226433116018772,-0.48179158305227754
1789150649424140500,9.598140625,2.026802764481306,2.2675942188501357,-0.8273534715808928
1789150649434111500,9.608111572265624,1.2171709736824035,2.3810353045910597,-1.1747290584679693
1789150649444081700,9.61808154296875,0.6691770259261131,2.5337474934905764,-1.3271620650999247
1789150649454052400,9.62805224609375,-0.025913608935475348,2.509214525258541,-1.3199100481450556
1789150649464023600,9.6380234375,-0.8194932595998048,2.157987596705556,-1.0479661343391984
1789150649473994500,9.647994384765624,-1.0605682070851326,1.6706319497853517,-0.6393998734302818
1789150649483965700,9.657965576171875,-0.1884200466185808,1.115616725090146,-0.15163901584320702
1789150649493936600,9.6679365234375,1.2756179019540548,0.5178495693832635,0.1509630984761752
1789150649503907300,9.6779072265625,2.7641490712702272,-0.10912322254180908,0.013989476550300604
1789150649513878500,9.68787841796875,3.6893121980875727,-0.7697820109695196,-0.3498130431670695
1789150649523849500,9.697849365234376,3.742755618983507,-1.1928788284689187,-0.9959330186326056
1789150649533820700,9.707820556640625,2.8758067807257173,-1.2472884640485047,-1.7793593048773706
1789150649543791600,9.71779150390625,1.5429361287206411,-0.974851579093933,-2.20845609344393
1789150649553762600,9.727762451171875,0.44143210013508793,-0.6038268941372633,-2.091746799687296
1789150649563733500,9.7377333984375,-0.22738486030697821,-0.2516068628937006,-1.856963791953027
1789150649573704400,9.747704345703125,-0.6561901185810566,-0.32671032693386076,-1.4084221520736813
1789150649583675600,9.757675537109375,-0.8820628207594156,-0.8446861530452966,-0.89252663936764
1789150649593646600,9.767646484375,-0.980621979188919,-1.46820734321177,-0.4638790558733046
1789150649603617500,9.777617431640625,-1.0422457839310169,-1.9205711717277765,-0.13467769757499917
1789150649613588500,9.78758837890625,-1.1221598631232976,-2.199292836040258,0.0841729696126189
1789150649623559400,9.797559326171875,-1.1124252355724573,-2.3996757076531647,0.2636840167163871
1789150649633530600,9.807530517578124,-1.0664227783322333,-2.5441952377468344,0.3803456902053207
1789150649643501600,9.81750146484375,-1.1220961502373217,-2.5612989327609537,0.351797677645646
1789150649653471500,9.827471435546874,-1.1513210756778716,-2.3265379907280206,0.21556180910952388
1789150649663442700,9.837442626953125,-0.9665484456509351,-1.9892869805574416,0.1715070518709719
1789150649673413600,9.84741357421875,-0.6881441767245531,-1.7224609212219715,0.20982330199014393
1789150649683384300,9.85738427734375,-0.49554596763849257,-1.5711352182447909,0.28796695571010933
1789150649693355500,9.86735546875,-0.5327256514757871,-1.45828566865623,0.3859451907128095
1789150649703326500,9.877326416015626,-0.7696049008369445,-1.368964878693223,0.36920755253210663
1789150649713297700,9.887297607421875,-1.2200696177333592,-1.3367834415346382,0.24471995292417703
1789150649723268600,9.8972685546875,-1.6789257308781147,-1.3293494921416042,0.019064583290927112
1789150649733239600,9.907239501953125,-1.9350749133765697,-1.328212597066164,-0.2895717788245529
1789150649743210500,9.91721044921875,-2.0675743353307245,-1.3614181165754795,-0.5086701645623892
1789150649753181400,9.927181396484375,-2.1194576673030854,-1.3815905515104532,-0.5622453951444476
1789150649763152600,9.937152587890624,-1.9987012901127337,-1.2794640559881925,-0.5151692807907239
1789150649773123600,9.94712353515625,-1.7732225556880234,-1.0993903974324464,-0.3888975742449984
1789150649783094500,9.957094482421875,-1.4832237105578183,-0.939056627613306,-0.2962607185365632
1789150649793065500,9.9670654296875,-1.2064607790976762,-0.8154793477833271,-0.29809878415130076
1789150649803036400,9.977036376953125,-0.9965607220768928,-0.6789128225207328,-0.4288388682827353
1789150649813006800,9.9870068359375,-0.9628349780857562,-0.47648353977203367,-0.5985968845292925
1789150649822977800,9.996977783203125,-1.1209779598623513,-0.26592063492834567,-0.7601226406119763
1789150649832949000,10.006948974609376,-1.4271984564751385,-0.03687982410788536,-0.8820840096779167
1789150649842920000,10.016919921875,-1.5619289984822273,0.18949322880804537,-0.8589482679579407
1789150649852890600,10.026890625,-1.503198577094078,0.44409284377694125,-0.7022498589664697
1789150649862860800,10.03686083984375,-1.193723462599516,0.6113678110361099,-0.47451256849262863
1789150649872831700,10.046831787109374,-0.5559551358938217,0.6331541109085083,-0.1213803543075919
1789150649882802700,10.056802734375,0.30284254461228843,0.6637859805375337,0.09688822954259813
1789150649892774000,10.06677392578125,1.2062035894662142,0.6604647271603346,0.21104721776191143
1789150649902744800,10.076744873046875,1.8712994835585355,0.6348486398667097,0.1217995295677334
1789150649912716000,10.086716064453125,2.39198223054111,0.689992434939742,-0.15135346776694059
1789150649922686700,10.096686767578126,2.8344331523299218,0.8662550107747315,-0.48596163527853786
1789150649932657700,10.10665771484375,3.014511487060785,1.1414894174933432,-0.6725950176760553
1789150649942628900,10.11662890625,2.8677701892644167,1.4626234055995941,-0.6152699330411852
1789150649952599800,10.126599853515625,2.498442371353507,1.7571926273852585,-0.21614684245586394
1789150649962571000,10.136571044921874,2.1391034480154514,1.9471926366716623,0.4675294316070154
1789150649972541700,10.146541748046875,1.8799030612528322,2.0825018553495407,1.2449898317173123
1789150649982512600,10.1565126953125,1.6621943763077258,2.064399212425947,1.9282827690184114
1789150649992483800,10.16648388671875,1.6834224577754735,1.8368179527640343,2.470320146457851
1789150650002454800,10.176454833984375,2.0668530353188515,1.3742764291048049,2.785450217974186
1789150650012426000,10.186426025390626,2.651792273634672,0.7688572973400354,2.7400600474134085
1789150650022397000,10.19639697265625,3.2269214810758826,0.10288403589129447,2.4903061189100146
1789150650032367900,10.206367919921876,3.6367198410630226,-0.45623687055706974,2.0060203809544443
1789150650042338800,10.2163388671875,3.6973435288518663,-0.8821303330376744,1.4544368842735886
1789150650052309800,10.226309814453124,3.3037755881756543,-1.1680781492114067,1.182638443353027
1789150650062280000,10.236280029296875,2.5322183842271566,-1.0556590999945998,1.1096952991519122
1789150650072251000,10.2462509765625,1.5467659161418676,-0.572717177863419,1.322555886478722
1789150650082221800,10.256221923828125,0.606703326356411,-0.14660744228363037,1.571594067928195
1789150650092192800,10.26619287109375,-0.17418460051715373,-0.008284428742527961,1.78011114615798
1789150650102163700,10.276163818359375,-0.7318564772009849,-0.017624796278774738,1.785924947003275
1789150650112135000,10.286135009765625,-1.0674316631138323,-0.14486819740086793,1.5647677290394901
1789150650122105900,10.29610595703125,-1.2468027263581751,-0.2829898431509733,1.2156088389322162
1789150650132076800,10.306076904296875,-1.417277950963378,-0.39360885720849037,0.780199067826569
1789150650142048000,10.316048095703126,-1.6780980478823184,-0.43345542216747995,0.29680377590470014
1789150650152018700,10.326018798828125,-1.9725825139939783,-0.3584197626665234,-0.14226437157802282
1789150650161990000,10.335989990234374,-2.2852000181674956,-0.24021248543709514,-0.420438558075577
1789150650171960800,10.3459609375,-2.552259301736951,-0.16747312017977237,-0.5709845088519155
1789150650181931800,10.355931884765624,-2.772102076101303,-0.15464344922304152,-0.674314900271222
1789150650191903000,10.365903076171875,-2.926540942662954,-0.17074644276201725,-0.7282758422352373
1789150650201873700,10.375873779296874,-2.8881939686119553,-0.1876031772777438,-0.6881880158662795
1789150650211844900,10.385844970703126,-2.6129934641629458,-0.22257044576257465,-0.4987935712575912
1789150650221815800,10.39581591796875,-2.253792487990856,-0.33125293879956,-0.44864553864523765
1789150650231786800,10.405786865234376,-2.0680179874449967,-0.5441705900758504,-0.5321567655466497
1789150650241758000,10.415758056640625,-2.104810717791319,-0.7559338106200099,-0.748509944229573
1789150650251728000,10.425727783203126,-2.1452637242108583,-0.9267170782610773,-1.065195793820545
1789150650261698800,10.43569873046875,-2.068151842957735,-1.061423362609744,-1.3054250111967325
1789150650271669800,10.445669677734376,-1.8243904328674077,-1.144173834271729,-1.3971357650361955
1789150650281640700,10.455640625,-1.4852520015150308,-1.1267796318784356,-1.3458075827285647
1789150650291612000,10.46561181640625,-1.1518582512944937,-1.0303536860853433,-1.186187952528149
1789150650301582800,10.475582763671875,-0.9606652328312396,-0.8561232005998491,-0.9668729283649474
1789150650311553800,10.4855537109375,-0.8565852651536464,-0.6161302031323314,-0.7214811405938119
1789150650321524700,10.495524658203125,-0.8795154743641614,-0.3184995479494333,-0.5151780486190691
1789150650331495700,10.50549560546875,-0.9773983409672975,-0.023137422220408915,-0.35800829578880217
1789150650341467000,10.515466796875,-1.013363972839713,0.2865834837287664,-0.25482743237540123
1789150650351437800,10.525437744140625,-0.9091554103463888,0.6212064834833145,-0.15330781670510768
1789150650361408800,10.53540869140625,-0.7662748796314001,0.948700654271245,-0.06566602933760732
1789150650371380000,10.5453798828125,-0.4932435359150171,1.238792730642855,-0.009553462297655642
1789150650381350700,10.5553505859375,0.05213876803815364,1.4211051080361008,0.07776541325841099
1789150650391321900,10.56532177734375,0.6963865198910236,1.513383286499977,0.14741711469870059
1789150650401292800,10.575292724609374,1.331739017626643,1.557416197232902,0.13744749108189716
1789150650411264000,10.585263916015625,1.8666484428822994,1.482590381090343,0.13826675330922006
1789150650421235000,10.59523486328125,2.3195500315368176,1.4226993914902208,0.09802501502018421
1789150650431204900,10.605204833984375,2.7379309264302254,1.5182856715887785,-0.13584442153312265
1789150650441176000,10.615176025390625,3.032380321228504,1.7828434937313198,-0.5112248905465007
1789150650451146800,10.625146728515626,2.9975305416435,2.1175252379357814,-0.8480139822937548
1789150650461117700,10.63511767578125,2.5383278070181605,2.3177689933389423,-1.050414185078442
1789150650471089000,10.6450888671875,1.9304373167037963,2.3331512713879348,-1.109674402494356
1789150650481059800,10.655059814453125,1.2862643836528063,2.20999484731853,-0.7512612887643277
1789150650491031000,10.665031005859374,0.8820341791868209,2.030530260571837,-0.18721052469834684
1789150650501001700,10.675001708984375,0.9692927759230137,1.6728016950398683,0.42795470585934814
1789150650510972700,10.68497265625,1.7138737101405859,1.2352484821647405,0.8018857067167758
1789150650520943900,10.69494384765625,2.990734890154004,0.599759790828824,0.7194198241498321
1789150650530914800,10.704914794921875,3.946220089998841,-0.20832184791862962,0.3766550920590758
1789150650540886000,10.714885986328126,4.3269934310317035,-0.9330053647503256,-0.20599435481913386
1789150650550856700,10.724856689453125,3.8756747276544568,-1.2759200997710227,-1.0671918630085886
1789150650560827600,10.73482763671875,2.65409061370492,-1.1460825905025005,-1.7534614780329167
1789150650570798800,10.744798828125,1.2372832028627394,-0.7679816835492849,-2.015216809975356
1789150650580769800,10.754769775390624,-0.25008885954618454,-0.18876666809916495,-2.2391572289168833
1789150650590741000,10.764740966796875,-1.4647300224900244,0.39692017371356486,-2.167907663825899
1789150650600711000,10.7747109375,-2.2586896123826503,0.6914759514957666,-1.7111809639252722
1789150650610681900,10.784681884765625,-2.5102017827302214,0.7347808402150869,-1.0094980911917983
1789150650620652800,10.79465283203125,-1.835861674952507,0.3551689441770315,-0.21258211744530126
1789150650630623700,10.804623779296875,-0.6195569627106189,-0.39769524973928927,0.36047614720705895
1789150650640594700,10.8145947265625,0.40121348699331283,-1.0624410152196884,0.5903800776628777
1789150650650566000,10.82456591796875,1.1715461175829172,-1.6593837028011678,0.5989783215949311
1789150650660536800,10.834536865234375,1.5857254691332578,-2.168353507897258,0.4385545719373971
1789150650670508000,10.844508056640626,1.575958108356595,-2.4909964392617345,0.115077637434192
1789150650680478700,10.854478759765625,1.3074211534500122,-2.611776489588618,-0.16635295704342423
1789150650690449700,10.86444970703125,0.6504670647591352,-2.570698044747114,-0.341600510616973
1789150650700420900,10.8744208984375,-0.33688802207708357,-2.293521564050019,-0.3337712782960385
1789150650710391800,10.884391845703124,-1.2875953399956226,-1.8965888231158254,-0.20902683611651882
1789150650720363000,10.894363037109375,-2.0122049148082732,-1.6252794808864592,-0.05927601320666726
1789150650730333700,10.904333740234375,-2.563495566022396,-1.3207079205244778,-0.04322086369767785
1789150650740305000,10.914304931640626,-2.933670940673351,-0.9798884042173623,-0.06878119308291934
1789150650750275800,10.92427587890625,-3.1512662283718584,-0.7170148818999529,-0.18697916362788528
1789150650760246800,10.934246826171876,-3.3441362401366233,-0.6019394729554652,-0.31445213572215286
1789150650770217000,10.944217041015625,-3.4735908875674006,-0.5970622223079204,-0.37182778150048107
1789150650780188000,10.95418798828125,-3.506697622877359,-0.6349398252815007,-0.37662469692081213
1789150650790158800,10.964158935546875,-3.394305753928423,-0.6418196479231119,-0.3452154131785035
1789150650800129800,10.9741298828125,-3.1302129189491272,-0.6329372532874346,-0.24255992534607648
1789150650810100500,10.9841005859375,-2.675792742425203,-0.6619663638949393,-0.14382345585459844
1789150650820071400,10.994071533203124,-2.0927929477393628,-0.6856330706864595,-0.1285645667232573
1789150650830042600,11.004042724609375,-1.6108026272445917,-0.6310159298360347,-0.20655576982786877
1789150650840013600,11.014013671875,-1.25350777695477,-0.5515034171819686,-0.3265060730660334
1789150650849984800,11.02398486328125,-0.9688450321555137,-0.39884558881819243,-0.42885519836302843
1789150650859955500,11.03395556640625,-0.8677823664724826,-0.22000702501535416,-0.5327676274539902
1789150650869926400,11.043926513671876,-0.9287596900045871,-0.0961117652773857,-0.600292107607238
1789150650879897600,11.053897705078125,-0.9079957189172506,0.057274377360939974,-0.6321452991921455
1789150650889868500,11.06386865234375,-0.763673172700405,0.18680209002792833,-0.5035832532195375
1789150650899839700,11.07383984375,-0.42214872299432754,0.19852175391614435,-0.2325892057507299
1789150650909810400,11.083810546875,0.047969957920908926,0.23664719417095184,0.07870342476088553
1789150650919781400,11.093781494140625,0.5563333215564489,0.3256786457985639,0.2856758125656284
1789150650929752600,11.103752685546874,1.033112629404664,0.4421136526584625,0.35949100862722844
1789150650939722500,11.113722412109375,1.5645277828037738,0.5769353800803423,0.4100658883495256
1789150650949693400,11.123693359375,2.2509850293546916,0.8551134390354156,0.4582441187262535
1789150650959664600,11.13366455078125,2.809674558648467,1.1976444354355336,0.35420864777751265
1789150650969635600,11.143635498046875,3.008588526752591,1.4002999281555413,0.2241573130952194
1789150650979606500,11.1536064453125,2.9781635778725146,1.5226695857614279,0.24169563666693863
1789150650989577500,11.163577392578125,2.990923106202483,1.7614099528193472,0.470721907505393
1789150650999548400,11.17354833984375,2.9815432834386826,2.0490473295152185,0.9390017556209117
1789150651009519600,11.18351953125,2.654842893376946,2.2377958774358033,1.5004560003876686
1789150651019490600,11.193490478515624,2.144801367396116,2.230904948878288,2.0700494932726023
1789150651029461500,11.20346142578125,1.7867086447268723,2.113113266712427,2.65878052508682
1789150651039432400,11.213432373046874,1.931713327988982,1.81838096331954,3.2738810929104685
1789150651049403400,11.2234033203125,2.558763861325383,1.1536392894923686,3.6390327941805123
1789150651059374600,11.23337451171875,3.2182921844184396,0.16652970184981822,3.6079891288802024
1789150651069345500,11.243345458984376,3.7578193326026197,-0.7451566882789135,3.096006405703723
1789150651079316700,11.253316650390625,3.820121182736754,-1.5479460658371447,2.169941946132481
1789150651089287400,11.263287353515626,3.2844179767549035,-2.0922125175029036,1.2190111947216093
1789150651099257300,11.27325732421875,2.4720775115191933,-2.16596164432466,0.528147749100998
1789150651109228500,11.283228515625,1.5042366879701614,-1.7587281663894652,0.33873306542187925
1789150651119199500,11.293199462890625,0.554333672171831,-1.2149977212965488,0.4859799015875905
1789150651129170700,11.303170654296874,-0.3309890271663666,-0.7783283055186271,0.6778599524669349
1789150651139141600,11.3131416015625,-1.0770704290747641,-0.43467444256842136,0.8581444042291492
1789150651149112600,11.323112548828124,-1.6552859120935202,-0.19147241992652414,0.9930210036434233
1789150651159083500,11.33308349609375,-2.1230144830018283,-0.003599485796689987,1.0212168782971798
1789150651169054500,11.343054443359375,-2.4450328527271745,0.10178338117301464,0.9714319068435578
1789150651179025700,11.353025634765626,-2.618614226654172,0.14086977541446685,0.8575243726346641
1789150651188996600,11.36299658203125,-2.698034969371557,0.11557400611639022,0.6538343492351472
1789150651198967600,11.372967529296876,-2.716273221373558,0.0117640875518322,0.33541944736186413
1789150651208938500,11.3829384765625,-2.71917887968719,-0.1448597218334675,-0.0585922915590927
1789150651218909400,11.392909423828126,-2.78010768790245,-0.3213490921616554,-0.4751759643048048
1789150651228880600,11.402880615234375,-2.9281045387178657,-0.4542220236033201,-0.8256191951341927
1789150651238851600,11.4128515625,-3.0967233218014236,-0.5495896925151348,-1.0997789583586155
1789150651248822500,11.422822509765625,-3.227331815442443,-0.6588532003104687,-1.2908619405761361
1789150651258792700,11.432792724609374,-3.3500703063607213,-0.7432540695279837,-1.4494754624739288
1789150651268763600,11.442763671875,-3.4495144309312105,-0.7619307129472493,-1.5561016075029968
1789150651278734300,11.452734375,-3.484709078431129,-0.7947773360162973,-1.513697613146156
1789150651288705500,11.46270556640625,-3.4232407565116882,-0.7950462160855531,-1.4526538002490996
1789150651298676500,11.472676513671875,-3.316512320151925,-0.834651665765047,-1.4927413343571125
1789150651308647700,11.482647705078126,-3.0832693814665078,-0.9181786747574806,-1.5904435836963355
1789150651318618600,11.49261865234375,-2.7026369102090597,-1.0435288094788788,-1.6103865937896071
1789150651328589300,11.50258935546875,-2.311865322253108,-1.0637871691316365,-1.5727750944063066
1789150651338560500,11.512560546875,-1.8274562501788139,-0.9396423185467719,-1.479950534106046
1789150651348531500,11.522531494140624,-1.3360557117819785,-0.737257459461689,-1.3043493447892367
1789150651358502700,11.532502685546875,-0.8529074534237384,-0.39458091711103915,-1.084446072409302
1789150651368473600,11.5424736328125,-0.39476737959384917,0.06174596981704235,-0.9513127364657818
1789150651378444500,11.552444580078125,-0.004058920001983642,0.4754933596909046,-0.8162571272227913
1789150651388415500,11.56241552734375,0.42059623285531994,0.8567191206663847,-0.6627193011540919
1789150651398386400,11.572386474609376,0.8488397655934095,1.20097036498785,-0.547738036766462
1789150651408357600,11.582357666015625,1.2648814038842915,1.517176833564043,-0.46581568649169053
1789150651418327600,11.59232763671875,1.7272317888855933,1.67856157374084,-0.46103155748769636
1789150651428298500,11.602298583984375,2.1205442934960126,1.698936253249645,-0.4750693621251732
1789150651438269700,11.612269775390626,2.4893191536992787,1.619567532980442,-0.4531546866327524
1789150651448240600,11.62224072265625,2.8588416173994537,1.5376953054577112,-0.39209750279746947
1789150651458211300,11.63221142578125,3.2312305764466522,1.5722387955725192,-0.38217615703549235
1789150651468182500,11.6421826171875,3.6075346631109713,1.6631126601964235,-0.445413169127889
1789150651478153500,11.652153564453124,3.694178342819214,1.9014263262748716,-0.5808985846228897
1789150651488124700,11.662124755859375,3.1473978625059127,2.322431724452972,-0.8432738750945776
1789150651498095600,11.672095703125,2.2499738064855337,2.778048417285085,-1.0690031502142547
1789150651508066600,11.682066650390626,1.1225970854967833,2.912479099562764,-0.8696800167873501
1789150651518037500,11.69203759765625,-0.0893149447441101,2.954899022141099,-0.35621454423982646
1789150651528008400,11.702008544921876,-0.7254793433845043,3.0732191120952366,0.21692610146636143
1789150651537979600,11.711979736328125,0.05018704944849014,3.00032806340754,0.953622693908587
1789150651547950600,11.72195068359375,1.9937036279559135,2.3334873714745044,1.4391881694763897
1789150651557920500,11.73192041015625,3.9124031605929135,1.4730015917509793,1.3573365463502705
1789150651567891700,11.7418916015625,5.311876574796438,0.42168636617958544,0.8455358286771922
1789150651577862400,11.7518623046875,5.626018512058257,-0.6420601786807179,-0.06607828166661783
1789150651587833600,11.76183349609375,4.833549452984332,-1.3282201958507298,-1.2265370601817964
1789150651597804500,11.771804443359375,3.4305133778631687,-1.4716469622716306,-2.228871251093596
1789150651607775500,11.781775390625,2.0189462057620284,-1.1942568388238548,-2.6106509926900268
1789150651617746700,11.79174658203125,1.0233312401026486,-0.7749836712658404,-2.5982953689858315
1789150651627717400,11.80171728515625,0.43725627575516696,-0.4656736842051148,-2.3259429474443194
1789150651637688600,11.8116884765625,0.4149252014815807,-0.557670415379107,-1.5281985783159733
1789150651647659500,11.821659423828125,0.9080395580589771,-0.9886576938673853,-0.5576100634939968
1789150651657630500,11.83163037109375,1.461470728433132,-1.6286074562653898,0.01425930190104991
1789150651667601700,11.8416015625,1.6856705289632081,-2.2345894826099277,0.4078242103699595
1789150651677572600,11.851572509765624,1.6997388018041848,-2.6616765387892722,0.7019742568954825
1789150651687543600,11.86154345703125,1.4197551547318696,-2.9077260598167776,0.7231182402763515
1789150651697513500,11.871513427734374,0.8749287310957908,-2.9932120939224958,0.5491582057626918
1789150651707484400,11.881484375,0.06384440340101719,-2.8890047004729507,0.39021589030195025
1789150651717455600,11.89145556640625,-0.8088502850323915,-2.726784093993902,0.34146048109177496
1789150651727426600,11.901426513671876,-1.6038041466593742,-2.601481890067458,0.4661099932631477
1789150651737397500,11.9113974609375,-2.2850807757019997,-2.367473812228441,0.6159598880667239
1789150651747368400,11.921368408203126,-2.8591017296403645,-2.0156582701325414,0.7138122864663601
1789150651757339400,11.93133935546875,-3.320795696559548,-1.6860224111407993,0.7980730165608226
1789150651767310600,11.941310546875,-3.6137943080276247,-1.3955693925023078,0.8456609894268214
1789150651777281500,11.951281494140625,-3.8858103372216224,-1.1295347758054732,0.7874287268191575
1789150651787252500,11.96125244140625,-4.10336821551919,-0.9505161792606115,0.6530040358908474
1789150651797223700,11.9712236328125,-4.246201984483004,-0.8404623978704213,0.4786702726939693
1789150651807194400,11.9811943359375,-4.258860390526056,-0.7721750435858964,0.26596388954818245
1789150651817166300,11.991166259765626,-4.141713436004519,-0.788684864360094,-0.027566819502599534
1789150651827137300,12.00113720703125,-3.774889125347137,-0.8500216688543558,-0.2919996270259842
1789150651837107200,12.011107177734376,-3.3230198023498057,-0.8943740207999944,-0.3670053297800943
1789150651847078400,12.021078369140625,-2.8382699540138243,-0.8047937031179666,-0.35138299589753147
1789150651857049300,12.03104931640625,-2.2944489080280066,-0.6508218695461749,-0.3353834992656484
1789150651867020300,12.041020263671875,-1.8203864579230546,-0.5049702140659094,-0.3498129701018333
1789150651876991200,12.0509912109375,-1.4848650480240582,-0.4078144926935434,-0.36677886408045884
1789150651886962200,12.060962158203125,-1.1825912432104349,-0.28651684823334217,-0.40875524414237585
1789150651896933400,12.070933349609374,-0.9237503374099731,-0.13883213210701942,-0.4661421419670805
1789150651906904300,12.080904296875,-0.6411316656589507,-0.058631052666902536,-0.4669374570632353
1789150651916875300,12.090875244140625,-0.372790525585413,-0.011000117442011832,-0.4250906581977382
1789150651926846200,12.10084619140625,-0.1780991436123848,0.05317863247990608,-0.43063017214629795
1789150651936817200,12.110817138671875,0.00315057298541069,0.11427578299939632,-0.4214721754396334
1789150651946788400,12.120788330078126,0.11877718607187271,0.25484160703122616,-0.43012255141772326
1789150651956759300,12.13075927734375,0.20282675763368604,0.432580685159564,-0.40006201540324837
1789150651966729500,12.1407294921875,0.3115057435393333,0.6509077942639588,-0.39002464204616843
1789150651976700400,12.150700439453125,0.5281418308168649,0.9361538919091225,-0.5182462405506522
1789150651986671000,12.160671142578124,0.9079711689978838,1.1438602382779122,-0.6723015876874328
1789150651996642300,12.170642333984375,1.4234429033339022,1.3632646212249993,-0.8447706895235926
1789150652006613200,12.18061328125,1.9373580558776855,1.6157757394820451,-0.9355575334511697
1789150652016584400,12.19058447265625,2.35503693998158,1.8417179997652768,-0.8224247099418193
1789150652026555400,12.200555419921875,2.700079626941681,2.0314625729858875,-0.4616474608963355
1789150652036526000,12.210526123046876,2.925683449050784,2.2342127582520246,0.1255125313420314
1789150652046497300,12.220497314453125,2.9578087721079585,2.362600653234124,0.8085217106651514
1789150652056468200,12.23046826171875,2.910153286963701,2.4127397718876598,1.5929289707712828
1789150652066439400,12.240439453125,2.8713492167949677,2.3955507366776465,2.365771684485674
1789150652076410400,12.250410400390624,2.9584079070448874,2.3636925401240587,3.0308275388285515
1789150652086381300,12.26038134765625,3.2012732450783252,2.2878169226676226,3.5499727009803053
1789150652096352300,12.270352294921874,3.504067858895659,1.845361909225583,3.8411078566640615
1789150652106322200,12.280322265625,3.8528199217677113,0.9042506871700287,3.8525568869173523
1789150652116293000,12.290293212890624,4.113820635950565,-0.22383096721768378,3.5235292229518294
1789150652126264300,12.300264404296875,4.11530415250659,-1.2568524112075568,2.814762529437244
1789150652136235300,12.3102353515625,3.677687226745486,-2.088859115421772,1.7596245307072995
1789150652146206500,12.32020654296875,2.8477497300207615,-2.667061738958955,0.7884243867930024
1789150652156177400,12.330177490234375,1.7908920678913591,-2.8466455681711436,0.12377882115091196
1789150652166148000,12.340148193359376,0.7010720473587513,-2.5436457871705294,-0.2560035634826869
1789150652176119300,12.350119384765625,-0.34215807143449783,-1.9725714080780743,-0.4061143377121538
1789150652186090200,12.36009033203125,-1.2134095753222702,-1.3973095141679048,-0.42469928425997494
1789150652196061400,12.3700615234375,-1.9021411965459585,-0.9599421792536973,-0.28491759634315966
1789150652206032400,12.380032470703124,-2.428039632350206,-0.5962035596519708,-0.07843998805172742
1789150652216003000,12.390003173828125,-2.7688299225628374,-0.2876572504401207,0.14152701548049226
1789150652225973200,12.39997314453125,-2.884887912803888,-0.051630233994126314,0.3642995048874989
1789150652235944200,12.409944091796875,-2.852826887154579,0.06145312435030937,0.521869253353402
1789150652245915100,12.4199150390625,-2.7892437650382518,0.11335925267636775,0.5549606814963742
1789150652255886300,12.42988623046875,-2.6756898665726183,0.09852408711612223,0.3558528713205829
1789150652265857300,12.439857177734375,-2.5201871701717375,0.0038543373405933376,0.046491373268328605
1789150652275828500,12.449828369140626,-2.3893267475962636,-0.14517419461011885,-0.2717222521455027
1789150652285799200,12.459799072265625,-2.4380910707652568,-0.3270569484144449,-0.6267410289958119
1789150652295770000,12.46977001953125,-2.582447519251704,-0.5117962606936692,-0.9885587635375559
1789150652305741300,12.4797412109375,-2.7613094639301297,-0.6957903075635433,-1.270698711860925
1789150652315712300,12.489712158203124,-2.9273429066956043,-0.7818541415572166,-1.5085459294714032
1789150652325683500,12.499683349609375,-3.004222732758522,-0.7908177847355604,-1.629569287034869
1789150652335654100,12.509654052734374,-2.9395307726174593,-0.7674941922932863,-1.6068553509235382
