time,seconds_elapsed,z,y,x
1789664055452758500,0.084758544921875,0.09902794498503208,0.13131971065029502,0.05954562849486247
1789664055462804500,0.094804443359375,-0.009325462228059769,0.11853387883529067,0.08195871849609539
1789664055472850700,0.1048505859375,-0.1384896022796631,0.047188744415342807,0.09268480476969852
1789664055482897400,0.1148974609375,-0.24743980634212492,0.0878020559631288,-0.07390186969805508
1789664055492943600,0.124943603515625,-0.2502121936649084,0.18781214385330675,-0.017119056980032472
1789664055502989600,0.134989501953125,-0.21450024429261683,0.2209443058654666,0.0348075844110921
1789664055513036500,0.14503662109375,-0.036000703185796734,0.13106456684544682,0.06446164025021717
1789664055523082500,0.15508251953125,0.17103636561930177,0.054560588357597584,0.0894046049220953
1789664055533128400,0.16512841796875,0.1998451114743948,0.05698576967790722,0.02749976388206705
1789664055543175400,0.175175537109375,0.13920856420397756,0.1279386899098754,-0.05452708794679492
1789664055553221400,0.185221435546875,0.13911796331107615,0.1620240609936416,-0.08196708446564152
1789664055563267600,0.195267578125,0.15983283455967903,0.17570961812734603,-0.13222793893585913
1789664055573314300,0.205314208984375,0.11126724883317947,0.17393091801702976,-0.12810375341163016
1789664055583360500,0.215360595703125,-0.12601064445674418,0.21986820106655358,-0.07419371965094469
1789664055593407700,0.22540771484375,-0.08326222057640552,0.2126037630215287,0.09764869252108037
1789664055603453700,0.23545361328125,0.029199790999293325,0.3999748851090669,-0.21951577089969068
1789664055613499600,0.245499755859375,0.031547815430164335,0.2704033333003521,0.15308834700183943
1789664055623546600,0.255546630859375,0.12166121707558632,0.139787825396657,0.06652034461200237
1789664055633592600,0.265592529296875,-0.10916764620542525,0.17331249385774133,0.03707452469607815
1789664055643638500,0.275638427734375,-0.1939180595129728,0.28882980135083197,0.006942494347970932
1789664055653685500,0.285685546875,-0.24715806679129598,0.2598714178919792,0.09574556231349705
1789664055663731500,0.2957314453125,-0.2953822917342186,0.14480302321016789,0.05009832998542115
1789664055673777700,0.305777587890625,-0.2629027484118938,0.10161153173744678,0.05585197987500578
1789664055683824600,0.31582470703125,-0.21691198160946368,0.12110913615077733,0.16099294611392542
1789664055693870600,0.32587060546875,-0.13791560178399084,0.13522417074292897,0.16046298568937928
1789664055703916500,0.33591650390625,-0.046298225316405296,0.09823270295411347,0.07743543238537386
1789664055713963500,0.345963623046875,0.019516016852855683,0.0739431880891323,0.043539355062320824
1789664055724009500,0.356009521484375,0.05273381132185459,0.08813537957072258,0.010477609671559184
1789664055734055400,0.366055419921875,0.1331289520293474,0.09190291541069745,-0.025114238718710838
1789664055744102400,0.376102294921875,0.13347908064126968,0.0686801529943943,0.016776874212548136
1789664055754148600,0.386148681640625,0.05212941568791866,0.05496873076707125,-0.024906377254845572
1789664055764194600,0.396194580078125,-0.05910042374432087,0.10908522861897944,-0.01704543462139554
1789664055774241500,0.406241455078125,-0.20399580141305923,0.17427607819288968,0.022178303997823966
1789664055784287500,0.41628759765625,-0.21521394551992415,0.19331015674769877,0.03519163355892524
1789664055794334700,0.426334716796875,-0.11803308970630168,0.10576719011217355,-0.017632285465486345
1789664055804380400,0.43638037109375,-0.08262392267286776,0.07358487617075443,-0.048953078073589125
1789664055814426400,0.44642626953125,-0.0951888052135706,0.10206658202856779,0.05190601872820407
1789664055824473600,0.4564736328125,0.011551321583986281,0.10265899496376514,0.14376228198558091
1789664055834519600,0.46651953125,0.17585808668732641,0.06979483623802661,0.14302379337688906
1789664055844565500,0.4765654296875,0.3797819919079542,-0.007144611057639121,0.008770330829638988
1789664055854612500,0.486612548828125,0.33209611162543295,-0.005426116701960563,-0.07508865006351843
1789664055864658700,0.49665869140625,0.11663666691184044,0.03912263459861278,-0.06077120650075376
1789664055874704600,0.50670458984375,-0.13897066379487513,0.04501403072476387,0.02131048078788444
1789664055884751600,0.516751708984375,-0.42633097711503504,0.10207242724746465,0.09925559799475595
1789664055894797600,0.526797607421875,-0.5427320817053318,0.167462598785758,0.148671498673968
1789664055904843500,0.536843505859375,-0.46750879067778583,0.16246318306326865,0.14668534809174016
1789664055914890500,0.546890380859375,-0.25988603093922136,0.1226420448064804,0.05518116794135421
1789664055924936400,0.5569365234375,-0.11596505126059055,0.13925970986932515,-0.026986188336741178
1789664055934983400,0.5669833984375,-0.09640051909089088,0.18875906931459902,-0.05618934947005473
1789664055945029400,0.577029296875,-0.05343757567703723,0.1777975303173065,-0.03217040430791676
1789664055955075600,0.58707568359375,-0.05087853884398937,0.10384791248738764,0.07077054026923142
1789664055965122600,0.59712255859375,-0.039891280883550644,0.054767362976074214,0.07267899510590359
1789664055975168500,0.60716845703125,-0.027953005808591842,0.027669804953038692,0.07831358519308268
1789664055985214500,0.61721435546875,-0.017206570866703987,0.001217266835272312,0.026098728844569995
1789664055995261400,0.627261474609375,-0.0230704944640398,0.02513619482219219,-0.06206795004671439
1789664056005307400,0.637307373046875,0.03933423152267933,0.09162555977404117,-0.018033011753484606
1789664056015353300,0.647353271484375,0.16373042652010916,0.09264555047154426,0.03137782915811985
1789664056025400600,0.657400634765625,0.3223082925826311,0.05707797800600528,0.02354021260133013
1789664056035446500,0.667446533203125,0.416666492190957,-0.008733049292862415,0.05049083643434569
1789664056045492700,0.67749267578125,0.3834370072841644,-0.049261751297116275,0.066973184679728
1789664056055539700,0.687539794921875,0.32944939650893207,-0.02457943772226572,0.09092144835898652
1789664056065585700,0.697585693359375,0.24596096596121786,0.0036871640801429744,0.1101036849465221
1789664056075631600,0.707631591796875,0.15565876374542711,0.057659869547188276,0.11999503742903471
1789664056085678600,0.7176787109375,0.1355471190869808,0.10103548541516065,0.12403523446423932
1789664056095724500,0.727724609375,0.15791034206449986,0.07277619013637304,0.09371944504706188
1789664056105770500,0.7377705078125,0.06259586464464664,0.08204232339262962,0.03708228787742555
1789664056115817500,0.7478173828125,-0.08944646216928959,0.12134148360192774,0.04250381973581388
1789664056125863700,0.75786376953125,-0.2374678629040718,0.16664748301059007,0.07664207178428768
1789664056135910400,0.767910400390625,-0.3244879747092724,0.2283151268944144,0.0978494027249515
1789664056145956600,0.77795654296875,-0.40680619243383404,0.26350568274110553,0.08908380286935716
1789664056156002600,0.78800244140625,-0.42444881663024425,0.26831512884944675,0.1074268669527024
1789664056166049500,0.798049560546875,-0.31659049945771695,0.24774843389987944,0.1131422123922035
1789664056176095500,0.808095458984375,-0.13866203623712062,0.19512801982462405,0.09556087166266515
1789664056186141400,0.818141357421875,-0.005693827727437019,0.12731792766302824,0.09779043907932937
1789664056196188400,0.8281884765625,0.05061491947174072,0.0769324330329895,0.12293636984424665
1789664056206234400,0.838234375,0.10895078858435153,0.0670046209976077,0.16991967308167366
1789664056216280600,0.848280517578125,0.14752397260665892,0.05935089137405157,0.09876730302115902
1789664056226327300,0.858327392578125,0.1755009438127279,0.048500119274854654,0.03242507318872958
1789664056236373500,0.86837353515625,0.11365443623065948,0.07536708341240883,0.02934301712857559
1789664056246419500,0.87841943359375,0.10024667312502861,0.07257803721576929,0.020186682656034825
1789664056256466700,0.888466796875,0.09196107533872128,0.052963528424501416,0.03059420449975878
1789664056266512600,0.8985126953125,-0.014896540358662605,0.03432780153751373,0.04934431501403451
1789664056276558600,0.90855859375,-0.08815876044631003,-0.00447509958744049,0.07189389087650924
1789664056286605600,0.91860546875,-0.09403086735010147,-0.03127396692484617,0.11818376848967745
1789664056296651500,0.928651611328125,-0.04309504536092281,0.01136836623251438,0.0828739519111812
1789664056306697700,0.93869775390625,0.039680268481373786,0.0872194337695837,0.03695698099732399
1789664056316744400,0.948744384765625,0.12937982862889766,0.1320095926105976,0.037230427643842996
1789664056326790700,0.958790771484375,0.10609481463134288,0.10626607954502106,-0.025504133085440844
1789664056336837600,0.968837646484375,-0.2732441096842289,0.047675066627562046,-0.014728435516450554
1789664056346883600,0.978883544921875,-0.3021919717490673,0.11172259138524532,0.21658285925295204
1789664056356929500,0.988929443359375,-0.08907353720366955,0.18249708631038664,0.27465773934181775
1789664056366976500,0.9989765625,-0.07655015571713447,0.1954746413052082,0.12058589772796258
1789664056377022500,1.0090224609375,0.05294073207080364,0.15946896968334912,0.01719330952633172
1789664056387068400,1.019068359375,0.20908990968167782,0.10614332994818687,0.01674998620562255
1789664056397115400,1.029115478515625,0.29557167682647706,0.09307692762613295,0.056048415762558576
1789664056407161600,1.03916162109375,0.32046295697689053,0.07970832748711108,0.1346279036165215
1789664056417207600,1.04920751953125,0.058900517258048055,0.1592190865755081,0.1840319311948493
1789664056427254500,1.059254638671875,-0.19054829081892966,-0.15899258434325456,0.06772256000861525
1789664056437300500,1.069300537109375,-0.10037292985320091,-0.14904431404173374,0.14861779572535305
1789664056447346400,1.079346435546875,0.1671972258478403,0.13348901751339434,0.1737479809318669
1789664056457393700,1.0893935546875,0.3355506359934807,0.21917963428050277,0.059364043116569516
1789664056467439600,1.099439697265625,0.27225685221254825,0.19745383242368697,0.021003953855670988
1789664056477485300,1.1094853515625,0.10946692141294478,0.20362930618822572,0.03685861692307517
1789664056487532500,1.119532470703125,-0.07910919255018234,0.20599954245090482,0.0591685022781603
1789664056497578500,1.12957861328125,-0.2764899597376585,0.12579115648716688,0.0828081383996643
1789664056507624700,1.139624755859375,-0.38548984816074366,0.05670826791077852,0.01965858539501205
1789664056517671700,1.149671630859375,-0.37980069660842414,0.06065525197088718,-0.04297731899907812
1789664056527717600,1.159717529296875,-0.3507318385124206,0.08820318410992622,-0.04687750477539375
1789664056537764600,1.1697646484375,-0.29020401231348514,0.05465104312002658,-0.0019261457569897174
1789664056547810600,1.179810546875,-0.202433374401927,0.028930034147202965,-0.0243710374022834
1789664056557856500,1.1898564453125,-0.14589374105632305,0.042024201259016986,-0.02269324038317427
1789664056567903500,1.199903564453125,-0.12663842096626757,0.08478665366470814,-0.006204663326404988
1789664056577949400,1.209949462890625,-0.06244914965033531,0.0932344562754035,-0.00488446583962068
1789664056587995600,1.21999560546875,0.06593582272231578,0.07167728898376226,-0.021549605039693415
1789664056598042400,1.23004248046875,0.19329905083179472,0.058625499708950514,-0.02445111690117046
1789664056608088600,1.240088623046875,0.21931261301040647,0.07148907293528318,0.013634795060846954
1789664056618134500,1.250134521484375,0.17779519222974777,0.06257979029268027,0.026757055755984038
1789664056628181500,1.260181396484375,0.15610241585969925,0.065512044352293,0.0692833613182418
1789664056638227500,1.2702275390625,0.12911737830042838,0.03307341756224632,0.08134761912673712
1789664056648273400,1.2802734375,0.10744622924029827,0.03317921602427959,0.06664884809618815
1789664056658320400,1.2903203125,0.09993336939215659,0.042156303206086154,0.14607660507624967
1789664056668366300,1.300366455078125,0.14112754956781864,0.08725567412674426,0.20668902255240826
1789664056678412500,1.31041259765625,0.20565642810165882,0.08306143730729817,0.17279223284330217
1789664056688459500,1.32045947265625,0.21257190657854078,0.044971945148706435,0.16750804536268113
1789664056698505700,1.330505615234375,0.19406477450728415,0.06032295127660036,0.13970580966901033
1789664056708551700,1.3405517578125,0.1883329528570175,0.11781330947577953,0.12959738036971538
1789664056718598700,1.3505986328125,0.1431768833130598,0.121637543939054,0.15360013244887813
1789664056728644600,1.36064453125,0.057069210177659986,0.06282470496445894,0.13639922413798047
1789664056738690600,1.370690673828125,-0.06726502549946307,0.09655074121654034,0.11902599146747961
1789664056748737500,1.380737548828125,-0.205769825348258,0.1996831989109516,0.16366059442060069
1789664056758783500,1.390783447265625,-0.161406952008605,0.23306144463866948,0.14248000535639002
1789664056768830500,1.40083056640625,-0.06947510276436805,0.15611001464426516,0.10301506012612953
1789664056778876400,1.41087646484375,-0.07879881142675876,0.10837386547923088,0.09199510547248646
1789664056788922600,1.420922607421875,-0.11390694968700409,0.18050766605883836,0.08549405301539227
1789664056798969600,1.430969482421875,-0.11681436156630515,0.20651655206233263,0.08624552896982059
1789664056809015600,1.441015625,-0.12016074938476085,0.19605039536654947,0.07919573832247406
1789664056819061500,1.4510615234375,-0.10875906540453434,0.20777035151571036,0.08489064376214518
1789664056829108500,1.4611083984375,-0.01833177550435066,0.1998053639858961,0.08527237308872863
1789664056839154400,1.471154541015625,0.07567220383882522,0.1305655312821269,0.09201607519527896
1789664056849200400,1.481200439453125,0.13301906191408633,0.10160890138894318,0.06622026568688452
1789664056859247400,1.491247314453125,0.10545593220591544,0.10578823290020227,0.0600586012519896
1789664056869293600,1.50129345703125,0.02010112326443195,0.07361848617941141,0.007393745246808975
1789664056879339500,1.511339599609375,-0.06270575475990772,0.059897711601853365,0.03300422478355467
1789664056889386500,1.521386474609375,-0.02783551690876484,0.0514653988212347,0.0884751329191029
1789664056899432400,1.531432373046875,0.11475801355838774,0.054365504176914686,0.09735106128137558
1789664056909478400,1.541478515625,0.18387012822926044,0.07193827800750732,0.0978770944494754
1789664056919525600,1.551525634765625,0.13397124807238578,0.06648731912523508,0.12088131874427199
1789664056929571600,1.561571533203125,0.06753215200304985,0.07833148617595434,0.11615334037430584
1789664056939617500,1.571617431640625,-0.008854337584972382,0.08326806579530238,0.09998762033004313
1789664056949664500,1.58166455078125,-0.10365034408867359,0.10144114360660314,0.09599690672606229
1789664056959710700,1.591710693359375,-0.23213526970446108,0.10892653092592954,0.1662925320930779
1789664056969756700,1.601756591796875,-0.32800855005085466,0.12514847466945647,0.16728651156648994
1789664056979803600,1.6118037109375,-0.3762415428221226,0.10330518391281365,0.11846114239264278
1789664056989849600,1.621849609375,-0.4103016333341598,0.1398345871478319,0.11868519693948328
1789664056999895600,1.6318955078125,-0.3757458682596683,0.16605185520499943,0.15243030321821568
1789664057009942500,1.641942626953125,-0.29022154797017574,0.1331990946561098,0.15378434817567466
1789664057019988500,1.651988525390625,-0.24061492875814436,0.10959171683639288,0.10891655752118676
1789664057030035500,1.662035400390625,-0.22094401360452173,0.1142743216946721,0.14177114470098168
1789664057040081400,1.672081298828125,-0.15344459482729433,0.11958090367019175,0.15170732270590961
1789664057050127600,1.682127685546875,-0.08693301804363728,0.0697650256216526,0.0936908948060125
1789664057060174600,1.692174560546875,-0.06103869833052158,0.03485591706484556,-0.017804427161999047
1789664057070220500,1.702220458984375,-0.11362111848294734,0.04968377610146999,-0.03602296981653198
1789664057080266500,1.7122666015625,-0.22109540477395057,0.05795476084053516,-0.012371551925688982
1789664057090313500,1.7223134765625,-0.2943108631104231,0.08956453559100627,-0.011365242693666368
1789664057100359400,1.732359375,-0.27406302485167977,0.11313801114112138,-0.007891904027294366
1789664057110405400,1.7424052734375,-0.14525310506522654,0.10669862574338912,-0.024955047835316508
1789664057120452600,1.75245263671875,-0.031052725389599797,0.09111644120812415,-0.003093472503311932
1789664057130498600,1.76249853515625,0.05936638120412826,0.08264145832955837,-0.001685304472129792
1789664057140544500,1.77254443359375,0.15662088677585123,0.08176292192935943,0.010509411315619945
1789664057150591500,1.782591552734375,0.14395897360146045,0.07879647333920002,0.03010064882915467
1789664057160637700,1.7926376953125,0.05570318252146244,0.07806026801913976,0.06878640811415389
1789664057170683600,1.80268359375,0.025374679753184318,0.1130152615442872,0.0953630658019334
1789664057180730600,1.812730712890625,0.12246668823957442,0.14920155043005942,0.09191213989676907
1789664057190776600,1.822776611328125,0.12256488791704177,0.1718716473996639,0.15320937956562264
1789664057200822500,1.832822509765625,0.11235329050421713,0.1661921404585242,0.15438048743791877
1789664057210869500,1.842869384765625,0.08461305066347122,0.18739771783351897,0.16582995608262716
1789664057220915500,1.85291552734375,-0.06375321798622607,0.24791677620410918,0.21954011988965794
1789664057230961700,1.862961669921875,-0.21596622519195077,0.2731444487020373,0.22576909567341208
1789664057241008600,1.873008544921875,-0.28853870944976806,0.3029372371584177,0.2603878429815173
1789664057251054600,1.8830546875,-0.20229834984540937,0.29588439603745936,0.2599529404292814
1789664057261100500,1.8931005859375,-0.11650339592099189,0.28768735331743955,0.21488622966920956
1789664057271147500,1.9031474609375,-0.008713467809557915,0.25276275493055583,0.16262063864730297
1789664057281193500,1.913193359375,0.05577975488901138,0.2529769822031259,0.15632363912863656
1789664057291239400,1.923239501953125,0.05781564463078975,0.3012213731512427,0.18005652475785464
1789664057301286400,1.933286376953125,0.07411153039336205,0.29413726010918617,0.19818432038901374
1789664057311332400,1.943332275390625,0.07999240512549877,0.2597261642023921,0.14033091929741204
1789664057321378600,1.953378662109375,-0.04287234252095222,0.24778233616948125,0.12546992517616598
1789664057331425500,1.963425537109375,-0.16481705271303654,0.25400661751180886,0.18002079585734754
1789664057341471500,1.973471435546875,-0.1458347043454647,0.2916717467784881,0.14606297840969637
1789664057351518700,1.983518798828125,-0.07496025617718696,0.29066052390933034,0.11139308543624356
1789664057361564700,1.993564697265625,0.008750292688608169,0.29726562126278877,0.10894865142619237
1789664057371610600,2.003610595703125,0.12455460042953491,0.2563821144714951,0.11743250259780325
1789664057381657600,2.01365771484375,0.14263035534620283,0.2350873975083232,0.11088370200884527
1789664057391703600,2.02370361328125,0.07091010400354862,0.23554303232133386,0.12815017723608763
1789664057401749500,2.03374951171875,-0.05979775835871696,0.24689181707054375,0.17492630399623885
1789664057411796500,2.04379638671875,-0.11157587639093398,0.28921763162463904,0.18368814099216832
1789664057421842700,2.0538427734375,-0.1463753870934248,0.31921091108918187,0.18417426227498798
1789664057431888600,2.063888671875,-0.20485271050333975,0.3089575203612447,0.166037150826212
1789664057441935600,2.073935546875,-0.1960544870197773,0.2918494414329529,0.16114735122434795
1789664057451981600,2.083981689453125,-0.15523907702863216,0.25580051519125696,0.19627503443527966
1789664057462027500,2.094027587890625,-0.19463585239350795,0.17829817331582307,0.15142877062601037
1789664057472074500,2.104074462890625,-0.2718751594185829,0.21907149773091075,0.15981668714247643
1789664057482120400,2.114120361328125,-0.2622685421615839,0.2487958971261978,0.1745255411756225
1789664057492166400,2.12416650390625,-0.152318805667758,0.21343056923449039,0.10619150733831338
1789664057502213400,2.13421337890625,-0.13327625154554842,0.19329320561289787,0.046835291335172946
1789664057512259600,2.144259521484375,-0.23464988287389277,0.20791472842246292,0.0513300272048451
1789664057522305500,2.154305419921875,-0.3145265526652336,0.2258954985320568,0.0004672704518772661
1789664057532352500,2.1643525390625,-0.3382289152920246,0.22589871340245007,-0.002078240179317072
1789664057542398500,2.1743984375,-0.3077455142229795,0.22515870869010685,-0.0019512345324736086
1789664057552444400,2.1844443359375,-0.2782762586325407,0.24763094500005245,0.010225297144614159
1789664057562491400,2.194491455078125,-0.33839316594302654,0.25658348226249217,0.01991856977175921
1789664057572537300,2.204537353515625,-0.4735930790275335,0.2669806653752923,0.037635629177559166
1789664057582583600,2.21458349609375,-0.5164437942385673,0.3109660837046802,0.015051447792584076
1789664057592630500,2.224630615234375,-0.455255458304286,0.32358810326009985,-0.038567740662209686
1789664057602676700,2.2346767578125,-0.37149171794652935,0.30911957905516024,-0.11493560774815269
1789664057612722700,2.24472265625,-0.37256957631111143,0.3369993734970689,-0.11145450590043328
1789664057622769700,2.254769775390625,-0.4114139784902334,0.37345556536540386,-0.09225513551500625
1789664057632815600,2.264815673828125,-0.3747983582764864,0.4037549881696701,-0.07937800868735648
1789664057642861600,2.274861572265625,-0.30242928763628,0.4103434266492724,-0.06185215187156572
1789664057652908500,2.284908447265625,-0.30125790576934813,0.44259252221658824,-0.06946207888601347
1789664057662954500,2.29495458984375,-0.36029929280281064,0.46641573474407194,-0.09183684617085382
1789664057673000400,2.30500048828125,-0.4505956497997045,0.49917789440006016,-0.10825771915311924
1789664057683047400,2.31504736328125,-0.5395955372452735,0.5448024582386016,-0.15005402994039468
1789664057693093600,2.32509375,-0.5249351437300444,0.5610308317229151,-0.18519352232012898
1789664057703139600,2.3351396484375,-0.48428456891179084,0.5903877129800618,-0.22652232519350946
1789664057713186600,2.3451865234375,-0.4375742556631565,0.6424808883108198,-0.2606804327199235
1789664057723232500,2.355232421875,-0.44739714601933955,0.7061430670127272,-0.32983583854325116
1789664057733278500,2.365278564453125,-0.4424848240584135,0.7953373079866171,-0.43038858194276686
1789664057743325400,2.375325439453125,-0.46655894260704517,0.8553896256282925,-0.5647818548195064
1789664057753371400,2.385371337890625,-0.47685821830332276,0.8925278084114193,-0.6488548072569071
1789664057763417600,2.39541748046875,-0.4420411719441414,0.9499585453778505,-0.6986262616418302
1789664057773464300,2.40546435546875,-0.33565584993362424,0.9705497902467847,-0.7518833661854266
1789664057783510500,2.415510498046875,-0.10711129819750785,0.9102094494439661,-0.805318530709669
1789664057793557800,2.425557861328125,0.15578852760493755,0.8518060680530964,-0.8840592552736402
1789664057803603700,2.435603759765625,0.28889643684625627,0.8592740658462047,-0.8911949523724615
1789664057813649400,2.4456494140625,0.3061725658178329,0.8843540004365146,-0.8189861868605017
1789664057823696600,2.455696533203125,0.2608604289293289,0.838220318032056,-0.7491209888000041
1789664057833742600,2.46574267578125,0.07570318349897862,1.0089785973623395,-0.7537571972332895
1789664057843788500,2.47578857421875,-0.13283493751883507,1.1335565786674617,-0.6803060304448009
1789664057853835500,2.48583544921875,-0.24138299052119253,1.0885231125898658,-0.7052738098975271
1789664057863881500,2.495881591796875,-0.33752222832739354,1.0824683425955475,-0.7432499778747558
1789664057873927700,2.505927734375,-0.40787469844818114,1.1692207433752715,-0.7071984943497925
1789664057883974700,2.515974609375,-0.5071832139402628,1.2477704023465515,-0.6364741221766919
1789664057894020600,2.5260205078125,-0.5917167696267366,1.2850858413927255,-0.62045493446365
1789664057904066600,2.536066650390625,-0.7197568740844726,1.2982201943844556,-0.5693662600003182
1789664057914113500,2.546113525390625,-0.7811041999727487,1.359983115336299,-0.5258422486376017
1789664057924159500,2.556159423828125,-0.815281779384613,1.3920276282422244,-0.5147139017060399
1789664057934205400,2.566205322265625,-0.8205483216106891,1.412163238298148,-0.47094362396467476
1789664057944252400,2.57625244140625,-0.756940649574995,1.4284101703524588,-0.4188124912437051
1789664057954298600,2.586298583984375,-0.8342547754019498,1.3537329689003526,-0.38302437136266376
1789664057964344600,2.596344482421875,-1.0634867248803377,1.3039116840243339,-0.3655909694701433
1789664057974391600,2.6063916015625,-1.3488777839541435,1.331596540416032,-0.31535942329280076
1789664057984437500,2.6164375,-1.5847002177387475,1.3900820471324027,-0.33320385367162525
1789664057994483500,2.6264833984375,-1.7153414446055888,1.3600234473466872,-0.40481501861661673
1789664058004530400,2.636530517578125,-1.7386100919902323,1.3241086688786745,-0.4948759594224393
1789664058014576400,2.646576416015625,-1.6138053161919117,1.310805389060825,-0.5839084704959765
1789664058024622300,2.656622314453125,-1.3604875577270983,1.2681120563685893,-0.7319930361274629
1789664058034669600,2.666669677734375,-0.9250789556652307,1.3187145547501742,-0.7239888125658035
1789664058044715500,2.676715576171875,-0.6035428164988755,1.3346267018921671,-0.7571195863384753
1789664058054761700,2.68676171875,-0.24322949517071246,1.2874755130082367,-0.6673205844044685
1789664058064808700,2.69680859375,0.39423312658667564,1.4559854288898408,-0.5154276029333472
1789664058074854700,2.706854736328125,0.8603402337729931,1.592733594329655,-0.740847592908144
1789664058084900600,2.716900634765625,0.7695008559405804,1.534419060266018,-0.743819813651964
1789664058094948400,2.7269482421875,0.38913609570860863,1.50129245121181,-0.8814521415151655
1789664058104994300,2.736994384765625,0.04965396548509597,1.5859800284162162,-0.9158256818905472
1789664058115040300,2.747040283203125,-0.278413621276617,1.6690969953030348,-0.7007577207125723
1789664058125087500,2.75708740234375,-0.7532727747172117,1.7644431830354035,-0.6878577609986066
1789664058135133400,2.767133544921875,-1.078221352675557,1.846515024783462,-0.5616137461774051
1789664058145179400,2.777179443359375,-1.1327689354211092,1.8399653108790517,-0.4609335770059377
1789664058155226400,2.787226318359375,-1.1252414625257252,1.7944325169771909,-0.3486753809066489
1789664058165272600,2.7972724609375,-0.9856891994506121,1.729792433153838,-0.25863906308542933
1789664058175318500,2.807318603515625,-0.6861088715046644,1.6724126957222818,-0.34133338411338626
1789664058185365500,2.817365478515625,0.14009411486685275,1.7685757527954875,-0.7832599897671491
1789664058195411500,2.827411376953125,1.7491706489711998,1.92205644184947,-1.484762026041001
1789664058205457400,2.83745751953125,2.4025047935992476,1.6896332951143382,-0.9204794259805231
1789664058215504400,2.84750439453125,2.1556845804601905,1.2814026228353381,-0.780837804121524
1789664058225550300,2.85755029296875,1.7899048104196786,0.9347970704726875,-0.7285139618400484
1789664058235596500,2.867596435546875,1.603845063191652,0.8519472300894558,-0.39765864405594764
1789664058245643300,2.877643310546875,1.7166572033792733,0.979348305991292,-0.1115187302430626
1789664058255689500,2.887689453125,1.520920111745596,0.7878966365918517,-0.44718880049828436
1789664058265735400,2.8977353515625,1.7724527403593062,0.3354831237152219,-1.2615467065036297
1789664058275782400,2.907782470703125,2.6201906821906564,0.11453516458794474,-1.2840301948599517
1789664058285828400,2.917828369140625,2.9445711048722267,-0.15426204869002103,-0.16162285978160798
1789664058295874300,2.927874267578125,2.8812212069898844,0.20993483607321978,1.0056256336726248
1789664058305921300,2.93792138671875,0.822678319376707,2.425378888708353,1.1473583825919778
1789664058315967200,2.94796728515625,1.3597785326749086,2.4132032977461813,1.246521571329236
1789664058326013400,2.958013427734375,0.950617886069417,0.6570195551425219,1.0045409802410752
1789664058336060400,2.968060302734375,1.0653577794492244,0.8516174136132001,0.5709855317652225
1789664058346106400,2.9781064453125,2.0988240445971487,1.8910130688101052,-0.04230652533173561
1789664058356152300,2.98815234375,2.2284201463252304,0.8240478541642426,0.4465004894405603
1789664058366199600,2.998199462890625,1.2129144852817058,0.31457565250396724,0.6564509614743292
1789664058376245500,3.00824560546875,1.757552108347416,0.441042224034667,-0.977585314906761
1789664058386291500,3.01829150390625,1.7945652034461497,0.8899579579234123,-2.085035757741332
1789664058396338400,3.02833837890625,1.1785071887671947,1.384540925748646,-2.7751272691413758
1789664058406384400,3.03838427734375,0.4670277291625738,1.755859917476773,-2.715450214552879
1789664058416430600,3.0484306640625,-0.1359580379754305,1.9808269029870629,-2.46967804916203
1789664058426477300,3.058477294921875,-0.7621265277802943,1.3955977418139576,-2.2847701023176312
1789664058436523500,3.0685234375,-1.5814105285435913,0.193082193210721,-2.1509739185512067
1789664058446569500,3.078569580078125,-2.090450184005499,-0.8635963129594921,-1.6773380232952535
1789664058456616400,3.088616455078125,-2.020594557490945,-1.5096610511064528,-0.6932381388626992
1789664058466662400,3.098662353515625,-2.0433558398753404,-1.9473682854995131,0.41644378935098647
1789664058476708400,3.108708251953125,-2.908419010517001,-2.2107824905648825,1.0480119462423025
1789664058486755300,3.11875537109375,-3.423264721909165,-1.797237053003907,2.0807460977233947
1789664058496801300,3.12880126953125,-4.010302393808961,0.9146323804527521,4.05160558731705
1789664058506847500,3.138847412109375,-5.187477457189559,1.996431007093191,4.489856427067518
1789664058516894500,3.14889453125,-5.590907451188564,-0.44557577581107616,3.5958930328950283
1789664058526940400,3.1589404296875,-5.331248799264431,-0.4886047701984644,3.0220597104832527
1789664058536986400,3.168986328125,-3.7591777614742514,1.5977216118752955,3.5844048396751282
1789664058547033300,3.179033447265625,-1.3880033411622046,2.8474507470741868,4.925737907338142
1789664058557079300,3.189079345703125,-0.5600216546803712,3.310710648135841,4.924336223846674
1789664058567125200,3.199125244140625,-0.19974106657803056,3.253219413153827,3.492482927303016
1789664058577172500,3.20917236328125,-0.5749065046012402,2.506970253463089,1.889564623567462
1789664058587218400,3.219218505859375,-1.694089397740364,1.454837281768024,1.7651354030832647
1789664058597264400,3.229264404296875,-2.7459195870965716,0.6276636967986822,2.462480538873374
1789664058607311400,3.239311279296875,-3.371760744643211,0.8182569958031177,2.665779882454872
1789664058617357600,3.249357666015625,-3.429533134654164,0.9486980239227414,2.4464433040469884
1789664058627403500,3.259403564453125,-2.744649421030283,0.26005525002628566,2.903009844949841
1789664058637450500,3.269450439453125,-2.3746985027849674,-0.40669279518723483,2.7798367620065805
1789664058647496400,3.279496337890625,-1.6821873630225657,-0.5065852480471134,1.7860531034275888
1789664058657542400,3.28954248046875,0.4391916277319193,-0.7021481521576642,-0.7256777885660529
1789664058667589400,3.29958935546875,1.1877455572336912,-1.6019754699274897,-0.6504851849377155
1789664058677635300,3.30963525390625,-0.31922084796130656,-2.102982625581324,0.9161334326654672
1789664058687681500,3.319681640625,-0.2622726338148117,-1.7642916457355022,2.3426292938292024
1789664058697728500,3.329728515625,-0.1705512124508619,-1.0674068209335208,3.8376387192487713
1789664058707774500,3.3397744140625,-0.9568880523800849,-0.8353323415055871,4.371580176255106
1789664058717820400,3.3498203125,-2.1289047100842,-1.572196125474572,4.855361471819878
1789664058727867400,3.359867431640625,-2.8107553396224976,-1.6551818671971559,4.362769093289971
1789664058737913300,3.369913330078125,-3.29024332190752,-1.5795923732057213,3.6820313934296367
1789664058747959300,3.379959228515625,-3.6832477834820745,-2.3139085185185073,3.8141491225898263
1789664058758006300,3.39000634765625,-3.822296188688278,-3.2726214482381937,4.290779377356172
1789664058768052200,3.40005224609375,-3.6381121722042558,-3.799860484996438,4.636373852980136
1789664058778098400,3.410098388671875,-3.2035476197510957,-3.968950684984028,4.404488758644462
1789664058788145400,3.4201455078125,-2.925245349894464,-3.8953210928887128,3.4674890635609623
1789664058798191400,3.43019140625,-2.780940339334309,-3.8510406371355055,2.348113862720132
1789664058808237300,3.4402373046875,-2.606336344361305,-4.296837654481828,1.150333818206191
1789664058818284500,3.450284423828125,-2.18761467320621,-4.7384968413710595,-0.5915571951508521
1789664058828330500,3.46033056640625,-1.7341326543152331,-4.906370359045267,-2.4739982504487035
1789664058838376400,3.47037646484375,-0.7791746932148933,-4.898149643188715,-3.8402369190484285
1789664058848423400,3.48042333984375,1.193853810980916,-4.719821951517463,-4.49852488669157
1789664058858469400,3.490469482421875,2.889866577999294,-4.375687611573935,-4.9454438938051455
1789664058868515600,3.500515625,3.7902640968725083,-4.36519602817595,-5.27675557705462
1789664058878562600,3.5105625,3.988916491430998,-4.71727051346898,-4.791154080325365
1789664058888608500,3.5206083984375,4.173946603350341,-5.117523630997538,-3.549589254620671
1789664058898654500,3.530654541015625,4.173549420726299,-4.618461179670692,-1.8415560872018337
1789664058908701400,3.540701416015625,3.578888414341211,-4.338818016599118,-0.6454033516287804
1789664058918747400,3.550747314453125,2.8261241736680267,-4.7739688445076345,-0.31824177379608154
1789664058928793300,3.56079345703125,2.206613095925748,-5.062385096621513,-0.39965047546029087
1789664058938840300,3.57084033203125,1.923295043733716,-4.803286124406755,-0.7584060459524392
1789664058948886300,3.58088623046875,1.8394038776040076,-4.234336482383311,-1.6030390075057743
1789664058958932500,3.590932373046875,1.9766049013778566,-3.666624565461278,-2.3061510362595317
1789664058968979500,3.6009794921875,1.8615413290016352,-3.387986780039966,-2.815284215223789
1789664058979025400,3.611025390625,1.8513268089793622,-3.276287861791253,-3.0603128687709567
1789664058989071400,3.6210712890625,1.7689707434624433,-2.8031501253157853,-2.524657009062171
1789664058999118300,3.631118408203125,1.6053374937064944,-2.524749948042631,-2.0727479385763408
1789664059009164300,3.641164306640625,1.6201818654865026,-2.420358576328307,-1.8321663275659084
1789664059019210200,3.651210205078125,1.6502333048790692,-2.0781091733485457,-1.8362953901946544
1789664059029257200,3.66125732421875,1.7018822435736656,-1.6714134555518627,-2.0333073240697384
1789664059039303400,3.671303466796875,1.5107213738143443,-1.2940487539187073,-2.1881191155970097
1789664059049349400,3.681349365234375,1.23567810575366,-0.9718088503971696,-2.228444696244597
1789664059059396600,3.691396728515625,0.8612848211467266,-0.719174105760455,-2.2223270901471377
1789664059069442600,3.701442626953125,0.29566351982839406,-0.6218544259980321,-2.151235784357786
1789664059079488500,3.711488525390625,-0.2697820595968515,-0.6217579798862338,-2.014165401226282
1789664059089534700,3.72153466796875,-0.7801431729208678,-0.6446551636099815,-1.7615438083320856
1789664059099580700,3.73158056640625,-1.2920809609770774,-0.7835568538218736,-1.4255197096079588
1789664059109627000,3.741626953125,-1.6425339825481176,-0.8678101312622427,-1.0191256051063537
1789664059119673900,3.751673828125,-1.8602263008803128,-0.8436419046893715,-0.6004109482139348
1789664059129719800,3.7617197265625,-1.8913146821051834,-0.8292164889737963,-0.23147359092533587
1789664059139765800,3.771765869140625,-1.6981833890557287,-0.9292389979541301,0.028467969593405723
1789664059149812700,3.781812744140625,-1.3315239135712384,-1.1174182215541602,0.08311842819154262
1789664059159858700,3.791858642578125,-0.8223042984325438,-1.2480851673841475,-0.07490706468522548
1789664059169904600,3.801904541015625,-0.2579285036632791,-1.2575503303438424,-0.33427053305506704
1789664059179951600,3.81195166015625,0.3700415191382169,-1.136010693821311,-0.5939157409757375
1789664059189997600,3.82199755859375,0.7818781069546937,-1.0186667554229498,-0.823099759659171
1789664059200043800,3.832043701171875,0.9795487969994544,-1.0148942511469126,-0.9929267494887113
1789664059210090800,3.8420908203125,1.1276713200211523,-1.172208380883932,-1.1509352912306785
1789664059220137000,3.852136962890625,1.3988690185695887,-1.2666951753079891,-1.3246551968455313
1789664059230183000,3.862182861328125,1.9215075757950544,-1.1022159762471913,-1.7321178073614836
1789664059240230000,3.87222998046875,2.5714409720689058,-0.7631675612658262,-2.1556173604428768
1789664059250275800,3.88227587890625,3.0515847879141567,-0.42039165019392966,-2.5462948403745886
1789664059260321800,3.89232177734375,3.356641501444578,-0.06881225494146347,-2.8111703501641747
1789664059270368800,3.90236865234375,3.4295863261461257,0.25677520544230936,-3.007875994569063
1789664059280414700,3.912414794921875,3.3232921895503997,0.5664104789346456,-3.197406632778048
1789664059290461000,3.9224609375,3.257361627525091,0.9022773412704467,-3.39526203173995
1789664059300508000,3.9325078125,3.2826527206480502,1.325266022220254,-3.700802729395032
1789664059310553900,3.942553955078125,3.2254256895601747,1.8565297844499349,-3.9527749184697862
1789664059320599800,3.952599853515625,3.0055098499596116,2.2518699954956767,-4.07681104798317
1789664059330646800,3.962646728515625,2.5867174516558644,2.5380127497196194,-4.150397677719593
1789664059340692700,3.972692626953125,2.1577590486466884,2.848857983523607,-4.2822108709752555
1789664059350738700,3.98273876953125,1.782586011838913,3.1830887690901752,-4.388161893221736
1789664059360785700,3.99278564453125,1.3791349750518798,3.466022498139739,-4.41508438693881
1789664059370831600,4.00283154296875,1.0458125365018844,3.621815117397904,-4.437192173850536
1789664059380877800,4.0128779296875,0.8121125016987323,3.775450850883126,-4.447445272317529
1789664059390924800,4.0229248046875,0.7417652922749519,3.8640000719517467,-4.507280440077185
1789664059400970800,4.032970703125,0.7006769105613231,3.872158828487992,-4.610783484649658
1789664059411016700,4.0430166015625,0.6365595354378223,3.8467251120239494,-4.740916177472472
1789664059421064000,4.05306396484375,0.6208961023598909,3.7857840288490054,-4.917494979649782
1789664059431109600,4.063109619140625,0.6103010585874319,3.784527891308069,-4.915583008548617
1789664059441155600,4.073155517578125,0.5386731617033481,3.7980315160036087,-4.933495097336173
1789664059451202800,4.083202880859375,0.537602902123332,3.7845050949543713,-5.046118436953425
1789664059461248800,4.093248779296875,0.6023311026215553,3.7645343200713395,-5.156579630100727
1789664059471295000,4.103294921875,0.7640782463699579,3.6201527371436355,-5.224723192000389
1789664059481342000,4.113342041015625,0.9870353533625602,3.256983441862464,-5.258804325300455
1789664059491388000,4.123387939453125,1.2479460511744023,2.795142175427079,-5.071780116954446
1789664059501433900,4.133433837890625,1.5730997963160276,2.3281436723589897,-4.703641801089048
1789664059511480800,4.143480712890625,1.9966870276808737,1.8316110317707062,-4.354075499224662
1789664059521526800,4.15352685546875,2.382481411746144,1.5888859789907932,-4.084356056535244
1789664059531572700,4.16357275390625,2.4168448691189286,1.388819333720207,-4.227887744635344
1789664059541619700,4.17361962890625,2.0453543202161786,1.0913649118870496,-4.74183387683928
1789664059551665700,4.183665771484375,1.2106325118243693,0.9145721746981144,-4.796710253147781
1789664059561711900,4.1937119140625,0.08037292887568473,0.8653589387178421,-4.454998171915114
1789664059571758800,4.2037587890625,-0.8822818703375757,1.020764604485035,-4.566500398547947
1789664059581804800,4.2138046875,-1.4896645572602747,1.199464052078128,-5.080130012148619
1789664059591850800,4.223850830078125,-1.8518939413428306,1.4153057741075754,-5.613949888601899
1789664059601897700,4.233897705078125,-2.0052736542403697,1.8577350685864686,-5.934725564789772
1789664059611943700,4.243943603515625,-2.1523219721592963,2.345063827499747,-6.277034442871809
1789664059621989600,4.25398974609375,-2.1781752292096614,2.8864322196364403,-6.681531189319491
1789664059632036600,4.26403662109375,-2.021244107440859,3.4322575911819935,-7.059501163369417
1789664059642082800,4.274082763671875,-1.7743531671531498,3.888233764976263,-7.3267685367316
1789664059652128800,4.284128662109375,-1.6340467247098682,4.125162698698044,-7.367007608139515
1789664059662176000,4.294176025390625,-1.48790163924098,4.043111607477068,-7.0666504506021734
1789664059672222000,4.304221923828125,-1.2866801248468458,3.7713539369583127,-6.372492128154635
1789664059682267600,4.314267578125,-0.9995398840181529,3.3490760346263646,-5.49171408650875
1789664059692315000,4.32431494140625,-0.6895889687053859,2.874389899665117,-4.521709362924098
1789664059702360800,4.33436083984375,-0.3630506373375654,2.4406390016824004,-3.5879163549274202
1789664059712406800,4.34440673828125,-0.05103928236365318,1.98352710185647,-2.88040872156322
1789664059722453800,4.354453857421875,0.12630538961961865,1.6887655723690986,-2.401469605332613
1789664059732499700,4.364499755859375,0.2534789403758943,1.3331231654614208,-2.3943577275007963
1789664059742546000,4.3745458984375,0.2549655256718397,1.0920119776189328,-2.5960814923286435
1789664059752592000,4.384591796875,0.13219839318096638,1.1106465354621409,-2.7128607825815676
1789664059762638800,4.394638916015625,0.22307474202290176,1.1348843201398848,-2.8638030391991136
1789664059772684800,4.404684814453125,0.5341664979338646,1.0928063428670167,-2.944510314595699
1789664059782730800,4.414730712890625,0.9883294848263263,0.9351800784409046,-2.9766403138279913
1789664059792777700,4.42477783203125,1.4685352599918842,0.773755590775609,-2.958977231365442
1789664059802823700,4.43482373046875,1.6692146303333342,0.5187772056221962,-3.160343853318691
1789664059812870000,4.444869873046875,1.575657664105296,0.4319201754242182,-3.248508458983898
1789664059822916900,4.454916748046875,1.4294566106654703,0.08433890989720821,-3.58297422235012
1789664059832962800,4.464962890625,1.211441636250168,-0.5169920757710933,-3.895296542969346
1789664059843008800,4.4750087890625,0.8915677312076091,-0.6245411808639765,-3.6137446236670017
1789664059853055700,4.4850556640625,0.603377981325984,-0.790434338375926,-3.1288316937237974
1789664059863101700,4.495101806640625,0.48227673622071743,-1.4160592228233813,-2.8048119210481643
1789664059873147600,4.505147705078125,0.4641154949776828,-2.1055331868469715,-2.4154706581562757
1789664059883194600,4.515194580078125,0.6495813679657876,-2.779247271680832,-1.8955039504885673
1789664059893240600,4.525240478515625,0.9196675981409848,-3.353151905763149,-1.3150076630562544
1789664059903286800,4.535286865234375,1.2150187640845775,-3.839227157483995,-0.7408920165717602
1789664059913334000,4.545333984375,1.5782082253709435,-4.260786390152574,-0.17347440642118453
1789664059923380000,4.5553798828125,1.9294937522433697,-4.586033951057494,0.37705519729256626
1789664059933425700,4.56542578125,2.2693425238221883,-4.8469952100127935,0.781316381418705
1789664059943473000,4.575472900390625,2.493656890642643,-4.946045366829633,0.9878659589678048
1789664059953518800,4.585518798828125,2.7990789303541184,-5.373816021358967,0.7718851207286119
1789664059963564800,4.595564697265625,2.8447441184639928,-5.73545328476727,0.7233160278707742
1789664059973611800,4.60561181640625,2.6439433136999604,-5.775602924326062,0.9844143572092056
1789664059983657700,4.61565771484375,2.1507751811087132,-5.651053584593535,1.5328624784737825
1789664059993704000,4.625703857421875,1.576342139238119,-5.834515132021903,2.0149433998614548
1789664060003751000,4.6357509765625,0.9932786316663026,-6.101756786420941,2.4937135892659423
1789664060013796900,4.645796875,0.528998593776673,-6.359602251443267,2.8437001623690126
1789664060023842800,4.6558427734375,0.2052466782569885,-6.598312223362922,3.102113198146224
1789664060033889800,4.665889892578125,0.013010872742533684,-6.8548886913627385,3.2387896135240792
1789664060043935700,4.675935791015625,-0.09868263867869972,-7.114189031368493,3.200228704461455
1789664060053981700,4.685981689453125,-0.07643164390400052,-7.359917942139506,3.09520122680068
1789664060064028700,4.696028564453125,-0.07168518002927303,-7.64450995979011,2.9117326651096342
1789664060074074600,4.70607470703125,-0.055176528298854825,-7.903942986264824,2.8326509450882673
1789664060084120800,4.716120849609375,-0.059519525939226145,-8.067175400134921,2.868160649886727
1789664060094168000,4.72616796875,-0.21036139092221856,-8.255992337116599,2.9694612159788605
1789664060104214300,4.73621435546875,-0.5307463142268359,-8.402199966427684,3.198641727530956
1789664060114260000,4.746260009765625,-1.0558084453374146,-8.57136118582487,3.644938218832016
1789664060124307200,4.75630712890625,-1.5810459330148994,-8.724033627235888,4.106358629506826
1789664060134353200,4.766353271484375,-2.1935013931572436,-8.86099528929591,4.372421887776255
1789664060144399000,4.776399169921875,-2.800983302670717,-8.866268261262775,4.709299972981214
1789664060154446000,4.786446044921875,-3.190417504543066,-8.655401989558339,4.963951025876402
1789664060164492000,4.796491943359375,-3.2266981937140224,-8.41404705608785,4.956501294392347
1789664060174538200,4.806538330078125,-2.9812668045848607,-8.236657522049546,4.853102879238128
1789664060184585200,4.816585205078125,-2.455981824503839,-7.9463821980655185,4.826208442571759
1789664060194631200,4.826631103515625,-1.684210393282771,-7.5054077785700555,4.726397238254547
1789664060204677000,4.836677001953125,-0.7999377875193953,-7.000421782413125,4.398239635121822
1789664060214724000,4.84672412109375,0.05086509484052658,-6.485861317703128,3.8928386284232137
1789664060224770000,4.85677001953125,0.7846697834998368,-5.975687105253338,3.1961019799202677
1789664060234816000,4.86681591796875,1.397003224697709,-5.375719224631786,2.4028783030867573
1789664060244863000,4.876863037109375,1.8439624176912008,-4.7587438028469675,1.5889882703214884
1789664060254909000,4.886908935546875,2.053923411118984,-4.183472556586564,0.8032230928003787
1789664060264955100,4.896955078125,1.8976988301843403,-3.624392858931422,0.14805004230737684
1789664060275002000,4.907002197265625,1.5714023447483778,-3.0500168079450725,-0.316515680655837
1789664060285048000,4.917048095703125,1.1248013175427913,-2.5198481474757193,-0.5433294630765915
1789664060295094000,4.927093994140625,0.6710983493775129,-2.080082519248128,-0.6815946089506149
1789664060305141000,4.93714111328125,0.32074002035260196,-1.6794669981479644,-0.6446241839498281
1789664060315187000,4.94718701171875,0.06877411488816142,-1.3657228280320763,-0.4254524407148361
1789664060325233000,4.95723291015625,-0.10664134259819984,-1.130272150169313,-0.17016951965689658
1789664060335280000,4.967280029296875,-0.30574060414135457,-0.9080477413654326,0.1188163490384817
1789664060345326000,4.977326171875,-0.4726638353534043,-0.7086559266164898,0.33019173930883405
1789664060355372300,4.987372314453125,-0.6366368384577333,-0.4158750495523214,0.36473932107686996
1789664060365419300,4.997419189453125,-0.7551410528071224,-0.04726736260950565,0.2692261062145233
1789664060375465200,5.00746533203125,-0.7389829680800437,0.3881307180583477,0.1357172149568796
1789664060385511200,5.01751123046875,-0.5921550149135292,0.7026023256659507,-0.07417582780122757
1789664060395558100,5.02755810546875,-0.394253000330925,0.9335025006175041,-0.29858196455836294
1789664060405604000,5.03760400390625,-0.16132336537837982,1.1262219979956745,-0.45656420281529425
1789664060415650000,5.047650146484375,0.05535349230095744,1.277521689748764,-0.5489741909652948
1789664060425697000,5.057697021484375,0.2656273510701954,1.4025281255990265,-0.5871387941867112
1789664060435743000,5.067742919921875,0.418759080556035,1.5003531245350836,-0.6165449214130639
1789664060445789200,5.0777890625,0.5098667539358138,1.6037252362042664,-0.6304787542194128
1789664060455836200,5.087836181640625,0.6136668817587196,1.7593612035959958,-0.6384995635896921
1789664060465882000,5.097882080078125,0.7582907490096986,1.8044225805938243,-0.6992109296619892
1789664060475928000,5.107927978515625,0.8835949987627565,1.7599989169776438,-0.8513537942409515
1789664060485975000,5.11797509765625,0.9524585455000399,1.7393115182578562,-1.081289508074522
1789664060496021000,5.12802099609375,0.9076550887860357,1.8135253399819136,-1.3606979856073855
1789664060506067000,5.13806689453125,0.9573901566833257,1.9600807598173617,-1.7035849558383225
1789664060516114000,5.148114013671875,1.0722596677921712,2.1185084037542343,-2.0606290462374686
1789664060526160100,5.15816015625,1.1475678606241941,2.2858587743371723,-2.425527941790223
1789664060536206000,5.1682060546875,1.1536965726375579,2.418825229281187,-2.76132758410871
1789664060546253000,5.178253173828125,1.1313047080874443,2.605467160311341,-3.044496875479817
1789664060556299000,5.188299072265625,1.038447706822306,2.899752304458618,-3.3014135352194307
1789664060566345000,5.198344970703125,0.8857773112379014,3.173984840658307,-3.545809151560068
1789664060576392200,5.20839208984375,0.6804220580399036,3.433862103769183,-3.6923932129681107
1789664060586438100,5.218438232421875,0.48231867566630243,3.6677456784456965,-3.8687452206522224
1789664060596484000,5.228484130859375,0.2624415606409311,3.8231852464824914,-4.108297488614917
1789664060606531000,5.238531005859375,0.017999182549118996,3.8742356347620484,-4.494056216844916
1789664060616577000,5.248576904296875,-0.26636720965206623,3.8482355165868993,-4.96740555024445
1789664060626623200,5.258623291015625,-0.6755738873563707,3.852639889025688,-5.1493625383287664
1789664060636670200,5.268670166015625,-1.0352997641853987,3.8247418282747265,-5.091935016232728
1789664060646716200,5.278716064453125,-1.1186806427054106,3.7136768240153786,-5.010666599822044
1789664060656762000,5.28876220703125,-0.8727886503271758,3.640922553449869,-4.787876666089892
1789664060666809000,5.29880908203125,-0.44681423156484956,3.585587619718909,-4.797589666330814
1789664060676855000,5.30885498046875,-0.07674246341884136,3.6767414703279733,-5.057976048007607
1789664060686901000,5.31890087890625,0.04776362169384956,3.8115076681703326,-5.436736880174279
1789664060696948000,5.328947998046875,-0.08582783328071236,3.8608629429697987,-5.874593459910154
1789664060706994200,5.338994140625,-0.29538769856169816,3.7924884949237105,-6.262882583400606
1789664060717040000,5.3490400390625,-0.447118329077959,3.575747778227925,-6.3835559584826225
1789664060727087000,5.359087158203125,-0.4059935608766973,3.2815707706302404,-6.321648076102138
1789664060737133000,5.369133056640625,-0.2757088923625648,3.0748195330291983,-6.278997851899266
1789664060747179000,5.379178955078125,-0.09626841714382171,2.956909192919731,-6.513024049916863
1789664060757226000,5.38922607421875,0.08257379992082714,3.0473429125607012,-6.945247007679939
1789664060767272000,5.39927197265625,0.1507452727407217,3.4122757103830574,-7.437134452810883
1789664060777318000,5.40931787109375,0.17023264802098273,3.86300580021739,-7.953491153287887
1789664060787364000,5.419364013671875,0.11767287809178233,4.2984763615995645,-8.207958081787824
1789664060797411000,5.4294111328125,-0.05698576967790722,4.634947619569301,-8.122339068952202
1789664060807457000,5.43945703125,-0.36540158437788484,4.59910415277183,-7.932227415984869
1789664060817504300,5.449504150390625,-0.7776571282587945,4.1783617894440885,-7.784588877087831
1789664060827550200,5.45955029296875,-1.1838380284011363,3.4050837530523537,-7.722158432137966
1789664060837596200,5.46959619140625,-1.5128379275768995,2.489273560991883,-7.5146514077335596
1789664060847643100,5.47964306640625,-1.6640684996165334,1.6656728660732507,-6.950739175355434
1789664060857689000,5.489689208984375,-1.5498025073587893,0.922154008129239,-6.132464059373736
1789664060867735000,5.499735107421875,-1.1442188424572348,0.294034968778491,-5.242191628673672
1789664060877781200,5.50978125,-0.5706595146812499,-0.11133680693805217,-4.255393591198325
1789664060887828200,5.519828125,0.03239069599509239,-0.4877174659699201,-3.3621558809518812
1789664060897874200,5.529874267578125,0.541151826776564,-0.8758429233312607,-2.727173385572433
1789664060907920100,5.539920166015625,0.8414828269593417,-1.1025585060745478,-2.105832462054491
1789664060917967000,5.549967041015625,1.0560556980967521,-1.1757973452866077,-1.4530302323460578
1789664060928013000,5.560012939453125,1.2179597859725355,-1.1664373962670564,-0.8427350189775228
1789664060938060000,5.57006005859375,1.3386175250940024,-1.0562392379701138,-0.2515367202669382
1789664060948106000,5.58010595703125,1.4682612653560936,-0.928804698190093,0.30800562646389007
1789664060958152000,5.59015185546875,1.6156600041478872,-0.9715893624275922,0.5877987194001675
1789664060968198100,5.6001982421875,1.8525513823382556,-1.203294424021244,0.46866672854125496
1789664060978245000,5.6102451171875,2.076450884747505,-1.2565221563398836,0.2758177595645189
1789664060988291000,5.620291015625,2.076085558566451,-1.1192249787151813,0.21219839709103105
1789664060998337000,5.6303369140625,1.998885414507985,-0.9890338337033987,0.12680910135805606
1789664061008384000,5.640384033203125,1.8873557153463363,-0.8898124119728803,0.18000526949465273
1789664061018430000,5.650429931640625,1.7611065859586,-0.8765589626461266,0.35154958463609215
1789664061028476000,5.660475830078125,1.7084674671828746,-1.1518427614644169,0.3892366334736347
1789664061038523000,5.67052294921875,1.8455682454526423,-1.6309265468627214,0.3447907580256462
1789664061048569000,5.680569091796875,1.9740888269037007,-1.9410262229964137,0.4552051894217729
1789664061058615000,5.690614990234375,1.9736989508032798,-2.2423472571298477,0.5576338827610016
1789664061068662300,5.700662353515625,1.987361565452814,-2.6820176082894203,0.5893143846601248
1789664061078708200,5.710708251953125,2.035932411876321,-3.185970754267275,0.5976525894165039
1789664061088754200,5.720754150390625,2.141366132250428,-3.698805418097973,0.7232885553419589
1789664061098800600,5.730800537109375,2.3357255057901143,-4.133368216985464,0.9385586149632931
1789664061108846600,5.7408466796875,2.6651749022990465,-4.584587843902408,1.0652736082971095
1789664061118892500,5.750892578125,2.8653286413311956,-5.332296262490749,1.2101952894508838
1789664061128939500,5.760939453125,2.8026924446761607,-5.590444509851932,1.5947247681468724
1789664061138985700,5.77098583984375,2.849816599422693,-5.736340004473925,1.870220456150174
1789664061149031700,5.78103173828125,2.9966666182905435,-5.810110174083709,2.1606834116607905
1789664061159078700,5.79107861328125,2.9511241797775027,-6.0146764688611025,2.4389433036804196
1789664061169124600,5.80112451171875,2.652767840668559,-6.181857328096032,2.7392969540864227
1789664061179170600,5.811170654296875,2.416963527062535,-6.351475059089064,3.008916443532705
1789664061189217500,5.821217529296875,2.279576333066821,-6.534095479518175,3.235382435429096
1789664061199263500,5.831263427734375,2.138440600192547,-6.678762893649935,3.4501895537137983
1789664061209309700,5.841309814453125,1.9645365701824427,-6.740156396767497,3.6626083155572413
1789664061219356400,5.8513564453125,1.83882110927999,-6.844898043224215,3.801820386892557
1789664061229402600,5.861402587890625,1.7318723081678151,-6.932481634131073,3.912125512695312
1789664061239448600,5.871448486328125,1.6480512846648692,-6.96354078926146,3.9800913799405095
1789664061249495600,5.88149560546875,1.5671236445158718,-6.978858769902587,4.009692152956128
1789664061259541500,5.89154150390625,1.5141858350545168,-7.046230178385972,3.96438761485219
1789664061269587500,5.90158740234375,1.432677180147171,-7.236680269527435,3.7823692519694565
1789664061279634400,5.911634521484375,1.3135674011200666,-7.500314254823326,3.5736464220345017
1789664061289680400,5.921680419921875,1.1444371613830326,-7.645019662877917,3.564665827721357
1789664061299726600,5.9317265625,0.9188929605066776,-7.632242014369368,3.7150901979446407
1789664061309773600,5.941773681640625,0.6735802293211222,-7.683347932228446,3.8007618177503346
1789664061319819800,5.95181982421875,0.43177693102862685,-7.742228575742244,3.9531881754457947
1789664061329865500,5.961865478515625,0.14496374846352264,-7.580683092045784,3.992068233460188
1789664061339912700,5.97191259765625,0.19149459522571413,-7.176522445684671,4.069486404183507
1789664061349958700,5.981958740234375,0.5855425014385953,-6.457103425252437,4.089692741388082
1789664061360004600,5.992004638671875,1.15346919362247,-5.640933172595501,3.7709120384097097
1789664061370051600,6.002051513671875,1.7666805866986512,-4.888478144001961,3.109087713333964
1789664061380097500,6.01209765625,2.29412508290112,-4.275991850329936,2.1007693334460256
1789664061390143700,6.022143798828125,2.6478128486096857,-3.741239661462605,1.036411670950055
1789664061400190500,6.0321904296875,2.804818350788951,-3.2722435548365114,0.04479951119124889
1789664061410236700,6.042236572265625,2.855653635013103,-2.868776443697512,-0.7002285822719335
1789664061420282600,6.05228271484375,2.718423092883825,-2.5260695062085983,-1.032984034588933
1789664061430329600,6.06232958984375,2.3500708420068026,-2.3929268179148435,-0.9020563919961452
1789664061440375600,6.07237548828125,1.6959534380465744,-2.407598025085032,-0.5238052629172801
1789664061450421500,6.08242138671875,0.9711714292764663,-2.513483288618922,-0.12275778014063835
1789664061460468500,6.092468505859375,0.5221171636998653,-2.549281747230887,0.1262415306031704
1789664061470514400,6.102514404296875,0.49168936527557666,-2.3335557605355977,0.12984978422820567
1789664061480560600,6.112560546875,0.6763497670996934,-1.717478748895228,0.010098200166225433
1789664061490607600,6.122607666015625,0.8100369375336914,-1.0222934214875101,-0.14450667061209677
1789664061500653600,6.132653564453125,0.8710719826024025,-0.4607429498046636,-0.3379927684485912
1789664061510699500,6.142699462890625,0.7524690571188927,0.10166267740279436,-0.6574211216807365
1789664061520746500,6.15274658203125,0.4180880494266748,0.7045102051138877,-0.7867454207301139
1789664061530792400,6.16279248046875,-0.010507365489006042,1.2971382443666457,-0.888863732945919
1789664061540838400,6.17283837890625,-0.4861334116488695,1.6498445978224276,-1.1264525918811559
1789664061550885600,6.1828857421875,-1.0732926641017198,1.815995529487729,-1.3077625142335891
1789664061560931600,6.192931640625,-1.520766967010498,1.8812696734309196,-1.363125505015254
1789664061570977800,6.202977783203125,-1.950611505204439,1.9003934760957955,-1.4820868154823779
1789664061581024800,6.213024658203125,-2.2503993384212255,1.921094318819046,-1.5302683703273534
1789664061591070700,6.22307080078125,-2.363003973338008,1.8968541960537433,-1.5316262146770954
1789664061601116700,6.23311669921875,-2.313159599847346,1.883465722170472,-1.6270792237848042
1789664061611163600,6.24316357421875,-2.3599648979030547,1.9913719701379538,-1.820318653383851
1789664061621209600,6.253209716796875,-2.2963855751790105,2.042286164817214,-1.9969711053192614
1789664061631255600,6.263255615234375,-2.0657810221731663,1.911060416060686,-2.0627847629666327
1789664061641302500,6.273302490234375,-1.669756335994601,1.8861796573042868,-1.9331939219355583
1789664061651348500,6.283348388671875,-1.3321343005545436,1.7949001344889401,-2.133714156192541
1789664061661394700,6.293394775390625,-1.1618132435977457,1.7976625849395989,-2.5565105294406414
1789664061671441700,6.303441650390625,-0.9858037657409906,1.8966525360018014,-2.7565374272227285
1789664061681487600,6.313487548828125,-0.8714065483190119,2.097289090114832,-2.9640654944151636
1789664061691533600,6.323533447265625,-0.7193016776628792,2.363867312169075,-3.343475145879388
1789664061701580500,6.33358056640625,-0.5235439816325903,2.667588977703452,-3.798333129298687
1789664061711626500,6.34362646484375,-0.3787181620687246,3.078618925312161,-4.129466533371806
1789664061721672400,6.35367236328125,-0.2723721491552889,3.456996895641088,-4.47108976727724
1789664061731719400,6.363719482421875,-0.16056187948659062,3.7345652982652187,-4.794354337671399
1789664061741765400,6.373765380859375,-0.2930130783848464,4.088642355552316,-4.942075878676772
1789664061751811600,6.3838115234375,-0.5159935662530363,4.055424561083316,-5.14044098072648
1789664061761858600,6.393858642578125,-0.5771520915709436,3.526724511861801,-5.842508468863367
1789664061771904500,6.403904541015625,-0.7541928121715784,3.2494016084313393,-6.284567760986089
1789664061781950500,6.413950439453125,-0.910783303809166,3.182705322730541,-6.5372518977224825
1789664061791996400,6.423996337890625,-1.078315606830269,3.410719128590822,-6.2969438429564235
1789664061802043600,6.434043701171875,-1.3353347040310501,3.286578369659185,-6.330924438491463
1789664061812089600,6.444089599609375,-1.8802667799986899,2.945370730817318,-6.561842149099707
1789664061822135800,6.4541357421875,-2.3723019630372524,2.8609190081954,-6.491044857820868
1789664061832182500,6.4641826171875,-2.7224878581047056,2.575537885993719,-6.918861105057597
1789664061842228700,6.474228759765625,-2.9534914934307337,2.0223574755102396,-7.216672085243463
1789664061852274700,6.484274658203125,-2.8556273315280674,1.727389025273919,-6.874027107074856
1789664061862321700,6.49432177734375,-2.3805900450415907,1.6128659895151853,-6.353080740720033
1789664061872367600,6.50436767578125,-1.6876999889642,1.4307032497256993,-6.222658709561824
1789664061882413600,6.51441357421875,-1.051738419419527,1.2254466345965862,-6.211473298680782
1789664061892460500,6.52446044921875,-0.604700169840455,1.1583733322769403,-6.293208163559436
1789664061902506500,6.534506591796875,-0.4291907504603266,1.250797933474183,-6.501753883361816
1789664061912552700,6.544552734375,-0.49758594903349873,1.4156044647932051,-6.726836311945319
1789664061922599700,6.554599609375,-0.6497312978304922,1.6643243740737437,-6.933589303112029
1789664061932645600,6.564645751953125,-0.8154597663000226,2.0162176575809716,-7.017074811050295
1789664061942691600,6.574691650390625,-1.074967027054727,2.3871412202507254,-6.957429612904787
1789664061952738600,6.584738525390625,-1.4040259629413485,2.7004981446146963,-6.584374298903346
1789664061962784500,6.594784423828125,-1.7571449888512491,2.860177249917388,-6.027357086735964
1789664061972830500,6.60483056640625,-1.9421563960701227,2.778907664462924,-5.4279088460743425
1789664061982877400,6.61487744140625,-1.9007938735902308,2.4933605380445716,-4.726274488657713
1789664061992923400,6.62492333984375,-1.5633119772732258,2.0537714354276657,-3.9643542971044776
1789664062002969600,6.634969482421875,-1.070013496300578,1.5356296050995588,-3.2900089286297556
1789664062013016600,6.6450166015625,-0.4061374993920326,1.0369628750920294,-2.6810464251697064
1789664062023062500,6.6550625,0.3181101102404296,0.6253139188021422,-2.06180159714818
1789664062033108500,6.6651083984375,0.9322418330319225,0.26989947543144227,-1.4216624496579169
1789664062043155700,6.67515576171875,1.4617343478053808,-0.05589958187639713,-0.9205617705017328
1789664062053201700,6.68520166015625,1.8764082048743962,-0.34738077451884747,-0.6448188297390938
1789664062063247600,6.69524755859375,2.1725439453244206,-0.6133154379725456,-0.6409779364019632
1789664062073294600,6.705294677734375,2.438368134140968,-0.7231962008833884,-0.7948352036833762
1789664062083340500,6.715340576171875,2.609411514022946,-0.7058142734497785,-0.9496844046115874
1789664062093387300,6.72538720703125,2.620889185848832,-0.5108136793971061,-1.03569387806952
1789664062103434200,6.735434326171875,2.4900761095464228,-0.348843832808733,-1.1665484554260968
1789664062113480400,6.74548046875,2.1153817961663006,-0.29903496902287,-1.2229951497912406
1789664062123526400,6.7555263671875,1.7806968370914458,-0.2822390247836709,-1.2902543300718068
1789664062133573400,6.765573486328125,1.6743559387445448,-0.3220084328532219,-1.2959212697923184
1789664062143619300,6.775619384765625,1.8151660929262636,-0.40979134572446346,-1.3395324479818342
1789664062153665300,6.785665283203125,2.1519535772383214,-0.5284764695987105,-1.4938812981724738
1789664062163712300,6.795712158203125,2.493630587157607,-0.7169745498895644,-1.5946142935097216
1789664062173758200,6.80575830078125,2.7522762626469133,-1.0171583966866136,-1.5527005668878555
1789664062183804200,6.81580419921875,2.8641151738882065,-1.3801631490558386,-1.3967659088104962
1789664062193851100,6.82585107421875,2.902012066084146,-1.7418045041173695,-1.0937947693824768
1789664062203897300,6.8358974609375,2.907909891951084,-2.29694130936563,-0.791256760674715
1789664062213943300,6.845943359375,2.891249849051237,-2.8051787085339424,-0.3734785078495741
1789664062223989200,6.8559892578125,2.879523170900345,-3.1715888854324814,0.1280664079427719
1789664062234036200,6.8660361328125,2.9695208372116086,-3.508415532711148,0.6301473303079604
1789664062244082200,6.876082275390625,3.094919487249851,-3.7676696954876183,1.1238777729570866
1789664062254128000,6.886128173828125,3.2432395786702632,-3.935463133662939,1.6633587439119815
1789664062264175000,6.896175048828125,3.476369120109081,-4.236661710460484,2.0247709663927553
1789664062274221000,6.906220947265625,3.7303579097032546,-4.738202534599602,2.2601263671875
1789664062284267300,6.916267333984375,3.8344589201688764,-5.234503996780514,2.5122294891655446
1789664062294314500,6.926314453125,3.790740189951658,-5.567786103320121,2.818969625738263
1789664062304360400,6.9363603515625,3.6890813119411465,-5.889679385361075,3.054036857241392
1789664062314406400,6.946406494140625,3.5216450166404245,-6.229807412272692,3.2100024949789043
1789664062324453400,6.956453369140625,3.284441357630491,-6.432530125010013,3.3924469743192196
1789664062334499300,6.966499267578125,3.0367864472329615,-6.58785395771265,3.5571775177925824
1789664062344545300,6.976545166015625,2.779720734411478,-6.703730746167897,3.638865036398172
1789664062354592300,6.98659228515625,2.511294254142046,-6.666466306656599,3.7032688272476193
1789664062364638200,6.99663818359375,2.296547926133871,-6.52490913349986,3.7095962767034765
1789664062374684400,7.006684326171875,2.0967910774648186,-6.371835710072517,3.52756563886106
1789664062384731400,7.0167314453125,1.858038435447216,-6.105483697989583,3.384340240231156
1789664062394777300,7.02677734375,1.581605174332857,-5.8210980165660375,3.333811829999089
1789664062404823300,7.0368232421875,1.3332101130925118,-5.615948953464627,3.2860727582246065
1789664062414870300,7.046870361328125,1.159151330912113,-5.664263779300451,3.281213627755642
1789664062424916200,7.056916259765625,0.9837373347304761,-5.971995849519968,3.3334400740772483
1789664062434962200,7.066962158203125,0.8936546204842627,-6.379232250064611,3.4850445939958092
1789664062445009200,7.077009033203125,1.0154912671919911,-6.741461049625277,3.741787650734186
1789664062455055400,7.087055419921875,1.3483353476405142,-7.099605794742703,3.896049991685152
1789664062465101300,7.097101318359375,1.708693238762766,-7.37005588979423,4.08964188798368
1789664062475147300,7.107147216796875,2.004533503397554,-7.55780607432723,4.4271407354354855
1789664062485194200,7.1171943359375,2.282699287392944,-7.656263525947928,4.814801497894525
1789664062495240200,7.127240234375,2.5349673906743524,-7.33976830355823,5.199129901060462
1789664062505286100,7.1372861328125,2.9323990210413933,-6.811513075494766,5.273879729357361
1789664062515333000,7.1473330078125,3.35145328515172,-6.14239625532329,5.0032063469439745
1789664062525379000,7.157379150390625,3.4848692374289034,-5.458438424372673,4.37687009935677
1789664062535425300,7.16742529296875,3.3691339032709595,-4.852486208644509,3.6224341260790824
1789664062545472300,7.17747216796875,3.047645694899559,-4.35583315654695,2.862043043789267
1789664062555518500,7.1875185546875,2.6208395014882084,-4.065571861088276,2.260917225304246
1789664062565564400,7.197564453125,2.1324445746481415,-4.035664214080572,2.013921071076393
1789664062575611400,7.207611328125,1.8012334291636942,-4.009826885251701,1.8193454244375227
1789664062585657300,7.2176572265625,1.902093850272894,-3.7206288351103662,1.2828583746016025
1789664062595703300,7.227703369140625,2.1630735216677186,-3.175211752104759,0.49445700335800646
1789664062605750300,7.237750244140625,2.179485727286339,-2.54454916575104,-0.22974399065375326
1789664062615796200,7.247796142578125,1.6652315520465373,-1.9366019768133758,-1.01359310542047
1789664062625842400,7.257842529296875,0.7098842993676662,-1.3746657206833361,-1.3926958828926086
1789664062635889400,7.267889404296875,-0.3384031028151512,-0.8722416839689016,-1.1494003367483616
1789664062645935400,7.277935302734375,-1.2222791104763746,-0.4995554955407977,-0.7226181087344884
1789664062655981300,7.287981201171875,-1.7845827386140822,-0.2395695113584399,-0.45113925515711306
1789664062666028300,7.2980283203125,-1.8842261851489543,-0.15323007529377936,-0.3692752109408378
1789664062676074200,7.30807421875,-1.6266291419297456,-0.3009413871660828,-0.4244634296774864
1789664062686120200,7.3181201171875,-1.202128887373209,-0.40521395480632777,-0.4183680354118347
1789664062696166400,7.32816650390625,-0.7258458386093377,-0.3750011873722076,-0.36301030532717704
1789664062706213000,7.338213134765625,-0.2145317719420418,-0.30008418581485746,-0.27044308078885076
1789664062716259300,7.34825927734375,0.1898626466423273,-0.23765607895255086,-0.17694938905537128
1789664062726305300,7.35830517578125,0.52909525908418,-0.06756079357564448,-0.054609542065858836
1789664062736352300,7.368352294921875,0.8895692508667707,0.10129004469811916,-0.07312368839979172
1789664062746398200,7.378398193359375,1.203663257333636,0.11064824015200138,-0.27438275832533837
1789664062756444200,7.388444091796875,1.3592729212403296,0.01608136622905731,-0.4960977563023567
1789664062766491100,7.3984912109375,1.3284211252503095,0.1300099432259798,-0.6824702227413654
1789664062776537000,7.408537109375,1.0344079299122095,0.3431821537852287,-0.9683306528925895
1789664062786583300,7.418583251953125,0.5946282731592655,0.5609112969964742,-1.1509966660290956
1789664062796630300,7.42863037109375,0.10784764964804053,0.7804816841602324,-1.1622235779643058
1789664062806676500,7.438676513671875,-0.20049977599084376,0.8712959275513887,-1.2819254776656628
1789664062816722400,7.448722412109375,-0.271037539550662,0.8352601530522108,-1.4840607459038495
1789664062826769400,7.458769287109375,-0.14708207405805587,0.8032716081172228,-1.8967139108002184
1789664062836815400,7.4688154296875,-0.11808102050125598,0.8711042043715715,-2.5854005238384006
1789664062846861300,7.478861328125,-0.2656833190411329,1.0542407576292752,-3.295268456593156
1789664062856908300,7.488908203125,-0.6935790612548589,1.4408002808481455,-3.916033041527867
1789664062866954200,7.498954345703125,-1.2676635819487272,1.9644576597273349,-4.461246418654919
1789664062877000400,7.50900048828125,-1.830745647113025,2.455723758089542,-4.808161329227685
1789664062887047200,7.519047119140625,-2.343428335252404,2.847927424675226,-5.049104174765944
1789664062897093400,7.52909326171875,-2.6114953345596787,3.1471564549654722,-5.153916548371314
1789664062907139300,7.539139404296875,-3.030515696400404,3.232171072167158,-5.747690250527858
1789664062917185300,7.549185302734375,-3.498831419546902,3.2365134852856396,-6.363405735379457
1789664062927232300,7.559232177734375,-3.907020883032679,3.341239934173226,-6.9427563599079845
1789664062937278200,7.5692783203125,-4.089996692770719,3.5280548836827275,-7.626068878692388
1789664062947324200,7.57932421875,-4.068470505139231,3.6972932599693533,-8.225394954279064
1789664062957371100,7.58937109375,-3.76693904312551,3.875328106173873,-8.86547389601469
1789664062967417300,7.599417236328125,-3.2119007298156617,4.020869965052604,-9.683077980867028
1789664062977463300,7.60946337890625,-2.524015204027295,4.085748387676477,-10.354833332848548
1789664062987510300,7.61951025390625,-1.8394652524024246,4.043982545092701,-11.120730026817322
1789664062997556200,7.62955615234375,-1.1126748264193533,3.878323196336627,-12.062364395964146
1789664063007602200,7.639602294921875,-0.38387963648512957,3.807964880996942,-12.747685916483402
1789664063017649200,7.649649169921875,-0.0015229717835783957,3.947209101036191,-13.060679852753877
1789664063027695000,7.659695068359375,-0.014528437698632478,3.9860073259860274,-13.152110766738652
1789664063037741300,7.6697412109375,-0.4576362159609794,3.887688406053185,-12.99345983543992
1789664063047788300,7.679788330078125,-1.1540630678623913,3.6530642421424386,-12.5535428160429
1789664063057834500,7.68983447265625,-1.8803820769414306,3.27905323485136,-11.857206565034389
1789664063067880400,7.69988037109375,-2.420399054469168,2.8148768034666776,-11.115625981676578
1789664063077927400,7.709927490234375,-2.6768440050438045,2.406889292293787,-10.484045403695106
1789664063087973400,7.719973388671875,-2.6481156309485434,2.076061008647084,-9.894221900469065
1789664063098018300,7.730018310546875,-2.5245599784284827,1.7179449051022528,-9.217148568335174
1789664063108064500,7.740064453125,-2.365169773069769,1.3434937528282402,-8.431798985877633
1789664063118111500,7.750111572265625,-2.226822355739772,0.847995715984702,-7.6030322864979505
1789664063128157400,7.760157470703125,-2.098964914372563,0.227446819627285,-6.7320490781575435
1789664063138203400,7.770203369140625,-1.8805688316851854,-0.4415168558090925,-5.878596850332618
1789664063148250400,7.78025048828125,-1.5595301206469534,-1.136991521552205,-4.969659466651081
1789664063158296300,7.79029638671875,-1.218331834155321,-1.7519909670889378,-4.0305286047577855
1789664063168342300,7.80034228515625,-0.8488543786406516,-2.271979886588454,-3.185903826510906
1789664063178389500,7.810389404296875,-0.4468763370156288,-2.7079537213176486,-2.4200498026400803
1789664063188435500,7.820435546875,-0.020399813950061796,-3.046349225348234,-1.7635335208445786
1789664063198481700,7.830481689453125,0.4364772542066872,-3.2092315106064078,-1.239738194799423
1789664063208528600,7.840528564453125,0.8799392527341842,-3.2165111462205647,-0.8239192593485116
1789664063218574600,7.85057470703125,1.2848556858986615,-3.111581868237257,-0.5475006112813949
1789664063228620500,7.86062060546875,1.5977905854582786,-2.966592382544279,-0.2886252186894417
1789664063238667500,7.87066748046875,1.8164011876791715,-2.816998325665295,0.019941548788547515
1789664063248713500,7.88071337890625,2.0460452250897885,-2.7481901623770595,0.34302667096257206
1789664063258759400,7.890759521484375,2.2356804927170275,-2.714924437113106,0.6807739402174949
1789664063268805400,7.900805419921875,2.3640420842140912,-2.761941332092881,0.8556395087361335
1789664063278852400,7.910852294921875,2.542790047124028,-2.8134420944884417,0.951098947584629
1789664063288898600,7.920898681640625,2.783146617206931,-2.8766587213799357,1.0328501790761948
1789664063298944500,7.930944580078125,3.0076702428638935,-2.982547784306109,1.0430378110915421
1789664063308991500,7.940991455078125,3.1429110724806786,-3.1571430114507675,1.0784779577851296
1789664063319037400,7.951037353515625,3.2531273509562015,-3.4151232087686654,1.2246405789107084
1789664063329083400,7.96108349609375,3.361753729891777,-3.5748373853847384,1.384248372542858
1789664063339130400,7.97113037109375,3.4454572644948955,-3.680001933428645,1.6043091735720634
1789664063349176300,7.98117626953125,3.4649896479606626,-3.8529172446623443,1.8715198483109472
1789664063359222500,7.991222412109375,3.3965421346783637,-4.099168425741792,2.1790444132596254
1789664063369269200,8.001269287109375,3.3334172777235507,-4.355849523159861,2.4381997918367384
1789664063379315500,8.0113154296875,3.277643368053436,-4.588301019206643,2.6476602883964775
1789664063389361400,8.021361328125,3.262969530534744,-4.838332595607638,2.785149189200997
1789664063399408400,8.031408447265624,3.250475959664583,-5.133513811811804,2.886673042654991
1789664063409454300,8.041454345703125,3.187413062030077,-5.447342445340753,3.0212919409811496
1789664063419500300,8.051500244140625,3.0672528971672057,-5.74255756381452,3.294932356506586
1789664063429546200,8.061546142578125,2.9687773253679275,-5.918071367108822,3.663801909255981
1789664063439593500,8.071593505859376,2.9052713601410387,-5.959448502635955,4.013947472313046
1789664063449639700,8.0816396484375,2.9055121831595896,-5.9808747370243065,4.175666559010744
1789664063459685600,8.091685546875,2.8792811788380144,-6.008384675240516,4.209819003981352
1789664063469732600,8.101732666015625,2.7879052099108694,-6.0660413299173115,4.266342855235934
1789664063479778600,8.111778564453125,2.536236972218752,-6.204972830745578,4.405210058656334
1789664063489824500,8.121824462890626,2.1891582493864,-6.333252589178085,4.598374084931612
1789664063499871500,8.13187158203125,1.8364076183974742,-6.471765572333336,4.8326603951901195
1789664063509917400,8.14191748046875,1.473420547815412,-6.540940815368295,5.164333312967419
1789664063519963400,8.15196337890625,1.1685165406286715,-6.601050708416104,5.37604831045568
1789664063530010400,8.16201025390625,0.9685610275823623,-6.687997754985093,5.39324319088459
1789664063540056600,8.172056640625,0.9691313748162239,-6.744165632408857,5.334218170464038
1789664063550102500,8.1821025390625,1.0961479814451187,-6.906704803317785,5.127388022407889
1789664063560148500,8.1921484375,1.218857903856039,-7.263392919886112,4.813893150877952
1789664063570195500,8.202195556640625,1.3137035947203635,-7.6650073888957495,4.513991335892677
1789664063580241400,8.212241455078125,1.3337187932670116,-7.948774646160006,4.341930887922644
1789664063590287400,8.222287353515625,1.306330435603857,-8.109020737695694,4.110913224071264
1789664063600334300,8.232334228515626,1.2297615751862525,-8.26039144885838,3.7464036200970408
1789664063610380300,8.24238037109375,1.1117582960963248,-8.272621400356293,3.4762212360709905
1789664063620426500,8.252426513671875,0.974704279577732,-7.97398156813085,3.36989787338078
1789664063630473500,8.262473388671875,0.8699205475449562,-7.41886346758306,3.321652605649829
1789664063640519400,8.27251953125,0.9266063113629818,-6.776259391283989,3.251238760730624
1789664063650565400,8.2825654296875,1.1595814659576862,-6.172943953800201,3.108817664220929
1789664063660612400,8.2926123046875,1.3937456842064857,-5.639641379219293,2.791695249843597
1789664063670658300,8.302658203125,1.541772345638275,-5.232202149578929,2.312669039851427
1789664063680704300,8.312704345703125,1.6511247007608412,-4.968198746448755,1.6926228323191403
1789664063690751500,8.32275146484375,1.640274805444479,-4.753437513132393,1.073667342633009
1789664063700797400,8.33279736328125,1.5091455027997493,-4.57293803038001,0.4628127418160438
1789664063710843600,8.34284375,1.346416946798563,-4.371982619576156,-0.12418635163903236
1789664063720889600,8.3528896484375,1.169661034488678,-4.090146038113534,-0.6704705728679895
1789664063730936600,8.3629365234375,0.9885095175683498,-3.6431238628864286,-1.1770517292618752
1789664063740982500,8.372982421875,0.8270189789295196,-3.1585099158897996,-1.5384084221631287
1789664063751028500,8.383028564453125,0.5793079544305801,-2.7262948491722345,-1.6822873162657022
1789664063761075500,8.393075439453124,0.40882746912837026,-2.2118749619767066,-1.6246978816062212
1789664063771121400,8.403121337890624,0.3389484617382288,-1.6260010731592773,-1.3566010716825723
1789664063781167600,8.413167724609375,0.31524200745820996,-1.0836696812093258,-1.0747340950816868
1789664063791214600,8.423214599609375,0.3889262523502111,-0.5885673656851053,-0.9235141905665397
1789664063801260500,8.433260498046875,0.6118593208801001,-0.12749065388143063,-0.8672592193812131
1789664063811306500,8.443306396484376,0.8994920944660901,0.16340017165243625,-0.9381693233847618
1789664063821353500,8.453353515625,1.1213771883130073,0.34851416246294975,-1.1115157195121048
1789664063831399400,8.4633994140625,1.1592939542531966,0.5427227293550968,-1.2535814267128704
1789664063841445400,8.4734453125,0.9967185429871082,0.7052601466983557,-1.339139649271965
1789664063851491300,8.4834912109375,0.6775018597442657,0.8478069154143333,-1.3870973322331905
1789664063861538300,8.493538330078126,0.3714496323704719,0.9786159000635146,-1.524088220387697
1789664063871584500,8.50358447265625,0.08665412803702056,1.14917938747406,-1.6716940260589122
1789664063881630500,8.51363037109375,0.036585736532136794,1.2884119170755146,-1.7670833222806452
1789664063891677400,8.523677490234375,-0.08894099686518311,1.3820429714530706,-1.9338006556570528
1789664063901723400,8.533723388671875,-0.13013225443139673,1.5335522143036127,-2.127434053009748
1789664063911769300,8.543769287109376,-0.31011048978865147,1.6150608692109585,-2.3566519739627836
1789664063921816300,8.55381640625,-0.677846508463472,1.618075248596072,-2.519596803063154
1789664063931862300,8.5638623046875,-1.1681758374322204,1.6788731239080428,-2.4772476076334713
1789664063941908500,8.573908447265625,-1.518718802309036,1.7629764714837073,-2.3757541493177414
1789664063951955500,8.58395556640625,-1.7205857749998568,1.812905162256956,-2.4046429746717215
1789664063962001700,8.594001708984376,-1.770274811798334,1.774152530014515,-2.5035703818917274
1789664063972047600,8.604047607421874,-1.7656155878156423,1.7238877391546963,-2.607459210911393
1789664063982093300,8.61409326171875,-1.6811749711096287,1.6757763269364834,-2.855428594085574
1789664063992140500,8.624140625,-1.469173557895422,1.6512959656745194,-3.1959330530941483
1789664064002186500,8.6341865234375,-1.2293244989432395,1.7292226704418658,-3.4709354046225545
1789664064012232400,8.644232421875,-1.0941887371361254,1.8972540090262888,-3.740458447957039
1789664064022279400,8.654279541015624,-0.9525912319689989,2.128682007244229,-4.137084022638201
1789664064032325600,8.66432568359375,-0.8744375865779817,2.3939409633934496,-4.5125364609092475
1789664064042371600,8.67437158203125,-0.9833126795776188,2.7000597531974315,-4.902293903386592
1789664064052418600,8.68441845703125,-1.199631809860468,2.973399139949679,-5.360369679808616
1789664064062464500,8.694464599609375,-1.4766440399065612,3.1329508194804188,-5.852542956143617
1789664064072510500,8.704510498046876,-1.7488073686167598,3.236577782693505,-6.250208979788423
1789664064082557400,8.714557373046874,-1.9696546438485383,3.315851810416579,-6.625428778347373
1789664064092603100,8.72460302734375,-2.1399650332808493,3.2899054682552813,-7.048771679562329
1789664064102649000,8.734649169921875,-2.312269811400771,3.3498400047361847,-7.6348577498257155
1789664064112695300,8.7446953125,-2.4534455840244886,3.458419037398696,-8.031557558786869
1789664064122742300,8.7547421875,-2.419371318856627,3.439136829301715,-8.403349720984696
1789664064132788200,8.764788330078124,-2.3578587194040415,3.2114386652618645,-8.806848688566685
1789664064142834200,8.774834228515624,-2.2166689182549715,2.8841157593876123,-8.926859215825795
1789664064152881200,8.784881103515625,-1.93141872895658,2.5639316193521022,-8.750480904656648
1789664064162927000,8.794927001953125,-1.5824547768995165,2.2488024246186016,-8.682094181650877
1789664064172973000,8.80497314453125,-1.2881120573461056,1.8818927737653255,-8.861821803247928
1789664064183020000,8.81502001953125,-1.0648908925898373,1.5797107388883829,-9.0645982919991
1789664064193066200,8.825066162109374,-0.885832986947894,1.3833090458661317,-9.312177214550971
1789664064203112200,8.8351123046875,-0.8851993652194737,1.4150836557894944,-9.606287586653233
1789664064213159200,8.8451591796875,-1.1791790966793894,1.7919687572121619,-9.718957688021659
1789664064223205000,8.855205078125,-1.5419538396850228,2.4819892492026088,-9.630381578946112
1789664064233251000,8.8652509765625,-1.7452327250003814,3.3330069433569904,-9.458203642076253
1789664064243297000,8.875297119140624,-1.8192209212750194,3.971696476560831,-9.23401845459342
1789664064253344000,8.885343994140625,-1.8209703952908516,4.29042807970047,-8.776402696898579
1789664064263390000,8.895389892578125,-1.6856543084807694,4.205789894595742,-8.063002498364447
1789664064273436200,8.905436279296875,-1.4461698450572789,3.825807996201515,-7.195133038130402
1789664064283483400,8.9154833984375,-1.2182660754427312,3.159780958738923,-6.356741016793251
1789664064293529300,8.925529296875,-1.1244912286803126,2.3271441399276256,-5.5536774984687565
1789664064303575000,8.935574951171875,-1.1810557042062282,1.4036451469302176,-4.7353439302980895
1789664064313622300,8.945622314453125,-1.1548207543618976,0.48287645567953585,-3.833462310346961
1789664064323668200,8.955668212890625,-1.014231111063063,-0.3551911560088396,-3.053912354078889
1789664064333714200,8.965714111328126,-0.9246278508968651,-1.023809963530302,-2.485739541646838
1789664064343761200,8.97576123046875,-0.8305128123946487,-1.4493208564341067,-2.045211696875095
1789664064353807000,8.98580712890625,-0.6711020026393234,-1.6821189739614724,-1.7941700666487217
1789664064363853300,8.995853271484375,-0.3177468298859894,-1.7847890748411417,-1.6062433565050362
1789664064373899300,9.005899169921875,0.11374445260167121,-1.7919161502420902,-1.3765759382188318
1789664064383946200,9.0159462890625,0.548933712824434,-1.7734978654980658,-1.1303601207137106
1789664064393992200,9.0259921875,1.0484833631463348,-1.7728408628940582,-0.9704349316954612
1789664064404038100,9.0360380859375,1.555743003323674,-1.7458593324661253,-0.8063198897719382
1789664064414085000,9.046085205078125,2.0667863998234273,-1.7729367244839667,-0.7503244463056326
1789664064424131000,9.056131103515625,2.4766332751274107,-1.8225778304874896,-0.83572777056396
1789664064434177300,9.06617724609375,2.7376024251282214,-1.925549544662237,-0.9015560412585735
1789664064444224000,9.07622412109375,2.7641555010110137,-2.076262668699026,-0.9129682466328144
1789664064454270200,9.086270263671874,2.6495009478271005,-2.287345798024535,-0.8603881645679473
1789664064464316200,9.096316162109375,2.5100357785135508,-2.4789500276371834,-0.6711340052127838
1789664064474363100,9.106363037109375,2.471305942624807,-2.6748236051321026,-0.37413200332224367
1789664064484409000,9.1164091796875,2.5539696127861737,-2.886443325552344,-0.012966449078917502
1789664064494455000,9.126455078125,2.7966572561651466,-3.1713246815383433,0.4031301342695951
1789664064504501000,9.1365009765625,3.0723440828263757,-3.496729478831589,0.824597304740548
1789664064514548000,9.1465478515625,3.2779899895340203,-3.8453301505342123,1.194519581413269
1789664064524594200,9.15659423828125,3.365926631662249,-4.291128629185259,1.5228975492984056
1789664064534640000,9.16664013671875,3.3801357742786404,-4.752317276930809,1.8462492134541273
1789664064544687400,9.176687255859376,3.355559551426768,-5.2061903409659855,2.1435160037606953
1789664064554733300,9.1867333984375,3.266280262517929,-5.60333672465086,2.4066011230021713
1789664064564779000,9.196779052734374,3.18619491841197,-5.889668863967061,2.605418644994497
1789664064574826200,9.206826171875,3.115057435393333,-6.137626556703448,2.769979092597961
1789664064584872200,9.2168720703125,3.0976597258687018,-6.285189692276716,2.9520021316558123
1789664064594918100,9.226918212890626,3.110799777948856,-6.351461030563712,3.1140766076624393
1789664064604965000,9.236965087890624,3.1111879004836083,-6.4332385655403135,3.2439310680657623
1789664064615011300,9.24701123046875,3.0496658025503156,-6.585986994796991,3.424192358148098
1789664064625057300,9.257057373046875,2.861536263310909,-6.739101334756612,3.7028830428004262
1789664064635103200,9.267103271484375,2.6469629537820816,-6.818782774236798,3.9220004254996774
1789664064645150200,9.277150146484376,2.3667045814216134,-6.9154527579188345,4.13195718114376
1789664064655196200,9.287196044921876,2.039158388185501,-7.026478014689683,4.393279966887832
1789664064665242000,9.2972421875,1.7263608512699602,-7.086663895583152,4.6628287291854615
1789664064675289000,9.3072890625,1.532721608698368,-7.074592934039234,4.91221908507347
1789664064685335000,9.3173349609375,1.4099521381199358,-7.0915598509311675,5.058564077028632
1789664064695381200,9.32738134765625,1.3762018442094326,-7.242015200814604,5.122442967221141
1789664064705428200,9.33742822265625,1.4466414080917835,-7.504314722636342,5.1308647586077445
1789664064715474200,9.34747412109375,1.594354765790701,-7.8674998000085345,5.184651878374814
1789664064725520100,9.35752001953125,1.781806259638071,-8.104623379519582,5.300581273800135
1789664064735567000,9.367567138671875,2.004707837051153,-8.212146765649319,5.395709288737177
1789664064745613000,9.377613037109375,2.256646123856306,-8.2762822609514,5.303739445570111
1789664064755659000,9.387658935546876,2.5147055238902567,-8.310566223347186,5.05994822486341
1789664064765705200,9.397705322265624,2.6430571785151957,-8.30515004351735,4.754259643170237
1789664064775752200,9.407752197265625,2.4806571238160133,-8.35985135551989,4.527828138065338
1789664064785798100,9.417798095703125,1.9980968944787978,-8.290629935255646,4.638989588436484
1789664064795844000,9.427843994140625,1.5797265209794042,-7.720821046054363,4.910697574594616
1789664064805891300,9.437891357421876,1.5525041675329208,-6.992528983336687,4.882673841637373
1789664064815937000,9.44793701171875,1.8960551546305418,-6.375281466612219,4.346833273011446
1789664064825983000,9.45798291015625,2.37034790636003,-5.889282494997978,3.6843612976819275
1789664064836030200,9.4680302734375,2.6954396921813486,-5.567091691315174,2.974714314201474
1789664064846076200,9.478076171875,2.7487451659113167,-5.403151421436667,2.1382190663963554
1789664064856122400,9.488122314453125,2.3652666575729846,-5.220713371837139,1.2514268790274858
1789664064866168300,9.498168212890626,1.582679525566101,-5.007227273023128,0.456204721853137
1789664064876215300,9.50821533203125,0.568446368676424,-4.697180496120453,-0.33866672218739985
1789664064886261200,9.51826123046875,-0.3990349008452147,-4.306948714129627,-0.873966023543477
1789664064896307200,9.52830712890625,-1.2149352505195885,-3.722702718774974,-0.8936322625219821
1789664064906354200,9.538354248046875,-1.8427787608645856,-3.058495882476866,-0.8545335933208466
1789664064916400000,9.548400146484376,-2.346986904516816,-2.4440233834236857,-1.0775567512869835
1789664064926446000,9.558446044921874,-2.682794730141759,-1.7475731506466865,-1.3383406078487634
1789664064936493000,9.5684931640625,-2.6080793886363507,-0.8354355096191167,-1.5295400560528039
1789664064946539300,9.578539306640625,-2.219518316336721,-0.05510580115020275,-1.7198446012437343
1789664064956585200,9.588585205078125,-1.5471106379263102,0.5740986953496933,-1.8402374058187008
1789664064966631200,9.598631103515626,-0.781112967801094,0.9003606939941644,-1.9493483534008262
1789664064976678100,9.60867822265625,-0.03374401030018925,0.9801666366368531,-2.037507698369026
1789664064986724000,9.61872412109375,0.6765810185723007,0.9695657476454973,-2.0379823301434516
1789664064996770000,9.62877001953125,1.2808807909183204,0.9468570722311734,-2.1173153945773837
1789664065006817000,9.638817138671875,1.7036327405028044,0.9497136307060718,-2.3614579129397866
1789664065016863200,9.64886328125,1.783252512923628,1.076734913510084,-2.59651696113646
1789664065026909200,9.6589091796875,1.5061913291692732,1.3196043431967497,-2.7187118466973303
1789664065036956200,9.6689560546875,1.0353558782868086,1.5912626449942588,-2.7712603645801543
1789664065047002000,9.679002197265625,0.5845042078994214,1.9489456178188322,-2.8771096800178286
1789664065057048000,9.689048095703125,0.2599396608226001,2.324082998791337,-2.99480783868134
1789664065067094000,9.699093994140625,0.08851692623421549,2.5742946079343554,-3.1155075172483917
1789664065077141000,9.70914111328125,0.07290317751690745,2.7109493960022926,-3.258345962387323
1789664065087187000,9.71918701171875,0.19192659343481064,2.768141940298676,-3.4106922405838964
1789664065097234000,9.72923388671875,0.3266587428770959,2.75043560321629,-3.618609599354863
1789664065107281000,9.739281005859375,0.27098186384066936,2.687010886532068,-3.780083186858892
1789664065117326800,9.749326904296876,0.09132438487038015,2.655036954644322,-3.8231039979398247
1789664065127373000,9.759373046875,-0.15397373326793312,2.653395617178082,-3.896562617382407
1789664065137420000,9.769419921875,-0.3337280967414379,2.6444413263499733,-4.040324607107043
1789664065147466000,9.779466064453125,-0.4762671205423772,2.652223066267371,-4.155026506564021
1789664065157512000,9.789511962890625,-0.45565176414549347,2.6868384525746105,-4.39876570482254
1789664065167558000,9.799557861328125,-0.3127620272107422,2.7681659056961534,-4.772766775241494
1789664065177604900,9.80960498046875,-0.38822161121219395,2.875277203893661,-5.229518609583377
1789664065187650800,9.81965087890625,-0.6285065773636103,2.9407769732862707,-5.820920321911573
1789664065197697000,9.829697021484375,-0.9822592250019311,3.09068813329041,-6.422682100212573
1789664065207744000,9.839743896484375,-1.433001589795947,3.3270559259980916,-6.941610697004198
1789664065217790000,9.8497900390625,-1.8243387026801705,3.5836242106914518,-7.435208453184366
1789664065227836000,9.8598359375,-2.1290227835059166,3.851539234307408,-7.918175509756803
1789664065237883000,9.8698828125,-2.48262111736536,4.083447124996781,-8.36212514567077
1789664065247928800,9.8799287109375,-2.9004993234336376,4.108521360498666,-8.771598511487245
1789664065257974800,9.889974853515625,-3.197101220090687,4.000362014552951,-8.971822393146157
1789664065268021000,9.90002099609375,-3.379271850925684,3.7278696000188587,-8.996701398336887
1789664065278067700,9.910067626953126,-3.26087957251817,3.135080817246437,-8.94501621928513
1789664065288114000,9.920114013671874,-2.870424795426428,2.361145778250694,-8.880227813032269
1789664065298159900,9.930159912109374,-2.4135928815856573,1.65631174800992,-8.70299259277284
1789664065308206800,9.940206787109375,-1.9378207049533724,1.272062839820981,-8.522688632592558
1789664065318252800,9.950252685546875,-1.407643276655674,1.2116267835587262,-8.580783094164728
1789664065328298800,9.960298828125,-0.8782298184677958,1.3067927924185991,-8.930145397889614
1789664065338346000,9.970345947265624,-0.4428977887734771,1.48790163924098,-9.270942702364922
1789664065348392000,9.980391845703124,-0.2546934307321906,1.7474182523459194,-9.39886648696661
1789664065358438000,9.99043798828125,-0.5452072396472096,1.9254186117589474,-9.202056797665357
1789664065368484900,10.00048486328125,-1.2281725524291396,1.874855130213499,-8.729846112906932
1789664065378531000,10.010531005859375,-1.6505737888798118,1.5887825186163187,-8.295002158990503
1789664065388577000,10.020576904296876,-1.611870548737049,1.2709189304828643,-7.751689647048711
1789664065398623000,10.030623046875,-1.3431950621426105,0.9362579368054866,-7.124869999858737
1789664065408670000,10.040669921875,-0.9671823596403002,0.5580272659927606,-6.524933098897337
1789664065418716000,10.0507158203125,-0.45003918496072287,0.29886545767486095,-5.855195516479015
1789664065428761900,10.060761962890625,0.14073591990172862,0.16862813543379307,-5.035874106314778
1789664065438808800,10.070808837890626,0.709508890184015,0.11135960329174995,-4.150844252443314
1789664065448855000,10.08085498046875,1.1776306981936095,0.1211784019947052,-3.325736075571179
1789664065458901000,10.09090087890625,1.4473130237430334,0.10659691893458366,-2.6077590706408023
1789664065468948000,10.100947998046875,1.65472652464509,-0.011411036330461501,-2.07411104362309
1789664065478994000,10.110993896484375,1.8325040350876747,-0.17783961589336394,-1.658106230211258
1789664065489040000,10.121039794921876,1.9281109195828436,-0.36449615997076035,-1.3458838628351688
1789664065499085800,10.1310859375,1.8844483034670352,-0.6207651694566011,-1.1302689352989197
1789664065509132800,10.1411328125,1.6893945179224013,-0.9860352364093065,-0.9595154782742261
1789664065519178800,10.1511787109375,1.473761177946627,-1.414146082678437,-0.7790314853519201
1789664065529225000,10.161224853515625,1.3734995995134114,-1.8447879087299108,-0.6371674382030964
1789664065539272000,10.17127197265625,1.3081972523890435,-2.2093054037496445,-0.562273232999444
1789664065549318000,10.18131787109375,1.1659433291397987,-2.4395558826208115,-0.6343161404252052
1789664065559363800,10.19136376953125,0.9911943727381527,-2.446557578076422,-0.7015472636550665
1789664065569409800,10.201409912109375,0.8855658604443073,-2.4138372117355464,-0.8968447948276996
1789664065579456800,10.211456787109375,0.918311215095967,-2.48019652056694,-1.051712115934491
1789664065589502700,10.221502685546875,1.1643488995552063,-2.5807775402128694,-1.0009119030237197
1789664065599549000,10.231548828125,1.4767003001384436,-2.906673043632507,-0.8487327980875968
1789664065609596000,10.241595947265624,1.8421295031756162,-3.482015017041564,-0.5725497123420238
1789664065619642000,10.25164208984375,2.2164352556295692,-4.135112138043344,-0.1942804630845785
1789664065629688000,10.26168798828125,2.53445008880198,-4.79158224260956,0.2891068647265434
1789664065639735000,10.271735107421875,2.65698107444942,-5.411951398485899,0.9094891723453998
1789664065649781000,10.281781005859376,2.6449878543168306,-5.889152731138467,1.7117589099436998
1789664065659827000,10.291826904296874,2.5718945610553026,-6.267003462722897,2.549284085318446
1789664065669873000,10.301872802734374,2.4860206966757774,-6.580197305479645,3.341107832226157
1789664065679919900,10.311919921875,2.440590632496029,-6.819574801397323,4.01196360501945
1789664065689966000,10.321966064453125,2.483589670136571,-7.052648813256621,4.485706906172633
1789664065700012000,10.332011962890626,2.5347306593090293,-7.221897126415372,4.8640439599692815
1789664065710059000,10.34205908203125,2.5154297465115785,-7.278897947531938,5.10498680550754
1789664065720105000,10.35210498046875,2.448482700920105,-7.251848028042912,5.244209398236871
1789664065730151000,10.36215087890625,2.322698850956559,-7.237884384620189,5.422219110000134
1789664065740198000,10.372197998046875,2.1648428694278,-7.212526071479916,5.581006234899163
1789664065750243800,10.382243896484376,2.0017156694978473,-7.193250877645611,5.700869462642073
1789664065760289800,10.392289794921876,1.835887393915653,-7.184821487474441,5.768208722421527
1789664065770336000,10.4023359375,1.6560948903888464,-7.212478140684962,5.776527053433656
1789664065780383000,10.412383056640625,1.580688059487939,-7.217388709080219,5.783530794715881
1789664065790429000,10.422428955078125,1.5755302383333443,-7.216056583693623,5.7829895274460315
1789664065800475000,10.432474853515625,1.5573393326044083,-7.279189039433002,5.799599301463365
1789664065810521900,10.44252197265625,1.5645950028210878,-7.500970672905445,5.70717937644124
1789664065820567800,10.45256787109375,1.5787410170733929,-7.903601625481247,5.454603376254439
1789664065830613800,10.46261376953125,1.5961200218975542,-8.357918926152587,5.113603242683411
1789664065840660700,10.47266064453125,1.5012433513730763,-8.686579218110442,4.823012276878953
1789664065850706700,10.482706787109375,1.3497995749741791,-8.814438120782375,4.571899334982037
1789664065860753000,10.4927529296875,1.1789900038480758,-8.781280532068013,4.1243800238877535
1789664065870798800,10.502798828125,1.0022124642282724,-8.612399883177876,3.437847374013066
1789664065880846000,10.51284619140625,0.8213491165995598,-8.23648216548264,2.863634696894884
1789664065890891800,10.522891845703125,0.8571060741573572,-7.762352495360374,2.441082069274783
1789664065900937700,10.532937744140625,1.1535405052930117,-7.298479430836439,2.1213316444814203
1789664065910985000,10.54298486328125,1.5737445239603518,-6.695940238422155,2.0529636261761186
1789664065921031000,10.553031005859374,1.952357472088933,-6.074018300145864,1.9072288750737905
1789664065931077000,10.5630771484375,2.1185843915998936,-5.34982548944056,1.5954869846910238
1789664065941123000,10.573123046875,2.050447259441018,-4.545582990464568,1.1725316214889288
1789664065951170000,10.583170166015625,1.9268448451697826,-3.7003894724190234,0.6675766049921512
1789664065961216000,10.593216064453125,1.681556663903594,-2.9380189067497846,0.1321709206521511
1789664065971262000,10.603261962890626,1.4396844285607338,-2.4150446878291665,-0.3114689186602831
1789664065981309000,10.613308837890624,1.1880647061854601,-2.1554443419635296,-0.5511953741461039
1789664065991355000,10.62335498046875,0.929942177787423,-2.093274155385047,-0.6434785210460424
1789664066001400800,10.63340087890625,0.6663941172093153,-2.0934670476086437,-0.5463654697716236
1789664066011447800,10.64344775390625,0.3716634212516248,-2.132263080601394,-0.34123394232690335
1789664066021494000,10.653493896484376,0.1977747349411249,-2.109064575843513,-0.06632862143218517
1789664066031540000,10.6635400390625,0.09130407273471355,-1.9464120076879858,0.2703402049362659
1789664066041586000,10.6735859375,0.05170081501230597,-1.701390952925384,0.5238455949276686
1789664066051633000,10.6836328125,-0.028598902496695517,-1.4098390331342816,0.6722790835946798
1789664066061678800,10.693678955078125,-0.16576996952369807,-0.9764698279455304,0.7923726129621267
1789664066071724800,10.703724853515626,-0.38057811072170733,-0.5504319885581731,0.7955202633380889
1789664066081771800,10.713771728515624,-0.5915951890736818,-0.183607970161736,0.6207610778033733
1789664066091817700,10.723817626953124,-0.6470289070039987,0.18304302975535391,0.4299269557803869
1789664066101863700,10.73386376953125,-0.464654131899029,0.4835156303659081,0.16275895113945008
1789664066111909600,10.74390966796875,-0.09961422044038772,0.63914692158252,-0.19247195235788822
1789664066121956600,10.75395654296875,0.21079612907767295,0.7665759084045887,-0.493131892234087
1789664066132002600,10.76400244140625,0.33076164815127845,0.9703948919460177,-0.7377022806197404
1789664066142048500,10.774048583984374,0.40971652692258353,1.2131655374333261,-0.9237363088846207
1789664066152095700,10.784095703125,0.48389761542081833,1.4692884164467452,-1.1031295839607715
1789664066162141700,10.7941416015625,0.544023144429177,1.6736755552649496,-1.2547767739772795
1789664066172188000,10.80418798828125,0.6528519140690565,1.8127397425621747,-1.3309639416009187
1789664066182235000,10.81423486328125,0.7860586075097322,1.8959820893943309,-1.4126111281961202
1789664066192280800,10.82428076171875,0.8861578349880873,1.9613228688329456,-1.5819751766890287
1789664066202326800,10.834326904296875,0.7413349380336701,2.0989730976790186,-1.7669594036400318
1789664066212372700,10.844372802734375,0.3442068206578493,2.2097587004750965,-2.0204741459816695
1789664066222419700,10.854419677734375,-0.20297756428122518,2.297767823317647,-2.3491139796733855
1789664066232465700,10.864465576171876,-0.6486293279379606,2.498535310333967,-2.7402251748472453
1789664066242512000,10.874511962890624,-1.031739879746735,2.695013575723767,-3.2881197538822886
1789664066252558600,10.88455859375,-1.1880439556583762,2.884797896432876,-3.867504280680418
1789664066262604800,10.894604736328125,-1.0103057543128728,3.0049335113763807,-4.402748636978864
1789664066272650800,10.904650634765625,-0.347553208476305,3.226393073287606,-4.7802398876011365
1789664066282696700,10.91469677734375,0.416797132833302,3.606505320063233,-5.233258965155482
1789664066292743700,10.92474365234375,0.9298851869031787,3.9521500645697114,-5.850451536822319
1789664066302789600,10.93478955078125,1.2584651071012019,4.349270144769549,-6.53182870362997
1789664066312835600,10.944835693359375,1.2975976785719394,4.884116441661119,-7.2815586911737915
1789664066322882600,10.954882568359375,0.8516384564012288,5.220806895339488,-7.882063162890076
1789664066332928800,10.9649287109375,0.25349749894589185,5.409005408161878,-8.072878580212592
1789664066342974700,10.974974609375,-0.2999778028309345,5.478612612873316,-8.008028799161314
1789664066353021700,10.985021728515624,-0.6288946998983621,5.446298489245772,-7.762967996910214
1789664066363067600,10.995067626953125,-0.746421155256778,5.314854129302502,-7.434145792388915
1789664066373113600,11.005113525390625,-0.8192764019787311,4.929336808612942,-7.401172912591695
1789664066383159600,11.01515966796875,-0.9193313519239426,4.279966891440749,-7.773644873747229
1789664066393206500,11.02520654296875,-1.065505663487315,3.649061436241865,-8.189217725482582
1789664066403252500,11.03525244140625,-1.1575874425962567,3.258745190837979,-8.528383044841885
1789664066413298700,11.045298583984374,-1.1528240275867283,3.073024466305971,-8.632156723049283
1789664066423346000,11.055345947265625,-1.2312754868805407,3.206157509988546,-8.393740765640139
1789664066433391900,11.065391845703125,-1.368887283412367,3.3539766661494967,-8.197500400659441
1789664066443437800,11.075437744140626,-1.4012410083979367,3.5607296573162075,-8.019253373008967
1789664066453483500,11.0854833984375,-1.203822247287631,3.9603450614631175,-7.797695026898384
1789664066463530800,11.09553076171875,-0.8720397316560149,4.271674863913655,-7.536132002657651
1789664066473576700,11.10557666015625,-0.6001815233722329,4.293797263872623,-7.177160159066319
1789664066483623000,11.115622802734375,-0.17997779696583746,4.080842495456338,-6.639781128826737
1789664066493669600,11.125669677734376,0.2561656952418387,3.6857863620489835,-5.881709429395198
1789664066503715800,11.1357158203125,0.5434574733704328,3.3249814578115937,-4.880201314043998
1789664066513761800,11.14576171875,0.8398971652030944,2.7994340274021026,-3.786605282104015
1789664066523807700,11.155807861328125,1.1368715484343468,2.129618119050562,-2.750145095837116
1789664066533854700,11.165854736328125,1.492182093039155,1.624054615266621,-1.7637538855969905
1789664066543900700,11.175900634765625,1.941828040898591,1.2497455018118022,-0.878494314622879
1789664066553946600,11.185946533203126,2.4333378848887977,0.8399071020752191,-0.18735095608234403
1789664066563993600,11.19599365234375,2.854735351124406,0.35115795497000213,0.17289923688173292
1789664066574039800,11.206039794921875,3.187921596074104,-0.06865823342353106,0.30764030028283595
1789664066584085800,11.216085693359375,3.4003175615638495,-0.3574623158112168,0.30568682812750336
1789664066594131700,11.226131591796875,3.4406121625512838,-0.5963757013484835,0.19738368979692458
1789664066604178700,11.2361787109375,3.201595901161432,-0.8677937646493316,-0.018965981754660605
1789664066614224600,11.246224609375,2.7910809173375366,-1.116903257769346,-0.38231589429974555
1789664066624270600,11.2562705078125,2.301966151790321,-1.2771544638715684,-0.6606266397237778
1789664066634317600,11.266317626953125,1.882577833420038,-1.4069532485648988,-0.7341933957159519
1789664066644363500,11.276363525390625,1.5753860075570643,-1.5032599518924952,-0.6854062761932611
1789664066654409700,11.28640966796875,1.4143233389414847,-1.5729305772289632,-0.6998048039019107
1789664066664455700,11.29645556640625,1.3706646683484316,-1.6686583116248248,-0.8245522965550423
1789664066674502700,11.306502685546874,1.4353057750850915,-1.6996572610005736,-0.9468810376286506
1789664066684548600,11.316548583984375,1.571476579028368,-1.754123595203459,-1.018725792133808
1789664066694594600,11.326594482421875,1.750757625901699,-1.908332890792936,-0.9833522809356451
1789664066704641800,11.336641845703125,1.9311890118539332,-2.105232158073783,-0.8602408650517464
1789664066714687500,11.3466875,2.089905409604311,-2.339621782576293,-0.7166571545034647
1789664066724733700,11.356733642578124,2.179668098115921,-2.6621587693482636,-0.6107119774758816
1789664066734779600,11.366779541015624,2.188052480101585,-3.013698709373176,-0.5074380654841661
1789664066744827000,11.376826904296875,2.1177631383448836,-3.3624010878846047,-0.324143691316247
1789664066754872800,11.386872802734375,2.0302077506192027,-3.6530344315260646,0.00008534019589424133
1789664066764918800,11.396918701171876,1.9114331948958336,-3.8830698063418265,0.45946284686625
1789664066774965800,11.4069658203125,1.8414206242538989,-4.178948941682279,0.8257990817457437
1789664066785011700,11.41701171875,1.8242168298661707,-4.4987160253494975,1.2099977210521697
1789664066795057700,11.4270576171875,1.728181636956334,-4.728355971106887,1.6649492279738187
1789664066805103900,11.437103759765625,1.5502724629580973,-5.007381586802006,1.9215274495393038
1789664066815150800,11.44715087890625,1.2483078702241182,-5.342872017040849,2.0715613591402766
1789664066825196800,11.45719677734375,1.0169359861075877,-5.593295807629823,2.2873428754150864
1789664066835242800,11.46724267578125,0.8918265282742679,-5.730428734603524,2.4957909800618885
1789664066845289700,11.477289794921875,0.8385128712378441,-5.919506368348002,2.4813474441677332
1789664066855335700,11.487335693359375,0.698305943646282,-6.192010473319888,2.3230799592286346
1789664066865381600,11.497381591796875,0.5161152929365634,-6.43229397816658,2.3192659538984297
1789664066875428600,11.5074287109375,0.3923785847611725,-6.607850451558828,2.4229385098189113
1789664066885474600,11.517474609375,0.31644802224710583,-6.829975783902406,2.608479786130786
1789664066895520800,11.527520751953125,0.23220132067799568,-7.17103963035941,2.7894419179588557
1789664066905566700,11.537566650390625,0.030945319492369887,-7.519594124832749,3.1235943775922057
1789664066915613700,11.54761376953125,-0.18098156718090175,-7.713222261488437,3.643842824810743
1789664066925659600,11.55765966796875,-0.23845102872252463,-7.579236400368809,4.062114998632669
1789664066935705600,11.56770556640625,-0.15103110394477842,-7.6207660961091515,3.952298533129692
1789664066945752600,11.577752685546875,-0.12843217251524328,-7.674062217488885,3.681285543498397
1789664066955798500,11.587798583984375,-0.14497501877620816,-7.651071218001842,3.330963454830646
1789664066965844700,11.5978447265625,-0.03903554083704948,-7.70223208091855,2.9625697028994558
1789664066975890700,11.607890625,0.06387231432124972,-7.753169656473398,2.54858675070405
1789664066985937700,11.617937744140624,-0.010415011030435562,-7.882189419618248,2.2106816605389117
1789664066995983600,11.627983642578124,-0.12994623034000397,-8.020594266223908,2.021658971852064
1789664067006029600,11.638029541015625,-0.25127602350413797,-7.971060127726197,1.9743290654003618
1789664067016076800,11.648076904296875,-0.4934481185764074,-7.800615298259258,2.0558418119609354
1789664067026122800,11.658122802734376,-0.8749852835886179,-7.691932805222272,2.0292431433707474
1789664067036168700,11.668168701171876,-1.251902095323801,-7.558447879362106,2.0675842722028492
1789664067046214700,11.678214599609374,-1.656892908898741,-7.3144754568696015,2.263805932483077
1789664067056262000,11.688261962890625,-1.9264673901595175,-6.93862495919168,2.41223591401875
1789664067066307800,11.698307861328125,-1.8900230348594487,-6.536511308488249,2.4132512285411356
1789664067076353800,11.708353759765625,-1.7020656373165546,-6.048036886671185,2.2626544243603943
1789664067086399700,11.718399658203126,-1.4013516291655599,-5.56043983221054,2.048871388426423
1789664067096446700,11.72844677734375,-1.0311749393403529,-5.173141473323106,1.6837947982192039
1789664067106492700,11.73849267578125,-0.6076297935515642,-4.864946754027903,1.1939835748404264
1789664067116539000,11.748538818359375,-0.22070085249841212,-4.566272727271914,0.7040449256896972
1789664067126585600,11.758585693359375,0.08793561921492218,-4.3040527004271745,0.24469898320138453
1789664067136631800,11.7686318359375,0.31508652463555337,-4.113208057010174,-0.06638005935847759
1789664067146677800,11.778677734375,0.5119429756879806,-3.8808097524553533,-0.19072715451717376
1789664067156723700,11.7887236328125,0.6562532469451428,-3.6502523995921012,-0.2960691049546003
1789664067166770700,11.798770751953125,0.8311348898157477,-3.3788281988114117,-0.562107228782773
1789664067176816600,11.808816650390625,0.927818025240302,-2.9265497104912996,-1.0271247871667146
1789664067186862600,11.818862548828125,0.9691777712412178,-2.3399919310629365,-1.6470768866747616
1789664067196909600,11.82890966796875,0.9983943672448397,-1.620227458193898,-2.1053391255795955
1789664067206955800,11.838955810546874,0.9699262515209615,-0.8768608682021498,-2.369212180328369
1789664067217001700,11.849001708984375,0.8651753988444805,-0.21037615009993313,-2.615384158691764
1789664067227047700,11.859047607421875,0.7123790387928486,0.33402328029572964,-2.883164742273092
1789664067237095000,11.869094970703125,0.5941090715907513,0.8013003080442548,-2.996371434736252
1789664067247140900,11.879140869140626,0.40417540553882714,1.1531564744114875,-3.171649091187119
1789664067257186800,11.889186767578124,0.18258710268139838,1.452207225525379,-3.503837557271123
1789664067267233800,11.89923388671875,-0.18394333959594367,1.8371593135476112,-3.749380005559325
1789664067277279700,11.90927978515625,-0.5167034680880606,2.1956910121560096,-3.8258506662994622
1789664067287326000,11.919325927734375,-0.815788121471554,2.441303603070974,-3.843645266187191
1789664067297372000,11.929371826171876,-1.142578527904302,2.6834692684024573,-3.6810511502206325
1789664067307419000,11.9394189453125,-1.4451118604369462,2.8733395138293503,-3.3825077641069887
1789664067317464800,11.94946484375,-1.6485171486109493,3.0004969902336596,-3.0385429355114697
1789664067327510800,11.9595107421875,-1.670855967799574,3.04469678196609,-2.7389135077267883
1789664067337557800,11.969557861328125,-1.6876193249434233,3.058428954720497,-2.367211361899972
1789664067347603700,11.979603759765626,-1.6463213921323419,3.0735809311449525,-2.0267285302013156
1789664067357650000,11.98964990234375,-1.5291386356450616,3.1207641226023433,-1.727791760855913
1789664067367696000,11.99969580078125,-1.3415532862849533,3.1561019779652355,-1.5676245797753332
1789664067377742800,12.009742919921875,-1.1079916370391845,3.224033942940831,-1.5685007780879736
1789664067387788800,12.019788818359375,-0.8282292315021157,3.29082199857831,-1.7249398785561323
1789664067397834800,12.029834716796875,-0.5407412001490592,3.38175957608819,-1.9701321982324123
1789664067407881700,12.0398818359375,-0.3410837202012539,3.625461364945769,-2.1968828522890806
1789664067417927700,12.049927734375,-0.183524091270566,3.9969548364579675,-2.5104221474826334
1789664067427973600,12.0599736328125,-0.11617255653142929,4.435418734437227,-2.8551158748745915
1789664067438019800,12.070019775390625,-0.21690964352190492,4.810132921561599,-3.238171189364791
1789664067448066800,12.08006689453125,-0.4309545452624559,5.1130800955921405,-3.7035043895691633
1789664067458112800,12.09011279296875,-0.6888602160394192,5.389524462622404,-4.31237921474576
1789664067468158700,12.10015869140625,-0.9563856558158993,5.5685395520359275,-4.902852121791243
1789664067478205700,12.110205810546875,-1.2577101970806717,5.728162543237209,-5.44650774808228
1789664067488251600,12.120251708984375,-1.5980702791824937,5.817576856702566,-5.892260634025931
1789664067498297600,12.130297607421875,-1.9287559394881129,5.86887449774146,-6.211362824043631
1789664067508343800,12.14034375,-2.159727133849263,5.819259110701084,-6.384856519687175
1789664067518390800,12.150390869140624,-2.25200414326936,5.601455733209848,-6.53779608760178
1789664067528437000,12.16043701171875,-2.137460356983542,5.269411644032597,-6.653962798914313
1789664067538482700,12.170482666015625,-1.8291820510581134,4.842624739843607,-6.742273535051941
1789664067548530000,12.180530029296875,-1.4213652202770113,4.251428194698691,-6.986643432429433
1789664067558575900,12.190575927734375,-0.9080641079783439,3.646150517231226,-7.274393037328124
1789664067568621800,12.200621826171876,-0.4657653080113232,3.16836583173275,-7.439621593451499
1789664067578667800,12.210667724609374,-0.16413053175359962,2.8971844997972247,-7.3803499047935
1789664067588714800,12.22071484375,0.21672186586484313,2.901623359027505,-7.1149196837306015
1789664067598761000,12.230760986328125,0.6773173700228333,3.041569589856267,-6.8695245349586
1789664067608807000,12.240806884765625,1.1179347927741705,3.2407869248211383,-6.710898153579235
1789664067618852900,12.250852783203126,1.438951876502484,3.3256624258130785,-6.69123074555695
1789664067628899800,12.26089990234375,1.7472110393360256,3.360568904021382,-6.7931696095526215
1789664067638945800,12.27094580078125,1.9702280598223207,3.319364202451706,-7.0827961142390965
1789664067648991700,12.28099169921875,2.112633812632412,3.1866642894893884,-7.43547908681929
1789664067659038700,12.291038818359375,1.9696780247241257,3.054222735202312,-7.529450332936644
1789664067669084700,12.301084716796876,1.5998232603296636,2.842031936895847,-7.337574592906236
1789664067679131000,12.311130859375,1.1555974378228187,2.4419459926277396,-6.798019972193241
1789664067689176800,12.3211767578125,0.8598993581376969,1.9817729516655205,-6.0900505665361875
1789664067699223800,12.331223876953125,0.8005611801147461,1.4441285484880209,-5.387507277581095
1789664067709269800,12.341269775390625,0.941214390169084,0.9390630573540926,-4.800112462806702
1789664067719315700,12.351315673828125,1.1147396499946713,0.5394634352982044,-4.474674640026688
1789664067729361700,12.361361572265626,1.2585977935701609,0.20360767887830733,-4.367296215325593
1789664067739408600,12.37140869140625,1.3074461417607963,-0.026112930899858472,-4.224054450082779
1789664067749454800,12.381454833984375,1.342593296857178,-0.19375205529630182,-4.015785209134221
1789664067759500800,12.391500732421875,1.3901027976594864,-0.35624446445405483,-3.730902099582553
1789664067769547800,12.4015478515625,1.4069354206472635,-0.541306725077331,-3.388351813960075
1789664067779593700,12.41159375,1.4135036931216716,-0.71216188891083,-3.0177994226902722
1789664067789639700,12.4216396484375,1.381639066827297,-0.9500812949746846,-2.796226463532448
1789664067799685600,12.431685546875,1.392031281504035,-1.214986030858755,-2.6917197948753833
1789664067809732600,12.441732666015625,1.4915747747957706,-1.4789295204952357,-2.5222166301727293
1789664067819778600,12.451778564453125,1.62942330269292,-1.8246236571013927,-2.3263147033661604
1789664067829824800,12.46182470703125,1.9148579086475073,-2.1443772967651484,-2.028850344660878
1789664067839872000,12.4718720703125,2.2457646643579006,-2.415413959532976,-1.6636837380826472
1789664067849918000,12.48191796875,2.5410896729469297,-2.7904391123026606,-1.366059220379591
1789664067859964000,12.4919638671875,2.7064287037074566,-3.124813105732202,-0.9969406613051891
1789664067870009900,12.502009765625,2.714928236505389,-3.426811600735783,-0.6109101303964853
1789664067880056800,12.512056884765625,2.6420015319824217,-3.8294308628737923,-0.2724626039177179
1789664067890102800,12.522102783203126,2.558424254107475,-4.303812461930513,0.043348143339157104
1789664067900149000,12.53214892578125,2.5163977147608994,-4.809497546267509,0.35499651021957396
1789664067910195700,12.54219580078125,2.5423773746699094,-5.284887445583939,0.7172410918712615
1789664067920242000,12.552241943359375,2.537644500929117,-5.733462987732887,1.1186071390777825
1789664067930287900,12.562287841796875,2.486343937280774,-6.186237150615454,1.455780407837033
1789664067940333800,12.572333740234376,2.370477816350013,-6.55344373858869,1.7220920879095791
1789664067950380800,12.582380859375,2.325353310988098,-6.839398276764154,1.8644319358766077
1789664067960426800,12.5924267578125,2.107830942395329,-7.3875827786564825,2.081337487745285
1789664067970472700,12.60247265625,1.8443607693590223,-7.473367211186885,2.505027594962716
1789664067980519000,12.612518798828125,1.6500341290451586,-7.356379831141233,2.793337171831727
1789664067990566000,12.62256591796875,1.5469196453988552,-7.289379594057798,2.9427625941455364
1789664068000611800,12.63261181640625,1.2274112126678227,-7.287519060882926,3.1687673982709645
1789664068010657800,12.64265771484375,0.7453554257214069,-7.326656893050671,3.4555309147417543
1789664068020704800,12.652704833984375,0.33949842377118766,-7.379246911987662,3.540314645797014
1789664068030750700,12.662750732421875,0.08719846404679119,-7.402751706215739,3.5039801806122064
1789664068040796700,12.672796630859375,-0.07448503988087177,-7.42712626901567,3.458735848262906
1789664068050843000,12.6828427734375,-0.20007428058777002,-7.454683553504943,3.4153134706437585
1789664068060889600,12.6928896484375,-0.3339041108954698,-7.460204947274923,3.389273020458221
1789664068070935800,12.702935791015625,-0.33254911608994003,-7.396478032773732,3.321601167723536
1789664068080981800,12.712981689453125,-0.33190380392372604,-7.290478495210409,3.3470874911576507
