time,seconds_elapsed,z,y,x
1789514455245340200,0.094340087890625,0.4560346259832382,0.10268968236297368,-0.04151486349739134
1789514455255346200,0.10434619140625,0.4868780925363302,0.043185061731934545,-0.07034885339159518
1789514455265353200,0.114353271484375,0.4646241751521826,-0.03317863150238991,-0.08230386040564626
1789514455275359200,0.124359130859375,0.39857144805192946,-0.057952715013921255,-0.11562306942250579
1789514455285365000,0.134364990234375,0.3947749783784151,-0.048071080207824704,-0.11892488744687288
1789514455295372300,0.144372314453125,0.3328355318158865,-0.03515869940370321,-0.15642225893121212
1789514455305378300,0.15437841796875,0.2942255229145288,-0.08077624897956848,-0.1884942078333348
1789514455315384000,0.164384033203125,0.2899813094735145,-0.08890519489943981,-0.16567122185695915
1789514455325390000,0.17439013671875,0.21065409025847912,-0.10470949775278568,-0.12613036184627563
1789514455335397000,0.184397216796875,0.20658231077492237,-0.09482669390290975,-0.12367621015980838
1789514455345403100,0.194403076171875,0.15617665013968943,-0.08190876014083623,-0.14835311690717934
1789514455355409200,0.2044091796875,0.06695698246359824,-0.026479718385636807,-0.149301211412251
1789514455365416000,0.214416015625,0.053530514657497405,0.029818215158581733,-0.12739435390010476
1789514455375419600,0.224419677734375,0.10233575435876846,0.04355038791298866,-0.10745766394976526
1789514455385425700,0.23442578125,0.10160217938721179,0.04637158281356096,-0.11382665099240839
1789514455395432700,0.2444326171875,0.1952823336035013,-0.008067278860509395,-0.08732176163289695
1789514455405438700,0.254438720703125,0.2438385669797659,-0.020176234327256678,-0.0483005781147629
1789514455415444700,0.26444482421875,0.2008212630301714,-0.03404635424762964,0.02452544251270592
1789514455425450500,0.274450439453125,0.20308336274325847,-0.04508505013436079,0.0525205704299733
1789514455435457800,0.284457763671875,0.20426058982908724,-0.047857729718089104,0.05113671485614031
1789514455445463600,0.294463623046875,0.20389818625748157,-0.07759206598550081,0.05377440641596913
1789514455455469600,0.304469482421875,0.15162322461903094,-0.14654109904915094,0.024915209015272555
1789514455465476600,0.3144765625,0.09039455667436122,-0.16570084981024263,-0.0013002689436078072
1789514455475482600,0.324482666015625,0.03705167354345321,-0.19467267727255821,-0.027754560627043245
1789514455485488600,0.334488525390625,0.03828852186203003,-0.19788725540488958,-0.027186441882885992
1789514455495494700,0.34449462890625,-0.00922083280980587,-0.20281477493494748,-0.028827888946980237
1789514455505501400,0.35450146484375,0.042431613016128536,-0.12163169872015714,0.06843976836726069
1789514455515507700,0.3645078125,0.07683481787741184,-0.09256371740698814,0.09448010895494371
1789514455525513700,0.374513671875,0.07930033120810985,-0.09843640883266926,0.09238196763191371
1789514455535520500,0.3845205078125,0.02745850028991699,-0.10106529603153466,0.05120031814426183
1789514455545526500,0.394526611328125,0.029865561431646346,-0.10759586684405803,0.054461694560386235
1789514455555532800,0.40453271484375,-0.13296060972511767,-0.07870441114157438,0.060670413007400927
1789514455565538600,0.41453857421875,-0.1579822382569313,-0.005157821154594421,0.06682159258089959
1789514455575545600,0.424545654296875,-0.1530190628916025,0.0527291351467371,0.11142287778630852
1789514455585551600,0.434551513671875,-0.1505751768708229,0.04660539156943559,0.11177322559393942
1789514455595557600,0.4445576171875,-0.15107961926162242,0.07799129443615674,0.15836236014831812
1789514455605564700,0.454564697265625,-0.20224398930966853,0.07434358558356761,0.15351488358452917
1789514455615570400,0.4645703125,-0.20056874957382678,0.09433072707951068,0.15341343250405043
1789514455625576400,0.474576416015625,-0.13522680109143256,0.11373977642655372,0.1596335856605321
1789514455635583700,0.484583740234375,-0.13409984288811683,0.1111830776810646,0.1581604809006676
1789514455645589500,0.494589599609375,-0.08091244257986545,0.14430910221338272,0.19338179721180349
1789514455655595500,0.504595458984375,0.10166238514184951,0.21021540658026933,0.2560166786925867
1789514455665601500,0.5146015625,0.21369769573807715,0.2692261062145233,0.2998152326803654
1789514455675608600,0.524608642578125,0.31396015095412727,0.2823410238534212,0.3442759403713047
1789514455685614600,0.534614501953125,0.3182043643951416,0.27055560125261546,0.3539389274580404
1789514455695620600,0.54462060546875,0.38339492170810696,0.2804281759694218,0.4024803285913542
1789514455705627600,0.554627685546875,0.34066227991878983,0.23382599927037953,0.4626033733816817
1789514455715633700,0.564633544921875,0.40990123583972454,0.21722645438611507,0.3491486609742045
1789514455725639700,0.5746396484375,0.415913043475151,0.1979500915080309,0.39125301479734476
1789514455735645400,0.5846455078125,0.43561961446404457,0.12966273722350596,0.34610743011478334
1789514455745652700,0.59465283203125,0.3345926046162844,0.04189706774801016,0.4117005038140341
1789514455755658800,0.60465869140625,0.37060324467420575,-0.4305170306280255,0.0035765981114469466
1789514455765664500,0.61466455078125,0.3939239145070314,-0.6720657331049442,-0.062313029115274546
1789514455775671800,0.624671875,0.5249176080733537,-0.5219394690454006,0.22287319156881422
1789514455785677600,0.634677490234375,0.541692801785469,-0.5622480985581875,0.28240256304861977
1789514455795683600,0.64468359375,0.33593057522177694,-0.46277708598077294,0.7412029822170734
1789514455805689600,0.654689697265625,-0.6594657792508601,-1.6660747248724102,0.6361323960669338
1789514455815696600,0.664696533203125,-0.5675596489697694,-2.732698578734696,-0.009656027622986584
1789514455825702700,0.67470263671875,-0.5562210933536291,-2.7524405132979153,0.09052444839803502
1789514455835708700,0.684708740234375,-0.09626783262193202,-0.35424452280849217,0.4038261171771213
1789514455845715500,0.694715576171875,-0.1607873588055372,-0.2607607679471373,0.4849037602560594
1789514455855721700,0.7047216796875,-0.18485797022283076,-0.7095783021584153,0.9162814628340303
1789514455865727700,0.714727783203125,0.030317981374263763,-0.8726067178890109,1.0796600802417844
1789514455875733500,0.7247333984375,0.0914367592036724,-0.9719096804231405,1.2133677089419215
1789514455885740500,0.734740478515625,-0.040643560555577274,-1.0873743809461593,1.0992160637788473
1789514455895746800,0.744746826171875,-0.8764999259352684,-0.8704813962981104,0.6046186290368437
1789514455905752600,0.754752685546875,-4.204797376427054,0.5697726488441228,-0.16307736943885684
1789514455915759600,0.764759521484375,-5.895914480358361,1.6576982339322566,-0.3046032706744969
1789514455925765600,0.774765625,-3.4627515136450526,1.2420102313846348,0.15326185867153108
1789514455935771600,0.784771728515625,-1.8700754947215317,1.648728745535016,0.7536204191111028
1789514455945777700,0.794777587890625,-0.8839216003686189,0.7543401116877794,1.3538175784438848
1789514455955784400,0.804784423828125,-0.7548568290382623,0.03136924399286509,1.7371349048711358
1789514455965790500,0.81479052734375,-0.8163520389646292,-0.11716039852499961,1.9448980959936975
1789514455975796700,0.824796630859375,-0.9661825349479913,-0.30377690285295245,1.9078392620570956
1789514455985803500,0.834803466796875,-0.9442717319130897,-0.6066624098241329,1.6367686970196664
1789514455995809500,0.8448095703125,-1.4568582662016152,-1.0048626864761114,1.1834638613265007
1789514456005815600,0.854815673828125,-2.189384605488181,-1.0753481353268026,0.7577969741433859
1789514456015821600,0.864821533203125,-3.052593088173866,-1.0224816375359893,0.5327344558367505
1789514456025828600,0.87482861328125,-3.7697616993308065,-1.0407079068392515,0.5720080066807568
1789514456035834600,0.884834716796875,-3.5284769084870815,-0.9732575879007578,0.36410759904459117
1789514456045840400,0.89484033203125,-1.590583430558443,-0.8437240300148725,-0.10968288398487493
1789514456055847700,0.90484765625,1.3688275160491465,-0.6824623316958546,-0.606054945450276
1789514456065853700,0.914853759765625,2.1985247742772103,-0.9724360423848032,-0.6187191967122256
1789514456075859500,0.924859375,1.4369547113358974,-0.9665072368577122,-0.11644888012162409
1789514456085866800,0.93486669921875,-0.13015958082973955,-0.6526482081905007,0.29874835236752406
1789514456095872800,0.944872802734375,-1.8353548944741487,-0.1143809969395399,0.4361296828780323
1789514456105878500,0.95487841796875,-3.98728918249011,0.46663609949648377,-0.0842706304339692
1789514456115884500,0.964884521484375,-5.7978580107539885,0.7646548772141337,-0.6060543243957683
1789514456125891600,0.9748916015625,-6.480151123362779,0.7535135977357625,-0.21218451469615102
1789514456135897600,0.984897705078125,-5.9955433138459915,0.3582867839366197,0.2506464203637093
1789514456145903600,0.994903564453125,-4.62564436917305,0.5788472050510347,-1.0077105501879007
1789514456155910400,1.004910400390625,-2.763026789242029,0.7763523292705417,-2.3484676445938644
1789514456165916700,1.014916748046875,-1.6559113505154848,-0.1919838765799999,-1.849584203095734
1789514456175922700,1.024922607421875,-0.33008710989058015,-1.2411964307837187,-0.2985600449874997
1789514456185928700,1.0349287109375,2.4223306070536372,-1.999894299289584,1.0785371406264603
1789514456195935700,1.044935791015625,-2.6389216861456632,-1.9347791453003882,1.1138342255875469
1789514456205941800,1.054941650390625,-2.57684195432961,-1.0682505782812832,1.0163093786418438
1789514456215947500,1.064947509765625,-3.3059885880500075,-0.6793851162075996,0.8302852872490882
1789514456225954600,1.07495458984375,-3.724521458634734,-0.6775856655701995,1.1030869138628243
1789514456235960800,1.0849609375,-3.4877228732943535,-1.0013637384444474,1.0197747166648508
1789514456245966600,1.094966552734375,-3.180056854048371,-1.2170485163465141,0.6618859921351075
1789514456255972600,1.10497265625,-2.2847873457133767,-1.291790745858848,0.1475426773071289
1789514456265979600,1.114979736328125,-1.1720189957916736,-1.495635009972006,-0.3774427353054285
1789514456275985700,1.124985595703125,-0.28806641576290126,-1.750736875374615,-0.25541619204878807
1789514456285991700,1.13499169921875,0.19030805232226847,-1.737017123710364,0.34343992793858047
1789514456295998500,1.14499853515625,0.8681962079703808,-1.4182915119200945,1.0943488961338996
1789514456306004500,1.15500439453125,1.5896832668483256,-0.7333554835870861,1.3820803808540105
1789514456316010800,1.1650107421875,1.5926210738658904,-0.7464937821015715,1.6969518014341591
1789514456326016800,1.175016845703125,1.647038892751932,-1.1001550981946289,2.052157570490241
1789514456336023600,1.1850234375,1.7751842111498117,-1.1867603455886244,2.0048972221434114
1789514456346029600,1.195029541015625,2.475396426808834,-0.6663296736709773,1.695954607090354
1789514456356035600,1.20503564453125,2.177586031144857,-0.45331367658674715,2.73430338358283
1789514456366042600,1.215042724609375,1.117006133621931,-0.7197581892587244,2.558827574211359
1789514456376048600,1.225048583984375,0.9786480487674474,-0.19606953845843672,0.867841403183341
1789514456386054400,1.235054443359375,0.17461773123741148,0.08458923139646649,0.7063023492276668
1789514456396061200,1.245061279296875,0.6024217035144567,-0.08469882925078272,0.5012964939892292
1789514456406067500,1.2550673828125,0.9012672874450683,-0.15444909569472073,0.08005202635824679
1789514456416073200,1.2650732421875,0.8511123867005109,-0.31606472201794383,-0.1405880358636379
1789514456426079200,1.275079345703125,0.5517079998433589,-0.5546142426788807,0.03975976345837116
1789514456436086300,1.285086181640625,-0.04130173220336437,-0.6204430978953838,0.326404037463665
1789514456446092300,1.29509228515625,-0.4570750749468803,-0.629111265258491,0.48514264704585075
1789514456456098300,1.305098388671875,-0.7204150457322597,-0.431618269868195,0.25892040077745915
1789514456466105300,1.315105224609375,-0.9684972416311501,-0.4809731062762439,-0.05983633680343627
1789514456476111000,1.325111083984375,-1.1164145974695683,-0.6288765797197818,-0.5077431859105825
1789514456486117400,1.335117431640625,-1.0469003317385912,-0.8150950246408581,-1.1025976690411567
1789514456496123400,1.345123291015625,-0.42630934980511664,-1.1424153001666069,-1.319711895224452
1789514456506130200,1.355130126953125,0.5506663818359374,-1.563998644363135,-1.339016315153241
1789514456516136200,1.36513623046875,1.3951356772601604,-2.0094886415868998,-1.0915379303663968
1789514456526142500,1.375142578125,2.086561067612469,-2.523407301262021,-0.8775105642825365
1789514456536149200,1.385149169921875,2.216265013629198,-2.9253602084457873,-0.9674369189232587
1789514456546155300,1.3951552734375,1.905183632981777,-3.1074568972617387,-1.1014824012756348
1789514456556161300,1.405161376953125,2.0103487655475734,-3.0491698357269166,-0.8821212729483843
1789514456566167300,1.415167236328125,2.194008465896547,-2.7388854506760834,-0.8193968134880065
1789514456576174300,1.42517431640625,1.981431006360054,-2.368505201102793,-0.9336141442984343
1789514456586180000,1.43518017578125,1.9213719667166471,-2.2084069936051964,-0.8689332900732755
1789514456596186000,1.44518603515625,2.805079047551751,-2.6123893607899547,-0.2811602896362543
1789514456606193400,1.455193359375,3.5567493555083867,-2.48863613987118,-0.075851652058959
1789514456616199200,1.46519921875,3.8175788047775625,-2.2323452108144757,0.44202012915611266
1789514456626205200,1.475205078125,3.9780005451411005,-2.0753258262403307,0.36802433409690855
1789514456636211200,1.485211181640625,3.4562317564874885,-1.1371715542942284,0.9915905324488877
1789514456646218200,1.49521826171875,3.0353415091216562,-0.8190548681825399,1.1589631148636341
1789514456656224300,1.505224365234375,2.7140023538321256,-0.714643330463022,1.3964876763910055
1789514456666230300,1.515230224609375,2.485928342217207,-0.547893994513154,1.6018021591871976
1789514456676237300,1.5252373046875,2.3944506664812564,-0.1544847515299916,1.9907535459786652
1789514456686243300,1.535243408203125,2.3389871379345655,0.4311703799702227,2.767422978374362
1789514456696249300,1.545249267578125,2.149751683279872,1.0674795208435506,3.474273024612665
1789514456706256400,1.55525634765625,1.931238111692667,1.7416420070320366,3.9632396138608454
1789514456716262400,1.565262451171875,1.4161948319017885,2.240517411354184,4.373496823531389
1789514456726268400,1.575268310546875,1.4954939940661192,2.3970145256198943,4.3581922868937255
1789514456736274200,1.585274169921875,-0.08321896595656872,3.118321405625343,5.165982249218225
1789514456746281500,1.595281494140625,-0.617742679830268,3.4782428050264715,5.357819995325803
1789514456756287200,1.605287353515625,-0.7757488104194402,3.7306659527391193,5.330045853215456
1789514456766293200,1.615293212890625,-0.6603624358296394,3.8323587330192326,5.207641708818078
1789514456776300300,1.62530029296875,-0.5989122340887785,3.8721237571746108,5.2051791180968285
1789514456786306300,1.635306396484375,-0.8918225827515125,4.3187741764798755,4.9256063899129625
1789514456796312300,1.645312255859375,-1.4683990663915871,4.714525598675013,4.955409992024302
1789514456806318300,1.655318359375,-2.0055968948453664,4.812799802683293,4.914530869147181
1789514456816325000,1.6653251953125,-2.485277184832096,4.657415471965074,4.725578323087096
1789514456826331400,1.675331298828125,-2.4595506229013204,4.6001425559088585,4.7262300649940965
1789514456836337400,1.68533740234375,-3.3849610024780032,3.7206820266023275,4.289200583732128
1789514456846344200,1.69534423828125,-3.781078043115139,3.1526506684675812,3.722463941583037
1789514456856350200,1.70535009765625,-3.78560750323832,2.6703794852048155,2.8973779765427112
1789514456866356500,1.7153564453125,-3.962524159067869,2.2660841065481305,2.085546045351028
1789514456876362200,1.7253623046875,-4.034129259598255,1.681762561739236,1.8138012343138454
1789514456886369300,1.735369384765625,-3.5802807454824443,1.2749281661242247,1.545705593433976
1789514456896375300,1.745375244140625,-2.670917245343327,1.004151396401599,1.4988655163258313
1789514456906381300,1.75538134765625,-1.7653595672279596,0.6909825419556349,1.469109845009446
1789514456916388400,1.765388427734375,-0.9453723866313696,0.27560397068336606,1.3788953210771082
1789514456926394000,1.77539404296875,-1.0091671787369996,0.21207133664526043,1.3903186323672532
1789514456936400100,1.785400146484375,1.013531730622053,-0.27592151219993827,1.7747148400723933
1789514456946407400,1.795407470703125,1.529203955966234,-0.5146494581677019,2.067407746592164
1789514456956413200,1.8054130859375,1.4426953008145094,-0.5056831846408546,2.187985844606161
1789514456966419200,1.815419189453125,1.1210410882264374,-0.17860636248216033,1.8238591024696826
1789514456976425200,1.82542529296875,1.1061123991638422,-0.3001015753410756,1.842286739563942
1789514456986432300,1.835432373046875,-0.3224645060576498,-0.4001306601926684,0.8145721698105335
1789514456996438300,1.845438232421875,-0.8493694154907018,-1.0921807583145797,0.8955892418086528
1789514457006444300,1.8554443359375,-1.1417319940775632,-1.4946243716247378,0.11499299135804175
1789514457016451300,1.865451416015625,-0.7947638920128345,-1.4502734809838234,-0.5447492667466401
1789514457026457300,1.875457275390625,-0.5863082616467028,-1.8696277509540318,-0.6486357576787471
1789514457036463400,1.88546337890625,-0.5532949037086218,-1.9566842492468655,-0.6326017377227544
1789514457046469000,1.89546923828125,-0.014870821395516395,-0.677115563840419,-0.6844611042976378
1789514457056476400,1.905476318359375,1.3546177889108657,-0.6089022977054118,1.717069875833392
1789514457066482400,1.915482421875,1.6912550510972737,-0.46356560600996016,2.871439817687869
1789514457076488200,1.92548828125,1.693337702590227,-0.49387291985973714,2.8784979195058344
1789514457086495200,1.9354951171875,2.991083265200257,0.5342196894258261,2.1158833159476518
1789514457096501200,1.945501220703125,2.8055232841879127,-0.24933614148274064,1.555989671561122
1789514457106507300,1.95550732421875,2.369478722310066,-0.4580409973695874,0.8448305299520492
1789514457116513300,1.96551318359375,2.3466981507033107,-0.5280085598260164,0.8653606922835111
1789514457126520000,1.97552001953125,2.835482369121909,-0.7287354225710034,0.4292342973411083
1789514457136526300,1.9855263671875,2.8208535397887227,-0.7825839171364903,0.44559740312099455
1789514457146532400,1.995532470703125,3.2590801218807695,-1.4549334356188772,0.5815887588441372
1789514457156539100,2.0055390625,0.977940192759037,-2.0899024869948626,0.7592167778134346
1789514457166545400,2.01554541015625,-3.3627480016261337,-0.9824953718453645,-0.9420359356850385
1789514457176551400,2.025551513671875,-7.62556092917025,-0.4935448569491505,-2.098730521094799
1789514457186558200,2.03555810546875,-7.614654919752478,-0.5352040242880582,-2.087064633220434
1789514457196564200,2.045564208984375,-8.873793980592488,-0.6028460664063692,-2.0584353355854748
1789514457206570500,2.055570556640625,-4.05683559692502,-1.3303735744923353,-1.3045926520258186
1789514457216576300,2.065576171875,-2.37070154210329,-0.9333873498052359,-2.1209785932600496
1789514457226583300,2.075583251953125,0.43314752526208755,0.005276186837255954,-1.9200994625627994
1789514457236589300,2.08558935546875,0.3187642633002251,-0.0030947511449456212,-1.9029378998816011
1789514457246595300,2.09559521484375,1.9377707283318042,0.20541852769255636,-1.8397803097009657
1789514457256602400,2.105602294921875,1.8956361985661088,-0.14481822077929973,-1.2312380774796008
1789514457266608000,2.115608154296875,1.4877150306276976,0.33904695367664095,-1.1516045687943697
1789514457276614100,2.1256142578125,1.026500371658057,0.7903460755705833,-0.6804080295145511
1789514457286620400,2.135620361328125,1.031284829455614,0.7891948597088456,-0.6807575736045837
1789514457296627200,2.145627197265625,0.6428630194962024,1.3163222527861593,-0.5567775581926107
1789514457306633200,2.15563330078125,-0.4380165926031768,1.3845707363650201,0.11021101777851582
1789514457316639200,2.16563916015625,-0.6073743574857712,1.607845531004667,0.5189695133239031
1789514457326646300,2.175646240234375,-0.6602781185470521,1.5987266972646117,0.5303238510310649
1789514457336652300,2.18565234375,-0.6960198785357177,1.6929025260433554,0.7633388261795043
1789514457346658300,2.195658203125,-0.6778893246918917,1.4901979334846138,0.7405214296936988
1789514457356665300,2.205665283203125,0.07299787006303668,0.7905933283299207,0.6944511679142713
1789514457366671400,2.21567138671875,0.3982522991001606,0.43233197109550237,0.3751186762720346
1789514457376678400,2.225678466796875,0.22181641252487896,0.05915156940966844,-0.10027356113195418
1789514457386684400,2.235684326171875,0.12476780478879809,0.020390169338881967,-0.06531038430035115
1789514457396691200,2.245691162109375,-0.494159481716156,-0.2965840687394142,-0.5465455025136471
1789514457406697200,2.255697265625,-2.1450357606738804,-0.8079346314921975,-2.392946107137203
1789514457416703500,2.265703369140625,-2.2416221577256916,-0.8212342580482364,-2.3634786051124332
1789514457426710300,2.275710205078125,-2.7140017693102356,-1.094066279800236,-2.3507488873988387
1789514457436716300,2.28571630859375,-2.6858763295441865,-1.453386206176877,-2.166729121565819
1789514457446722300,2.295722412109375,-2.4630714905038475,-1.7308052634581923,-1.999743492642045
1789514457456728600,2.305728515625,-2.3434593149125575,-1.9108415126129983,-1.8412451215565204
1789514457466735400,2.3157353515625,-1.9875056500986217,-2.0108578841134905,-1.465898481747508
1789514457476741400,2.325741455078125,-0.08292407466322183,-1.526466055434942,-3.4642473051607605
1789514457486747400,2.335747314453125,4.679520336267352,-1.8570403643205762,-3.5359745707660912
1789514457496754400,2.34575439453125,2.1719348735153674,-2.397046820454299,-0.9839964240580796
1789514457506760400,2.355760498046875,0.9547577623531222,-1.771593493181467,-1.4518442374318836
1789514457516766200,2.36576611328125,0.5034738380283117,-1.654750782303512,-2.6763608977019784
1789514457526773500,2.3757734375,-0.6206684310838579,-1.579234645809233,-2.6373902387946844
1789514457536779500,2.385779541015625,-1.327717653156072,-1.596544092528522,-2.834262471938133
1789514457546785300,2.395785400390625,-1.8540055266693234,-1.438898831140995,-2.0999024874836207
1789514457556791300,2.405791259765625,-1.6681553305387495,-1.069547340093553,-0.2525911977559328
1789514457566798300,2.41579833984375,-1.1108844358712433,-1.103941777126491,0.28841537533104417
1789514457576804400,2.425804443359375,-1.0029361023277044,-1.574087346048653,-0.12848141848444938
1789514457586810400,2.435810302734375,-1.0551738006956874,-2.1474971823513505,-0.8288625609695911
1789514457596817200,2.445817138671875,-0.8138467781454324,-2.517577279934287,-1.732866579902172
1789514457606823400,2.455823486328125,-0.3983592666059732,-2.529966221386194,-2.372815757778287
1789514457616829400,2.465829345703125,0.1781950052022934,-2.1429659686625,-2.2445020970761775
1789514457626835500,2.47583544921875,0.9464443997770547,-1.44128572627753,-1.505634279808402
1789514457636842200,2.48584228515625,1.3151397650033234,-0.4513923531353473,-0.3803817113667726
1789514457646848500,2.4958486328125,1.695572329774499,0.43895664993226524,0.8321510811209678
1789514457656854300,2.505854248046875,2.02184879533574,0.981941391224414,1.8823218128323553
1789514457666861300,2.515861328125,1.8549175269477067,1.1916507479786873,2.4654548785090444
1789514457676867300,2.525867431640625,1.5333663363426924,1.157307895002514,2.3266531415402887
1789514457686873300,2.535873291015625,1.0213456192433834,1.0491866891101003,1.6992559867233037
1789514457696880400,2.54588037109375,0.3066007281020284,0.8662678702563047,0.8736158949315548
1789514457706886400,2.555886474609375,-0.0581818475946784,0.5749117652982473,-0.015841127732396126
1789514457716892200,2.56589208984375,-0.6314324016824364,0.5709215266183019,-0.6736299136817455
1789514457726898400,2.5758984375,-0.6339432154595852,0.6676034929990768,-0.5344874004513025
1789514457736905200,2.5859052734375,-0.23464637574255465,0.944847485974431,-0.18101123166680336
1789514457746911200,2.5959111328125,0.532157203938067,1.0325956197932362,-0.06725391958355903
1789514457756917500,2.60591748046875,2.1416382271900773,0.8731357101991772,-0.14928864419162272
1789514457766924300,2.61592431640625,2.8226480219900605,0.4799497545778751,-0.20551614284813402
1789514457776930300,2.625930419921875,1.9701210923165082,0.24071926591545342,0.04159107053875923
1789514457786936300,2.635936279296875,0.21095658033639192,0.4410930774390697,0.25710546030998227
1789514457796943400,2.645943359375,-2.1792077871277926,0.6875239989995956,-0.010609656819701194
1789514457806949400,2.655949462890625,-4.067492307756841,1.1870435464441775,-0.04762859713733196
1789514457816955400,2.665955322265625,-3.382139807577431,1.3466969327837228,-0.19009470183253288
1789514457826961200,2.675961181640625,-2.229834689298272,1.03913466617316,-0.2627203775823116
1789514457836968400,2.685968505859375,-1.7665667510606347,0.9750397951424121,-0.2480892101615667
1789514457846974500,2.695974365234375,-1.653275449053943,1.1147706296548248,-0.11892799271941185
1789514457856980200,2.705980224609375,-1.2813007698960601,1.2094827572673559,0.0632733255147934
1789514457866987500,2.715987548828125,-0.9996274161711335,1.3709966767817734,0.18950608828961849
1789514457876993500,2.72599365234375,-0.8747839157976209,1.6576532257467507,0.364506096842885
1789514457886999300,2.735999267578125,-0.7335454532012343,1.8485048834264277,0.1514116276949644
1789514457897006300,2.74600634765625,-0.5106202026516199,2.0207547164887187,0.027495909690856933
1789514457907012400,2.756012451171875,-0.5668043005578219,2.13276489264369,0.1781371375352144
1789514457917018400,2.766018310546875,-0.04085983365476131,1.9725731616437434,0.6601420710772276
1789514457927024400,2.7760244140625,0.29360519905909893,1.6859011228486895,1.2251532046079634
1789514457937031200,2.78603125,-0.3061183514125645,1.3593909946620464,1.5466870056867599
1789514457947037400,2.796037353515625,-1.0993681856006383,1.1961527355730532,1.4521481888145207
1789514457957043500,2.80604345703125,-1.5936165146440266,1.4402736266255378,1.298555125427246
1789514457967050200,2.81605029296875,-1.2592489509552716,1.876181118120253,1.224391572585702
1789514457977056300,2.82605615234375,-1.1483102764893323,2.262409217427671,1.1728759048819541
1789514457987062500,2.8360625,-0.6267097570747137,2.428674423122406,1.2202777075260878
1789514457997068300,2.846068359375,-0.22938629978988317,1.7044865808531642,1.7755144660174846
1789514458007075300,2.856075439453125,-0.17182020947337148,0.8562430275872349,1.850145636370778
1789514458017081300,2.866081298828125,-0.383062913274765,0.6224430395409465,1.6202993543863295
1789514458027087400,2.87608740234375,-0.13436580034792422,0.667023062762618,1.5245675283372402
1789514458037094400,2.886094482421875,0.3444681019425392,0.7179071545645594,1.4667688348412513
1789514458047100400,2.896100341796875,-0.05214285055822693,1.6901806998640299,1.8927689725667236
1789514458057106200,2.906106201171875,1.1348948415338993,0.7519123000189661,0.9773509946942329
1789514458067113500,2.916113525390625,2.6187305465102195,-0.5589344439655543,0.46143969989717004
1789514458077119200,2.926119140625,2.4836089593589303,-1.1481620271250605,0.5109890359640121
1789514458087125200,2.936125244140625,2.2235002255797385,-1.2693904057413339,0.6898574103832245
1789514458097131300,2.94613134765625,1.7359645459175108,-1.8192141992732882,0.6036246495634318
1789514458107138300,2.95613818359375,1.0848632749080658,-2.450361062012613,0.5218272408425808
1789514458117144300,2.966144287109375,-0.0949579555997625,-3.718845751085877,0.3616518764555454
1789514458127150300,2.976150390625,-0.10050970797538757,-3.7796635001420973,0.3953659300088882
1789514458137157400,2.986157470703125,-0.2485737422754988,-3.3444919217064975,0.7756494416981935
1789514458147163400,2.996163330078125,0.06014964053630829,-3.3692940622687337,0.9345102163553237
1789514458157169400,3.00616943359375,0.22757541444301604,-4.161840862753987,-1.0368716896772383
1789514458167176200,3.01617626953125,0.28967971444474533,-4.259398150664568,-0.9367705625027417
1789514458177182500,3.026182373046875,0.2699310578797944,-4.216561756239831,-0.9622697454184294
1789514458187188500,3.0361884765625,0.1778980680823326,-3.281056099106371,0.25903145993649956
1789514458197194200,3.0461943359375,0.7877706721246243,-2.006830820554495,1.4224725969970224
1789514458207201300,3.056201171875,1.063956095957756,-1.3719620146825908,1.0148556727021931
1789514458217207600,3.06620751953125,1.0991302851915359,-1.3535685721188784,1.0057108277380467
1789514458227213300,3.07621337890625,1.3027929091274737,-1.4888199231296777,0.24923078141212462
1789514458237220400,3.086220458984375,0.13849552056379616,-0.9878560220956801,0.3561567861706018
1789514458247226400,3.096226318359375,0.8659761938333511,-0.5922074757531285,1.0828034197688101
1789514458257232400,3.106232421875,1.6939584648370742,-0.07619915032237767,1.5936077468156813
1789514458267239400,3.116239501953125,1.8858464798271655,0.3972863766774535,1.2445002946346997
1789514458277245200,3.1262451171875,1.8272516675174235,0.45863282578289505,1.2104174077689647
1789514458287251500,3.13625146484375,0.8195885366678237,0.07500701792836188,1.1088368556916712
1789514458297257500,3.146257568359375,-0.4049345533430576,1.1953048865720628,0.4666536351531744
1789514458307264300,3.15626416015625,0.230244341391325,1.7428548899531364,0.9356652316093444
1789514458317270300,3.166270263671875,-0.9728443309247493,2.00995450553298,0.9336299263894557
1789514458327276500,3.176276611328125,-1.0215817660868167,2.039385767200589,0.9192261379837989
1789514458337283300,3.186283447265625,-0.7796808891713619,2.4211238616123794,-0.15587445232272149
1789514458347289300,3.196289306640625,-2.108297975385189,1.9087904253020882,-1.0531155529916285
1789514458357295400,3.20629541015625,-2.852186835685372,1.9399355051502585,-1.0476040960937738
1789514458367302400,3.216302490234375,-2.2358266231894492,2.3112802158415318,-1.1323767212331295
1789514458377308400,3.226308349609375,-2.307359243005514,2.347885606922209,-1.1469447602897882
1789514458387314000,3.23631396484375,-2.3773551547735927,2.2409306683301926,-1.6489280674993991
1789514458397319700,3.246319580078125,-2.3910592704772946,1.7979034079581497,-2.4661440298169848
1789514458407326700,3.25632666015625,-1.832668431869149,0.7190425883352756,-3.5269495527893304
1789514458417332700,3.266332763671875,-1.6083248389542102,0.24290800813138483,-3.4499855555742975
1789514458427338800,3.2763388671875,-1.1546692170619963,0.7149865909427404,-2.089576908302307
1789514458437345800,3.286345703125,-1.3244237261772156,1.0250812986403703,-2.069656986823678
1789514458447351800,3.296351806640625,-1.2743296157091855,1.0008604650974273,-2.0604320623606442
1789514458457357600,3.306357666015625,-2.4947768345832824,-0.1731076189354062,-3.0408710861980914
1789514458467363800,3.31636376953125,-2.883004583275318,-0.05002893627732992,-3.688668639487028
1789514458477370600,3.32637060546875,-2.8210610450595617,-0.047829088145494456,-3.6904818263888357
1789514458487376600,3.336376708984375,-1.3105875085264445,0.5908215743526816,-2.0633932502537964
1789514458497382700,3.346382568359375,-2.2132184855401515,1.1437535630330442,-1.0661404542595148
1789514458507389700,3.3563896484375,-0.06099602823257446,2.1463512271866203,-0.5085048179328441
1789514458517395700,3.366395751953125,3.349540729528665,2.892845886071026,0.8080635185688734
1789514458527401700,3.376401611328125,1.7576444628059864,1.3268521223679184,2.701770648768544
1789514458537408800,3.38640869140625,1.7943161971211432,1.3030600356310604,2.7135020030945536
1789514458547414800,3.396414794921875,1.8418530243217943,1.261918754686415,2.733652810719609
1789514458557420800,3.4064208984375,-0.8056558729052543,-0.5409881606474518,0.4201017273366451
1789514458567426600,3.416426513671875,-0.250854583221674,-0.34891865161061286,0.1642214249074459
1789514458577433900,3.426433837890625,-0.828974789172411,-0.7976096368327736,0.7849117755621671
1789514458587439900,3.43643994140625,-0.5120224341323599,-1.2174489138409494,0.9420826974362134
1789514458597445600,3.446445556640625,0.17122757734246552,-0.8381459376215934,1.1875585102289914
1789514458607452700,3.45645263671875,1.0650175877094268,-0.7963695736438036,1.6866057639867067
1789514458617459000,3.466458984375,2.324288165974617,-0.564483310264349,2.160440250554681
1789514458627464700,3.476464599609375,2.379070726519823,-0.555907789620757,2.161829659086466
1789514458637471700,3.4864716796875,1.7013785318352281,-0.025295184776186943,2.6163655709445477
1789514458647477500,3.4964775390625,1.2165971193172036,-0.061736325205862516,2.20749601624012
1789514458657483800,3.50648388671875,0.5748012906610965,0.10281827717870473,1.8971312594294547
1789514458667489800,3.51648974609375,0.05610825619101524,0.7983551945030689,2.28228266941607
1789514458677496600,3.52649658203125,-0.35178631600141524,1.4912006807863711,2.737788303089142
1789514458687502600,3.536502685546875,-0.18181787187457082,2.1116598530337214,2.6242805818527937
1789514458697508900,3.5465087890625,-0.33797282163910564,3.0607591512337327,2.8408085325807333
1789514458707515600,3.556515625,0.22891849961504337,4.0809187755629415,2.7134891436129807
1789514458717521700,3.566521728515625,0.44903212681002913,3.0930963634759188,2.406234627777338
1789514458727527700,3.576527587890625,0.3799358307627961,2.9966067047968505,2.4471593433618546
1789514458737534700,3.58653466796875,1.464574539667368,2.9425676560953256,1.7903315113991498
1789514458747540700,3.596540771484375,0.7990285637199879,2.2590105149000883,0.8743407020747661
1789514458757546800,3.606546630859375,0.9259890562474727,1.1574632316946982,-0.08860825777947902
1789514458767552800,3.616552734375,0.8794774804413318,0.07331511931866407,-0.42997722466289995
1789514458777559800,3.626559814453125,0.40955231280419974,-1.128946162262559,-1.0316513246804475
1789514458787565800,3.63656591796875,-0.38685993093755094,-3.1763825494498015,-2.186324048873782
1789514458797571600,3.646571533203125,-1.0320996529698372,-3.811479026597738,-2.9331045389622448
1789514458807579000,3.656578857421875,-1.7959774083316324,-4.679627303773165,-3.3450235443651675
1789514458817584600,3.666584716796875,-1.5561562602996826,-5.302565141093731,-3.259668150901794
1789514458827590700,3.676590576171875,-1.3706091387689112,-4.92012766624093,-3.039019320851564
1789514458837598000,3.686597900390625,-1.3686018905997275,-4.616546870481968,-2.5252298405140636
1789514458847603700,3.696603759765625,-1.1902830398220567,-4.118536558556556,-2.510068511739373
1789514458857609700,3.706609619140625,-0.5976105038404464,-3.8200568853288885,-3.1246172908991574
1789514458867615700,3.71661572265625,-0.5649708015203475,-3.5837738482952117,-3.442442300587892
1789514458877622800,3.726622802734375,-0.5768915409386157,-3.2791227929562328,-3.5935482233345506
1789514458887628800,3.73662890625,0.36217326998114585,-3.4936680454343554,-3.6625107004016635
1789514458897634800,3.746634765625,1.03990886541605,-3.9283658688783643,-3.670607497617602
1789514458907641600,3.7566416015625,1.9471862069308756,-3.9845124112531543,-2.9581413650631903
1789514458917648000,3.76664794921875,2.889157260686159,-4.144103253750503,-1.8380536320388317
1789514458927654000,3.77665380859375,2.6666543272018433,-3.7545378267139196,-0.38452304895520206
1789514458937660700,3.78666064453125,1.3009785531818865,-2.1858841961517927,1.8402917663544416
1789514458947666700,3.796666748046875,0.7564870605885982,0.149394442653656,4.233873248785734
1789514458957673000,3.8066728515625,0.22012045879457146,2.0445970721080897,5.177868501845002
1789514458967679700,3.8166796875,0.351036958938837,3.617106793576479,6.155454474338889
1789514458977685800,3.826685791015625,-0.14794598827785813,4.0981081030339,6.158540749916434
1789514458987691500,3.83669140625,-0.2412193243920803,4.278149028363823,6.108619073405862
1789514458997697800,3.84669775390625,0.3152764942497015,4.133297489836812,5.051014976823329
1789514459007704800,3.856704833984375,-0.2761573850487359,3.8636628028213975,4.318990741840005
1789514459017710600,3.866710693359375,-0.20803192506134507,3.5389804745838043,4.8339440052598714
1789514459027716600,3.876716552734375,-0.4736678978294134,2.5429291633337736,3.074250208708644
1789514459037724000,3.886723876953125,-1.1988918051481245,1.1735082114361226,1.8548855243742466
1789514459047729700,3.896729736328125,-1.5328659856051206,1.1308116638734935,1.2350152579307556
1789514459057735700,3.906735595703125,-1.4752753819018602,1.1750101404316722,0.8898656034648418
1789514459067742700,3.91674267578125,-1.5341864205539226,1.1230540354840457,0.32175299678742886
1789514459077748700,3.926748779296875,-1.4925018265128134,1.2102087334543465,-0.10031798479557037
1789514459087754800,3.936754638671875,-1.3879647627174854,1.2406390891619026,-1.9384785843402146
1789514459097760800,3.9467607421875,1.3995698603153228,1.1748213398613034,0.3121393652677536
1789514459107767800,3.956767822265625,3.47441330986619,1.4180970122613012,0.9631400985121726
1789514459117773800,3.96677392578125,2.514552379155159,0.8089914470687508,-0.2904682162076235
1789514459127779800,3.97677978515625,1.1978701339501887,-0.4823921792939305,-0.9482599247664213
1789514459137786600,3.98678662109375,0.5503204179424792,-1.1556836548015474,-1.4168383905023336
1789514459147793000,3.99679296875,0.37046427459493275,-1.6603075396478175,-1.3532225351601839
1789514459157798700,4.006798583984375,0.5624246241688728,-1.443205003902316,-0.5328180059343576
1789514459167805700,4.0168056640625,0.30482597351446744,-1.0908403034910559,-0.23658055867552755
1789514459177811700,4.026811767578125,-0.009386398635059594,-1.4387088615268468,-0.33116496825516223
1789514459187817700,4.036817626953125,0.1883868750013411,-2.152164881901443,-0.10699790095090865
1789514459197823700,4.04682373046875,0.9519253154061734,-2.156987479752302,-0.14936638560295104
1789514459207830800,4.056830810546875,0.8978254764281213,-2.3721619700446723,-0.13920622611641884
1789514459217836500,4.06683642578125,1.0743583936370908,-2.3977324646309017,-0.06450900478959083
1789514459227842800,4.0768427734375,1.723197564933449,-1.7761770215794443,-0.03111234662234783
1789514459237849600,4.086849609375,0.5438369742073118,-2.4393130137756467,-0.14380524434447287
1789514459247855600,4.096855712890625,0.09373889866620301,-2.4829335443153977,-0.33235797743201256
1789514459257862000,4.10686181640625,0.9118228759899735,-1.8118150289326904,-0.21308160966634748
1789514459267868700,4.11686865234375,0.6045093234434723,-2.537055887386203,-0.26734102312028407
1789514459277874700,4.126874755859375,1.568312415909022,-2.4669804806411264,-0.5482178196400403
1789514459287880700,4.136880615234375,2.0513924313366414,-2.134092926377058,-0.16064239737689495
1789514459297887700,4.1468876953125,1.6210547027982771,-0.3917082842841744,0.21667758833169937
1789514459307893800,4.156893798828125,0.13958148916959762,0.9077645405098795,1.52240421282351
1789514459317899800,4.166899658203125,-0.569502015209198,1.32855571141541,2.0262568210363385
1789514459327905500,4.176905517578125,-0.756346629204601,1.1318892299771308,2.5135078385382887
1789514459337912800,4.186912841796875,-0.7783198299512266,0.5053843478247523,2.1114485483706
1789514459347918800,4.1969189453125,-0.055093233929574485,0.1262970601826906,2.1999422398597
1789514459357924600,4.206924560546875,-0.4526210181474685,-0.2656204829379916,1.8039339202940463
1789514459367932000,4.216931884765625,-0.5192600207030773,-0.1694716005206108,1.1504559832811354
1789514459377938000,4.22693798828125,-1.4392743864551185,-0.3906657894939184,1.1379226649224758
1789514459387943400,4.236943359375,-0.964875836263597,-0.31330577869862314,0.6995277405261993
1789514459397950500,4.246950439453125,0.052626989946514366,-0.44310967795848843,0.44434594175517556
1789514459407956500,4.25695654296875,0.6531935671135782,-0.24486440289616584,0.17728548914194106
1789514459417962500,4.26696240234375,0.7815840924441814,0.23343261603862045,0.789770321509242
1789514459427968500,4.276968505859375,0.939744902138412,0.4199693331286311,0.5362205078542233
1789514459437975300,4.286975341796875,2.7008579178377983,0.593639700513333,0.7373994982808828
1789514459447981600,4.296981689453125,1.9159385434910654,1.2594558717042208,1.8239280760526655
1789514459457987600,4.306987548828125,-0.8186531555138528,1.7550420252226293,2.3494629392415285
1789514459467994400,4.316994384765625,-1.9718813799872994,1.881827453444153,0.7171621814161538
1789514459478000400,4.32700048828125,0.3302548676729202,1.610774716324359,0.6045493631929159
1789514459488006700,4.337006591796875,1.7653896701052785,1.1520385762974619,0.17640052300095557
1789514459498013400,4.347013427734375,1.1569549899116158,1.127001604066044,-0.6335474941402673
1789514459508019500,4.35701953125,0.4235761254489422,0.5859517763592302,0.06506430058479308
1789514459518025500,4.367025390625,0.5219836004480719,0.4582791169743985,0.7695195606410503
1789514459528032500,4.377032470703125,1.1475205143511296,0.8009372468855231,-1.2697247522622346
1789514459538038500,4.38703857421875,1.169422257296741,2.0132554467745125,-0.7043564758569002
1789514459548044500,4.39704443359375,0.7220049452722073,2.321566924317181,-1.169565757420659
1789514459558050300,4.40705029296875,0.8357131575167178,3.3300328959822654,-2.1856594474852082
1789514459568057600,4.4170576171875,0.28184125763773915,6.120601187622547,-1.9066659804940223
1789514459578063600,4.427063720703125,-3.153023301172256,3.8395536129593846,-0.10287351449728012
1789514459588069400,4.4370693359375,-5.885043542253971,1.9453329802796244,-0.9375187505215405
1789514459598076700,4.44707666015625,-5.009670574522018,2.9721970706835386,-1.0248924980700016
1789514459608082400,4.45708251953125,-2.482218966305256,1.2100600456986577,-1.0714432368427513
1789514459618088400,4.46708837890625,-0.47714054237604137,0.14684651173651217,-1.2613888855934143
1789514459628095500,4.477095458984375,0.674933543626219,-0.46554713521599767,-1.3252940792709589
1789514459638101500,4.4871015625,0.3064569357171655,-1.0979557615194468,-1.044996543943882
1789514459648107500,4.497107421875,-0.6023049452669919,-0.43957828896194695,0.30864158627986904
1789514459658114600,4.507114501953125,-0.5726353447988629,0.46200712452158327,1.3367600606590508
1789514459668120300,4.517120361328125,-0.28639117602705955,0.5132863531209528,1.835960459151864
1789514459678126600,4.527126708984375,0.026171090827882288,0.46943946647942064,1.9848779319435357
1789514459688132600,4.537132568359375,0.28689474163502454,0.7285010292932391,1.7494465433031319
1789514459698139400,4.547139404296875,0.6224348562344908,0.4429791834466159,-0.07583586996793747
1789514459708145400,4.5571455078125,0.9579124269917607,0.07175853752642869,-1.4895324553132057
1789514459718151700,4.567151611328125,0.7977259566888213,-0.2819561161890626,-2.702345818307996
1789514459728158500,4.577158447265625,0.7925090988233685,-0.13093114972412587,-2.656572493648529
1789514459738164500,4.58716455078125,-0.33751462954282757,-0.1835121085718274,-3.3030601333826777
1789514459748170500,4.59717041015625,-0.758346716980636,0.14372019640952347,-3.554751751950383
1789514459758177500,4.607177490234375,-1.5805495278000832,0.8379775953173637,-3.35260946944952
1789514459768183600,4.61718359375,-1.4735250311031938,1.6902379830092191,-3.211567844599485
1789514459778189300,4.627189208984375,-1.0176169541090727,1.381200967670977,-3.0121359901010987
1789514459788196600,4.637196533203125,-0.5031707634285092,0.21591040335148573,-2.6848727054595947
1789514459798202600,4.64720263671875,0.7488789236724376,0.4949468327015638,-2.5096803892046213
1789514459808208400,4.65720849609375,0.7225099721848964,-0.7839994830228388,-3.0582904230326413
1789514459818214400,4.66721435546875,-0.9275050137683749,-1.2776377173438667,-3.55164268001914
1789514459828221400,4.677221435546875,-1.141115323483944,-0.2753834598004818,-2.0563135211259125
1789514459838227500,4.6872275390625,-0.7833375119827687,0.14956307721883058,-1.1381418606311082
1789514459848233500,4.6972333984375,-1.105696804100275,-0.589384454221651,-1.0724901155471802
1789514459858240300,4.707240234375,-0.8698445596992969,-1.6041984066739678,-0.27705928405821323
1789514459868246500,4.71724658203125,1.4659528422832488,-2.3119538773193953,0.2575847682595253
1789514459878252500,4.72725244140625,4.0887285725310445,-3.085242435105145,-0.07170330020785332
1789514459888259300,4.73725927734375,3.7888767341673373,-2.890295032544434,0.40046237636506554
1789514459898265600,4.747265625,3.449687157149613,-0.4878559976577759,3.0138614987194536
1789514459908271600,4.757271728515625,-1.2852601750463246,5.013109901320934,7.0500640574604265
1789514459918278400,4.7672783203125,-4.973029235345125,10.799022038215398,10.09108068960905
1789514459928284400,4.777284423828125,-3.1124703415095802,9.16819895172715,7.125384379121661
1789514459938290700,4.787290771484375,-1.7359189532101154,5.427174686580896,5.1589259009659285
1789514459948296400,4.79729638671875,-0.43813919606953855,4.300972562329471,3.2541210381686687
1789514459958303500,4.807303466796875,-0.6144567169621586,2.7289982629120346,1.7622697845190762
1789514459968309500,4.8173095703125,-1.0393033007383345,1.3956687612235545,0.055604398322105404
1789514459978315500,4.8273154296875,-1.1173442795351147,0.1255185500908643,-0.9555161795049906
1789514459988322600,4.837322509765625,-1.2289938056841492,-0.8481643505498766,-0.7933832513093948
1789514459998328300,4.847328369140625,-0.8910311401128769,-1.4579467920906841,-0.7923077310323715
1789514460008334300,4.857334228515625,-0.3809910754367709,-1.6134809065431355,-1.0074310756593943
1789514460018341600,4.867341552734375,-0.28416677797585727,-1.2988023781865834,-0.9685288058131932
1789514460028347400,4.877347412109375,-1.3536802157998085,1.0280386140760034,0.8479051150918007
1789514460038353400,4.887353515625,1.1325015166565775,1.4905015926063059,1.0519821650475263
1789514460048360700,4.897360595703125,3.2079198434859513,1.2123789171002806,1.3478712372601032
1789514460058366500,4.907366455078125,4.381849933595955,0.5304069992698729,2.702593071067333
1789514460068372500,4.91737255859375,4.450277865394949,0.8728048708096146,2.8058056082606315
1789514460078378500,4.92737841796875,5.454110039779543,-0.02389423193708062,3.5794472172677514
1789514460088385500,4.937385498046875,4.064915443006158,1.260039224550128,3.6996219951778646
1789514460098391600,4.9473916015625,3.9262341175466773,2.7533032676070928,2.5872061119556427
1789514460108397600,4.9573974609375,2.353253563696146,2.8722964345172044,1.1169739849179983
1789514460118404400,4.967404296875,0.6686728757962584,1.7779264955952763,-0.7962930012762546
1789514460128410600,4.97741064453125,-1.3784917087122797,0.6810477887228131,-3.822359901574254
1789514460138416600,4.987416748046875,-3.970127327547967,0.6361147142797708,-4.789530278515816
1789514460148423400,4.99742333984375,-4.386675161795318,-0.4181584843143821,-3.780056298851967
1789514460158429400,5.007429443359375,-2.416682664294541,-1.8771289203643797,-1.8912720120072364
1789514460168435500,5.017435546875,-0.8637535493478179,-2.8197409023717044,-0.3441413542062044
1789514460178442500,5.0274423828125,-0.05767769746482372,-2.30758106906265,-0.18861761501729488
1789514460188448500,5.037448486328125,-0.127859194932878,-3.404556806568801,-1.2994003440797328
1789514460198454300,5.047454345703125,0.09739888247847557,-4.613652025823295,-2.6082337024152276
1789514460208460500,5.05746044921875,-0.2305050381541252,-5.224582906746864,-3.4380016877919433
1789514460218467600,5.067467529296875,-0.08303162669092416,-4.924833067452907,-3.1321319043129683
1789514460228473300,5.077473388671875,-0.1305304599687457,-4.314640145415067,-2.320617953029275
1789514460238479400,5.087479248046875,-0.41656215503364796,-3.2164205453276633,-1.570720792225003
1789514460248486400,5.097486328125,-0.5630383721530438,-1.6845532153710723,-0.39203532428145405
1789514460258492400,5.107492431640625,-0.31131811201274395,-0.5608303407147527,0.0045066637694835664
1789514460268498400,5.11749853515625,0.13905483494699,-0.183152919870615,-0.45427930674850936
1789514460278505500,5.12750537109375,0.43819180303961036,0.16002806487083435,-1.0506892026275396
1789514460288511500,5.137511474609375,0.4414893832802772,0.42012569273412226,-0.9074474373847246
1789514460298517500,5.147517578125,1.2946169091954827,0.8214771268934011,0.14862462732493875
1789514460308524300,5.157524169921875,1.6524021733507512,0.5341752657622099,1.1720628349334001
1789514460318530600,5.167530517578125,2.014375536845624,0.3946481371283531,1.5748001704931258
1789514460328536600,5.17753662109375,1.627585127480328,0.5138134457349777,1.233893560424447
1789514460338543400,5.18754345703125,0.9336346025645732,0.40560207734107967,0.6136521225810051
1789514460348549400,5.19754931640625,0.347290173625946,0.5859019458681345,-0.12223054139614105
1789514460358555600,5.2075556640625,-0.1284451781272888,0.8531377550482749,-0.6274222892582416
1789514460368561400,5.2175615234375,-0.17016922739595175,0.9672031101673841,-0.6957832933008671
1789514460378569200,5.2275693359375,0.097519293987751,1.2219494401305913,-0.48600014065802094
1789514460388575200,5.2375751953125,0.0536547255590558,1.407374396586418,-0.15143208596110344
1789514460398581200,5.247581298828125,-0.6121688982859254,1.506516323339939,-0.05812251862287521
1789514460408588300,5.25758837890625,-0.6342953898981213,1.8077929338097571,-0.1821685850083828
1789514460418594000,5.267593994140625,-0.5356120205670595,1.885304628035426,-0.06042962652146816
1789514460428600300,5.277600341796875,0.13589315604567526,2.09872876752913,-0.07981880212426185
1789514460438607000,5.287607177734375,0.1681929588869214,2.1424995201945305,0.465820691460371
1789514460448613000,5.297613037109375,0.6719073276728391,1.9976725315868853,1.3525222779363393
1789514460458619100,5.307619140625,0.8222846438840031,1.5324235025346278,2.3834371050357817
1789514460468626200,5.317626220703125,0.6627452393129467,0.9718114807456731,2.6491917357474564
1789514460478632200,5.327632080078125,1.1115917073577641,0.3705658352732658,1.9591753354102373
1789514460488638200,5.33763818359375,1.3357193194344639,-0.045154900500178334,1.107938445547223
1789514460498644200,5.347644287109375,0.5484387689143418,-0.4413420837640762,0.6083265436440706
1789514460508651300,5.3576513671875,0.12194617149680852,-0.9571113397419452,0.41112288658916946
1789514460518657300,5.3676572265625,0.08425327744036912,-1.382299576562643,0.27302725206315515
1789514460528663000,5.3776630859375,0.0713312520250678,-1.292814535948634,0.357872357916832
1789514460538670300,5.38767041015625,-0.5953460660398006,-1.5075351449936627,0.12647183222770692
1789514460548676400,5.39767626953125,-1.849485418896377,-1.7571049491018056,-0.06256371594071387
1789514460558682000,5.40768212890625,-1.7953434943422675,-0.8824813384324312,0.3009621376931667
1789514460568689400,5.417689453125,-0.4982061267584562,0.45497254970967765,0.5191939697295427
1789514460578695400,5.4276953125,0.5924298863321542,0.8625976573109626,-0.29172260018289087
1789514460588701200,5.437701171875,1.0738961829528213,1.189752805402875,-0.8128951765090227
1789514460598708200,5.447708251953125,1.0754019113406539,1.4999287616431711,-1.1318670181453228
1789514460608714200,5.45771435546875,0.9831140882655978,1.6039707353979349,-1.0537205331474542
1789514460618720300,5.46772021484375,0.4988827108457684,1.884976711255312,-0.6799123549520969
1789514460628727300,5.477727294921875,-0.4825093759328127,1.8102502638339995,0.18305472019314764
1789514460638733000,5.487733154296875,-1.3238681381210684,1.5805378373622894,1.0389590173453092
1789514460648739300,5.4977392578125,-1.8407769195228814,1.2763795339763164,1.3609148432284592
1789514460658745300,5.507745361328125,-2.3565756938561795,1.189480418202281,1.187576045885682
1789514460668752100,5.517752197265625,-2.293653373736143,1.5130489399790763,0.7832704380959272
1789514460678758100,5.527758056640625,-1.908606008645892,1.7599784587115048,0.17935469663143158
1789514460688764400,5.537764404296875,0.4324859926134348,1.6177046617180109,-0.5661755011349916
1789514460698771200,5.547771240234375,3.277438200870156,1.6384662947177886,-1.0170207417815924
1789514460708777200,5.557777099609375,3.8256840775609016,1.3897159902989864,-1.3993161778151988
1789514460718783200,5.567783203125,2.789396032990515,1.45733406701982,-1.7654589359492063
1789514460728790300,5.577790283203125,2.3672274362519383,1.267172729691863,-1.609580391973257
1789514460738796300,5.58779638671875,2.6806615175053476,1.1893453936457634,-1.4298913488209246
1789514460748802300,5.59780224609375,2.870162052837014,1.3255758188217877,-1.204523673555255
1789514460758809300,5.607809326171875,2.4451266684904693,1.4257780682832002,-0.9357277754515408
1789514460768815400,5.6178154296875,1.9006971352174877,1.7253104654341935,-0.8350959024012088
1789514460778821000,5.627821044921875,1.5810452023625372,2.375546059525013,-1.0113906269401312
1789514460788828200,5.637828125,0.828903769762814,2.826853072464466,-1.2529381603732705
1789514460798834400,5.64783447265625,-4.450657220101356,2.3919454056620597,-1.1956272503942251
1789514460808840200,5.657840087890625,-10.045085831153392,1.0129214897692203,-0.3950423971429467
1789514460818846200,5.66784619140625,-5.857664536941051,0.4068962088048458,0.28132921646237374
1789514460828853200,5.677853271484375,-3.496807512503862,0.4048690868914127,0.3397103860214352
1789514460838859300,5.687859375,-2.325106496620178,0.4290338063329458,1.1426149143919349
1789514460848865300,5.697865234375,0.08731719505563378,0.41084816130101676,1.87807511517331
1789514460858872000,5.7078720703125,2.04739459387213,-0.5933651213556528,2.3801268114440144
1789514460868878000,5.717878173828125,2.6753569813564417,-2.5545605644166467,2.596903330105543
1789514460878884400,5.72788427734375,3.0504888093709943,-4.442243612021207,2.457927113352716
1789514460888891100,5.73789111328125,2.719329978595674,-6.5584986838907,1.6978005272179841
1789514460898897200,5.747897216796875,1.711005168966949,-8.817185958185792,0.5901879526242614
1789514460908903200,5.757903076171875,0.6950517641559243,-10.567596962606906,-0.5405195202223956
1789514460918910200,5.76791015625,0.24063918641656637,-10.556631331956385,-1.8666756231501698
1789514460928916200,5.777916259765625,-0.785152598580718,-7.0311232101470225,-2.527134797352552
1789514460938922200,5.787922119140625,-1.9947537215307354,-2.3970792614191767,-1.409813898693025
1789514460948929300,5.79792919921875,-2.8952117384195324,0.13783786037266255,-0.5016447229050099
1789514460958935300,5.807935302734375,-2.3097008376955985,0.8577882112026214,-0.3839924492098391
1789514460968941300,5.81794140625,-1.1057385974153875,1.0740075343728064,-0.5228159596189856
1789514460978947000,5.827947021484375,0.09292407515197992,1.313006844627857,-0.5259389139451086
1789514460988954400,5.837954345703125,0.8892813738361001,1.3941782304048538,-0.5298122482471168
1789514460998960400,5.84796044921875,1.1705042073145508,1.2886363734811543,-0.48381285974681376
1789514461008966100,5.857966064453125,1.3687828001245856,0.8876777380317449,-0.3882246799521148
1789514461018973400,5.867973388671875,1.2548071691155434,0.4459726661741733,-0.2315812890835106
1789514461028979200,5.877979248046875,1.0101917725443839,0.9551689735025167,0.18404373123049736
1789514461038985200,5.887985107421875,0.5127119142338633,0.9448200134456157,0.19526786668673157
1789514461048992300,5.8979921875,-0.09914221901446581,-0.15880816768705844,-0.3464753501117229
1789514461058998300,5.907998291015625,-0.28177053048908707,-0.602010784626007,-0.6379920524589717
1789514461069004300,5.91800439453125,-0.11842910328656435,-0.7030541610866785,-0.6115218325540424
1789514461079011300,5.92801123046875,-0.006340016676485538,-0.6310252821862697,-0.4826650048859417
1789514461089017000,5.93801708984375,0.08348433889448642,-0.4505857129275799,-0.20106413187533617
1789514461099023400,5.9480234375,0.16001578991115092,-0.22449147695302962,0.11221446655541657
1789514461109030100,5.958030029296875,0.23846418046504259,-0.09762041627466678,0.2978593493722379
1789514461119036200,5.9680361328125,0.3180591107055545,-0.010823591831326484,0.3705192196525633
1789514461129042200,5.978042236328125,0.306056830483675,0.07089198382496834,0.44968452630415556
1789514461139048400,5.98804833984375,0.21054946084022522,0.14768413160443306,0.4237438832312822
1789514461149055200,5.99805517578125,0.09307692762613295,0.16913666947782038,0.14832330629080534
1789514461159061200,6.008061279296875,0.0281269010707736,0.04113748155236244,-0.09708733231127262
1789514461169067300,6.0180673828125,0.16410247470289469,-0.11520108115077018,-0.13859934626445172
1789514461179074300,6.02807421875,0.6209560158535837,-0.06537468170821667,0.05702361747026443
1789514461189080300,6.038080322265625,1.3013155300512909,-0.03078910601735115,0.39210356721207495
1789514461199086000,6.048086181640625,0.7775596592336893,0.25659634174406526,0.38248759760484097
1789514461209093400,6.05809326171875,0.033538404725492,-0.3483767998188734,-0.2912447535380721
1789514461219099400,6.068099365234375,-1.320788000023365,-0.44378421621918673,-0.8372061725534499
1789514461229105200,6.078105224609375,-1.8279054552510379,-0.7835381491214036,-1.2769672707363962
1789514461239112200,6.0881123046875,1.0243334028825164,-0.17515666041970251,-0.3669152038112283
1789514461249118200,6.0981181640625,1.7085305955469607,0.534111552876234,0.3930615985892713
1789514461259124200,6.108124267578125,1.711266157990694,0.542573091751337,0.4332020319283008
1789514461269131300,6.11813134765625,1.6534417455315589,0.2761825012236833,0.46546603280380366
1789514461279137000,6.128136962890625,1.9826570410236715,0.7282207510471344,0.22526173067316413
1789514461289143300,6.138143310546875,-0.050881753714382645,0.4539180722206831,-0.29187998270168897
1789514461299150300,6.148150390625,-1.1955404488936066,-0.4040811513841152,-0.312977861918509
1789514461309156000,6.158156005859375,-0.5400350977063179,-0.3700175537407398,-0.2969038022130728
1789514461319162000,6.168162109375,-0.5300587703540921,-0.3721516431599855,-0.2939741785019636
1789514461329169200,6.178169189453125,-0.33141923527717587,-0.018223638954758644,0.04801657354161143
1789514461339175200,6.188175048828125,-0.8331649343386291,-0.2846370258361101,0.2761903922691941
1789514461349181200,6.19818115234375,-0.7817328532651067,-0.4697703058689832,0.42907194638624785
1789514461359187200,6.208187255859375,-0.09495295063108206,-0.7244020695418119,0.2288112398482859
1789514461369194200,6.2181943359375,-0.06067191084474325,-0.7397919463753699,0.2035379746429622
1789514461379200300,6.2282001953125,0.8155845617234706,-0.9885615400165318,0.35862843698114155
1789514461389206300,6.238206298828125,0.5767655764713883,-0.5640536866754293,0.34983006736710665
1789514461399213000,6.248213134765625,-0.006411036086082458,0.04876666125655174,0.23553411836251614
1789514461409219000,6.258218994140625,-0.3967442326247692,0.06506020893156528,0.25460122240409255
1789514461419225000,6.26822509765625,-0.30249826121926304,0.18804361452162266,0.02868628851920366
1789514461429232000,6.278232177734375,-0.04292085783779621,0.2780097166508436,-0.12386442620828747
1789514461439238100,6.288238037109375,0.07408201203793287,0.5022650467604398,-0.3095569475591183
1789514461449244000,6.298243896484375,-0.23111644805073736,0.25847967127263544,-0.27428192829936743
1789514461459251200,6.308251220703125,-0.3451061075851321,0.6897206322610377,-0.5887227023772895
1789514461469257200,6.31825732421875,-0.3489572300553322,0.686497578561306,-0.6057758362479507
1789514461479263000,6.328262939453125,-0.15550298866182566,0.2044499749213457,-0.2146209480628371
1789514461489270300,6.338270263671875,0.28815730891674757,0.8609884685486554,-0.584106879144907
1789514461499276300,6.3482763671875,-0.005763385832309722,1.257027183252573,-0.5025273509584367
1789514461509282000,6.358281982421875,-0.2973582679823041,0.7726490908384323,0.18136779001951217
1789514461519289000,6.3682890625,-0.29248773933649064,0.7660457470506429,0.1621960565596819
1789514461529295000,6.378295166015625,-0.36547172700464725,0.08182137411832809,0.9193281370535492
1789514461539301000,6.388301025390625,-0.299527428714931,0.032823242193460465,0.8263166758790612
1789514461549308200,6.39830810546875,-0.35961014149487014,-0.07867839991748332,0.4646320661976933
1789514461559314000,6.40831396484375,-0.4007718807056546,0.46474283309578895,0.035570787335932254
1789514461569320200,6.4183203125,-0.3904983239725232,0.4516635712921619,0.0012125906601548194
1789514461579327200,6.4283271484375,-0.4371063458904624,0.28817981300950046,-0.04859890347421169
1789514461589333000,6.4383330078125,-0.18387568118721245,-0.46203182057142256,0.169105689817667
1789514461599339000,6.448339111328125,-0.014153613036870955,-0.3238549375027418,0.19456044906973838
1789514461609346000,6.458345947265625,0.17473288204967974,-0.13307926766872405,0.20092092401236294
1789514461619352000,6.46835205078125,0.18072160107046364,-0.13690145630538464,0.19445581965148448
1789514461629358000,6.478358154296875,0.24634441232085227,0.14902093316614626,0.1496010711416602
1789514461639365000,6.488365234375,0.18707038557529448,0.21720248898863792,0.16607202121019363
1789514461649371100,6.49837109375,-0.049985973918437954,-0.11181202323436737,0.39451632744222875
1789514461659377200,6.508377197265625,-0.22371347831785676,0.1892658497929573,0.25724720686823127
1789514461669384000,6.518384033203125,-0.22219255236089228,0.18880933819711207,0.2573237792357802
1789514461679390200,6.52839013671875,-0.3933975525453686,0.3121644997090101,0.2609387548625469
1789514461689396200,6.538396240234375,-0.4564619114845991,0.3895762406915426,0.07958294754177331
1789514461699402000,6.548402099609375,-0.2103516001805663,-0.11913257538080214,-0.11491875707805156
1789514461709409000,6.558408935546875,-0.04314005354642868,-0.13108254089355467,0.07329115392118692
1789514461719415300,6.568415283203125,-0.03771072197407484,-0.13550620255470275,0.06448416260927915
1789514461729421000,6.578421142578125,0.09006985476464033,-0.2206844858855009,0.2976730330199003
1789514461739428000,6.588427978515625,0.20031214446425435,-0.019729367342591283,0.2347074582800269
1789514461749434000,6.59843408203125,0.2122074571803212,0.3722323071807623,0.18912381097376346
1789514461759440100,6.608440185546875,0.1271665364935994,0.31050679562985894,0.172921448713541
1789514461769447200,6.618447265625,0.12662117757052183,0.3092167558193207,0.16821721654534338
1789514461779453000,6.628452880859375,-0.031043080778419968,0.30476386806368827,0.019638181927800178
1789514461789459000,6.638458984375,-0.1783922813400626,0.3544061431109905,-0.1379658706665039
1789514461799466200,6.64846630859375,-0.2816112482741475,0.041347324910759924,-0.24783757348805666
1789514461809472000,6.658471923828125,-0.11408610564619302,0.010060790765285491,-0.41168022821098565
1789514461819478000,6.66847802734375,-0.11007014800310135,0.00704056616127491,-0.4172089285045862
1789514461829485000,6.678485107421875,0.10379676682204007,-0.21103578305244444,-0.3808095813900232
1789514461839491000,6.688490966796875,0.32064532780647276,-0.48146015914082524,-0.14907061752676962
1789514461849497000,6.6984970703125,0.33289076913446186,-0.5553647687852382,-0.015791151110827923
1789514461859504000,6.708504150390625,0.2954498040124774,-0.4894529114603996,-0.005693535466492176
1789514461869510100,6.71851025390625,0.2989522591754794,-0.4933119249761104,-0.014271101936697958
1789514461879516200,6.72851611328125,0.20104221230447292,-0.45618134097754953,0.03518003445267677
1789514461889523000,6.73852294921875,0.07946779672950506,-0.23334756810367105,0.030504736118018624
1789514461899529200,6.748529296875,0.10577098950445651,-0.07204875264465808,-0.08278320488780737
1789514461909535200,6.75853515625,0.058931496918201445,0.15285247415304182,-0.13257277945131063
1789514461919542000,6.7685419921875,0.06383242070227861,0.15260872852504254,-0.12833850288242102
1789514461929548000,6.778548095703125,0.04187953209131956,0.49849604961574073,-0.13036357896924017
1789514461939554300,6.78855419921875,0.06543342615813016,0.5359200636029243,-0.06618804391771554
1789514461949561000,6.79856103515625,0.11480272948294877,0.25233985334336756,-0.03445435052663088
1789514461959567000,6.808567138671875,0.14742957232147455,-0.00741173756122589,0.08859452151507138
1789514461969573000,6.818572998046875,0.1522474939972162,-0.01054185228049755,0.08377835340499877
1789514461979580200,6.828580078125,0.14646277311593292,-0.20444705231189728,0.21964199109524488
1789514461989586200,6.838586181640625,0.07201280454844236,-0.08611585644185543,0.2967220159053802
1789514461999592200,6.84859228515625,0.08427753509879111,-0.09952537311315536,0.37465924206674095
1789514462009599200,6.85859912109375,0.10884294429570436,0.02599719556570053,0.3486030097901821
1789514462019605200,6.868605224609375,0.11050152515769004,0.025074820023775098,0.347450624884665
1789514462029611000,6.878611083984375,0.16142010375112295,0.17053659940361976,0.2889104653716087
1789514462039618000,6.8886181640625,0.1692927368223667,0.11019523568749427,0.30662527802139516
1789514462049624300,6.898624267578125,0.1459966169089079,-0.16304595138728617,0.28984774622172116
1789514462059630000,6.908630126953125,0.13045593342781067,-0.058356327378749843,0.16533113971501587
1789514462069637000,6.91863720703125,0.13056377771645783,-0.05644961697459221,0.17137012761831283
1789514462079643100,6.92864306640625,0.07425210790783167,0.23008476691544055,0.14398323125988244
1789514462089649200,6.938649169921875,0.08789806368350982,0.37541152173876763,0.19624182628542183
1789514462099656200,6.94865625,0.16359394065886734,0.19778525633513927,0.2127609994098544
1789514462109662000,6.958661865234375,0.22508564345389603,0.05718319194614887,0.15958412049561738
1789514462119668000,6.96866796875,0.21951631888896225,0.15250819076001643,0.02885843021571636
1789514462129675300,6.97867529296875,0.1274196344718337,0.19791092854142187,-0.10033025975525378
1789514462139681000,6.988680908203125,0.03132394354641437,0.15220131676793097,-0.21179741507470606
1789514462149687000,6.99868701171875,-0.05910188504904508,0.021903204250335692,-0.26306846036762
1789514462159694000,7.008694091796875,-0.1328311381265521,0.09986556485295295,-0.2759633055150509
1789514462169700000,7.0187001953125,-0.19359335760325191,0.31630700634121894,-0.24209669174849985
1789514462179706000,7.0287060546875,-0.20929536912590263,0.21243103680312633,-0.21815467514693737
1789514462189713000,7.038712890625,-0.12988339423686265,0.11085691446661948,-0.14288491462916134
1789514462199719200,7.04871923828125,-0.03548018644303083,0.1835802053719759,-0.07455196763724088
1789514462209725200,7.05872509765625,0.01697860732972622,0.24120704943239688,-0.10332418087422847
1789514462219732000,7.06873193359375,0.052254211111366744,0.245984931358695,-0.18857143778800964
1789514462229738000,7.078738037109375,0.009431552951037883,0.2777618793696165,-0.18683745360225437
1789514462239744300,7.088744140625,0.037082068681716915,0.23413667265474794,-0.23848025481700896
1789514462249751000,7.0987509765625,0.040888475227355954,-0.32529461491703987,-0.2133887759193778
1789514462259757000,7.108757080078125,-0.04392302061766386,-0.7978460759371518,0.02981003185212612
1789514462269763000,7.11876318359375,-0.016074351966381073,-0.794270555537939,0.23807459662556646
1789514462279770000,7.12877001953125,-0.03374064929932356,-0.5697025062173605,0.31652035683095453
1789514462289776000,7.138776123046875,-0.17878186517953873,-0.5421791239976883,0.49048663842231033
1789514462299782100,7.1487822265625,-0.2942290300458669,-0.28469489350318905,0.4539452524885535
1789514462309789200,7.1587890625,-0.32279344575107094,0.18455168075263498,0.28994243876785036
1789514462319795200,7.168795166015625,-0.2821525155439973,0.537377276673913,0.17540186735242605
1789514462329801000,7.178801025390625,-0.2205763493359089,0.22113573678433893,0.2712608269125223
1789514462339808300,7.188808349609375,-0.1492459740936756,0.02797054146528244,0.4235872313648462
1789514462349814300,7.198814208984375,-0.025352175660431384,0.14279928217232227,0.47320641779750583
1789514462359820000,7.208820068359375,0.06443681633621454,0.14072247589826584,0.43605040709674353
1789514462369827000,7.2188271484375,0.08039952462166547,0.17828268348574638,0.19037994851469991
1789514462379833300,7.228833251953125,-0.0015296937853097915,0.12076339145302772,-0.08073562470823525
1789514462389838800,7.2388388671875,-0.07161006896644831,-0.3445499350070953,-0.07609189055562018
1789514462399846000,7.248845947265625,-0.07753419831842183,-0.5810539213150739,-0.0450628383025527
1789514462409852000,7.258851806640625,-0.0481365466594696,-0.6592915917277336,-0.009669161099195479
1789514462419857700,7.268857666015625,-0.01596066245883703,-0.8651198692649602,0.3107400198638439
1789514462429865000,7.278864990234375,0.029994156247377394,-1.0197902064949274,0.64972150708884
1789514462439870700,7.28887060546875,0.08771627737581729,-0.7999146989047526,0.487102256681025
1789514462449876700,7.298876708984375,0.06531096882224083,-0.3678483930081129,0.1039022730231285
1789514462459884000,7.308884033203125,0.0242883458212018,0.3328922304391861,-0.46867315828204154
1789514462469889800,7.318889892578125,-0.0756429777443409,1.0516343745231629,-0.6582543576344847
1789514462479895800,7.328895751953125,-0.10241261898726224,1.4081629166156053,-0.3383522494107485
1789514462489902800,7.33890283203125,0.018749416394531725,1.2514981906980276,-0.21543869418650866
1789514462499908900,7.348908935546875,0.12951251509785652,1.025824225962162,-0.5752203928560018
1789514462509915000,7.358914794921875,0.09566168342232703,0.9308739056795835,-0.7169029459580779
1789514462519921700,7.368921630859375,0.03434592171609401,0.8514367963492869,-0.5469076138243079
1789514462529928000,7.378927978515625,0.0737514649093151,0.5109568872600794,-0.4312015057608485
1789514462539934000,7.388933837890625,0.11497194857001304,-0.09370938031077385,-0.28976036019921303
1789514462549940700,7.398940673828125,0.19353285958766936,-0.5997644670039415,-0.11895078907310962
1789514462559946800,7.40894677734375,0.2784410938054323,-0.7527250777065754,0.08577040400505065
1789514462569953000,7.418953125,0.31290742703080177,-0.7037234386503696,0.2954331451386213
1789514462579959800,7.428959716796875,0.29044454307109113,-0.42268706765472885,0.3062006228685379
1789514462589965800,7.4389658203125,0.17901070549935102,-0.002480126377940178,0.199117381721735
1789514462599971800,7.448971923828125,0.11312573618143797,0.323850845849514,0.020283201833069323
1789514462609979000,7.458978759765625,0.09553747252076863,0.4962853878289461,-0.1578451678737998
1789514462619985000,7.46898486328125,0.043293782803416246,0.5763426748842001,-0.4404731919750571
1789514462629991000,7.478990966796875,0.05479278967827558,0.3643611354142427,-0.6022884325236082
1789514462639998000,7.488998046875,0.06694207715541124,-0.25811785222291944,-0.5403989625826477
1789514462650004000,7.49900390625,0.038461248080432414,-0.9504214867144822,-0.21357319257557392
1789514462660010000,7.509010009765625,0.05084755918383598,-1.0228227060586212,0.153424721083045
1789514462670016800,7.519016845703125,0.10284078127145767,-0.6855044758707285,0.4719228077277541
1789514462680023000,7.52902294921875,0.06023761108070612,-0.343172216913104,0.7224459670379757
1789514462690028800,7.53902880859375,-0.07959522250145673,-0.24060674545168875,0.9113727941349148
1789514462700035800,7.549035888671875,-0.17805968838483094,-0.23338380846083162,1.078545762324333
1789514462710041900,7.559041748046875,-0.1266542030572891,-0.020376433074474332,1.0152043400093913
1789514462720047900,7.5690478515625,-0.006201777249574661,0.40054420942962166,0.6147197518125176
1789514462730055000,7.579054931640625,0.07365735688507556,0.8155033131808042,0.13157967676073312
1789514462740061000,7.58906103515625,0.07219897477030754,0.9830348855495452,-0.3146399499118328
1789514462750066700,7.599066650390625,-0.05239917254000902,0.4332213211506605,-0.46744507779181
1789514462760074000,7.609073974609375,-0.07623919007182121,-0.5793336733937263,-0.3406096729487181
1789514462770079700,7.619079833984375,0.17654869929999112,-1.695530828720331,0.46827013043910265
1789514462780085800,7.629085693359375,0.3326411782875657,-1.6293091747939585,0.624116817972064
1789514462790093000,7.639093017578125,0.3007864888653159,-1.2778420077443122,0.45097646581083534
1789514462800098800,7.649098876953125,0.13322890527248382,-0.6424187828600406,-0.01275572893768549
1789514462810104800,7.659104736328125,0.037709552930295466,0.1065904891937971,-0.6757131496965885
1789514462820112000,7.66911181640625,0.0007718611553311348,0.5084299991309642,-1.3215963937968014
1789514462830118000,7.679117919921875,-0.04843436056226492,0.6063257252156734,-1.8624083210945128
1789514462840124000,7.6891240234375,-0.17556377991586922,0.36676468942463397,-2.188830478736758
1789514462850130700,7.699130615234375,-0.23029694836139677,-0.25261457863152026,-2.235500459975004
1789514462860136700,7.70913671875,-0.14466332247853278,-0.8837491664111614,-2.146548795585334
1789514462870143000,7.71914306640625,-0.11922142270803451,-0.8897370086491108,-2.137908685272932
1789514462880149800,7.729149658203125,0.036083997555077074,-1.0400339531004428,-1.9033026415407657
1789514462890155800,7.73915576171875,0.18652005821615456,0.7440700620859861,-1.405395497728884
1789514462900162800,7.749162841796875,0.29648382323533296,1.5423831710129976,-1.3229407941430806
1789514462910168800,7.7591689453125,0.3683750472307205,1.497868321982026,-1.3184990123033522
1789514462920174800,7.7691748046875,0.3953603770509362,0.8326274664610623,-1.2513719339698552
1789514462930181600,7.779181640625,0.4761363337695598,-0.13335866913199423,-1.0270797789812087
1789514462940188000,7.78918798828125,0.42411183976083994,-0.861729642304778,-0.6605225948274135
1789514462950194000,7.79919384765625,0.20279607023447752,-1.1984516601651907,-0.2611681797042489
1789514462960200700,7.80920068359375,0.2079483384311199,-1.1966852350145578,-0.24969489179253576
1789514462970207000,7.81920703125,-0.26288667405992744,-1.3052455629765987,0.39327743329703807
1789514462980213000,7.829212890625,-0.48722880567014215,-1.020221583649516,0.45415626489073035
1789514462990219800,7.8392197265625,-0.6016363983556627,-0.6584539718598127,0.34276538967788217
1789514463000225800,7.849225830078125,-0.6379714480623603,-0.44001229646503925,0.24371698642671108
1789514463010232000,7.859232177734375,-0.5765829133808612,-0.3884954597175121,0.24889058967232702
1789514463020238800,7.86923876953125,-0.45283729124665256,-0.23578093273043632,0.20799714600890873
1789514463030244900,7.879244873046875,-0.35797844863981004,-0.08268471294939518,-0.012286065599322318
1789514463040251000,7.8892509765625,-0.3698617786571383,0.057715106865763664,-0.19222031568437814
1789514463050258000,7.8992578125,-0.39203035584539175,0.23820962118208408,-0.25959493903815745
1789514463060264000,7.909263916015625,-0.4499135127544403,0.23431553635299204,-0.04460077374875545
1789514463070269700,7.919269775390625,-0.5123933498039841,-0.4692267005115747,0.6353139192909002
1789514463080277000,7.929277099609375,-0.6308826588451862,-1.1972492986381054,1.1487518097117542
1789514463090283000,7.939282958984375,-0.9406932889044284,-1.0394470931231974,1.2228820448055864
1789514463100288800,7.949288818359375,-1.1906754732057452,-0.378769599995017,0.8969748509481549
1789514463110295800,7.9592958984375,-1.2936454338148236,0.174848032861948,0.760182115714252
1789514463120302000,7.969302001953125,-1.3035372977539896,0.16809563599228858,0.730418553352356
1789514463130307800,7.979307861328125,-1.0813184419080615,1.749116288435459,0.6023582828894257
1789514463140315000,7.98931494140625,-0.9554068739116192,2.2281682173907758,0.6836304986923932
1789514463150321000,7.99932080078125,-0.8727063788712024,2.3733757297486067,0.9313812706798315
1789514463160327000,8.009326904296875,-0.7909273825898766,2.317356320884824,1.2927069839209318
1789514463170334000,8.019333984375,-0.7724915621891617,2.250864617845416,1.6040929004728792
1789514463180339700,8.029339599609376,-0.8267524369478225,2.0069985783368347,1.8109446758389471
1789514463190345700,8.039345703125,-0.8001368172228336,1.4567396082580089,1.7825079781666398
1789514463200353000,8.04935302734375,-0.6818889157220721,0.9216472276508808,1.5778639419779181
1789514463210358800,8.05935888671875,-0.5748559434577822,0.5540285517454147,1.3326827282175422
1789514463220364800,8.06936474609375,-0.48685032774657006,0.39404023436307906,1.0535010451778768
1789514463230371800,8.079371826171876,-0.5943953411862254,0.46589609478414057,1.0493360344529152
1789514463240377900,8.0893779296875,-0.7740697712913155,0.6887497414022684,1.1155822382986544
1789514463250384000,8.0993837890625,-0.9851917713224887,1.0347399383455513,1.0482552534788847
1789514463260390700,8.109390625,-1.2050792616114019,1.6986580208301543,0.6876403188556433
1789514463270397000,8.11939697265625,-1.1733742097929118,2.0433821433603763,0.13966215319037437
1789514463280403000,8.12940283203125,-1.031961705803871,1.6316092684298753,-0.015682137778401373
1789514463290409700,8.13940966796875,-1.011581181076169,1.4157470881342886,-0.2929872132912278
1789514463300415700,8.149415771484374,-1.0906561790958047,1.2157476628810167,-0.7914630969017744
1789514463310422000,8.159422119140626,-1.140205222901702,1.100541905555129,-1.270960431537032
1789514463320428800,8.1694287109375,-1.1650669846966861,1.2252619256794453,-1.5982275155708192
1789514463330434800,8.179434814453124,-1.1288961856409907,1.490857566437125,-1.6440429258063434
1789514463340440800,8.18944091796875,-1.0438555572152137,1.8013783905923366,-1.4931222964987159
1789514463350447900,8.19944775390625,-0.925742388010025,1.9725883592128752,-1.1647642023578286
1789514463360454000,8.209453857421876,-0.886467193198204,1.9141642272949217,-0.6490554443955421
1789514463370460000,8.2194599609375,-0.8600468037843704,1.6753566402196882,-0.17120383114069698
1789514463380466200,8.229466064453124,-0.62011459659338,1.3793424803227186,0.10852759473621845
1789514463390472200,8.23947216796875,-0.3889233297407627,1.0769541092187165,0.33654636903256174
1789514463400479200,8.249479248046875,-0.353442851036787,0.7871621848374605,0.6245274445995688
1789514463410485200,8.2594853515625,-0.4727180497586727,0.4219593379020691,0.8817217522367835
1789514463420491300,8.2694912109375,-0.7029974624633789,-0.09078618634045124,1.1802730293959378
1789514463430498000,8.279498046875,-1.0525246013611556,-0.31382687996327874,1.105146476741135
1789514463440504300,8.28950439453125,-1.2610691521197557,0.13283376847505568,0.6292389832913875
1789514463450510300,8.29951025390625,-1.1771797395557164,0.48528643943071365,0.2522016139164567
1789514463460517000,8.30951708984375,-1.121801258943975,0.7237298693686723,0.14000409849584103
1789514463470523100,8.319523193359375,-1.1202338634967803,0.7305822194814682,0.16415975784808395
1789514463480529400,8.329529296875,-1.1970026304006576,0.4890957685858011,0.15716595343798398
1789514463490536200,8.3395361328125,-1.4729267729490993,0.17604571821391582,-0.16307400843799114
1789514463500542200,8.349542236328125,-1.6851318920418619,0.05038812497854232,-0.592540360969305
1789514463510548500,8.359548583984376,-1.694613713875413,0.18618775752186775,-1.056201244047284
1789514463520555300,8.36955517578125,-1.7224834253147243,0.3809264857679605,-1.5413813004940746
1789514463530561300,8.379561279296874,-1.935008862403035,0.6359551398038864,-1.8524436841800809
1789514463540567000,8.389567138671875,-2.0210165822952986,0.99660339217484,-1.9870371558040378
1789514463550574300,8.39957421875,-1.927823042552173,1.3041378939956425,-1.9900798845008014
1789514463560580400,8.409580322265626,-1.7138614351809023,1.6226783584773539,-1.8843486424848437
1789514463570586000,8.419586181640625,-1.3794450639143585,1.8078174837291239,-1.6916355748474596
1789514463580593400,8.429593505859375,-1.0740744621291756,1.8210317700892686,-1.5453618945628405
1789514463590599400,8.439599365234375,-1.2005609074041246,1.554635334342718,-1.619929059769213
1789514463600605200,8.449605224609375,-1.6743118073418735,1.0316384651988744,-1.7983643034681678
1789514463610612200,8.4596123046875,-1.725322740393877,1.0448749633908272,-1.8200787071481346
1789514463620618200,8.4696181640625,-2.42301625123024,0.35810207501947877,-2.1354402493327855
1789514463630624300,8.479624267578124,-3.332823403483629,-0.5732710123538971,-2.482562080654502
1789514463640631300,8.48963134765625,-3.6944708960250017,-1.6660259172946215,-2.6393705989569423
1789514463650637000,8.499636962890625,-3.051414399783313,-2.8371570243358613,-2.3923063479289413
1789514463660643300,8.509643310546876,-2.052976193396747,-3.959614993622899,-1.856223787240684
1789514463670650400,8.519650390625,-1.2094684364810586,-4.948616678622365,-1.3283084586560725
1789514463680656100,8.52965625,-0.4133621899485588,-5.8287967543751,-0.9759759069487451
1789514463690662100,8.539662109375,0.5516717594861984,-6.573843552538752,-0.9764259888038038
1789514463700669200,8.549669189453125,1.3718530013501644,-6.806665050941706,-1.1476803810879588
1789514463710675200,8.55967529296875,1.5259695040896535,-5.957493861436843,-1.2464528900071978
1789514463720681200,8.56968115234375,0.8213175524175167,-3.6600118693232533,-1.1009212602615355
1789514463730688300,8.579688232421875,0.34020810641050336,-1.382899880543351,-1.3821119450360535
1789514463740694300,8.5896943359375,0.6707543582454324,0.24803660319149493,-2.072368583869934
1789514463750701300,8.599701416015625,1.0510302711501718,1.1235831739246844,-2.4199597862690685
1789514463760707000,8.60970703125,1.1838938502416014,1.1891963405638932,-2.2585399747788903
1789514463770713300,8.61971337890625,1.253326867429912,0.7468482946276664,-1.8709701054736971
1789514463780720000,8.62972021484375,1.5164143247589468,0.07682020483016967,-1.3275678694218396
1789514463790726100,8.63972607421875,1.9882520845517515,-0.5110761297255754,-0.792038997093588
1789514463800732200,8.649732177734375,2.658467221353948,-0.9267746536672115,-0.26819690929725765
1789514463810739200,8.6597392578125,3.2881054330959913,-1.1040373464554547,0.38289734744951126
1789514463820745200,8.6697451171875,3.763524558506906,-1.043138933378458,1.1758860464833676
1789514463830751200,8.679751220703125,4.176038314932584,-0.8200555696576833,1.9404851018570362
1789514463840758300,8.68975830078125,4.525569545483589,-0.6351981839567422,2.601465523454547
1789514463850764300,8.699764404296875,4.753774197740853,-0.6815268044114112,2.7624662327498197
1789514463860770300,8.709770263671874,4.766473520316183,-0.7606044327795505,2.442277124278247
1789514463870777000,8.719777099609376,4.509837723344564,-0.6390864235669375,2.077027807852626
1789514463880783400,8.729783447265625,4.030839862664044,-0.4285954149156809,1.7615809254720807
1789514463890789400,8.739789306640626,3.5140991313055157,-0.29241584314405916,1.5498277879305182
1789514463900796200,8.749796142578125,3.0651778444588182,-0.22573709309995174,1.636307947640121
1789514463910802200,8.75980224609375,2.557828041779995,-0.2336731467962265,1.8710900785915552
1789514463920808200,8.76980810546875,1.8963551604904234,-0.28292262313365935,2.153496422766149
1789514463930815200,8.779815185546875,1.325797352617979,-0.21408932540416717,2.3743419444322584
1789514463940821200,8.7898212890625,0.729937199576199,0.09069558544754981,2.3674808264911174
1789514463950827000,8.799826904296875,-0.44429844935163854,0.27339024015665053,1.704941631144285
1789514463960834300,8.809834228515625,-2.7637738082170484,0.26252690083682534,0.6055439271882176
1789514463970840300,8.81984033203125,-4.067330102932453,0.2017968300640583,-0.06963730758875608
1789514463980847000,8.82984716796875,-3.555326336967945,0.05378244359195232,-0.33180063581019636
1789514463990853400,8.839853271484374,-1.8271522987961768,-0.006882160729169845,-0.2666644390329718
1789514464000859100,8.849859130859375,0.2584383163489401,0.13530688059031962,0.083574647526443
1789514464010866200,8.8598662109375,1.9962486362636087,0.4877016838788986,0.5757438322082161
1789514464020872200,8.8698720703125,3.005798603773117,0.9111889620006084,0.950673707909882
1789514464030878200,8.879878173828125,2.9884266132116317,1.3039128530681132,1.052435754033923
1789514464040885200,8.88988525390625,2.016510649178177,1.5171604669511318,0.9938748439937829
1789514464050891300,8.899891357421875,0.7251940967023373,1.7357529489934442,1.0451134483218192
1789514464060897300,8.909897216796875,-0.32049466728940607,1.8223539586037396,1.2645721918046473
1789514464070904300,8.919904296875,-0.9986768374480306,1.6890169167816638,1.3510153805047274
1789514464080910000,8.92991015625,-1.441663765809685,1.485005333277583,1.164907117959857
1789514464090916000,8.939916015625,-1.6715233456671237,1.199223229059577,0.7456567467555403
1789514464100923400,8.94992333984375,-1.3547171576321124,0.8307143263161182,0.3005915508151054
1789514464110929200,8.95992919921875,-0.44091297163181004,0.48896074402928347,-0.07242664604634046
1789514464120935200,8.96993505859375,0.6173404557049275,0.18174656020402907,-0.28835020114034415
1789514464130942500,8.9799423828125,1.4353938917599618,-0.01142331129014492,-0.2858043160498142
1789514464140948200,8.9899482421875,1.772036706904322,-0.10755144318044185,-0.23451544283926484
1789514464150954200,8.999954345703125,1.6632685814104973,0.01744388675391674,-0.21027765816152094
1789514464160961000,9.0099609375,1.2658137162983416,0.30863281845152374,-0.18588672874867915
1789514464170967300,9.01996728515625,0.26488077048659325,0.600796732661128,-0.1702411235883832
1789514464180974300,9.029974365234375,-1.2392378440618514,0.839983674442768,-0.14082593627274034
1789514464190980000,9.03997998046875,-2.3047452611148356,0.7644330511569977,-0.0718497229412198
1789514464200986000,9.049986083984376,-2.4309072967410086,0.48600890848636624,0.05644289497286081
1789514464210993400,9.059993408203125,-1.6954828979253769,0.25670623185932634,0.29235096121430393
1789514464220999200,9.069999267578124,-0.8009656692624092,0.05935059911310672,0.6577569295063614
1789514464231005200,9.080005126953125,-0.25057163809444755,-0.051720250365138054,1.0190081162065268
1789514464241012200,9.09001220703125,-0.18185761936306952,-0.09553425765037536,1.3485846462264657
1789514464251018200,9.100018310546876,-0.5608884641101584,-0.05021802910864353,1.5473273494169115
1789514464261024300,9.110024169921875,-1.0368529849767685,0.10300853905379771,1.522406258650124
1789514464271031000,9.120031005859374,-1.4383715923964977,0.3378057214438915,1.360174838516116
1789514464281037300,9.130037353515625,-1.731736114567518,0.5948042142480612,1.22280079626292
1789514464291043300,9.140043212890625,-1.7475158675014972,0.7696218519717455,1.1041548353552817
1789514464301050000,9.150050048828126,-1.4221779979646205,0.8403963468968868,1.0235510203331708
1789514464311056100,9.16005615234375,-0.684884298145771,0.8431243105560541,1.0947279585793614
1789514464321062400,9.1700625,-0.6428735408902168,0.8096300372332335,1.2045882632240652
1789514464331069200,9.180069091796875,-0.7311246557950973,0.7314321143090724,1.2909692003428934
1789514464341075200,9.1900751953125,-0.8390940321266651,0.6292103417187929,1.2190695007801056
1789514464351081200,9.200081298828126,-0.9088169721722602,0.5175643227010965,0.9784937349885702
1789514464361088300,9.210088134765625,-0.9145768508732318,0.43714872372746466,0.624698709513247
1789514464371094300,9.22009423828125,-0.911930135756731,0.33597850601673124,0.19204291329085826
1789514464381101300,9.230101318359376,-0.9060837478160858,0.18847440715432165,-0.2308405537188053
1789514464391107300,9.240107421875,-1.0697685816287994,0.025841712743043897,-0.5649754776954651
1789514464401113300,9.25011328125,-1.4980916093438863,-0.13793839813768863,-0.8295780157625675
1789514464411120400,9.260120361328125,-2.204975557851791,-0.33783845466971396,-0.9436673362791538
1789514464421126400,9.27012646484375,-2.9541502496004104,-0.45522447864413257,-0.8952931814715266
1789514464431132400,9.28013232421875,-3.392202059647441,-0.48561552525460716,-0.626052754470706
1789514464441139500,9.290139404296875,-3.180913178616762,-0.4483849880129099,-0.12713584909439085
1789514464451145500,9.3001455078125,-2.488252401250601,-0.422075073236227,0.4379784525498748
1789514464461151500,9.3101513671875,-1.810930062791705,-0.4160375466376543,0.9997545496821403
1789514464471158300,9.320158203125,-1.3003116137057542,-0.3293319076091051,1.426298877286911
1789514464481164500,9.33016455078125,-0.9644833298146724,-0.15870178470313548,1.6171376754850149
1789514464491170300,9.34017041015625,-0.6157721834748983,-0.0854810656696558,1.7329364302679895
1789514464501177300,9.35017724609375,-0.11439210285544395,-0.24147417593598364,1.8185732710212468
1789514464511183400,9.360183349609375,-0.0891711523592472,-0.2415717910915613,1.8159557819992302
1789514464521189400,9.370189453125,0.9925976636648177,-0.7645090390026569,1.8420538075909016
1789514464531196400,9.380196533203126,1.2576795096814632,-0.924628873810172,1.7290552049204706
1789514464541202400,9.390202392578125,1.2396464248627423,-0.9950894804805517,1.3566788130939007
1789514464551208200,9.400208251953124,1.0335855076134204,-1.050341412103176,0.5677049026593566
1789514464561215500,9.410215576171876,0.7396691967785358,-1.1926187162280082,-0.4200435674086213
1789514464571221200,9.42022119140625,0.49394554670453067,-1.3375883281767367,-1.3462865984171628
1789514464581228300,9.430228271484374,0.4512369068453088,-1.603847401279211,-2.118102161040902
1789514464591234600,9.440234619140625,0.7738099513113498,-2.0467104110002516,-2.928067129316926
1789514464601240300,9.450240234375,1.2289525968909263,-2.504924719110131,-3.6403076364219187
1789514464611247400,9.460247314453126,1.4997884763896465,-2.932728106865287,-4.23472080552578
1789514464621253400,9.47025341796875,1.4413760349094866,-3.360418681895733,-4.6629389115616675
1789514464631259400,9.48025927734375,0.2860007154047489,-4.093087060001492,-4.932639941811561
1789514464641266400,9.490266357421875,0.3862777836680412,-4.143287553453445,-5.03411703351438
1789514464651272200,9.500272216796875,0.472088081292063,-4.190623305124044,-5.127138431560993
1789514464661279500,9.510279541015626,-0.12642507047653198,-4.1476545164912935,-4.49834748429805
1789514464671285500,9.520285400390625,-0.5058417362034321,-3.337228360444307,-3.0403035154432057
1789514464681292300,9.530292236328124,-0.48454541180506344,-2.4606238050907847,-1.7515169198364018
1789514464691298300,9.54029833984375,-0.04865560209751129,-1.808622954893112,-1.1416153819605708
1789514464701304300,9.55030419921875,0.5235727693356573,-1.337608201920986,-0.8726137321516871
1789514464711311400,9.560311279296876,1.021266124266386,-1.047622216272354,-0.6979942473486066
1789514464721317400,9.5703173828125,1.368950704037398,-0.7066898872405291,-0.39843934610486026
1789514464731323100,9.5803232421875,1.3477847280204296,-0.26874796730875966,0.258168997888267
1789514464741330400,9.590330322265626,0.868033418624103,0.27639468266963957,1.0168930237486957
1789514464751336400,9.60033642578125,0.48031245041042564,0.853961930912733,1.3125225682422519
1789514464761342200,9.61034228515625,0.360490723721683,1.2846774067223072,1.1127569517448543
1789514464771349500,9.620349609375,0.44848026508092875,1.6269699181914328,0.6248568226844072
1789514464781355300,9.630355224609374,0.7975985309168696,1.8729624483346938,0.0821259100228548
1789514464791361300,9.640361328125,1.2418074022889136,1.8926941537648438,-0.5098147314876318
1789514464801368600,9.65036865234375,1.684728864198923,1.7559931884676216,-1.0862237496063112
1789514464811374300,9.660374267578124,2.0357927111446856,1.6917688458383082,-1.4678464009448886
1789514464821380400,9.67038037109375,2.2327277803912757,1.7226999906748532,-1.6527651614442467
1789514464831386400,9.680386474609374,2.1559677813157436,1.7992361178666352,-1.6332582046806812
1789514464841393400,9.690393310546876,1.9552248442187905,1.875979750329256,-1.46551240503937
1789514464851399400,9.7003994140625,1.712942566770315,1.8112059571236372,-1.1951786298438907
1789514464861405400,9.710405517578126,1.4487822195127606,1.7082395036458968,-0.9498565463081001
1789514464871412200,9.720412109375,1.2016530865550041,1.6901199095875024,-0.647304216814041
1789514464881418500,9.73041845703125,0.9552931844040751,1.8065917413264512,-0.31595161703228947
1789514464891424500,9.740424560546876,0.7458180747970938,1.981434513491392,-0.0433069345459342
1789514464901431300,9.750431396484375,0.5716439956739544,2.1267074923008678,0.0432023051276803
1789514464911437300,9.760437255859374,0.41617987771779297,2.3193892880171534,0.05670388399660587
1789514464921443600,9.770443603515625,0.42219139309227466,2.5180501581430432,0.07635024923086166
1789514464931450400,9.780450439453125,0.3503317332789302,2.5520155561089513,0.0974348305746913
1789514464941456400,9.790456298828126,0.2734215120777488,2.676035319009423,0.08584142341464758
1789514464951463400,9.80046337890625,0.1335609137058258,2.762321271321177,0.06425912168174981
1789514464961469400,9.810469482421874,-0.020561434252560136,2.750366045111418,0.21449293776899575
1789514464971475500,9.820475341796875,-0.28005349743813274,2.6489135033279654,0.4450821470752358
1789514464981482200,9.830482177734375,-0.8857128676995635,2.181578900173306,1.3312445121079683
1789514464991488500,9.840488525390626,-1.4058160612285135,1.8570172757059336,1.593714714321494
1789514465001494500,9.85049462890625,-1.513549582977593,1.8879636181116104,1.599692327426374
1789514465011501300,9.860501220703124,-2.2616272732697427,1.4818687888175248,1.691276970668137
1789514465021507300,9.87050732421875,-3.067743018771708,1.0474696560591459,1.7439193043142556
1789514465031513300,9.880513427734375,-3.084979107993841,-0.1264332537829876,2.9284517447203395
1789514465041520400,9.890520263671876,-2.7018928138434886,-0.6550649139434099,3.9186303645446894
1789514465051526400,9.9005263671875,-2.7250316973686215,-0.6778185975432396,3.844766963693499
1789514465061532200,9.9105322265625,-2.280971879078448,-1.0410440069258213,4.450249223822355
1789514465071539500,9.92053955078125,-1.8734790195547044,-1.3184966742157935,4.86427075446248
1789514465081545500,9.93054541015625,-2.92332256513834,-1.5931155793845653,4.552435632838309
1789514465091552300,9.94055224609375,-5.226078113740682,-1.6270634416937828,3.560114155766368
1789514465101558500,9.95055859375,-7.781713029390573,-1.5887287426024674,2.370700665320456
1789514465111564300,9.960564208984374,-7.845145344859361,-1.6238894878327845,2.271405009309947
1789514465121571300,9.9705712890625,-8.943333380764722,-1.5710644910961389,1.4992226592004299
1789514465131577300,9.980577392578125,-7.731789014792442,-1.7481757927149533,1.788934211821854
1789514465141583400,9.990583251953124,-5.771838018834591,-2.6855466591984034,1.6515239292114972
1789514465151590400,10.00059033203125,-5.6457461258351795,-2.7144962748289108,1.646766505551338
1789514465161596400,10.010596435546875,-2.179909944047779,-3.9503468145400285,1.16635614772439
1789514465171602200,10.020602294921876,1.8765861917898057,-5.112102190470695,0.3250464853748679
1789514465181609500,10.030609375,6.8541054320305586,-6.557858632421493,-1.583895331096649
1789514465191615200,10.040615234375,7.049464922523498,-6.344548474696278,-2.4598010905310512
1789514465201622300,10.050622314453125,6.95906393610835,-6.290507087907195,-2.392850830069184
1789514465211628500,10.060628662109375,6.150444537222385,-4.974342656031251,-3.3996193501666188
1789514465221634300,10.07063427734375,5.086807590216398,-2.9392729984641073,-4.197829583241045
1789514465231641300,10.080641357421875,2.432414048042148,1.1294085190773009,-5.602839881044626
1789514465241647400,10.0906474609375,-0.47876332127228377,2.899839982742071,-6.2958309132784605
1789514465251653400,10.1006533203125,-0.5824373384974897,2.9741467434465885,-6.15325141133666
1789514465261660400,10.110660400390625,-5.677201586806774,4.726883560466766,-7.0864254106521605
1789514465271666200,10.120666259765626,-5.291024340903759,5.930765428987145,-6.66234192020297
1789514465281672400,10.13067236328125,0.7524974064305424,6.067567516571283,-2.8172452861636876
1789514465291679500,10.140679443359375,3.0648470050692556,4.691448674470186,-1.1779992392450571
1789514465301685200,10.150685302734376,3.128871441212296,4.712348839157819,-1.073896475213766
1789514465311692500,10.160692626953125,4.537513665777444,2.2850550567388535,-0.8286571015253663
1789514465321698300,10.1706982421875,5.130898076355457,-0.37839375241994855,-1.169838144621253
1789514465331704300,10.180704345703125,5.7199511797308915,-4.955294841212034,-1.2688695967376231
1789514465341711400,10.19071142578125,5.7847582906842225,-6.436981843721866,-1.493992941853404
1789514465351717400,10.20071728515625,5.664877527284622,-6.431452851167321,-1.5391066335603594
1789514465361723400,10.210723388671875,5.104331556469202,-6.548346123188733,-1.9244135263696311
1789514465371730400,10.22073046875,2.0770997040450574,-4.278299250489473,-2.0347525544419884
1789514465381736200,10.230736083984375,-3.0975486667096614,-1.0578601171702147,-1.086513380202651
1789514465391743000,10.240742919921875,-5.1026761904776095,0.45435471007227896,0.4431792360633611
1789514465401750000,10.25075,-4.680466677206755,0.8067132730036973,0.5687064809173346
1789514465411756000,10.260756103515625,-3.217216664141416,1.0879565647482872,-0.31446897725909945
1789514465421762800,10.2707626953125,-1.1927075635552407,1.1884054824471473,-1.0418813345327973
1789514465431768800,10.280768798828126,0.4215887510240078,1.1071323898613452,-1.1517889854505658
1789514465441775000,10.290775146484375,1.573416022658348,1.03254213604033,-0.8604322959706187
1789514465451782000,10.300781982421874,2.2692437396228313,0.9306506183177232,-0.3526455631792545
1789514465461788000,10.310787841796875,2.458294485360384,0.789703101491928,0.1615142117753625
1789514465471794000,10.3207939453125,2.1180559838116166,0.5633505068421364,0.5774456676900387
1789514465481801000,10.330801025390626,1.2863491393268107,0.28789398180544373,0.634439474543929
1789514465491807000,10.340806884765625,0.04055179061889648,0.2676706934660673,0.3702911099851131
1789514465501814000,10.35081396484375,-1.4342448678553104,0.4166466184467077,0.11338555616140365
1789514465511820000,10.360820068359375,-2.59914672511816,0.5368295796632766,-0.01913227823227644
1789514465521826000,10.370825927734375,-3.1177088266849515,0.5587444743514061,0.1256988020285964
1789514465531832800,10.380832763671876,-2.969703208041191,0.5100929639071226,0.5827446508809924
1789514465541838800,10.3908388671875,-2.4433728105604646,0.5820867714941501,1.1258213082402944
1789514465551845000,10.40084521484375,-1.7169453726708888,0.7249059274107217,1.5428846907943485
1789514465561852000,10.410851806640625,-0.9949252298295498,0.8149953636586665,1.8052435415878891
1789514465571858000,10.42085791015625,-0.46340836962163445,0.823696556508541,1.8699559599950908
1789514465581864000,10.430864013671876,-0.47038989907205103,0.8656202200025319,1.8571780192255973
1789514465591871000,10.44087109375,-1.158519462749362,0.9443488888025283,1.755477932421863
1789514465601877000,10.450876953125,-2.1835534151166676,1.0606845269411802,1.6130305324271321
1789514465611883800,10.4608837890625,-2.9410610509246586,1.0790922902911901,1.3520055605858563
1789514465621890000,10.47089013671875,-3.035839521771669,0.9293313524127006,0.9925500251308083
1789514465631896000,10.48089599609375,-2.5155671091556546,0.6339449690252542,0.7075672545969486
1789514465641902800,10.49090283203125,-1.792918020761013,0.44184944876432414,0.6199179049775004
1789514465651908900,10.500908935546875,-1.2175830616146326,0.40742578563690185,0.7918912591859698
1789514465661915100,10.5109150390625,-0.81179978248775,0.40180853027701374,1.140135957057774
1789514465671922000,10.520921875,-0.5512585025101899,0.4530979880094528,1.5217057091653345
1789514465681928000,10.530927978515624,-0.5241998151928187,0.5876993506789208,1.8422466998144984
1789514465691934000,10.540933837890625,-0.7012468194037675,0.7856903587192297,2.1048077951818702
1789514465701941000,10.55094091796875,-0.9978870022445917,1.006722635129094,2.3090905968427657
1789514465711947000,10.560947021484376,-1.3907897570103407,1.1802157462507485,2.371987197999656
1789514465721953800,10.570953857421875,-1.9145786533147096,1.2231740134894846,2.2588588314697144
1789514465731960000,10.5809599609375,-2.4586831924170256,1.0436129806309937,1.9414391877114772
1789514465741966000,10.590966064453125,-2.7032395522773265,0.5436608869880437,1.3931149850875137
1789514465751972900,10.600972900390625,-2.579381701940298,-0.11005085878074168,0.7883128161773085
1789514465761979100,10.610979248046876,-2.3262393000423907,-0.7941770320355892,0.3168547033518553
1789514465771985200,10.620985107421875,-2.098387406745553,-1.5482710600078105,-0.02562719320952892
1789514465781992000,10.630991943359374,-1.8643951109975576,-2.181765947178006,-0.26874241435080765
1789514465791998000,10.640998046875,-1.5713976685732602,-2.4726234549641606,-0.5084130479961634
1789514465802005000,10.6510048828125,-1.19880704947412,-2.5123838029444214,-0.5856377419739961
1789514465812011000,10.661010986328124,-0.8514613462686538,-2.4219261179059743,-0.6013201720133423
1789514465822017000,10.67101708984375,-0.5580453861713409,-2.2817408176243306,-0.5708847017392515
1789514465832024000,10.681024169921875,-0.3579997836887836,-1.9179133506953716,-0.4589078433319926
1789514465842030000,10.691030029296876,-0.2438730537712574,-1.4351789338350296,-0.15280629692375658
1789514465852036000,10.7010361328125,-0.1458580669547431,-1.0592676458805799,0.1781470744073391
1789514465862043000,10.71104296875,0.21824531257245688,-0.7937976773291826,0.18311024977266788
1789514465872049200,10.721049072265625,0.5261234767317772,-0.6185755504578352,-0.09870119724869728
1789514465882056000,10.731055908203125,0.5772597166638821,-0.6464473077237606,-0.5979653086274862
1789514465892062000,10.74106201171875,0.2277553741198033,-1.1618640970021485,-1.2912395417168736
1789514465902068000,10.75106787109375,-0.07660860790610313,-2.3453689479261635,-2.447598319301009
1789514465912075000,10.761074951171874,0.3718037065051496,-3.82587346265316,-3.7770501027733085
1789514465922081000,10.7710810546875,1.3142495381653307,-4.943595635589957,-4.676339660404622
1789514465932087000,10.781087158203125,1.97558228033185,-5.524405811277032,-5.07110031799674
1789514465942094000,10.791093994140626,1.8312581266798078,-5.8013803396612404,-5.465426383563876
1789514465952100000,10.80110009765625,0.26177140629440543,-5.812889575669169,-6.079663612556457
1789514465962106000,10.811106201171874,-2.296799270546436,-5.048641233429312,-5.86061344987452
1789514465972113000,10.82111279296875,-3.720871119433641,-3.3304292018234727,-4.081552689552307
1789514465982119200,10.831119140625,-3.2316216215908526,-1.6068787317991255,-2.084927328930795
1789514465992126000,10.8411259765625,-1.9990389976345002,-0.30831951471865177,-0.954718891647458
1789514466002132000,10.851132080078125,-0.606966068945825,0.5618617295891046,-0.2517158762261271
1789514466012138000,10.861137939453124,0.6116460434556007,1.119389813888073,0.3677121994078159
1789514466022145000,10.87114501953125,1.2258806420996784,1.3889713094115257,0.9499135371923446
1789514466032151000,10.881151123046875,1.4910232783928512,1.5185972217559813,1.3145339080646634
1789514466042157000,10.891156982421874,1.9121087560698389,1.7391741556137799,1.3460527896612882
1789514466052164000,10.9011640625,1.857016398923099,1.870793287602067,1.0252955259129404
1789514466062170000,10.911170166015625,1.5766393686190248,2.0236551141053436,0.604841916398704
1789514466072175900,10.92117578125,1.0565002269938588,2.177144132596254,0.17621406051814556
1789514466082183000,10.931182861328125,0.7427528420075774,2.290044535589218,-0.2975982142180204
1789514466092189200,10.941189208984374,0.5405146979168057,2.3915859246999025,-0.7474979907080531
1789514466102196000,10.951196044921875,0.5612710702195763,2.456708677473664,-1.0004536378622055
1789514466112202000,10.961201904296875,0.6077393914058804,2.426976971554756,-1.0248018971771
1789514466122208000,10.9712080078125,0.8548375447034835,2.2762387130767108,-1.60019355494678
1789514466132215000,10.981215087890625,1.1171829514935612,2.179330828985572,-1.8959844274818896
1789514466142221000,10.991220947265624,1.2368661464944481,2.193513668116927,-2.0362278876915574
1789514466152226800,11.001226806640625,1.25602531273365,2.187961294686794,-2.032191179521382
1789514466162234000,11.011234130859375,0.69148822645545,2.3215362369179724,-1.7635434577167033
1789514466172240100,11.021240234375,0.6918509222880005,2.3296190056085586,-1.747385519120097
1789514466182247000,11.031246826171875,0.34377252089381216,2.3287200109422206,-0.36331104183942076
1789514466192253000,11.0412529296875,0.08502513859570025,2.3994039049744607,0.026358137832581997
1789514466202259000,11.051259033203126,-0.14591858323663473,2.5180332070082425,0.27537089257985353
1789514466212266000,11.061265869140625,-0.2987774871304631,2.61751766358912,0.30530308950692414
1789514466222272000,11.07127197265625,-0.3607338848277926,2.715948227202892,0.33248627998679875
1789514466232277800,11.08127783203125,-0.5915805760264397,2.70254280218482,0.3233151315376162
1789514466242285000,11.09128515625,-0.9393395362079143,2.623570972278714,0.3607067045599222
1789514466252291000,11.101291015625,-1.1291861084982753,2.4942905123710633,0.5787091117545962
1789514466262297900,11.1112978515625,-1.1806351407065987,2.2167601036697624,0.9651520228564738
1789514466272304000,11.12130419921875,-1.279196637223661,1.786860620418191,1.4869082442894577
1789514466282310000,11.131309814453125,-1.46399235586524,1.153776652136445,2.0178186630368233
1789514466292317000,11.14131689453125,-1.9786413756415246,0.3199211051851511,2.450435588553548
1789514466302323200,11.1513232421875,-3.176653767606616,-0.7654740846425294,2.884600912556052
1789514466312329000,11.161328857421875,-4.658098485793173,-2.215582876583934,3.679365681351721
1789514466322336000,11.1713359375,-6.13754764624834,-3.6238586059242484,4.272428020368516
1789514466332342000,11.181342041015625,-6.102889005321264,-3.648298635175824,4.237559536083042
1789514466342349000,11.19134912109375,-6.469558417677879,-4.674250286909937,3.775879597689211
1789514466352355000,11.20135498046875,-6.406949109029769,-3.3926328522801397,1.0024413045480847
1789514466362360800,11.21136083984375,-7.105110237377882,-1.3015139752328395,-0.2162079249933362
1789514466372368100,11.2213681640625,-6.9245794827044005,0.3251964152395725,-0.5658142666071653
1789514466382373400,11.231373291015625,-6.139324592792987,1.446826701530814,-0.3335354967787862
1789514466392379400,11.24137939453125,-4.832590837085247,1.3478116160273552,0.30045360364913937
1789514466402386400,11.251386474609374,-2.7245453751564024,-0.12273439926505088,1.0824904082968831
1789514466412392400,11.261392333984375,0.4880886373698711,-2.055979174605012,1.3657906325712799
1789514466422398200,11.271398193359374,3.2504631001830098,-3.629154374244809,0.9956965064629911
1789514466432405500,11.281405517578126,4.385155697143078,-4.460940129184722,0.7026455802857875
1789514466442411500,11.29141162109375,4.679050088407099,-4.166327068257331,0.6210027776047587
1789514466452418300,11.301418212890624,4.340812989808619,-2.8243396283388136,0.5658662890553474
1789514466462424600,11.311424560546875,3.2738416376829145,-1.0472031140774487,0.0172734986230731
1789514466472430600,11.3214306640625,1.9990926275178789,0.3766407712727785,-1.2460799650415777
1789514466482437400,11.331437255859376,0.398143285767734,0.9733043496519327,-2.485601886741817
1789514466492443400,11.341443359375,-0.8254457382634282,0.8726952729552984,-3.2018244492202994
1789514466502449400,11.351449462890624,-0.6590826251521706,0.31205402507185936,-3.2235517123818394
1789514466512456400,11.36145654296875,0.12310995457917451,-0.3523702533692121,-2.7446502978131173
1789514466522462500,11.37146240234375,1.077074812988937,-0.7472942848294973,-2.229289622636139
1789514466532469500,11.381469482421876,2.399997486953437,-0.9483955338448286,-2.0294424653351304
1789514466542475500,11.3914755859375,3.9068849816933273,-1.0517390039414167,-2.049401549780369
1789514466552481500,11.4014814453125,4.850866790749133,-1.052073934984207,-2.072873610782623
1789514466562488300,11.41148828125,4.7008270359292625,-1.0231459466636181,-1.9718825490310787
1789514466572494600,11.42149462890625,4.045068294502794,-1.007011973464489,-1.8833567088380454
1789514466582500400,11.431500244140626,3.611765140287578,-0.942920901826024,-1.8900562064766884
1789514466592507400,11.44150732421875,3.1095684825882315,-0.8821452383458613,-1.938311995601654
1789514466602513400,11.451513427734374,3.0500746756121515,-0.8438964639723301,-1.888146865724027
1789514466612519400,11.46151953125,0.146087802323699,-0.5363479336261749,-2.97963569625169
1789514466622526500,11.4715263671875,-0.25134587386995555,-0.3701479021221399,-2.995569178442657
1789514466632532500,11.481532470703126,-0.28584172545075415,0.04943243168890476,-1.9977026344642042
1789514466642539500,11.49153955078125,-0.9831856921970844,0.6868026989877224,-0.3469523199737072
1789514466652545500,11.501545654296875,-1.34202557997182,1.1965315057575703,1.0125009262695908
1789514466662551300,11.51155126953125,-1.0129261659443378,1.6100450868755578,1.5371894017621874
1789514466672558300,11.521558349609375,-0.3515126136265695,1.9073130462259054,1.3570692737162113
1789514466682564600,11.531564697265624,0.42252895448356864,1.9187562312602995,0.9581120412170886
1789514466692570400,11.5415703125,1.0637481522955,1.641322853192687,0.7035317154705524
1789514466702577400,11.551577392578125,1.273068948123604,1.287327628970146,0.513251427938044
1789514466712583400,11.56158349609375,0.9278151026308536,0.9433359123677014,0.3802399648085236
1789514466722590500,11.571590576171875,0.400672219723463,0.5896189205646515,0.16519231576621532
1789514466732596500,11.581596435546874,0.2979367985226214,0.6052168871909379,0.16229074910581112
1789514466742602200,11.591602294921875,-0.5415044396065175,0.3455705102264881,-0.07300473819524049
1789514466752609500,11.601609619140625,-0.9219884423039854,0.5083487505882978,-0.12009995910823344
1789514466762615600,11.611615478515626,-1.1048562616229056,0.7266513097733259,-0.10589403136223555
1789514466772621300,11.621621337890625,-1.180657060277462,0.7401788998663426,-0.09411562302410602
1789514466782628400,11.63162841796875,-1.7399954088687897,1.012618122908473,-0.21836188815683125
1789514466792634400,11.64163427734375,-2.0112169266842304,1.0028665442228317,-0.3061909782573581
1789514466802640400,11.651640380859375,-1.9035878882229327,0.881036400321126,-0.38090719654560085
1789514466812647400,11.6616474609375,-1.510997122015804,0.7501151874691248,-0.30692484548985954
1789514466822653200,11.671653076171875,-1.0266332042574882,0.6969429847300053,-0.052288113380968566
1789514466832660500,11.681660400390625,-0.7223369537055492,0.7962216896057128,0.23951368951797483
1789514466842666500,11.69166650390625,-0.7188812602937221,1.040274191597104,0.48707069249898194
1789514466852672300,11.70167236328125,-1.0200595980208367,1.3322206636637448,0.588125759397447
1789514466862679600,11.711679443359374,-1.4357096797108648,1.6135148088127373,0.5906628766596317
1789514466872685300,11.721685302734375,-1.675336766475439,1.7819529746323823,0.6507888440594076
1789514466882691300,11.73169140625,-1.4888812979280948,1.7757248938977717,0.7978846543818712
1789514466892698400,11.741698486328126,-1.5227987650990484,1.7882786705225706,0.8324380813688039
1789514466902704400,11.751704345703125,-0.9786649999022483,1.5999492247968912,1.180697684548795
1789514466912711400,11.76171142578125,-0.3250514172783121,1.2845856367856263,1.6845622754603624
1789514466922717400,11.771717529296875,0.17069208222627638,1.0267471860259771,2.2665686751946805
1789514466932723200,11.78172314453125,0.41965047643780706,1.0152671761125325,2.8243340753808615
1789514466942730500,11.79173046875,0.35917467268705366,1.1889116784036158,3.3507319851398467
1789514466952736300,11.801736328125,-0.011471826606988906,1.4066986892819404,3.805287186220288
1789514466962742300,11.8117421875,-0.7546072381913661,1.5624129826068878,4.049861373998224
1789514466972749600,11.82174951171875,-1.9251520697772502,1.4019208073556422,4.072180173312128
1789514466982755300,11.83175537109375,-3.0442730035960675,0.7260323010921478,3.72694400960654
1789514466992761300,11.84176123046875,-3.516768935036659,-0.1683259376168251,3.2089863036736843
1789514467002768600,11.8517685546875,-3.1871208010852334,-1.0001409186512231,2.7376322357445955
1789514467012774400,11.8617744140625,-2.2250258277118204,-1.685403986981511,2.3749501394584773
1789514467022781400,11.871781494140626,-1.0713584811687469,-2.1403116547614336,2.0525708274662495
1789514467032787200,11.881787109375,-0.24516952332258224,-2.455302317807078,1.78770174741745
1789514467042793500,11.89179345703125,0.11688099706172943,-2.6912457476228475,1.4893968462347984
1789514467052800500,11.901800537109375,0.14525836576223372,-2.8268092333227393,1.2190838215664028
1789514467062806300,11.91180615234375,-0.1262754328727722,-2.7935096057891844,0.8485299689918756
1789514467072812300,11.921812255859376,-0.4192740078082308,-2.5285429105848074,0.4576151731729507
1789514467082819600,11.931819580078125,-0.6071638930728659,-2.155456032401323,0.13536211790889502
1789514467092825300,11.941825439453124,-0.791457763139531,-1.8724930772572754,-0.25316695181727406
1789514467102831400,11.951831298828125,-0.8397217355709522,-1.6620219423502682,-0.876931303089857
1789514467112838400,11.96183837890625,-0.7299357382714748,-1.406595228907466,-1.7134864643886685
1789514467122844400,11.971844482421876,-0.811290663921833,-1.4230261392265557,-2.843417546035349
1789514467132851500,11.9818515625,-0.953408831962198,-1.892185035198927,-4.031443966037035
1789514467142857200,11.991857177734374,-0.7600093164306133,-2.970210573041439,-4.837016544573009
1789514467152863500,12.001863525390625,-0.01894318540096283,-4.2420483719348905,-4.944643683338165
1789514467162870500,12.01187060546875,0.6419967580556869,-5.125869434538483,-4.5769686010703445
1789514467172876300,12.021876220703126,0.643379590716213,-5.715852512240409,-4.425163297882676
1789514467182882300,12.03188232421875,-0.07108005374297499,-6.00690583485961,-4.355547325342894
1789514467192889300,12.041889404296874,-0.7403447579525411,-5.627714794582128,-4.148857754801213
1789514467202895400,12.051895263671875,-1.172481790997833,-4.238331981760263,-3.270814106555283
1789514467212901400,12.0619013671875,-1.4642983530744909,-2.475655370005965,-1.6305360862404108
1789514467222908400,12.071908447265624,-1.3450164323508738,-1.3235223934233187,-0.29706103860139843
1789514467232914400,12.08191455078125,-0.7217936406090855,-0.8236766827642917,0.2769301047205925
1789514467242921500,12.09192138671875,-0.15656301910877227,-0.41137598456740376,0.5159592255920171
1789514467252927200,12.10192724609375,0.1681342144370079,-0.04403495655953884,0.48201954658925533
1789514467262933500,12.11193359375,0.47002369610816236,0.49422144103646276,0.43326136090010403
1789514467272940300,12.121940185546874,0.7098699785813689,1.2062304774731396,0.5340414102494716
1789514467282946300,12.1319462890625,0.9906249022871255,1.7021709973871706,0.35377193686068054
1789514467292952300,12.141952392578125,1.4646478971645236,2.058608354064822,0.1924009329482913
1789514467302959400,12.15195947265625,1.6029919534936545,2.2691671672552824,0.1467176246598363
1789514467312965400,12.16196533203125,1.552069283246994,2.302911615946889,0.011512158617377281
1789514467322971400,12.171971435546874,1.4024460002735257,2.278597258901596,-0.37733313745111224
1789514467332978400,12.181978515625,1.1739233681082726,2.244529569604993,-0.9475625901520252
1789514467342984400,12.191984375,1.2177189629539846,2.2444296163618564,-1.3556491777852178
1789514467352991200,12.2019912109375,1.3656874644577501,2.320020571658015,-1.5765221719801426
1789514467362997200,12.211997314453125,1.4539645905867218,2.521840782597661,-1.6308751089364288
1789514467373003500,12.22200341796875,1.4799056720510124,2.8011709341973066,-1.5214873902395367
1789514467383010300,12.23201025390625,1.528732539062202,2.928684384432435,-1.4921774168640374
1789514467393016300,12.242016357421875,1.5945491193190215,2.9996242990523574,-1.4700190688088535
1789514467403022300,12.252022216796876,1.7210490085974335,2.9766169329524037,-1.497306888706982
1789514467413029000,12.262029052734375,1.63592713162899,2.968365821957588,-1.512794088435173
1789514467423035400,12.272035400390624,1.3743512479066848,3.1195272742837665,-1.4674258374452591
1789514467433041400,12.28204150390625,1.0540481576666236,3.3715912332952023,-1.337427584657073
1789514467443048200,12.292048095703125,0.6904428090557455,3.599318038907647,-1.2227195477202535
1789514467453054200,12.30205419921875,0.31614567829966544,3.7587042987436052,-1.1265773873046039
1789514467463060500,12.312060546875,-0.04689736025333404,3.7634862723231315,-0.9782695708438753
1789514467473067300,12.3220673828125,-0.48656186619400976,3.6271558939039705,-0.7888032300427555
1789514467483073300,12.3320732421875,-1.3370683959558605,3.278371097806096,-0.5564703919395804
1789514467493080300,12.342080322265625,-2.3203709925308824,2.6003970174401996,-0.13821136986017227
1789514467503086300,12.35208642578125,-3.336046749444306,1.5494856964945791,0.5360930820822716
1789514467513092400,12.36209228515625,-4.548230290102959,0.23799743973612783,1.4314806638389825
1789514467523099100,12.37209912109375,-5.102781404417753,-1.4263058915495872,2.7812878375977275
1789514467533105400,12.38210546875,-3.5635260100364685,-3.6003912210971114,5.316268672275543
1789514467543111400,12.392111328125,-2.8091774227812887,-5.321365118631721,7.253949968758225
1789514467553118200,12.4021181640625,-4.363187318702042,-6.383854649168253,6.7328130482673645
1789514467563124200,12.412124267578125,-6.989345677125454,-3.1090105564445256,2.1126497408539056
1789514467573130500,12.422130615234375,-6.945781260687112,-3.187308432611823,1.9876631787478922
1789514467583137300,12.43213720703125,-7.5447893563658,1.319463473421335,-1.2025459437415003
1789514467593143300,12.442143310546875,-6.49462154726386,2.0091285761028526,-2.2655621285006404
1789514467603150300,12.452150390625,-6.39922757486701,1.9354700501739979,-2.3293650308474896
1789514467613156400,12.46215625,-1.2532216534897684,-0.5363859275490045,-0.4520408801719546
1789514467623162400,12.472162353515625,2.2438097308978437,-2.544060213190317,0.8881655215486883
1789514467633169200,12.482169189453124,4.534816974039376,-4.546239993068576,1.0590028574645518
1789514467643175400,12.492175537109375,5.112907077112793,-5.660934342616796,0.5740753144741058
1789514467653181400,12.502181396484374,5.090816825857758,-5.610179137891531,0.6490571979612112
1789514467663188200,12.512188232421876,3.188444450904429,-3.6776521554321047,0.3196212454557419
1789514467673194200,12.5221943359375,1.061988595277071,-2.365737197694182,-0.719189303329587
1789514467683200300,12.5322001953125,-0.8004571352183818,-1.6860054600059986,-1.8707441877633333
1789514467693207300,12.542207275390625,-0.28116116641908884,-1.0743091476678848,-2.0349781798914073
1789514467703213300,12.55221337890625,1.4213479768812656,-0.41389819652140136,-1.7896490820929407
1789514467713219000,12.562218994140625,2.223742217642069,-0.022117723783850667,-1.4833593196362256
1789514467723226400,12.572226318359375,2.5067446280136703,0.07862520842552184,-1.2852192585140465
1789514467733232400,12.582232421875,2.474935239037871,0.09663841949999331,-1.275168112359941
1789514467743239200,12.5922392578125,3.7696795740053055,-0.05078384629786014,-1.7048235577225683
1789514467753245400,12.602245361328125,4.198656973975897,-0.4008703726440668,-2.068289790123701
1789514467763251200,12.612251220703126,4.2970133033096785,-0.6628489919483661,-2.093389160066843
