time,seconds_elapsed,z,y,x
1789701071552875500,0.05087548828125,-0.7812503304451703,-0.2952076658196747,-2.1434138585604727
1789701071562896400,0.060896484375,0.22197569473981857,-0.19661051346734165,-1.6842213530682026
1789701071572917500,0.07091748046875,0.9256558787703514,-0.22527561306804417,-1.0245477032203227
1789701071582938400,0.0809384765625,1.0253063395678996,-0.11290171816721557,-0.4364462745465338
1789701071592959500,0.09095947265625,0.8322060261785984,0.1281331895686686,-0.3196409730695188
1789701071602981600,0.100981689453125,0.3842828104585409,0.18062120943590998,-0.31101182254254817
1789701071613002500,0.11100244140625,0.08541676826179027,0.06953384721428156,-0.29232714194729925
1789701071623023600,0.121023681640625,0.10508183819651604,-0.164285576184839,-0.23963848494142292
1789701071633044500,0.13104443359375,0.2388087561190128,-0.5674637873798608,-0.1728964604027569
1789701071643065300,0.1410654296875,0.4995440973639488,-1.1067818228580057,-0.12808292068615554
1789701071653086500,0.15108642578125,0.653317193493247,-1.3140813419915736,0.07106777878329157
1789701071663108600,0.161108642578125,0.7264116557985544,-1.0973485163412988,0.24207287248149512
1789701071673129500,0.17112939453125,1.0664134259819984,-0.9550028231553733,0.34626083057820795
1789701071683150600,0.181150634765625,0.8499965344130992,-0.9439832703605293,0.5165104297339916
1789701071693171500,0.19117138671875,0.2788216175556183,-0.9317878056541085,0.10234174570813774
1789701071703192600,0.201192626953125,-0.21819968333244322,-0.9386999231301247,-0.42409854188784957
1789701071713213400,0.21121337890625,-0.7639695252984762,-0.8383348843224346,-0.8115091289781033
1789701071723234300,0.221234375,-0.9580822306007146,-0.5641463333949447,-0.669189154755324
1789701071733256700,0.231256591796875,-0.7825503071278334,0.12414601962864398,-0.508188007068634
1789701071743277600,0.241277587890625,0.2799842315942049,0.10180822335332632,-0.17743541900664567
1789701071753298200,0.251298095703125,1.1058692380577324,-0.15759031632989645,0.08284852520897984
1789701071763319300,0.2613193359375,1.8325719857573508,-0.3409012032411992,-0.08379968845397233
1789701071773340200,0.271340087890625,2.1104420016765593,-0.4397950004525482,-0.17468115186244249
1789701071783361300,0.281361328125,1.9835838004797697,-0.398156437510252,-0.09955372242480516
1789701071793382100,0.291382080078125,1.9938374834686516,-0.3065947367526591,-0.08017448369413614
1789701071803404300,0.301404296875,1.9844179132163524,-0.2944195841819048,-0.0782636816367507
1789701071813425400,0.31142529296875,1.6336521724343298,-0.46182051590830087,-0.23210370552241802
1789701071823446300,0.3214462890625,1.4514824183821677,-0.5462380439996719,-0.7035770159170032
1789701071833467100,0.331467041015625,1.2132622758060694,-0.7578374522842466,-1.1159195074290036
1789701071843488300,0.34148828125,0.8839373824596405,-1.011266123777628,-1.5405869352459907
1789701071853509000,0.351509033203125,0.5125006095707416,-1.2229882816590367,-1.9313845344260334
1789701071863530200,0.3615302734375,0.03333762145638466,-1.4231671551324425,-1.9683914920449255
1789701071873552400,0.371552490234375,-0.16857026776671408,-1.3738108574196695,-1.694244296041131
1789701071883573200,0.3815732421875,-0.09795710088312626,-1.1079271935008466,-1.0114686606124044
1789701071893594400,0.391594482421875,-0.13472645035386085,-0.8257118418537079,-0.27329583987146616
1789701071903615200,0.401615234375,-0.36050445998609065,-0.5192058062978089,0.11874240701943635
1789701071913636000,0.411635986328125,-0.5252484474629163,-0.26397490768805143,-0.01683598398864269
1789701071923657200,0.4216572265625,-1.3896423405408858,-0.9351192881643772,-0.9470125550538301
1789701071933679400,0.431679443359375,-1.7967583295762537,-1.8130688283860683,-1.4501625679552554
1789701071943700200,0.4417001953125,-1.1037941853493451,-1.973256467732787,-1.3261322836607694
1789701071953721300,0.451721435546875,-1.2159598443269728,-1.720790357661247,-1.6640332821726798
1789701071963742200,0.4617421875,-1.6234966891229152,-1.1317249793261288,-1.4947054740369319
1789701071973763300,0.471763427734375,-1.5757780756145714,-0.7551797773823141,-1.4195277757167815
1789701071983784200,0.4817841796875,-1.2333037778377531,-0.8515425948113202,-1.6479542540311813
1789701071993805000,0.49180517578125,-0.21370587904453275,-1.2573407792463898,-2.1841285846561194
1789701072003827500,0.501827392578125,0.8196990113049745,-1.601034974206984,-2.3465678023219105
1789701072013848300,0.511848388671875,1.1904542316704987,-1.6635837848395107,-1.8747405639231205
1789701072023869200,0.521869140625,0.8945207357943058,-1.4007006179109216,-0.981698083987832
1789701072033890300,0.531890380859375,0.6393453667640686,-1.1434174629464744,-0.4764081364482641
1789701072043911200,0.5419111328125,0.9084721042573451,-0.9605702480241656,-0.7202928806573152
1789701072053932300,0.551932373046875,1.1169590796098112,-1.0246072513878346,-1.3048147703438997
1789701072063953200,0.561953125,1.2635112845748662,-0.9768965289250016,-1.600600382182002
1789701072073975300,0.571975341796875,2.000392311939597,-0.8629054080858826,-1.2813070535063742
1789701072083996400,0.581996337890625,2.7355279569417235,-0.9396269748471677,-0.5381944382756948
1789701072094017300,0.592017333984375,2.092346373015642,-0.2913691105701029,0.25468027898967266
1789701072104038100,0.6020380859375,1.2596246523998678,0.24227160992398858,0.9085784872412681
1789701072114059300,0.612059326171875,1.2902506768099964,-0.14193857368975876,0.778362207788229
1789701072124080000,0.622080078125,1.5511666353188454,-0.635043870177865,-0.14917992312014103
1789701072134102300,0.632102294921875,1.6949280405215918,-1.086489853196591,-0.7993810304194688
1789701072144123400,0.642123291015625,1.2440947825737296,-1.3658476234555244,-0.8733534446030855
1789701072154144300,0.652144287109375,0.5788894367575645,-1.2758248227030038,-0.8287199376285076
1789701072164165400,0.662165283203125,0.3157849917611107,-1.2843499283336102,-0.6666133129179477
1789701072174186200,0.672186279296875,0.39514965690970416,-1.183364127279073,-0.47561552476584906
1789701072184207000,0.68220703125,-0.09440262327194213,-0.6479525246549397,-0.44269875907003875
1789701072194228200,0.692228271484375,-1.2425146737754345,-0.15852065598256884,-0.35867958264648914
1789701072204250400,0.70225048828125,-2.0459294897556304,0.21483846327103673,-0.12651684041321276
1789701072214271200,0.712271240234375,-2.227928563416004,0.732170511586219,0.05581716428995132
1789701072224292400,0.722292236328125,-2.0784182392977177,1.3074438036732374,0.6611299130707979
1789701072234313200,0.732313232421875,-1.4087806101225315,1.5059383773215114,0.8820236577928066
1789701072244334300,0.742334228515625,-0.3479785942815244,1.4785225471295416,0.7735913401246071
1789701072254355200,0.752355224609375,0.30209727920293805,1.7376352556087076,0.85331486518085
1789701072264377000,0.762377197265625,0.2921886102594435,2.407245266124606,1.2380904275923967
1789701072274398200,0.772398193359375,-0.6820747936829924,2.974210748593509,1.563087520867586
1789701072284419300,0.78241943359375,-1.872279434506595,2.9876696573644876,1.5249123962521551
1789701072294440200,0.792440185546875,-2.2857620359644293,2.885680524486303,1.006661260330677
1789701072304461300,0.80246142578125,-1.902602384316921,2.5961829068765043,0.013662030127644538
1789701072314482200,0.812482177734375,-1.6223396280422806,1.9901684395670889,-0.9958341613680124
1789701072324503300,0.82250341796875,-1.687149369344115,1.4940090162053703,-1.5135545514136552
1789701072334525400,0.832525390625,-2.1073004887804387,1.145932368376851,-1.0072738392710685
1789701072344546300,0.84254638671875,-3.0768001854524014,0.8668845408499241,0.5694593451112508
1789701072354567200,0.852567138671875,-3.9341304237544534,0.6277142579421401,1.9973194803655145
1789701072364588300,0.86258837890625,-3.765777013608813,0.34574849714189765,2.267864267963171
1789701072374609200,0.872609130859375,-2.7880823200434444,-0.5481086601771414,2.2311153767585754
1789701072384630300,0.88263037109375,-2.0066145474553108,-1.2766831930980085,1.8130957163929937
1789701072394651100,0.892651123046875,-1.833746874755621,-1.782414162403345,0.6399304731756449
1789701072404673300,0.90267333984375,-1.663630254329741,-2.5875159085571764,-0.5277829343765974
1789701072414694400,0.9126943359375,-1.4186425173148511,-3.174962161257863,-1.377692959550023
1789701072424715300,0.92271533203125,-1.16192693310529,-3.4018650832667943,-1.5286901612251995
1789701072434736000,0.932736083984375,-0.6924120633020997,-3.5122456123933192,-1.5163152482986448
1789701072444757200,0.94275732421875,0.019849486590921877,-3.412461003822088,-0.7110755549788474
1789701072454778000,0.952778076171875,0.16975421685427428,-2.7895252123281358,0.8038467776566743
1789701072464799200,0.96279931640625,-0.5705518165230751,-1.482297243362665,2.036187847942114
1789701072474821400,0.9728212890625,-1.308283030976355,-0.24942367363572118,2.419403321430087
1789701072484842200,0.98284228515625,-1.181408463166654,0.5301307396117597,2.184895477375388
1789701072494863400,0.99286328125,-0.45799277431368823,0.6700157417725772,1.590036902591586
1789701072504884200,1.00288427734375,0.07783201222121715,0.18142624220848083,0.7435814017862081
1789701072514905000,1.012905029296875,0.2916518730342388,-0.05890278228037059,0.034492636710405346
1789701072524926200,1.02292626953125,0.5475684158205986,-0.1601243648521602,-0.5844207673996686
1789701072534948400,1.0329482421875,0.9764721660330891,-0.08886435143239796,-1.159587968763709
1789701072544969200,1.04296923828125,1.3302680682912469,-0.05681581993848085,-1.6283979051679371
1789701072554990300,1.052990234375,1.2521885110497475,-0.14363741349689663,-1.9677040943026542
1789701072565011200,1.06301123046875,0.8642121067702769,-0.02752148252353072,-1.9485148251861333
1789701072575032300,1.0730322265625,0.23258958934322,0.19843612145930528,-1.613198582470417
1789701072585053200,1.08305322265625,-0.1623379492484033,0.5770026731628924,-1.438266378456354
1789701072595074300,1.09307421875,-0.10020020363479852,0.7750535216316581,-0.9670102179437875
1789701072605096400,1.103096435546875,0.505526678904891,0.9343666431661695,-0.36678748577833176
1789701072615117300,1.113117431640625,0.9038426908910274,0.8450534519877284,0.05551672003865242
1789701072625138200,1.12313818359375,0.9652841248035431,0.7448649387907237,0.2784299878895283
1789701072635159300,1.1331591796875,0.8069578954145312,0.7446335411876439,0.3970400007009506
1789701072645180200,1.14318017578125,0.3780415779814124,0.833258092514798,0.27900165029764173
1789701072655201300,1.153201171875,0.00046411038041114806,0.9219218068085611,-0.022679449319839475
1789701072665223200,1.16322314453125,0.1911608697593212,0.9609376930970698,-0.6675374420255422
1789701072675244300,1.173244384765625,1.1805566686429083,1.1692414939023554,-1.8491209694981574
1789701072685265400,1.183265380859375,2.344540095886588,1.4716105757839977,-1.568416022413969
1789701072695286300,1.193286376953125,2.2229462449587882,1.606361429926753,0.6308528482288122
1789701072705307100,1.20330712890625,1.7071360724486409,1.786830517540872,1.2959037341356276
1789701072715328300,1.213328369140625,1.3614793452434242,1.4390256723910568,0.9202543119877576
1789701072725349000,1.22334912109375,1.0547861165523529,1.0234414224788546,0.5068915375173092
1789701072735371300,1.233371337890625,0.2560319858595729,0.6877943403735757,0.014507248780131338
1789701072745392400,1.243392333984375,-0.6543702096775174,0.4400628576084971,-0.5007815302044153
1789701072755413000,1.2534130859375,-1.2042618077486753,0.28320085555315017,-1.0470493848204612
1789701072765434000,1.26343408203125,-1.3601383058980105,-0.06125307173356413,-1.5990888085752724
1789701072775455000,1.273455078125,-1.2590741789102553,-0.4218482787430286,-1.385852300608158
1789701072785476000,1.28347607421875,-0.7301473351955413,-0.40922026783823967,-0.5915916819423437
1789701072795497000,1.2934970703125,-0.03383300375789404,-0.10541326210796832,0.05894903257489204
1789701072805519000,1.30351904296875,0.3749804368451237,-0.20130553941577672,-0.15170914933681487
1789701072815540000,1.3135400390625,0.29430355658680196,-0.5352256515979766,-0.9030646922558545
1789701072825561000,1.32356103515625,0.11787673010081053,-0.7902423229351639,-1.642214249074459
1789701072835582000,1.33358203125,-0.13350129247307777,-1.0973545076906681,-2.3031489318341016
1789701072845603000,1.34360302734375,-0.4762158287465572,-1.188900280226767,-2.4622552056849
1789701072855624000,1.3536240234375,-0.6992483390629292,-1.1139224883928895,-1.9439426949650047
1789701072865645000,1.36364501953125,-0.704080873785913,-0.8685019129186868,-0.8140034300118685
1789701072875667200,1.373667236328125,-0.48559652829319233,-0.5969304126217961,0.5358738863736391
1789701072885688000,1.38368798828125,-0.25433745690137144,-0.7647051460966467,0.9789677822411059
1789701072895709000,1.393708984375,-0.1867991674184799,-0.9620984805047511,0.5411708237379789
1789701072905730000,1.40372998046875,-0.0438449869453907,-1.4665736045300959,-0.3074111677020788
1789701072915751000,1.4137509765625,-0.14749854590445757,-1.6813035659253597,-0.6852028625756502
1789701072925772000,1.42377197265625,-0.45559155839085574,-0.9900041400402784,-0.5759896236628294
1789701072935794200,1.433794189453125,-0.4080407026648521,-0.05193067824542522,-0.1563835708886385
1789701072945815000,1.44381494140625,-0.950368002961576,0.8725351139575243,1.055986724513769
1789701072955836200,1.453836181640625,-0.5416273353338241,1.0344693047106266,1.3793594314575195
1789701072965857000,1.46385693359375,1.5028765055328606,0.06794716254472732,0.4165507568567991
1789701072975878000,1.4738779296875,2.2906401633948086,-0.8955506633639335,0.03342646878361702
1789701072985899000,1.48389892578125,1.550517377629876,-0.9581284078299999,0.4514554814994335
1789701072995920000,1.493919921875,0.4496481398165226,-1.1158826825499535,1.1206669942170382
1789701073005942000,1.50394189453125,0.2069268864288926,-1.5907880132198333,1.8705472038865087
1789701073015963100,1.513963134765625,0.6229892752468585,-2.113799495410919,2.4419535914123056
1789701073025984000,1.52398388671875,1.1457505820691585,-2.43422445846498,2.6655086642980574
1789701073036005000,1.534005126953125,1.3197162791386245,-2.3189473894685504,3.1237983757317065
1789701073046026000,1.54402587890625,1.1117921983659267,-1.9600310754567383,3.7119974926263093
1789701073056046800,1.554046875,0.8229410619661212,-1.47113521335721,3.7580028724759815
1789701073066068000,1.56406787109375,0.9362377708002925,-0.5366004470825195,2.6483839264959097
1789701073076090000,1.574090087890625,1.0239207304283975,0.5507061293244362,1.012230000373721
1789701073086111000,1.584111083984375,-0.6468988508835435,1.351931326305866,-0.3372252912074327
1789701073096132000,1.594132080078125,-3.453015424789488,1.5494576394438742,-1.6792933951467275
1789701073106153000,1.604153076171875,-4.158671292807162,1.2416437361598014,-2.3852280801057812
1789701073116174000,1.614174072265625,-4.201119272436201,0.6579623889505862,-2.345716738450527
1789701073126195000,1.62419482421875,-3.4229043641641734,0.40558454168438907,-1.76644034820199
1789701073136217000,1.634217041015625,-2.0535542855456472,0.31181787822842594,-1.1832090828478337
1789701073146238200,1.64423828125,-0.7401704242989421,0.20633505801558494,-0.7352186471104621
1789701073156259000,1.654259033203125,0.3387815807387233,-0.07407996621131896,-0.3875456116467714
1789701073166280000,1.664280029296875,1.0390630622416734,-0.4938151983231306,-0.09337795639932155
1789701073176301000,1.674301025390625,1.3784697891414164,-0.9149889388054608,0.2582990540087223
1789701073186322000,1.684322021484375,1.5196563754200934,-1.1310235530585049,0.4246341100692749
1789701073196343000,1.694343017578125,1.640535794468224,-0.8653618613272905,0.5237976641327142
1789701073206365200,1.704365234375,1.3485507439568638,-0.5262368739783764,0.5622814163058996
1789701073216386000,1.714385986328125,0.4560056921496987,-0.5627092863291502,0.60946519228518
1789701073226407200,1.7244072265625,0.3774605632230639,-0.15265958192944526,0.00362462023794651
1789701073236428000,1.734427978515625,0.07585603597313165,0.17925883504152296,-0.5646329478681087
1789701073246449000,1.744448974609375,-0.13140636602044103,0.35161154395639893,-0.8603145148098468
1789701073256470000,1.754469970703125,-0.46481531381011004,0.535958057525754,-0.9211790256172419
1789701073266492200,1.7644921875,-0.5185261534705757,0.4179577010452747,-0.7325386142462491
1789701073276513000,1.774512939453125,-0.44294513504654165,0.28176702335774895,-0.30351649835109706
1789701073286534100,1.7845341796875,-0.4846577861383557,0.4438274708390236,0.2108849764049053
1789701073296555000,1.794554931640625,-0.10379004482030868,0.8346095801889896,0.49830023478269575
1789701073306576100,1.804576171875,0.7034358538806438,1.271685823202133,0.49303310803472994
1789701073316597000,1.814596923828125,0.816727302017808,1.4932956072390078,0.4524813174158335
1789701073326617900,1.824617919921875,0.48512861852049827,1.6912889533668756,0.2714507965266704
1789701073336640000,1.834639892578125,-0.18097703713625668,1.8645804044365881,0.4043897789418697
1789701073346661000,1.8446611328125,-0.7017799033671617,1.6997890706866978,0.8019932587444781
1789701073356682000,1.854681884765625,-0.7295861941814422,1.3167565525501965,0.9513029457241297
1789701073366703000,1.864703125,-0.5719137525260448,0.8436018649399281,0.8331295707643032
1789701073376724000,1.874723876953125,-0.2998737579345703,0.7888011842161416,0.4548685048133135
1789701073386745000,1.8847451171875,-0.11796937682032585,0.6881400850713253,-0.07333294723629952
1789701073396766000,1.894765869140625,0.25428075827807184,0.6365741484850644,-0.5580366183429956
1789701073406788000,1.9047880859375,0.2373261163458228,2.075183056768775,-2.0231927572906017
1789701073416809000,1.91480908203125,-0.5260404746234416,3.6496290069967507,-3.736790573099255
1789701073426830000,1.924830078125,2.5200752342298625,1.686099568030238,-3.0708658269673585
1789701073436851000,1.934850830078125,2.5349992471173404,1.4744278251618146,-3.217577314147353
1789701073446872000,1.9448720703125,2.283615963846445,1.5985644924402236,-2.924384056890011
1789701073456893000,1.954892822265625,2.1999828641310333,1.0635095212340355,-1.8962813646018504
1789701073466915000,1.9649150390625,1.1305052282728254,0.2827881830990314,-1.1847089660167693
1789701073476936200,1.974936279296875,-0.021013269673287868,-0.7167828267097472,-0.515191163828969
1789701073486957000,1.98495703125,-0.578673017527908,-1.4879028082847594,0.30517215660363434
1789701073496978000,1.99497802734375,-0.8303319028697908,-2.172954279690981,1.1664145999133586
1789701073506999000,2.0049990234375,-0.9154650318846106,-2.4183014976680277,1.7321213144928216
1789701073517020000,2.01502001953125,-0.9307879809617996,-2.2768530455827714,1.9358216400906443
1789701073527041000,2.025041015625,-0.8582159350953996,-2.186825568655133,1.9615455716729162
1789701073537063200,2.035063232421875,-0.5610368230722844,-2.42958043205142,1.8237948050618171
1789701073547084000,2.045083984375,0.42077714238017794,-2.5781197191804646,1.6828560560643673
1789701073557105200,2.055105224609375,1.234369068981707,-2.366660742279887,1.5988333725094794
1789701073567126000,2.0651259765625,0.7081061837792396,-2.435345571449399,1.3915639562532305
1789701073577147000,2.07514697265625,-0.13659282874763012,-2.5739491554975507,1.015090942762792
1789701073587168000,2.08516796875,-0.7763003068223595,-2.3080764513641596,0.6308604470133781
1789701073597188900,2.09518896484375,-0.8344377307534218,-1.6967518949478864,0.4182183978080749
1789701073607211000,2.1052109375,-0.5618691822431982,-1.2824907103329897,0.10213029491454362
1789701073617232100,2.115232177734375,-0.2561307700589299,-0.9846890824973583,-0.038759354244172574
1789701073627253000,2.1252529296875,0.029678806687891482,-0.8261807745397091,0.1591588808208704
1789701073637274000,2.135274169921875,0.2530322195217013,-1.0113841971993445,0.4542319604754448
1789701073647295000,2.145294921875,0.4843126259624958,-1.256764148402214,0.7016162372380494
1789701073657316000,2.155316162109375,0.3327329482242465,-1.4315087208896875,1.023576739296317
1789701073667337000,2.1653369140625,-0.019042554122209548,-1.3489490956246852,1.2529001664504409
1789701073677359000,2.175359130859375,-0.05594254423528909,-1.0760141980201006,1.266749243582785
1789701073687380000,2.1853798828125,-0.0707344551756978,-0.8080991744041442,1.0832309975311158
1789701073697401000,2.195401123046875,0.6761470110692084,-0.4296235889196396,0.6404229328677058
1789701073707422000,2.205421875,1.5094950468897819,0.20627660582661628,-0.31421383345425125
1789701073717443000,2.215443115234375,0.673550710965693,0.5987614274412393,-1.6294477064818143
1789701073727464000,2.2254638671875,-0.04250380146950483,0.6575099690079689,-2.789793507875502
1789701073737486000,2.235486083984375,-0.461454605205357,0.845019330522418,-3.568653436052799
1789701073747507200,2.245507080078125,-0.7394305657170712,1.2036048051446675,-3.9618089965358374
1789701073757529300,2.255529296875,-0.8427050622306763,1.5427362222343681,-4.045828465220332
1789701073767550200,2.26555029296875,-0.7724523992225527,1.644094071471691,-3.8175247365027665
1789701073777571300,2.2755712890625,-0.5204967228911817,1.5306933177411555,-3.2137551255106924
1789701073787592200,2.28559228515625,-0.19567440166100858,1.2513824553638695,-2.213662722176313
1789701073797613000,2.295613037109375,0.22864771984964607,0.811760619521141,-0.9507081947013735
1789701073807635000,2.305635009765625,0.5759434464335441,0.41731005079150196,0.34105303280204535
1789701073817656000,2.315656005859375,0.8457108199179172,0.10676584576070308,1.491607508021593
1789701073827677200,2.32567724609375,0.9428580657228827,-0.08865911118388176,2.363850945556164
1789701073837698300,2.3356982421875,0.8162751743361354,-0.17309096006155014,2.8672593171328304
1789701073847719200,2.34571923828125,0.4485431011840701,-0.13627367979586125,3.039359512591362
1789701073857740300,2.355740234375,-0.09750526546239853,-0.041675826212763785,2.8389748874127863
1789701073867762200,2.36576220703125,-0.6078197631657123,0.08874269781410693,2.306958260989189
1789701073877783000,2.375782958984375,-0.8663922272883355,0.23375731794834134,1.6430664819896221
1789701073887804200,2.38580419921875,-0.7973005708836018,0.29168752886950966,1.0213882893413304
1789701073897825300,2.3958251953125,-0.4661280038438737,0.30995325340032576,0.5253156674802303
1789701073907846100,2.40584619140625,-0.08924597116112709,0.3210416336476803,0.21020400840342043
1789701073917867300,2.4158671875,0.1055623151898384,0.36999767999649047,0.13644260662198066
1789701073927888100,2.42588818359375,0.12333411872386932,0.4445569541573524,0.22338906866908073
1789701073937910000,2.435909912109375,-0.02935907321423292,0.5064928935885429,0.3635100715428591
1789701073947931100,2.44593115234375,-0.23351883301734924,0.5334668252319097,0.4503209245115518
1789701073957952300,2.4559521484375,-0.38768297429084775,0.5635369693249463,0.44136663368344303
1789701073967973000,2.46597314453125,-0.48333179823160166,0.5943997251003981,0.4117033168256283
1789701073977994200,2.475994140625,-0.484711269891262,0.5605599993407726,0.3735293612539768
1789701073988015000,2.48601513671875,-0.4912450555741787,0.45742286547124383,0.3612146540820598
1789701073998036200,2.4960361328125,-0.5173103479400277,0.26369886722564695,0.35232232257425783
1789701074008058000,2.50605810546875,-0.5044789234176278,0.02361643790900707,0.34893910987675186
1789701074018079000,2.516078857421875,-0.48932490116655825,-0.20255320138931274,0.3449544241547584
1789701074028100400,2.526100341796875,-0.46971506855040784,-0.44653906788527964,0.32921500323116776
1789701074038121200,2.536121337890625,-0.47947629184722895,-0.6742635354101657,0.3223024473637342
1789701074048142000,2.54614208984375,-0.6574570697769522,-0.8478507545560597,0.3244219237357378
1789701074058163200,2.5561630859375,-1.015749406671524,-0.9437672895222902,0.3458341295987367
1789701074068184000,2.56618408203125,-1.42638450974375,-1.0131126284271479,0.3536345742166042
1789701074078206000,2.5762060546875,-1.7445885818779467,-1.046290675407648,0.3612380349576473
1789701074088227000,2.58622705078125,-1.9082097028046845,-1.0195201573818922,0.3303986600577831
1789701074098248200,2.596248291015625,-1.8061419517323374,-0.8396908289760351,0.32452772219777104
1789701074108269300,2.606269287109375,-1.472297242873907,-0.49337096168696876,0.3169277685880661
1789701074118290200,2.616290283203125,-1.0531363035187125,-0.08986439532041549,0.26678689636886116
1789701074128311000,2.62631103515625,-0.6930310719832777,0.31572131540775294,0.23898528172969816
1789701074138333200,2.636333251953125,-0.5786898225322366,0.6570891132473945,0.2581938400685787
1789701074148354000,2.64635400390625,-0.6253329157635569,0.8899047664314508,0.346997328159213
1789701074158375200,2.656375244140625,-0.7955129568144679,1.1483715782225132,0.49751931353807444
1789701074168396300,2.666396240234375,-1.0808683600530027,1.322078624355793,0.5800608186244964
1789701074178417200,2.676417236328125,-1.2039292147934435,1.2851070303112269,0.4517372210502624
1789701074188438300,2.686438232421875,-1.044554645395279,1.0909645143926143,0.2837310169070959
1789701074198459100,2.696459228515625,-0.7918260849952697,0.7774661357313394,0.048102059867978095
1789701074208481000,2.70648095703125,-0.5705056392937898,0.4032131363779306,-0.3111602911025286
1789701074218502100,2.716502197265625,-0.3526718666642904,0.09544950197637081,-0.7180033084154128
1789701074228523300,2.726523193359375,-0.21577684009969234,-0.007901566904783249,-0.9301403307080268
1789701074238544100,2.736544189453125,-0.07879851916581392,0.14625380654036998,-0.8293862925827503
1789701074248565200,2.746565185546875,0.04869827219545841,0.4324105892896652,-0.47631987364292144
1789701074258586000,2.756586181640625,0.06372983711063862,0.7309077981740236,0.017690554991364477
1789701074268608000,2.76660791015625,0.03556289629042148,0.9743985746294259,0.49983285117745396
1789701074278629000,2.776629150390625,-0.018625790014863013,1.124250113400817,0.8439297817200422
1789701074288650000,2.78664990234375,-0.06954173825979232,1.1702122386306524,1.0158131195574998
1789701074298671400,2.79667138671875,-0.04114449581503868,1.173694820049405,1.0288953039705753
1789701074308692200,2.806692138671875,0.05640811592042446,1.119537113404274,0.8193611576527356
1789701074318713000,2.816713134765625,0.16332593737244605,1.0782394728541373,0.4869283614188432
1789701074328734200,2.826734130859375,0.21227818432897327,0.9968740258097648,0.08664601779580115
1789701074338756000,2.836756103515625,0.20690438233613967,0.8920873711675404,-0.3216547971099615
1789701074348777000,2.84677685546875,0.11264613597095012,0.81142685752213,-0.6646148325771093
1789701074358798300,2.85679833984375,-0.04343932875394821,0.7770195610076188,-0.8530570910274982
1789701074368819200,2.866819091796875,-0.18052724754214286,0.7636912928789854,-0.8628080851912499
1789701074378840300,2.87684033203125,-0.363155851277709,0.7525707639276981,-0.8165057682216167
1789701074388861200,2.886861083984375,-0.5117220264136791,0.7387596807181834,-0.7756400893479585
1789701074398883000,2.896883056640625,-0.534952679875493,0.7052309206038713,-0.7361059513390064
1789701074408904200,2.906904296875,-0.4467009804487228,0.6638128685444593,-0.7628314611792564
1789701074418925000,2.916925048828125,-0.31002514959275723,0.61828679664433,-0.8180249406129121
1789701074428946200,2.9269462890625,-0.16194237405955791,0.6185732123702764,-0.8970365180075168
1789701074438967300,2.93696728515625,-0.03527764960825443,0.655488107791543,-0.9516846385180949
1789701074448988200,2.94698828125,0.027604630762338638,0.6571557487428188,-1.079499117526412
1789701074459009300,2.95700927734375,0.03728548229932785,0.6460661994516849,-1.207789397352934
1789701074469031200,2.96703125,-0.03682458678930998,0.5554460173279047,-1.373037827220559
1789701074479052000,2.977052001953125,-0.10986147368848323,0.42987727141976356,-1.5367717608720064
1789701074489073200,2.9870732421875,-0.2432587212651968,0.3720785779237747,-1.6358891377061604
1789701074499094300,2.99709423828125,-0.4712444700747728,0.4509364260613918,-1.7355483663320541
1789701074509115100,3.007115234375,-0.6989420495927333,0.6696855599701405,-1.8439847756534813
1789701074519136300,3.01713623046875,-0.8382283552080393,1.0441337896347045,-1.8973375956565142
1789701074529157000,3.0271572265625,-0.879717718937993,1.5447726964980364,-1.8663456605434416
1789701074539179000,3.037178955078125,-0.871683173303306,2.0541981364071367,-1.717172751685977
1789701074549200100,3.0472001953125,-0.7965642194330692,2.4019810619860884,-1.5448556986063717
1789701074559221200,3.05722119140625,-0.6929331645667552,2.5864415573239325,-1.3722592440634964
1789701074569242000,3.0672421875,-0.6822972042620181,2.60306302177906,-1.1494932757288217
1789701074579263200,3.07726318359375,-0.8097364202171564,2.4807629222780463,-0.9628601125270128
1789701074589284000,3.0872841796875,-1.0089730444043874,2.266920265111327,-0.8664666076987981
1789701074599306000,3.097305908203125,-1.3350678697884082,2.0396464639633893,-0.8299082706302404
1789701074609327000,3.1073271484375,-1.6502102162644265,1.7495739690750836,-0.8376829962849617
1789701074619348000,3.117347900390625,-1.7910802839398383,1.473880712673068,-0.7852478756487369
1789701074629369300,3.127369384765625,-1.8767840524494648,1.10158469260633,-0.6762672764480113
1789701074639390200,3.13739013671875,-1.9932506234914062,0.6538192977964877,-0.665643006581068
1789701074649411300,3.147411376953125,-2.3206448410362004,0.18574352088570595,-0.7387947520315646
1789701074659432200,3.15743212890625,-2.7814371829405427,-0.23084406085014342,-0.7387795544624328
1789701074669454000,3.1674541015625,-3.1130285599142313,-0.5413251375168562,-0.6332780295491218
1789701074679475000,3.177474853515625,-3.212124309438467,-0.6759200704455375,-0.4341624013930559
1789701074689496000,3.18749609375,-3.1713992080792783,-0.7336825235843658,-0.21517770516276358
1789701074699517200,3.19751708984375,-3.0567221508026123,-0.7163128711104393,-0.09320435339808464
1789701074709538300,3.207538330078125,-2.9993098262757063,-0.6081079324573279,-0.03539396946430206
1789701074719559200,3.21755908203125,-3.011600275789201,-0.34106267741322516,0.016101824495196343
1789701074729581000,3.2275810546875,-2.816576885382831,0.06465338169634342,0.11915712530016899
1789701074739602200,3.237602294921875,-2.5048013849914073,0.5546849698275327,0.33681787945032116
1789701074749623000,3.247623046875,-2.6723358799695967,0.7478799757629633,0.8267308096379041
1789701074759643600,3.2576435546875,-2.977073736809194,0.17109540233016013,1.6402864958822727
1789701074769664500,3.26766455078125,-3.4438358007729053,-0.9976783279299736,2.744544207090139
1789701074779685400,3.277685302734375,-3.5050919412463903,-2.2172633770167827,3.9078111566275355
1789701074789706500,3.28770654296875,-1.9583675261586904,-3.220917272225022,4.377774354720115
1789701074799728400,3.297728271484375,0.6773714382976294,-3.838562263834476,4.129912523573637
1789701074809749500,3.30774951171875,3.00872062869966,-4.108803100049496,3.4759622928738594
1789701074819770600,3.3177705078125,3.9722693080127236,-4.1450387810349465,2.5133950258135793
1789701074829791500,3.32779150390625,3.801244048309326,-3.705146311557293,1.579389251849055
1789701074839812600,3.3378125,2.9389591102093457,-2.7093805392503736,0.5718576384246349
1789701074849833500,3.34783349609375,1.8189917886942624,-1.5802122586697338,-0.5747334861218929
1789701074859855400,3.35785546875,0.8873676491692661,-0.7033563589036465,-2.2259248223781585
1789701074869876500,3.36787646484375,0.6643047437146306,-0.3520809150338173,-4.335522189924121
1789701074879897600,3.377897705078125,1.098962235148251,-0.1763379791587591,-5.9358291421175
1789701074889918500,3.38791845703125,1.9920514768347144,-0.02049684458374977,-6.744800423181057
1789701074899939600,3.397939697265625,2.5676792814478278,0.15912556307315825,-6.650431117656827
1789701074909960400,3.40796044921875,2.7490941254794596,0.23102526263594625,-5.637042010375857
1789701074919981600,3.417981689453125,2.8678245498001576,0.1736941866517067,-3.9726714590728283
1789701074930003500,3.42800341796875,2.9313693857327103,-0.015738836401700974,-2.073683758121729
1789701074940024300,3.4380244140625,2.9350732086867093,-0.3509107022106647,-0.47130876748263834
1789701074950045700,3.448045654296875,2.871229097546637,-0.7347182963728904,0.6315355697959661
1789701074960066600,3.458066650390625,2.846724478626251,-1.0458984612196682,1.528193317618966
1789701074970087400,3.46808740234375,2.668756267917156,-1.2575994301825761,2.2691151448071003
1789701074980108500,3.478108642578125,2.2799008888460692,-1.338773738569021,2.8041671934038397
1789701074990129400,3.48812939453125,1.8456385342098771,-1.16061205111444,3.259640093851089
1789701075000151300,3.4981513671875,1.4075465382829309,-0.6235755507022142,3.508222055965662
1789701075010172400,3.50817236328125,1.016610991936922,0.20686463484764098,3.4571810200363395
1789701075020193500,3.518193603515625,0.6146762049317359,1.1008844353824854,3.1158290042877197
1789701075030214700,3.528214599609375,0.1880946140564978,1.8870032486468553,2.6383523618251083
1789701075040235500,3.538235595703125,-0.2061127935670316,2.3966478842645884,2.062313638323545
1789701075050256400,3.54825634765625,-0.7184335165262222,2.5808202103108164,1.3869687374174593
1789701075060278500,3.558278564453125,-1.0732298279985786,2.429018706515431,0.7341133162170648
1789701075070299400,3.56829931640625,-1.027617392989248,2.0499346337437627,0.20362463001310824
1789701075080320500,3.578320556640625,-0.7347310097239911,1.595838866868615,-0.13506605757176876
1789701075090341600,3.588341552734375,-0.2596247496545315,1.2095207511901855,-0.22686405130326748
1789701075100362500,3.598362548828125,0.43587095887660976,0.9039245239555835,-0.2947966008007526
1789701075110383600,3.608383544921875,1.031598133188486,0.7624117744624614,-0.38928222618103026
1789701075120404500,3.618404541015625,1.2536240968108177,0.7594733829230069,-0.45007074914276596
1789701075130426400,3.62842626953125,1.1090240488268435,0.8413660687118768,-0.4661608832001686
1789701075140447500,3.638447509765625,0.7332547266263514,0.9682523269593715,-0.4940355630755424
1789701075150468600,3.648468505859375,0.2667359698992222,1.07566056227684,-0.6576052460759878
1789701075160489500,3.658489501953125,-0.21700959676504133,1.1401350802749395,-0.8626724761128425
1789701075170510600,3.668510498046875,-0.5803086193731054,1.1901117018431424,-1.0932260295838117
1789701075180531500,3.678531494140625,-0.7486778481423855,1.2531862899154425,-1.1847346849799156
1789701075190553300,3.68855322265625,-0.8573287769973278,1.4030933582663536,-1.218488486021757
1789701075200574500,3.698574462890625,-0.9316238472640513,1.6106483134657144,-1.2144728206396103
1789701075210595300,3.70859521484375,-1.0473509981155396,1.770852903947234,-1.0177513941437006
1789701075220616700,3.71861669921875,-1.3534195190370082,1.9646610733449459,-0.857570769059658
1789701075230637600,3.728637451171875,-1.9942010560840366,2.0810212614029644,-0.6672241382926702
1789701075240658400,3.738658447265625,-2.851006685990095,1.910614425858855,-0.4609317503750324
1789701075250679600,3.748679443359375,-3.6030338445603847,1.4389075989693403,-0.10507073228061199
1789701075260701400,3.758701416015625,-3.9110488233745095,0.805147338861227,0.550566428592801
1789701075270722300,3.768722412109375,-3.7494162459164855,0.28512743970155713,1.5550322247058153
1789701075280743700,3.77874365234375,-3.246553817784786,0.0031856442987918854,2.575920163309574
1789701075290764500,3.7887646484375,-2.599777424237132,-0.03480184879004955,3.4491239703088996
1789701075300785700,3.79878564453125,-2.1322721406906844,0.22643676580190658,4.100677076739073
1789701075310806500,3.808806640625,-1.9296926358163355,0.8107990810126066,4.388905989587307
1789701075320828400,3.818828369140625,-1.7586790665507315,1.578749784901738,4.160982784619927
1789701075330849500,3.828849609375,-1.508918708306551,2.175065572756529,3.568123859220743
1789701075340870400,3.838870361328125,-1.214814108357951,2.393199789637327,2.8725369652748105
1789701075350891500,3.8488916015625,-0.7598305988628417,2.1292589303493497,2.0126187563061713
1789701075360912600,3.85891259765625,-0.18208266029059886,1.4902625231534241,1.1144967811495066
1789701075370933500,3.86893359375,0.33039106127321716,0.7892980278223752,0.4744651856869459
1789701075380954600,3.87895458984375,0.6683827337432652,0.1306768827021122,0.2366395953863859
1789701075390976500,3.8889765625,0.8453864102691412,-0.3597878361493349,0.495227987730503
1789701075400997400,3.898997314453125,0.737943688160181,-0.8623615104675293,1.3450596869707108
1789701075411018500,3.9090185546875,0.1234000966321677,-1.4214426694273947,2.7373896591603755
1789701075421039600,3.91903955078125,-0.8477244978278875,-1.8399696947932243,4.200791063395142
1789701075431060500,3.929060546875,-1.8722972624242304,-1.9083236845731735,5.345115996575355
1789701075441081600,3.93908154296875,-2.8605297166168686,-1.7948691548287867,6.195365044444799
1789701075451103500,3.949103515625,-3.5402374889075756,-1.7676608299076557,6.656648092475533
1789701075461124400,3.959124267578125,-3.599211655923724,-1.808994126293063,6.578646568906307
1789701075471145500,3.9691455078125,-3.2915801234692332,-1.79454591422379,6.005774785003066
1789701075481166600,3.97916650390625,-3.138467537075281,-1.4673358210742473,5.04855297062397
1789701075491187500,3.9891875,-3.071256872111559,-1.0428361510396003,3.6121710907399653
1789701075501208600,3.99920849609375,-2.8363024533331394,-1.0861369481056928,2.14453248732686
1789701075511229400,4.0092294921875,-2.294057862883806,-1.569711907443404,0.8273609242349863
1789701075521251300,4.019251220703125,-1.3549521354317664,-2.2907857093453408,-0.36889410266876216
1789701075531272400,4.0292724609375,-0.12608261371441185,-3.007155863600969,-1.360941146713495
1789701075541293300,4.039293212890625,1.2251777545273304,-3.6211452553123236,-1.9648001895546912
1789701075551314700,4.049314697265625,2.5052584811091423,-4.268340166532993,-2.3581986188828945
1789701075561335600,4.05933544921875,3.524111699014902,-4.756949612906575,-2.743655733817816
1789701075571356400,4.0693564453125,3.800181387513876,-4.989209385773539,-3.100829588076472
1789701075581378600,4.079378662109375,3.020011838042736,-5.044090730518103,-3.3396763381183145
1789701075591399400,4.0893994140625,1.8143220433175562,-4.844991468974948,-3.3408477199852467
1789701075601420300,4.099420166015625,0.8803902113720774,-4.364017632046342,-2.851567827004194
1789701075611441400,4.10944140625,0.48052813898772,-3.74685253290832,-2.202000925955176
1789701075621462500,4.119462646484375,0.604729980456829,-3.034220396137237,-1.5734768129348753
1789701075631483600,4.129483642578125,1.2377116574078797,-2.2517004841476678,-0.9599562077790498
1789701075641504500,4.13950439453125,2.08529090154618,-1.4443588501125573,-0.4489858765155077
1789701075651526400,4.1495263671875,2.8975992180779575,-0.6309142230272293,0.007181435936689376
1789701075661547500,4.159547607421875,3.53937122746706,0.15229308670461178,0.2161439198464155
1789701075671568400,4.169568359375,3.890775558413565,1.013296752822399,0.179435945174098
1789701075681589500,4.179589599609375,3.8944396338790654,1.7117378671556711,-0.10742694001793861
1789701075691610600,4.189610595703125,3.496934938275814,2.167757880091667,-0.5261690694391727
1789701075701631500,4.199631591796875,3.0342429002299904,2.3545073631495237,-0.8089391323596239
1789701075711653400,4.2096533203125,2.653401754657924,2.40104641148448,-0.9481453584760426
1789701075721674500,4.219674560546875,2.2799603639483452,2.3415941055625678,-1.1079612419009208
1789701075731695400,4.2296953125,1.9729314735621213,2.1680086399823426,-1.2830711405694484
1789701075741716500,4.239716552734375,1.8525322392463683,1.924572224062681,-1.5063918201774358
1789701075751737600,4.249737548828125,1.9088488774910568,1.6624696861177681,-1.6831442253559827
1789701075761758200,4.25975830078125,1.9984014303833244,1.369671565657854,-1.8414952969253062
1789701075771780400,4.2697802734375,2.08809748339951,1.1375123305559158,-1.9657710804134607
1789701075781801200,4.27980126953125,2.262712876549363,1.0666022265523671,-2.194034477120638
1789701075791822000,4.289822021484375,2.5509458810508248,1.166620936140418,-2.499113402482867
1789701075801843200,4.29984326171875,2.874684498697519,1.4866098458647727,-2.76293151217401
1789701075811864300,4.3098642578125,3.2415678460657595,1.9173738369911908,-3.007331804689765
1789701075821885400,4.319885498046875,3.5681530853152275,2.4369997683972118,-3.2193092525064944
1789701075831906300,4.32990625,3.7759067779570814,2.9603900207728144,-3.4779210257261988
1789701075841928200,4.33992822265625,3.8104502680718895,3.4158453855633732,-3.7474265334039925
1789701075851949300,4.34994921875,3.6105437817990778,3.797459269073605,-3.990023575890064
1789701075861970200,4.35997021484375,3.085485888472199,4.069533165934682,-4.199031652507186
1789701075871991300,4.3699912109375,2.2034160534501073,4.145620380315185,-4.291727471861243
1789701075882012400,4.380012451171875,1.1377122370421886,3.9718139654606577,-4.115966415807605
1789701075892033300,4.390033203125,-0.14420213470757007,3.4779742172181605,-3.6021576462477443
1789701075902055200,4.40005517578125,-1.7262743420302866,2.7091648506730794,-2.577484928408265
1789701075912076300,4.410076171875,-3.373014544096589,1.595335593521595,-0.8052747646331787
1789701075922097200,4.42009716796875,-4.6679058863192795,0.3482493740469217,2.0760721145629883
1789701075932118300,4.4301181640625,-5.23885634677112,-1.3830834204167126,4.838649990993738
1789701075942139400,4.440139404296875,-5.81229044073224,-3.8689667544484134,6.4431228306949135
1789701075952160300,4.45016015625,-6.583294686973095,-5.798194695362448,7.297819505622982
1789701075962181400,4.460181396484375,-6.641064154374599,-6.575907499331236,7.471808291307092
1789701075972203300,4.470203369140625,-5.835486607402562,-6.247338392788172,6.563828354480862
1789701075982224100,4.48022412109375,-4.438890209940076,-4.6909179285943505,4.8808875427424905
1789701075992245200,4.490245361328125,-2.912492543566227,-3.0322756918102503,2.708462255361676
1789701076002266000,4.50026611328125,-1.6495850701034067,-1.772792347577214,0.525480502653122
1789701076012287500,4.51028759765625,-0.8659636266127229,-0.49586920824348923,-1.4330857609480618
1789701076022308400,4.520308349609375,-0.8214385484486818,0.882377293536067,-3.059011138522625
1789701076032330200,4.530330322265625,-1.2677011374801397,2.0669494814306497,-4.164604482248425
1789701076042351400,4.540351318359375,-1.993111215020716,2.253563355410099,-4.241445145344734
1789701076052372200,4.550372314453125,-1.9179677112311124,0.5629214677751064,-2.7217349939107893
1789701076062393000,4.56039306640625,1.0370137284964323,-2.8086715190857645,-1.0310808313161135
1789701076072414200,4.570414306640625,4.605867071035504,-6.077745796236395,-0.32858488863408564
1789701076082435300,4.580435302734375,5.201102077916264,-7.708024692845344,-0.02518938631415367
1789701076092456400,4.59045654296875,2.0301681492611765,-7.669895160937309,0.6483481729090214
1789701076102478300,4.600478271484375,-0.4307365185976028,-6.1140837685525415,0.924559900227189
1789701076112499200,4.610499267578125,-0.3610644319564104,-4.0506957789957525,0.2793342432528734
1789701076122520300,4.620520263671875,-0.20248393554538488,-2.267337613740563,-1.1635732390075921
1789701076132541200,4.630541259765625,0.7833034635826945,-0.6947130337208509,-3.573241932886839
1789701076142562300,4.640562255859375,3.586713993400335,0.2356330486923456,-5.2428942239850755
1789701076152583400,4.65058349609375,5.808063178426027,0.3205132258594036,-5.838934702029824
1789701076162605300,4.660605224609375,6.370824487203359,-0.3734901982873678,-5.587254189378023
1789701076172626200,4.670626220703125,6.381607747024297,-0.7950830409646034,-3.764073716822266
1789701076182647300,4.680647216796875,6.247496213698387,-1.0447142198711632,-0.93593469620049
1789701076192668200,4.690668212890625,6.158672267341613,-1.3910177205473184,1.179584462609887
1789701076202689300,4.700689208984375,5.811488476699591,-1.3583739265739916,2.9652935749053952
1789701076212710400,4.71071044921875,5.373554740074277,-1.1048977626770735,4.149170766273141
1789701076222732300,4.720732177734375,4.747513968302309,-0.4645400040000677,5.278255460223555
1789701076232753200,4.730753173828125,3.394484325365722,0.6490139433413744,6.76008800868392
1789701076242774300,4.740774169921875,1.3572962143398821,2.1690520115554333,8.071962634411454
1789701076252795100,4.750795166015625,-0.9736284670397639,3.633392157945037,7.661508440864086
1789701076262816300,4.760816162109375,-2.9229987400114537,4.197023235294223,5.158609090101718
1789701076272837000,4.770837158203125,-3.5323674861848353,3.675419281813502,2.296985733029246
1789701076282858500,4.7808583984375,-2.835957585418224,3.053805386573076,0.20519290224313735
1789701076292880400,4.79088037109375,-1.7892882859565316,2.5600837117522954,-1.2444745756715536
1789701076302901200,4.8009013671875,-0.9077541652463376,1.9659949522972107,-2.3107991543263195
1789701076312922000,4.810922119140625,-0.20654782398343086,1.3966753079175949,-2.943039657521248
1789701076322943200,4.820943115234375,0.21495332182236015,0.7178261982828378,-3.1747558250308034
1789701076332964000,4.830964111328125,0.3793139360047877,0.05253507387936115,-3.0095740306586025
1789701076342985500,4.8409853515625,0.6631751551628112,-0.5433037441134453,-2.821210682663321
1789701076353007400,4.85100732421875,1.0128571923613547,-0.9873252762198448,-2.572520583999157
1789701076363028200,4.8610283203125,1.3589713079452514,-1.1624071178376674,-2.40009480984807
1789701076373049300,4.87104931640625,1.714298657554388,-1.0935784962832926,-2.277783604431152
1789701076383070200,4.8810703125,1.9669068064451216,-0.8921990148484706,-2.140778687751293
1789701076393091300,4.89109130859375,1.9182488662600516,-0.548951394611597,-2.1297627882182595
1789701076403112200,4.9011123046875,1.3154396247327327,-0.042162148424983024,-2.016243376544118
1789701076413133300,4.91113330078125,0.1809387874851003,0.5341068767011166,-1.928960814410448
1789701076423155200,4.9211552734375,-1.1925228546380997,1.0975322023451328,-1.6646388468503952
1789701076433176300,4.93117626953125,-2.594973238825798,1.3521645505398512,-1.0526590413957833
1789701076443197200,4.941197265625,-4.000286611229181,1.3297598265081643,-0.20646891352832317
1789701076453218300,4.95121826171875,-4.97607810152173,1.3824644117355347,0.34869711781442164
1789701076463239200,4.9612392578125,-4.756594223597645,1.6315023009240626,0.4379132783591747
1789701076473260300,4.97126025390625,-3.406071595045924,1.9181150107473133,0.495949872264266
1789701076483282400,4.981282470703125,-1.539942792123556,2.055987942433357,0.9625041386961937
1789701076493303300,4.99130322265625,0.31143034021556376,2.1447055058062077,1.7298036852002143
1789701076503324200,5.00132421875,1.621059232842922,2.257912782791257,2.617493698191643
1789701076513345300,5.01134521484375,2.150328021863103,2.330970420217514,3.4759815820962188
1789701076523366100,5.0213662109375,1.7351953151106834,2.3561112912148237,4.293329646360874
1789701076533387300,5.03138720703125,0.3416307961573824,2.355196514457464,4.872209730768203
1789701076543409400,5.041409423828125,-1.4857938533067703,2.146411725202203,4.696169857773184
1789701076553430300,5.05143017578125,-3.145714439463615,1.559877911171317,3.81330331941545
1789701076563451400,5.061451416015625,-3.901197291445732,0.879589124122262,2.9462130268603564
1789701076573472300,5.07147216796875,-3.713766255864501,0.4343184687376022,2.401206570482254
1789701076583493000,5.0814931640625,-3.018403818324208,0.2993681464999914,2.243636420157552
1789701076593514200,5.09151416015625,-2.1969915733605623,0.31429391295313835,2.3022791632622477
1789701076603535000,5.10153515625,-1.4739754052191971,0.38473756848871704,2.3582944804728028
1789701076613557200,5.11155712890625,-0.9079092827428131,0.37926936621069907,2.6268951482653615
1789701076623578400,5.121578369140625,-0.8576467569053172,0.05709609818458557,3.3668098442375656
1789701076633599200,5.13159912109375,-1.1618635124802588,-0.4930816233515739,4.436142957058549
1789701076643620400,5.141620361328125,-1.2651105364650488,-0.8976800766080617,5.386052987119555
1789701076653641200,5.15164111328125,-1.4056424582272766,-1.0847498776614666,5.942008123013377
1789701076663662000,5.161662109375,-1.7026164030671118,-1.149602581322193,6.042454118102788
1789701076673684500,5.1716845703125,-2.2206074267476796,-1.1352736117184161,5.880089719238877
1789701076683705300,5.181705322265625,-2.797840912991762,-1.0431342572033404,5.408752894705533
1789701076693726200,5.191726318359375,-3.411908630636334,-0.8388269056230783,4.468635359862446
1789701076703747300,5.201747314453125,-3.8541362650632855,-0.7987012314617633,3.100824327379465
1789701076713768200,5.211768310546875,-3.7221716806381937,-1.2515566428869962,1.551502297013998
1789701076723789300,5.221789306640625,-2.673496740442514,-2.090342047455907,0.06666530604064465
1789701076733811500,5.2318115234375,-1.0143208351731299,-2.9356191521316766,-0.9756932906150817
1789701076743832300,5.241832275390625,0.9237502643447368,-3.645799219575524,-1.5443717144817113
1789701076753853400,5.251853515625,2.803524803847074,-4.179306961339712,-1.6631985849142075
1789701076763874800,5.261874755859375,4.192784867072105,-4.640848368045687,-1.5224761090159415
1789701076773895700,5.271895751953125,4.8140448343083255,-4.987898887696862,-1.4927975945889949
1789701076783916800,5.281916748046875,4.455532132661342,-5.323785039255022,-1.883797730603814
1789701076793937700,5.291937744140625,3.0363457177281377,-5.607227886870503,-2.478678517219424
1789701076803959600,5.30195947265625,1.047185870681703,-5.550158676692843,-2.6655940044939515
1789701076813980700,5.311980712890625,-0.5630898100793361,-4.987428932097554,-2.398781973683834
1789701076824001500,5.32200146484375,-1.0970704300522804,-4.21181748432219,-2.0718132880747318
1789701076834022700,5.332022705078125,-0.5368576367139816,-3.4285938079774376,-1.7649655994743108
1789701076844043800,5.342043701171875,0.5004392926380038,-2.581201903104782,-1.5171978763520717
1789701076854064600,5.352064697265625,1.6277631143957376,-1.6454700360000132,-1.2352934903502464
1789701076864086500,5.36208642578125,2.6426100192695854,-0.7204857728809118,-0.9791659351617097
1789701076874107600,5.372107666015625,3.243276695810258,0.11793839716017246,-0.8595943838417529
1789701076884128500,5.38212841796875,3.6621713854447004,0.8831132065951823,-0.8892302281707525
1789701076894149600,5.392149658203125,3.849392869928479,1.599583898615837,-0.9433750753343105
1789701076904170800,5.402170654296875,3.697650402843952,2.178746307095885,-1.0109867223143576
1789701076914191600,5.412191650390625,3.316812764403224,2.6733231374412774,-0.8193073816388845
1789701076924212700,5.422212646484375,2.963263530382514,3.0138772808104752,-0.5550134711295366
1789701076934234600,5.432234619140625,2.7001886402741073,3.1296225518405434,-0.4467798909038305
1789701076944255500,5.44225537109375,2.6532231832206246,3.004260142159462,-0.5642652835994959
1789701076954276600,5.452276611328125,2.798281057974696,2.6652999899834393,-0.9201619575291872
1789701076964297500,5.46229736328125,2.9159973368167877,2.2213643825948237,-1.424536543789506
1789701076974318800,5.47231884765625,3.031837884914875,1.8257780878335237,-1.9717355417758224
1789701076984339700,5.482339599609375,3.2322803777605293,1.585780998712778,-2.4338170467078686
1789701076994361600,5.492361572265625,3.408999465191364,1.5795079097926616,-2.7275702759355305
1789701077004382700,5.5023828125,3.564197625687718,1.7907897765606642,-2.936435144689679
1789701077014403600,5.512403564453125,3.681031276476383,2.111748408100009,-3.1604087352484465
1789701077024424400,5.522424560546875,3.82257208302021,2.4492034164100884,-3.4092058014184237
1789701077034445800,5.53244580078125,3.7826457308232784,2.7217887699246406,-3.755191906708479
1789701077044466700,5.542466796875,3.460323409715295,2.9752479826867577,-4.090819115069508
1789701077054488600,5.552488525390625,2.8421564400583503,3.2065392027825115,-4.278313863536715
1789701077064509700,5.562509765625,1.7950109013870357,3.3971915384978053,-4.324040426445007
1789701077074530600,5.572530517578125,0.3930366102784872,3.527257595825195,-4.252498454278707
1789701077084551700,5.5825517578125,-0.9584121932074428,3.509422663927078,-4.026148782238364
1789701077094572500,5.592572509765625,-2.136447965070605,3.2754473193138836,-3.5001416253626343
1789701077104593700,5.60259375,-3.1609920880943534,2.7905770594686268,-2.481474285417795
1789701077114614800,5.61261474609375,-3.857494343319535,1.9472218627661466,-0.36032150463461876
1789701077124636700,5.62263671875,-4.444237416186929,0.7794751374661922,3.239845844578743
1789701077134657500,5.632657470703125,-4.7765685056120155,-1.5801526374369859,6.157044958400726
1789701077144678700,5.6426787109375,-5.439306438401341,-4.607372214901447,6.97124303420186
1789701077154699500,5.652699462890625,-6.235658476388454,-6.445104359900951,6.705248164993524
1789701077164720600,5.662720703125,-6.096257604482769,-6.59801762433052,5.614270206597447
1789701077174741800,5.67274169921875,-5.082155380496382,-4.577133143982291,3.9169992562115192
1789701077184763600,5.682763671875,-3.467312537950277,-1.6912503749221561,2.232193819645047
1789701077194784800,5.69278466796875,-1.8547028612837195,0.26680969272255894,0.5408429069578647
1789701077204805600,5.7028056640625,-0.784820590147376,1.5459972698569298,-0.9830424843341111
1789701077214826500,5.712826416015625,-1.275761109817028,2.405817279148102,-2.284225620177388
1789701077224847600,5.72284765625,-2.7934219275057313,2.344579258853197,-3.099028091612458
1789701077234868700,5.73286865234375,-4.320075614467263,0.22280805391073225,-1.9466461087048053
1789701077244890600,5.742890625,-2.455416299575567,-3.447003324893117,1.168607141521573
1789701077254911700,5.752911865234375,3.0986314935103056,-6.889876418113708,2.671297184571624
1789701077264932600,5.7629326171875,6.949034709525108,-8.851011070898174,2.2716396948486564
1789701077274953700,5.77295361328125,6.663962214881181,-9.787406370347737,1.7054577639728783
1789701077284974600,5.782974609375,4.196201689778268,-9.322233913663029,1.3343547530829907
1789701077294995500,5.792995361328125,1.101634669227898,-7.313995564398169,1.5159136817604302
1789701077305016800,5.803016845703125,-1.9580688354730604,-4.303209235340357,1.0731734216362236
1789701077315038700,5.813038818359375,-1.6800892216995358,-1.8273972134679555,-1.4805278956025838
1789701077325059600,5.8230595703125,2.334237897580862,-0.5895873563826084,-4.492953224039078
1789701077335080700,5.833080810546875,5.12761072524786,0.18026479721367358,-5.934236319968104
1789701077345101600,5.8431015625,6.021834523922204,0.5896499002248048,-6.638131608054041
1789701077355122700,5.853122802734375,6.384558413523435,0.4372071759164333,-6.472308593168854
1789701077365143600,5.8631435546875,6.256264042043686,-0.13328794198334215,-4.9596273174583905
1789701077375165700,5.873165771484375,6.080783556497097,-0.7094657816946506,-2.6635429171830416
1789701077385186600,5.8831865234375,6.03327595539093,-1.0940583887547255,-0.4784995557695627
1789701077395207700,5.893207763671875,5.8333355668485165,-1.1219441745460033,1.5855881064891815
1789701077405228500,5.903228515625,5.144958165889978,-0.7251987728774547,3.6680402774780987
1789701077415249700,5.913249755859375,4.15930842166692,0.01976736126542091,5.592055452179909
1789701077425270500,5.9232705078125,2.9463436675027013,0.9714595985680818,7.146007480433583
1789701077435292700,5.933292724609375,1.581724416798353,2.174640040820837,7.9477447185903785
1789701077445313800,5.943313720703125,-0.12820552415251732,3.2947838879466054,7.099153959321975
1789701077455334700,5.953334716796875,-1.8531100391343236,3.8417654437899587,5.021799988254904
1789701077465355500,5.96335546875,-2.4824282251417635,3.593450023657083,2.536486563065648
1789701077475376600,5.973376708984375,-2.0460216980837282,2.923679123491049,0.20543781691491603
1789701077485397500,5.9833974609375,-1.3832650605939327,2.212286757647991,-1.2936059785872698
1789701077495419600,5.993419677734375,-0.8869242893159389,1.7724048095643519,-1.9543506917327642
1789701077505440800,6.003440673828125,-0.4952244805991649,1.4362924480348824,-2.1026666914999486
1789701077515461600,6.013461669921875,-0.24454043163880704,1.0227660074353218,-1.9456740488022564
1789701077525482800,6.023482666015625,0.042145270355418325,0.4692231933802366,-1.7304969281613827
1789701077535503600,6.033503662109375,0.5491420218128711,-0.2862380312919616,-1.625990259504318
1789701077545524500,6.0435244140625,1.0719909338533877,-0.9325023836642503,-1.5737211430847644
1789701077555547000,6.053546875,1.5393582702338695,-1.2040490417808294,-1.5677484984159469
1789701077565567700,6.063567626953125,1.9390788883209227,-1.1854109768062828,-1.9208862290263176
1789701077575588600,6.073588623046875,2.1383996836602686,-0.9691296943157911,-2.26555306841135
1789701077585609700,6.083609619140625,2.0017701761640607,-0.5743833575099706,-2.4975924765259028
1789701077595630600,6.093630615234375,1.4212733042098582,-0.03650806818604469,-2.549585114091635
1789701077605651700,6.103651611328125,0.35454299429841335,0.6643699179053306,-2.2861884446829555
1789701077615672600,6.113672607421875,-0.9809832137167454,1.4511188457667827,-1.6509668798506258
1789701077625694700,6.12369482421875,-2.1500269930899143,1.912431119892001,-0.6732844612449407
1789701077635715800,6.1337158203125,-3.1197225045949217,2.07828803704679,0.3956505921691656
1789701077645736700,6.14373681640625,-3.887047185540199,2.142263373351097,1.0919091017663478
1789701077655757600,6.153757568359375,-4.304724316078424,2.1807325124770403,1.207837328147888
1789701077665778700,6.16377880859375,-4.013495636892318,2.06417007984519,1.1068763692736625
1789701077675799600,6.173799560546875,-3.034953971108794,1.6784055063962935,1.2149644035488367
1789701077685821400,6.183821533203125,-1.7892723577350378,1.154089955869317,1.4480723176777361
1789701077695842800,6.1938427734375,-0.6177081199735402,0.6205103179126977,1.7741344098359346
1789701077705863700,6.20386376953125,0.06385843192636967,0.11318623419702052,2.2392501678973433
1789701077715884800,6.213884765625,0.15608904492147266,-0.2121095497637987,2.5244939274549485
1789701077725905700,6.22390576171875,-0.3312071268964559,-0.2537719319730997,2.3989766194730997
1789701077735926500,6.233926513671875,-1.1938836946625262,0.04651859006881714,2.1236270619422197
1789701077745948700,6.24394873046875,-1.7800953640669583,0.5390227057933807,2.0588573603898284
1789701077755969300,6.25396923828125,-1.8984312361121176,1.1998743864446877,2.351533315774798
1789701077765990100,6.263990234375,-1.7877233747273682,1.8714210641115903,2.9258067831695076
1789701077776011500,6.274011474609375,-1.6218588587880134,2.233354095596075,3.5148861900299786
1789701077786032400,6.284032470703125,-1.3490852892249823,2.2246429658740756,3.9658039113909003
1789701077796053500,6.294053466796875,-0.8871330366957932,1.9995517694622278,4.10510073840022
1789701077806075400,6.304075439453125,-0.44227856089659034,1.60026837374866,3.8208682017117734
1789701077816096300,6.31409619140625,-0.3845867618411779,1.1086381182491778,3.4591017589658497
1789701077826117400,6.324117431640625,-0.9146206169497221,0.5224485876113176,3.4705607260912656
1789701077836138200,6.33413818359375,-1.585350206080079,-0.022447394129633903,3.82288889388442
1789701077846159400,6.344159423828125,-1.9756167671233416,-0.26715397611558434,4.184820756325125
1789701077856180500,6.354180419921875,-2.021615717232227,-0.2873018611311912,4.263890201386809
1789701077866201300,6.364201416015625,-1.9533236867725847,-0.25961130565106866,4.135485355269909
1789701077876223200,6.37422314453125,-1.903147158718109,-0.2607289115041494,3.9190836612701414
1789701077886244400,6.384244384765625,-1.7592121505141258,-0.3298065393835306,3.6737317671179768
1789701077896265200,6.39426513671875,-1.9526450568586586,-0.5951783082574605,3.5172102490633725
1789701077906286600,6.40428662109375,-2.4549644641548394,-1.1677367884278296,3.233941004449129
1789701077916307500,6.414307373046875,-2.445163785630464,-2.1560762101262805,2.430470074367523
1789701077926328300,6.424328369140625,-1.5912532926440237,-3.412050084933638,1.3236363751918077
1789701077936350500,6.4343505859375,-0.0022142419833689926,-4.632520100161433,0.4615338079214096
1789701077946371300,6.444371337890625,1.7160358566105365,-5.7834249962538475,-0.14689210444390774
1789701077956392200,6.45439208984375,2.918087587094307,-6.6911822302401065,-0.7080880636006593
1789701077966413300,6.464413330078125,3.3894156437993046,-7.2371683453053235,-1.3937117819368838
1789701077976434400,6.474434326171875,2.9588404532432553,-7.481814137014746,-2.192745606353879
1789701077986455600,6.48445556640625,1.7169452265404164,-7.2290171875536435,-2.872517676052451
1789701077996477400,6.4944775390625,0.42860885891914363,-6.223159644821286,-3.1628812628418204
1789701078006498300,6.504498291015625,-0.4165703383401036,-4.964657712841034,-3.133288673132658
1789701078016519400,6.51451953125,-0.712117172986269,-3.79827116997838,-2.9772213285863396
1789701078026540300,6.524540283203125,-0.30872575743198394,-2.7477760286182162,-2.8597271680623293
1789701078036561200,6.53456103515625,0.5297402059242129,-1.78503457403481,-2.790783980217576
1789701078046582500,6.54458251953125,1.4448305592775343,-0.8780693672090768,-2.605252640777826
1789701078056604400,6.5546044921875,2.2421014656752347,0.01003039562702179,-2.242050612270832
1789701078066625300,6.564625244140625,3.032045974707603,0.8114923239737749,-1.813002192890644
1789701078076646400,6.574646484375,3.745645202945173,1.5024801996916533,-1.40160808814466
1789701078086667300,6.584667236328125,4.13579018343538,2.0110019687592984,-1.1108879430025815
1789701078096688400,6.5946884765625,4.048533340264856,2.4664865596443413,-0.6864402954161166
1789701078106709200,6.604709228515625,3.4925247206181287,2.941742603448033,-0.2517266898810863
1789701078116730400,6.61473046875,2.792915147027373,3.278534763935208,0.046724341773986815
1789701078126752300,6.624752197265625,2.3128438118964434,3.39136385525763,0.1104816514134407
1789701078136773400,6.6347734375,2.1180150672793387,3.3729216051161286,-0.022121815437078474
1789701078146794200,6.644794189453125,2.2043235236838457,3.186487179356813,-0.48495501551926135
1789701078156815400,6.6548154296875,2.493007779084146,2.9036580797255036,-1.2459914099752902
1789701078166836200,6.664836181640625,2.8234242670595644,2.6643524800002574,-1.950536686402559
1789701078176857300,6.674857421875,3.046918549668789,2.533133160984516,-2.4525737696260212
1789701078186879500,6.68487939453125,3.2043069136857985,2.457682490941882,-2.8207851507276294
1789701078196900400,6.694900390625,3.3795296250790354,2.443920507571101,-3.0682711342990396
1789701078206921200,6.704921142578125,3.5381668201133607,2.468999419248104,-3.255605139246583
1789701078216942300,6.7149423828125,3.5349361676290627,2.624913619059324,-3.439546579146385
1789701078226963200,6.724963134765625,3.3704534614369273,2.8840935475558043,-3.509067859140038
1789701078236984300,6.734984375,2.970257334792614,3.1620687774151564,-3.54748380677402
1789701078247006500,6.74500634765625,2.261231698080897,3.381597079002857,-3.596134148174524
1789701078257027300,6.75502734375,1.184873801189661,3.480522148135304,-3.6572289606064556
1789701078267048400,6.76504833984375,-0.24584347706139087,3.4112603958606718,-3.6513995238006114
1789701078277069300,6.7750693359375,-2.162428209501505,3.199462980785966,-3.4139819297790526
1789701078287090200,6.785090087890625,-3.9832179875284432,2.642163444545865,-2.7097856129199265
1789701078297111300,6.795111328125,-5.02182746078372,1.7453513829439877,-0.9756669871300458
1789701078307133400,6.805133544921875,-5.291362779077887,0.5331763178527354,1.825749446260929
1789701078317154300,6.815154296875,-5.417576252630353,-1.3261129944384098,4.379613260585069
1789701078327175400,6.825175537109375,-6.112226157987117,-3.4374715264379976,6.228581085348129
1789701078337196300,6.8351962890625,-6.406850909352302,-4.927947984603047,7.547651760059595
1789701078347217400,6.845217529296875,-5.281072271209955,-5.492649321532249,7.849182053029537
1789701078357238300,6.85523828125,-4.201952216129005,-4.944401691275835,6.574331043794751
1789701078367260400,6.865260498046875,-3.197131907489896,-3.0100030697256326,4.256978230041265
1789701078377281500,6.875281494140625,-1.676681166821718,-1.2059206808716059,1.9102303949773312
1789701078387302400,6.885302490234375,-0.3630652503848076,0.13952595959007738,-0.12051964582502842
1789701078397323300,6.8953232421875,0.14775018257796763,1.3146639641851185,-1.8897306277841328
1789701078407344400,6.905344482421875,-0.3976169238060713,2.251601699948311,-3.4433839653521776
1789701078417365200,6.915365234375,-1.6167226649433373,2.41596574819684,-4.414558317238092
1789701078427387400,6.925387451171875,-1.4575772281259298,0.3775672384679317,-3.9152959594249723
1789701078437408500,6.935408447265625,1.6864888596087693,-3.0814135244667527,-1.8946137236505747
1789701078447429400,6.945429443359375,5.866218430274724,-5.987797229763865,-0.23534254131317137
1789701078457450500,6.955450439453125,8.036589123213291,-7.674753706884384,-0.21654256377518175
1789701078467471400,6.965471435546875,6.476001017946005,-8.841623649349808,-0.22730010463297365
1789701078477492200,6.9754921875,2.4926228714197873,-9.158151020443439,0.24456746577620506
1789701078487513300,6.985513427734375,-2.468906188006699,-8.227168978214264,0.7742039190649986
1789701078497535500,6.995535400390625,-4.144865470294654,-6.3405205343544475,-0.13254910631477831
1789701078507556400,7.005556396484375,-1.359680625258386,-4.442551070535183,-2.331998009699583
1789701078517577500,7.015577392578125,3.7199431909337637,-2.81942321472466,-4.436641554230452
1789701078527598300,7.025598388671875,6.867485722607374,-1.5352029041200876,-5.540433401492238
1789701078537619500,7.035619384765625,7.716455836582184,-0.535663458493352,-5.505135878139734
1789701078547640300,7.045640380859375,7.816707185882329,-0.08303308799564837,-4.135936606168746
1789701078557662200,7.055662109375,7.406486216568946,-0.10663783546686172,-2.1206167742103337
1789701078567683600,7.06568359375,6.610600627049803,-0.20244389579594135,-0.3805576524555683
1789701078577704400,7.075704345703125,5.483737700802087,-0.1885030487269163,1.1364350567132233
1789701078587725300,7.085725341796875,4.405075034099817,-0.03890577697753906,2.3742507590174675
1789701078597746400,7.095746337890625,3.5623712870433923,0.5198579865962266,3.642181029078364
1789701078607767300,7.105767333984375,2.6960592853844165,1.3312287300169467,5.167551690492034
1789701078617789200,7.1157890625,1.804275573338568,2.3259897091954946,6.712812462767959
1789701078627810600,7.125810546875,0.8239211590446531,3.3387755898863074,7.337587452387809
1789701078637831400,7.13583154296875,-0.6847849294245243,3.9825913800626993,6.418972724300622
1789701078647852500,7.1458525390625,-1.965613844025135,4.072246516546607,4.572627649256587
1789701078657873400,7.155873291015625,-2.1192587837301193,3.825783446282148,2.5863690766096115
1789701078667894300,7.165894287109375,-1.5253342749260366,3.480671785739064,0.9067612086862326
1789701078677916400,7.17591650390625,-0.8251660445392132,3.068360566148162,-0.3931219504743814
1789701078687937300,7.185937255859375,-0.5271626105211675,2.6688363474160433,-1.251668871089816
1789701078697958400,7.19595849609375,-0.6409867042303085,2.0768921987742184,-1.8675047674506902
1789701078707979500,7.2059794921875,-0.7121217760961502,1.15559509973526,-2.3610312119603156
1789701078718000400,7.21600048828125,-0.7627765161216259,0.09800853880941868,-2.7302538159310816
1789701078728021500,7.226021484375,-0.5817302131414414,-0.8849959516018628,-2.944055556565523
1789701078738043400,7.23604345703125,0.12632109864540397,-1.6244231563180684,-3.1535914564490315
1789701078748064300,7.246064208984375,1.1174889487028121,-1.9397861598074435,-3.354218658211827
1789701078758086000,7.2560859375,2.0530665020287038,-1.9251351186424492,-3.3297429731249806
1789701078768107000,7.26610693359375,2.6119886710345743,-1.652455072581768,-3.3096360046416518
1789701078778128000,7.2761279296875,2.639507961601019,-1.1501204677164554,-3.124050889188051
1789701078788149000,7.28614892578125,1.991255650281906,-0.5032593184947968,-2.899799066209793
1789701078798171100,7.296171142578125,0.6890238821685314,0.3692033147484064,-2.610357270440459
1789701078808192000,7.30619189453125,-0.8141261796087026,1.2662258042305707,-1.8075351596564053
1789701078818212900,7.316212890625,-2.4466648378431795,1.8254028247803449,-0.3472445809185505
1789701078828234000,7.32623388671875,-4.310952981334925,2.2072522706121207,1.1713666693627833
1789701078838254800,7.3362548828125,-5.7323570723176,2.603147192931175,2.263928682079911
1789701078848276000,7.34627587890625,-5.9142848343074315,2.8781027827084062,2.7735458451688286
1789701078858298000,7.356298095703125,-4.743395134806633,2.8827421329468486,3.003814151957631
1789701078868319000,7.366319091796875,-2.9776188034713265,2.751027139368653,3.3169664936602112
1789701078878340000,7.376340087890625,-1.2636837185323238,2.573338914644718,3.814139770239591
1789701078888361000,7.38636083984375,-0.16826456281840801,2.4111855281829833,4.3838416919350625
1789701078898381800,7.3963818359375,-0.018033596275374292,2.242432889586687,4.776348140859604
1789701078908403000,7.40640283203125,-0.7671060697585343,2.136246305018663,4.744629060515761
1789701078918425000,7.416425048828125,-1.7828502157330512,1.9413135155051946,4.406345784687995
1789701078928446000,7.426446044921875,-2.425266660505533,1.7179665324121713,4.126874178791046
1789701078938467000,7.436467041015625,-2.451878773099184,1.5234177737802266,4.090665970334411
1789701078948488000,7.446488037109375,-2.0562515618056056,1.3198270460367203,4.084826596656441
1789701078958509000,7.456509033203125,-1.6312176387637853,1.121262037500739,3.8722739793002603
1789701078968530000,7.466530029296875,-1.26010995169878,0.8687561799407005,3.357418915557861
1789701078978552000,7.476552001953125,-1.0542033482283353,0.5449655398458242,2.9179478863626716
1789701078988573200,7.4865732421875,-1.2274608970284462,-0.08057108179628848,3.1255922734111548
1789701078998594000,7.496593994140625,-1.585253175446391,-0.877742619472742,3.9679689804702996
1789701079008615000,7.506614990234375,-1.4478519529253244,-1.2800018161267042,4.6952819690227505
1789701079018636000,7.516635986328125,-1.0990677413493395,-1.3591618620812893,4.95175789925754
1789701079028657000,7.526656982421875,-0.9793325239002704,-1.4616355636060236,4.926866619107127
1789701079038678800,7.5366787109375,-1.0585182157527655,-1.5705015965163707,4.643403313225507
1789701079048700200,7.5467001953125,-1.179976019210741,-1.659723017758131,4.198603197962045
1789701079058721000,7.556720947265625,-1.5365584103822707,-1.7759020040303468,3.6306045730531213
1789701079068742100,7.5667421875,-2.123624139332771,-2.2855916478335856,2.881533341678977
1789701079078763000,7.576762939453125,-2.2370850988179445,-3.4304198543608186,1.5009662879973649
1789701079088784000,7.586783935546875,-1.436705705010891,-4.552715326562524,-0.15092179835140704
1789701079098806000,7.596805908203125,0.18387542545888572,-5.3546232451111075,-1.393814073267579
1789701079108827000,7.606826904296875,1.9636101029872892,-6.031645723840594,-2.1838912687689063
1789701079118848000,7.616847900390625,3.2211832296848297,-6.6750581939131015,-2.6379519643306732
1789701079128869000,7.626869140625,3.6485236761033533,-7.127150219750404,-3.0810324161946774
1789701079138890000,7.636889892578125,3.3690392107248304,-7.473319864913821,-3.7319437175899743
1789701079148911000,7.6469111328125,2.361266335890442,-7.679011948850751,-4.5168344503641125
1789701079158933000,7.65693310546875,0.975041110316664,-7.375872467118501,-4.765422842219472
1789701079168953900,7.666953857421875,-0.07750058830976486,-6.389218222028017,-4.26470970107615
1789701079178975000,7.67697509765625,-0.3917404329881072,-5.115881124487519,-3.531274430251121
1789701079188996000,7.68699609375,0.07542085942625999,-3.7534734123528,-2.8924364284873008
1789701079199017000,7.697016845703125,0.9578735562860965,-2.525768185174465,-2.309683302038908
1789701079209038000,7.7070380859375,2.037294640140235,-1.4483511346191167,-1.7295044099926948
1789701079219060000,7.71706005859375,3.135892133629322,-0.29778935287594793,-1.0813158115595578
1789701079229080800,7.727080810546875,4.013160121327639,0.9221458248227834,-0.41200843725204467
1789701079239102000,7.73710205078125,4.397380972465872,1.95262401407063,0.07071604273617267
1789701079249123000,7.747123046875,4.228535979411006,2.7928233770906923,0.27260347369313237
1789701079259144200,7.757144287109375,3.8283594342499967,3.4575872627496715,0.37793724082410335
1789701079269165000,7.7671650390625,3.3949358685255047,3.9138329011350868,0.42104982184171674
1789701079279187000,7.77718701171875,2.931142298978567,4.278084146434068,0.6945826853394508
1789701079289207800,7.787207763671875,2.7095880445212126,4.4222558860033745,0.8106693171530962
1789701079299229000,7.79722900390625,2.7335890978336335,4.269125763952732,0.6388841789931059
1789701079309249800,7.807249755859375,2.9793133324295282,3.9179274769723413,0.17044249137938022
1789701079319271200,7.817271240234375,3.2485575588226316,3.449554178419709,-0.595759323015809
1789701079329292000,7.8272919921875,3.416412956318259,2.9696441713303328,-1.5615595806479454
1789701079339313200,7.837313232421875,3.655963470715284,2.6379922963410616,-2.3961107086479663
1789701079349335000,7.8473349609375,3.8302006782025098,2.469243164876103,-3.0639672996252774
1789701079359356000,7.85735595703125,3.8756490086913105,2.3986983870536087,-3.6059172910422084
1789701079369377000,7.867376953125,3.83780939964056,2.4388579634845255,-4.000211792427301
1789701079379398000,7.87739794921875,3.733932261058688,2.5882769560575483,-4.2544922584444285
1789701079389419000,7.8874189453125,3.4924592541664836,2.804507969665527,-4.397075852039456
1789701079399441000,7.89744091796875,3.0180314778804775,3.0156694249242544,-4.505680603665113
1789701079409462000,7.9074619140625,2.2345091108500954,3.252610049083829,-4.489057385644316
1789701079419483000,7.91748291015625,1.064580949857831,3.4898353354036806,-4.411365074154735
1789701079429504000,7.92750390625,-0.4691957208514213,3.6432641481399535,-4.237635816189647
1789701079439524900,7.93752490234375,-2.1912132822200654,3.615619769889116,-3.8088527697473764
1789701079449546000,7.9475458984375,-3.458446509927511,3.2805005110502243,-2.7676012575507163
1789701079459568000,7.957568115234375,-4.062681984865665,2.587361594778299,-0.7159171497911214
1789701079469589000,7.967589111328125,-4.677848603662849,1.5180834270149468,2.3116607395917175
1789701079479609900,7.97760986328125,-6.010885844406485,-0.7086527117460966,5.570832046887278
1789701079489631000,7.987630859375,-7.3132479609012595,-3.928099326896667,8.017941705888509
1789701079499651800,7.99765185546875,-6.972015187618136,-6.6922519052982326,8.655001592063904
1789701079509673000,8.0076728515625,-5.919476557731628,-8.444438687220215,7.1770830021768806
1789701079519694000,8.017694091796875,-5.062933962675928,-8.482638946276902,4.484980345463753
1789701079529716000,8.027716064453125,-3.9343522498115897,-5.711500162249803,2.013500799837708
1789701079539737000,8.037737060546876,-2.317984097394347,-2.5743244185507295,-0.17080606399476528
1789701079549758000,8.047758056640625,-0.6289423384323716,-0.3022211978435516,-2.0389766018778084
1789701079559778800,8.05777880859375,0.02788286318182945,1.4955711509555578,-3.5397400607794522
1789701079569800000,8.067800048828126,-0.6716667969152331,2.5557488974183795,-4.442099819636344
1789701079579820800,8.07782080078125,-2.10220638051182,1.830497517570853,-3.823833481258154
1789701079589843000,8.087843017578125,0.24490181229710578,-1.0746633679330349,-2.0018962867617605
1789701079599864000,8.097864013671876,5.518847592628002,-4.696597143274546,-0.44661973190605636
1789701079609885000,8.107885009765624,8.958442102569341,-6.812910667333006,0.17707856839299202
1789701079619906000,8.117906005859375,8.325534659898281,-7.38779262201488,0.1656073263078928
1789701079629927000,8.127927001953125,3.560411969669163,-7.442593302738666,0.824927559608221
1789701079639949000,8.137948974609374,-3.531330836613476,-6.953249112349749,2.564127434185147
1789701079649970200,8.14797021484375,-4.983379948967695,-5.632750450661778,3.0239731428891417
1789701079659991000,8.157990966796875,-1.2848287978917359,-4.1271892360895865,1.3585446069657803
1789701079670012000,8.168011962890626,3.3703426945388317,-2.1221780321776866,-1.4329595042198895
1789701079680033000,8.178032958984375,6.533927137213945,-0.39635084939301013,-3.2210674943506716
1789701079690054000,8.188053955078125,7.671876690143346,0.5850625724345445,-4.317603671395778
1789701079700076000,8.198075927734376,7.623277202147245,0.795423232704401,-4.48526442310214
1789701079710097200,8.20809716796875,6.792523128342628,0.6452917079478502,-3.4570524252206085
1789701079720118000,8.218117919921875,5.6873909723877905,0.21444646827876568,-1.7960013737291096
1789701079730139100,8.22813916015625,5.05472610630095,0.05302373417913914,0.09252864609360695
1789701079740160000,8.238159912109374,4.430713625486195,0.25099779108464715,1.7516349932581186
1789701079750180900,8.248180908203125,4.092563912910223,0.690022245556116,3.2613685250788924
1789701079760202500,8.258202392578125,3.978986049047112,1.2780705558031797,4.777853284725547
1789701079770223400,8.268223388671874,3.5048490724012256,1.855076663032174,6.259110663646459
1789701079780244200,8.278244140625,2.589566411346197,2.493440033021569,7.301550508844852
1789701079790265300,8.288265380859375,0.644387452584505,3.0924697560101744,7.0925798416286705
1789701079800286200,8.2982861328125,-1.7015500890098512,3.229664642304182,4.999672327598929
1789701079810307300,8.308307373046874,-3.0505107289418576,2.880615642312169,2.380090717217326
1789701079820329500,8.31832958984375,-3.157095080655813,2.3365584494829177,0.1528846228569746
1789701079830350300,8.328350341796876,-2.422361586713791,1.8393746515095233,-1.4195038103193043
1789701079840371500,8.338371337890624,-1.3423556887090204,1.3424486276894807,-2.5127497136473655
1789701079850392300,8.348392333984375,-0.47447030025348064,0.8126134369581938,-3.2259166879475116
1789701079860413400,8.358413330078125,-0.04328618401885032,0.228327109593153,-3.5587551423728465
1789701079870434300,8.368434326171876,0.20102876830101013,-0.3890530936002731,-3.76628671669662
1789701079880456400,8.37845654296875,0.6877776084344833,-0.9975631771177053,-3.87760891058743
1789701079890477300,8.388477294921875,1.3205074295163153,-1.4364678046017885,-3.7751831398576496
1789701079900498400,8.39849853515625,1.994704329431057,-1.6691630462765692,-3.5778356904178854
1789701079910519300,8.408519287109375,2.542612936991453,-1.6901456285506486,-3.180647805678844
1789701079920540400,8.41854052734375,2.7275673533260822,-1.5564941139519213,-2.8477438848018646
1789701079930561300,8.428561279296876,2.347167521780729,-1.2667927904635667,-2.5724779139012095
1789701079940583400,8.43858349609375,1.295030458432436,-0.6557265927225351,-2.1821581613659857
1789701079950604500,8.4486044921875,-0.1340226859986782,0.1797457417756319,-1.4278583816885948
1789701079960625400,8.45862548828125,-1.5837193900078534,0.8382745324373245,-0.24020751700103282
1789701079970646300,8.468646240234374,-3.029538375800848,1.3278016781777142,0.9356792601346969
1789701079980667400,8.47866748046875,-4.345228760424256,1.816194851452112,1.8407699052602051
1789701079990688300,8.488688232421875,-5.13699171705544,2.238103920471668,2.2797119421452283
1789701080000710100,8.498710205078124,-4.877037297055125,2.424735914629698,2.2885575119018555
1789701080010731500,8.5087314453125,-3.7656490033149717,2.4194021523863074,2.130994960361719
1789701080020752400,8.51875244140625,-2.2843910398721694,2.2672587032854556,2.059889626047015
1789701080030773500,8.5287734375,-0.8308270659755915,1.9805682520508765,2.101725026735663
1789701080040794400,8.53879443359375,0.2385877337794751,1.583196242916584,2.187417104807496
1789701080050815200,8.548815185546875,0.6514712733656167,1.1340426086187363,2.1245207959115504
1789701080060837400,8.55883740234375,0.23252573032677173,0.7192758125692605,1.8739830235540866
1789701080070858500,8.5688583984375,-0.6323335152406245,0.4776619359016418,1.4665905556648968
1789701080080879400,8.57887939453125,-1.3019020977675915,0.3597697159707546,1.2380237920969723
1789701080090900500,8.588900390625,-1.4976432810544966,0.4287549893915653,1.582330565997958
1789701080100921300,8.59892138671875,-1.1509276193808764,0.8700561566233634,2.4558324791610238
1789701080110942500,8.6089423828125,-0.6404845268618315,1.5313631798267364,3.6225030996620653
1789701080120964400,8.61896435546875,-0.3790297122359276,2.192140626198053,4.5807425666511055
1789701080130985200,8.628985107421874,-0.5756885948896407,2.673170577228069,5.074739551281929
1789701080141006600,8.639006591796875,-1.399479843944311,2.819620198601484,5.232970211341977
1789701080151027500,8.64902734375,-2.533488550293445,2.2715280511677265,5.263647673678398
1789701080161048300,8.65904833984375,-3.363224971488118,1.118378591018915,5.432374593311548
1789701080171069400,8.6690693359375,-3.430198905086517,-0.0739431880891323,5.518567022120952
1789701080181091300,8.67909130859375,-2.7894191216051576,-0.8714473187208175,5.2128872082561255
1789701080191112200,8.6891123046875,-2.0707336761444806,-1.2701111212313174,4.526716377431154
1789701080201133300,8.69913330078125,-1.7694833691596983,-1.3803157092690468,3.703535953751206
1789701080211154400,8.709154541015625,-1.9786030894577502,-1.2602028906792402,2.8203187022596596
1789701080221175600,8.719175537109376,-2.4956273139327765,-1.119197506186366,1.8462129730969665
1789701080231196400,8.729196533203124,-3.0223569398641583,-1.2293734526515006,0.8986503829449415
1789701080241218300,8.73921826171875,-3.1269664843738076,-1.7502309716790914,0.20508418117165564
1789701080251239400,8.749239501953125,-2.3713842636704445,-2.579572256076336,-0.008421206864714622
1789701080261260300,8.75926025390625,-0.44482926829271013,-3.409959834656119,0.0424637617200613
1789701080271281200,8.76928125,2.017649005558342,-4.161412992730736,-0.05409983897805214
1789701080281302500,8.779302490234375,3.650942719943821,-4.950795191705226,-0.27324001803100106
1789701080291323400,8.789323486328126,4.321945792253315,-5.578688021084666,-0.4911076929301023
1789701080301345300,8.79934521484375,4.318659025667608,-6.246435306468606,-0.9690542909920214
1789701080311366400,8.809366455078125,3.4501688031867146,-6.853717894017696,-1.5268863266736268
1789701080321387300,8.81938720703125,1.8310463836252688,-7.065933242243528,-1.7567577430993317
1789701080331408400,8.829408447265624,0.12138210787326097,-6.445421170765161,-1.441114169102907
1789701080341429500,8.839429443359375,-0.9467351994171738,-5.341616464021802,-1.1703478477090596
1789701080351450400,8.849450439453125,-0.9173159204483031,-4.18138026048243,-1.0961141522407531
1789701080361472300,8.85947216796875,0.050902211980521674,-3.057813453170657,-1.172083293199539
1789701080371493400,8.869493408203125,1.4437047701179981,-1.8747966780245302,-1.3442945478171109
1789701080381514200,8.87951416015625,2.6478058343470097,-0.5251379728257656,-1.544974356549978
1789701080391535400,8.889535400390624,3.251755478081107,0.829739343804121,-1.5552029050976037
1789701080401556200,8.89955615234375,3.485725269736349,1.9507465297609567,-1.497476692315936
1789701080411577300,8.909577392578125,3.278249517253041,2.6850410477638245,-1.5236697027146815
1789701080421599500,8.919599609375,3.038940994918346,3.2061645242512222,-1.6128431931614875
1789701080431620400,8.929620361328125,2.8503058442443607,3.6146453718990084,-1.4442115505963562
1789701080441641200,8.93964111328125,3.491537463146448,3.3773926130503416,-1.2934241922795773
1789701080451662300,8.949662353515626,3.4927240425825117,3.3710680862039326,-1.2706833681613205
1789701080461683200,8.95968310546875,2.205505719205737,4.871034841769934,-0.9678519294649361
1789701080471704300,8.969704345703125,2.9249826073050498,4.83732195726037,-1.0306120447605849
1789701080481726500,8.9797265625,3.396728597161174,4.419295282632112,-1.1447346830248832
1789701080491747300,8.989747314453124,3.730004858481884,3.9615661276906726,-1.3648743945091961
1789701080501768400,8.9997685546875,3.802463360971212,3.345296516087651,-1.6340221747905015
1789701080511789300,9.009789306640625,3.697531160378456,2.7427099774003025,-2.1138310595929624
1789701080521810200,9.01981005859375,3.562158813336491,2.1969763757914302,-2.846863010314107
1789701080531831300,9.029831298828125,3.4310990687966343,1.8596259968996047,-3.5412013655036687
1789701080541853400,9.039853515625,3.1739947775304316,1.7755670729875563,-3.9565380703955886
1789701080551874300,9.049874267578126,2.7346239938393233,1.8383406322866678,-4.184895575127006
1789701080561895400,9.0598955078125,1.9188830725103616,1.9691788430303334,-4.301343441468477
1789701080571916300,9.069916259765625,0.7715583729922771,2.1257757644087074,-4.225382483816147
1789701080581937400,9.0799375,-0.43961189897060393,2.3069793037772177,-3.924336174970865
1789701080591958300,9.089958251953124,-1.434497381311655,2.4364129084199666,-3.5494185742288824
1789701080601980400,9.09998046875,-2.1913535674735902,2.3461580524772403,-3.0363030476301907
1789701080612001500,9.11000146484375,-2.1739076348930597,1.782307779419422,-1.8369161524415014
1789701080622022400,9.1200224609375,-2.030865776136517,0.5634972218364477,0.42869419911503787
1789701080632043300,9.130043212890625,-2.805297074216604,-1.4378285715609789,3.215005417832732
1789701080642064400,9.140064453125,-3.980342139831185,-3.7868636407792566,5.573580468812585
1789701080652086300,9.150086181640624,-5.645487767159938,-6.012849253433942,6.214933083745837
1789701080662107400,9.160107421875,-6.493728982338309,-7.655313677877187,5.093978504759073
1789701080672128500,9.17012841796875,-5.764454922845959,-7.713344426563381,2.842379142898321
1789701080682149400,9.1801494140625,-4.977862062329054,-5.480668376359343,0.8074035933554172
1789701080692170500,9.19017041015625,-3.9975095477312803,-2.7615502869486805,-0.6818827782422304
1789701080702191400,9.20019140625,-2.6207261042416095,-0.7320891169130802,-2.0444518184185028
1789701080712213200,9.210213134765626,-1.651185198776424,0.9640338324815034,-3.1014538574546573
1789701080722234400,9.220234375,-1.9181763855457306,2.374100536891818,-3.8563650470286603
1789701080732255500,9.23025537109375,-2.683133168315887,2.9468519092857837,-4.1041199106693265
1789701080742276400,9.2402763671875,-3.1830604197785255,1.582356869482994,-2.725252646642923
1789701080752297500,9.25029736328125,-0.29426965431720015,-1.651007796382904,0.5612655172616243
1789701080762319400,9.2603193359375,5.726467429757118,-4.498741159790754,3.209475840756297
1789701080772341200,9.27034130859375,9.51078197057545,-5.827915295365452,3.7425744171977042
1789701080782362000,9.280362060546874,8.957894990080595,-7.010382619935274,3.3000913467049595
1789701080792383200,9.29038330078125,4.737594339573383,-7.98175980091691,3.46033217754364
1789701080802404000,9.300404052734375,-0.816495831349492,-7.520961321532726,4.422521258941292
1789701080812425200,9.31042529296875,-3.238456143786013,-5.428682753056288,4.020626219424605
1789701080822446300,9.3204462890625,-0.7940928608834743,-3.448081183257699,0.5223083023577928
1789701080832468200,9.33046826171875,3.896359496025741,-1.6857114454954862,-2.6472949622154234
1789701080842489300,9.3404892578125,6.4531549798876044,-0.3414782724767923,-4.351002083128691
1789701080852510200,9.35051025390625,6.727661656853556,0.5474012425601482,-5.1661844937920565
1789701080862531000,9.360531005859375,6.722324387478828,0.7409937233805656,-4.905099023935199
1789701080872552200,9.37055224609375,6.269400586992502,0.5167261183112859,-3.5911481764554973
1789701080882573000,9.380572998046874,5.703693872413039,0.27967209690511224,-1.7534587015539407
1789701080892595200,9.39059521484375,5.1924499849051236,0.2069721868753433,0.04890110129117965
1789701080902616300,9.4006162109375,4.654176343913376,0.3955851257175207,1.6999848855197428
1789701080912637200,9.41063720703125,4.298780897504091,0.8059504719376563,3.2905928659975525
1789701080922658300,9.420658203125,3.9946217173352836,1.324014560854435,4.901147071439027
1789701080932679200,9.43067919921875,3.154851393382251,1.7503098821341991,6.416562740549445
1789701080942700000,9.440699951171876,1.524401524120569,2.2041730092972514,7.3289441272050135
1789701080952722400,9.450722412109375,-1.1893380871221422,2.7679250826776025,6.571901186299324
1789701080962743300,9.460743408203125,-3.2814895220875737,2.801115404617786,3.9890415791153906
1789701080972764200,9.47076416015625,-3.7487200803458687,2.4031261403679847,1.2261772869586944
1789701080982785300,9.480785400390625,-3.0686814686655994,2.1202982097804544,-0.6572773292958736
1789701080992806100,9.49080615234375,-1.901055593266338,1.9892589235067366,-1.7554542592853306
1789701081002827300,9.5008271484375,-0.8660393221974373,1.8281231896549461,-2.296929618927836
1789701081012849400,9.510849365234375,-0.14744915380477905,1.546399420917034,-2.4927695864140986
1789701081022870300,9.520870361328125,0.4051543335735798,1.0338836137771605,-2.7854361894488333
1789701081032891400,9.530891357421876,0.8173438264809548,0.41928631930053234,-3.008293343198299
1789701081042912300,9.540912353515624,1.2303589565575122,-0.20186521912515162,-3.0342800173699853
1789701081052933000,9.55093310546875,1.5980511360906064,-0.6860562645345926,-3.0999715099424123
1789701081062955300,9.560955322265626,1.958414872431755,-0.8558207105219363,-2.874833551779389
1789701081072976400,9.570976318359374,2.3073136502981186,-0.932775355386734,-2.6561756032854316
1789701081082997200,9.580997314453125,2.256978132289648,-0.9194044171601533,-2.471308280712366
1789701081093018400,9.591018310546875,1.7124001304566858,-0.7601631187528372,-2.3484587306350466
1789701081103039200,9.601039306640626,0.7409259188413619,-0.20605624107420442,-1.9312053784668444
1789701081113060400,9.611060302734375,-0.4685001398026943,0.4969640177428722,-1.0983230604618788
1789701081123082200,9.621082275390625,-1.7287772647619246,1.0549410148531198,-0.19217910689115522
1789701081133103000,9.63110302734375,-2.9319746581494806,1.4724626625686883,0.6184381878137588
1789701081143124200,9.641124267578125,-3.843430746653676,1.8199533272027968,1.1791694520682097
1789701081153145300,9.651145263671875,-4.1119086648494,2.0643530351966617,1.4577379716455936
1789701081163166200,9.661166259765626,-3.5763030740231274,2.115463629230857,1.581549060231447
1789701081173187300,9.671187255859374,-2.487140640616417,2.024019855764508,1.7796569726496934
1789701081183209200,9.681209228515625,-1.2647323508024215,1.8723259039968252,2.0723393577754496
1789701081193230000,9.69122998046875,-0.2944857447532937,1.6600877594172954,2.374473461857438
1789701081203251200,9.701251220703124,0.20630813347604124,1.3752899900615214,2.669894332036376
1789701081213272300,9.711272216796875,0.11594576203823088,1.0549433529406784,2.8643232636809346
1789701081223293200,9.721293212890625,-0.5056446792613715,0.8152642437279224,2.78635681142509
1789701081233314300,9.731314208984376,-1.3456219970285892,0.7414467278450727,2.409418518510461
1789701081243336200,9.741336181640625,-1.9453163214057683,0.6719219407200813,1.9619079752445219
1789701081253357000,9.751357177734375,-2.049718360644579,0.6053431439191103,1.8945377358049154
1789701081263378200,9.761378173828126,-1.6979904968321322,0.6580968289852142,2.202245256105065
1789701081273399300,9.7713994140625,-1.1766196945201606,0.787010209146142,2.672840906882286
1789701081283420400,9.78142041015625,-0.8035305513143539,0.8288707442760467,3.0330414154857395
1789701081293441300,9.791441162109376,-0.8183067532289773,0.6969558442115783,2.9670225906550884
1789701081303463200,9.801463134765624,-1.3223673781692982,0.5808557683944702,2.428904724746942
1789701081313484300,9.811484375,-2.125969387284666,0.5957353576183319,1.6656886481642723
1789701081323505200,9.821505126953125,-2.856549122548103,0.6745552118331194,1.119484506434202
1789701081333526000,9.831526123046874,-3.23804259454906,0.5849725560635328,1.1736042191565037
1789701081343547400,9.84154736328125,-3.240954682603478,0.17737842812240123,2.204023371693492
1789701081353568300,9.851568359375,-2.8277988288819786,-0.3747013276427984,3.7189854518175123
1789701081363590100,9.861590087890624,-1.9873703332811592,-0.7066460480988025,4.59705364998281
1789701081373611300,9.871611328125,-1.3097072185605763,-0.792722741574049,4.657088724228739
1789701081383632100,9.881632080078125,-1.2120588183004408,-0.7861229049175977,4.527839828503131
1789701081393653200,9.8916533203125,-1.4551087921857833,-0.7780944967627524,4.538595615795255
1789701081403674000,9.901674072265624,-1.754026856830716,-0.8424357437700033,4.617946800407767
1789701081413696300,9.9116962890625,-1.997908093908429,-1.0573790556550025,4.5516561728984115
1789701081423717400,9.92171728515625,-1.8315782985448836,-1.6499825449883936,3.953728273671865
1789701081433738200,9.93173828125,-0.9330594330251216,-2.694711377906799,2.74500831747055
1789701081443759000,9.941759033203125,0.6510626925647258,-3.709904904261231,1.4107488414555787
1789701081453780200,9.9517802734375,2.3604852685153483,-4.551314812114835,0.299318462139368
1789701081463801000,9.961801025390624,3.525592877483368,-5.29307425917089,-0.540812511819601
1789701081473823200,9.9718232421875,3.9484289982199665,-5.877001690095662,-1.2214882523596287
1789701081483844400,9.98184423828125,3.519372395533323,-6.316624110460281,-2.0041548793435098
1789701081493865200,9.991865234375,2.084287131331116,-6.5312336603462695,-2.724435485041141
1789701081503886300,10.00188623046875,0.43571766801103945,-6.2105865789741275,-2.9315123013347386
1789701081513907200,10.0119072265625,-0.7062991343572735,-5.562719467580318,-2.8633178860306736
1789701081523928000,10.021927978515626,-1.027934203853458,-4.839892100009322,-2.7428461710005996
1789701081533950200,10.0319501953125,-0.5354346181735397,-3.968931688022613,-2.6312135959863663
1789701081543971300,10.041971435546875,0.41805034776479005,-2.861781177982688,-2.5295026955276727
1789701081553992200,10.0519921875,1.4626874107465146,-1.5981623413801191,-2.2704408404529093
1789701081564013300,10.062013427734374,2.536281688143313,-0.34252222857177256,-1.909633598127961
1789701081574034200,10.0720341796875,3.281556157582998,0.6685439887195825,-1.5021072747260331
1789701081584055300,10.08205517578125,3.8360944124162195,1.3866478349000215,-1.2351532050967216
1789701081594077400,10.092077392578124,4.2463066139012575,2.0050094503462312,-1.1542121209442615
1789701081604098300,10.102098388671875,4.24436307861805,2.5630899078309533,-1.0098480736732482
1789701081614119200,10.112119140625,3.909995514929294,3.0481635812938213,-0.7179016016066074
1789701081624140300,10.122140380859374,3.348220879101753,3.4942221721857782,-0.4849988546609878
1789701081634161200,10.1321611328125,2.7371695866689083,3.8529707284152503,-0.35790684470832346
1789701081644182300,10.142182373046875,2.564097331307828,4.051846118074655,-0.4158522531986236
1789701081654204200,10.1522041015625,2.701628902210295,3.961766618698835,-0.8866998329102993
1789701081664225300,10.162225341796875,2.915021769782901,3.605006605938077,-1.7065742007821798
1789701081674246400,10.172246337890625,3.28994521574378,3.3050416625887156,-2.398902969714999
1789701081684267300,10.182267333984376,3.58229354660958,3.1053514494150876,-2.7367121982902285
1789701081694288100,10.1922880859375,3.76171692456305,3.001551467722654,-2.8333500332683323
1789701081704309200,10.202309326171875,3.873924669116735,2.9490713389009238,-2.8763170683354136
1789701081714331100,10.2123310546875,3.90047306882441,2.9717046109914778,-2.9648791488856077
1789701081724352000,10.22235205078125,3.763478089016676,3.1258623225241897,-3.0992367659270763
1789701081734373400,10.232373291015625,3.404285003890097,3.2806039714246986,-3.341087373960018
1789701081744394200,10.242394287109375,2.7865082025945185,3.460058621299267,-3.6669086430996654
1789701081754415400,10.252415283203124,1.7751660909712315,3.5500814220517873,-4.116808127328754
1789701081764435000,10.26243505859375,0.37119594987034793,3.478968488952517,-4.505272607386112
1789701081774457300,10.272457275390625,-1.1667343333870173,3.2342864568859335,-4.609775184389949
1789701081784478200,10.282478271484376,-2.5739579233258962,2.7073019794106483,-4.505777049776912
1789701081794499000,10.2924990234375,-3.793865628495812,1.6634569435894488,-3.9961481962502
1789701081804520200,10.302520263671875,-4.863365622316301,0.05411795915663242,-2.234821830061078
1789701081814541000,10.312541015625,-5.3042620081394904,-1.8527479278236627,1.1737480115413665
1789701081824563000,10.32256298828125,-5.3007268197506665,-3.6938691307395692,4.488300429797173
1789701081834584000,10.332583984375,-5.922468725284934,-5.505623369395733,6.0958496082037685
1789701081844605200,10.342605224609375,-6.0418947306543584,-6.439518084201216,6.917084158512949
1789701081854626300,10.352626220703126,-4.791383505167067,-5.969051612761616,6.99934976926744
1789701081864647200,10.362647216796875,-3.8305797406479716,-3.916560864794254,5.811723454499244
1789701081874668000,10.37266796875,-3.1951708365499973,-1.5761083304822443,3.681033030042052
1789701081884690000,10.38268994140625,-2.4082471366435287,-0.43450083956718444,1.5351047044426203
1789701081894711000,10.3927109375,-1.8081907009556888,0.23436112906038759,-0.14663842194378376
1789701081904732200,10.402732177734375,-1.7252672108143567,0.9339519979506731,-1.4540788646161555
1789701081914753300,10.412753173828126,-2.4422616344481707,1.5299515594631432,-2.4762065741479393
1789701081924774100,10.422774169921874,-3.680061846922338,1.1251537842422723,-2.573413148924708
1789701081934795300,10.432795166015625,-2.9846254673629997,-1.0931225692093371,-0.748400784766674
1789701081944817200,10.442817138671876,1.0765884907767176,-4.3936318490654225,1.711988042524457
1789701081954838000,10.452838134765624,6.097382224598527,-6.463330336943268,2.453282794678211
1789701081964859100,10.462859130859375,8.635062965884805,-7.571721202433109,2.039035054066777
1789701081974880300,10.47288037109375,7.159528056263923,-8.241222638007997,1.6472037279248237
1789701081984901000,10.482901123046876,2.7080443222105504,-7.741365236911177,1.8556798896223305
1789701081994922200,10.492922119140625,-2.3466207015529275,-5.707060133975744,2.4145552968770265
1789701082004944100,10.502944091796875,-3.683440675705671,-3.3382541963607073,1.0976701495110988
1789701082014965000,10.512965087890626,-0.5269783399954437,-2.076632086533308,-2.9103035090893505
1789701082024986000,10.522986083984375,4.684296172367036,-0.6896165873646736,-5.533013480624557
1789701082035007000,10.533007080078125,7.800899375897646,0.5989151566982269,-6.504361435511708
1789701082045028000,10.543028076171876,8.605937993687391,1.4599012871593235,-6.655589523333311
1789701082055050200,10.55305029296875,7.9667060241699215,1.704835832682252,-5.977614273923635
1789701082065071000,10.563071044921875,6.822567553472519,1.2810416805684566,-4.109423862296342
1789701082075092000,10.573092041015625,6.006315467751026,0.6411573846220969,-1.8385007912844418
1789701082085113000,10.583113037109374,5.464116470009088,0.024751579418778417,0.1933960814654827
1789701082095134000,10.593134033203125,4.970765966588258,-0.3366162193983793,1.9588298829734325
1789701082105155300,10.6031552734375,4.380110980974138,-0.3876923266410827,3.688855101969838
1789701082115177200,10.61317724609375,3.977814959441125,-0.09197042768895626,5.499671182993054
1789701082125198000,10.623197998046875,3.574158463209867,0.46775721248090263,7.283038700598478
1789701082135219200,10.63321923828125,2.5742151129573583,1.246993280494213,8.483742523604631
1789701082145240000,10.643239990234376,0.633801761162281,2.252028985449672,8.49812234661281
1789701082155261000,10.653260986328124,-1.673977168560028,3.144113434007764,6.804743142968416
1789701082165282000,10.663281982421875,-3.0456057135045524,3.29703195913434,4.017480322614312
1789701082175304200,10.67330419921875,-3.5657729121804236,2.871445662906766,1.347910984748602
1789701082185325000,10.683324951171874,-3.372589596682787,2.3335633593201637,-0.4912304425269365
1789701082195346200,10.69334619140625,-2.794006449395418,1.8737515528857707,-1.6288468179792164
1789701082205367000,10.703366943359375,-2.0395137774944305,1.420782159692049,-2.3110458225637673
1789701082215388200,10.71338818359375,-1.2261246799886225,0.8361088788360357,-2.63379835178256
1789701082225409000,10.723408935546875,-0.4453365602277219,0.20658406434059143,-2.8487884254187343
1789701082235431200,10.73343115234375,0.5785516561705619,-0.3558703704446554,-2.9835441018670794
1789701082245452300,10.743452392578124,1.5607529404401779,-0.7969161016106605,-3.0781296804904934
1789701082255473200,10.75347314453125,2.35442509169355,-1.142957736480236,-3.2697558296740055
1789701082265494000,10.763493896484375,2.924306900000572,-1.288338851839304,-3.2503204768419263
1789701082275515100,10.77351513671875,3.165484138816595,-1.1568646812796592,-3.222657393890619
1789701082285536000,10.783535888671874,2.8789959321558474,-0.801872262713313,-3.2525825765550134
1789701082295558100,10.79355810546875,1.9712240851223468,-0.20584522867202756,-3.057794748470187
1789701082305579300,10.803579345703126,0.5105389541089534,0.6677589758217334,-2.55944073767364
1789701082315600100,10.81360009765625,-1.1109259369254112,1.411690506219864,-1.4401193128466605
1789701082325621200,10.823621337890625,-2.780439111813903,1.8465122483044862,-0.13400339677631853
1789701082335642000,10.83364208984375,-4.382930422309041,2.2453952465236187,0.9094856652140617
1789701082345664000,10.8436640625,-5.655292537337541,2.6390385905236005,1.4655062675595283
1789701082355685000,10.85368505859375,-5.860082119476795,2.897279192343354,1.6782757425367831
1789701082365706200,10.863706298828125,-4.73353483504951,2.836709865090251,1.8607453563183545
1789701082375727000,10.87372705078125,-2.8607424825847145,2.6138983040481802,2.2546663482159377
1789701082385748200,10.883748291015625,-0.9078864863891154,2.3000907133072612,2.842815780749917
1789701082395769000,10.89376904296875,0.5762188293088227,1.9803309361636638,3.4250323161035774
1789701082405791000,10.903791015625,1.2839905935019253,1.7276099745482205,3.885021817192435
1789701082415812000,10.91381201171875,1.025660632898286,1.464728853446245,3.9738007553637025
1789701082425833200,10.923833251953125,-0.00009176993668079376,1.11445294200778,3.5698370928794145
1789701082435854000,10.93385400390625,-1.1692191359400748,0.7370593065410852,3.0497721855342386
1789701082445875200,10.943875244140624,-2.0106236369661987,0.44284722763001916,2.8200691114127636
1789701082455896000,10.95389599609375,-2.567767836514115,0.2981511719256639,2.7730875800073145
1789701082465918000,10.96391796875,-3.081566084679961,0.27523148410916326,2.7192192116975784
1789701082475939000,10.97393896484375,-3.616611703535914,0.28285189598500726,2.565209384202957
1789701082485960000,10.9839599609375,-3.9200387700378894,0.33110826963186263,2.337397238394618
1789701082495981300,10.993981201171875,-3.6056790983721614,0.3796738553583622,2.223770274692774
1789701082506002200,11.004002197265624,-2.8824615624397993,0.35165129144489765,2.7071733845949173
1789701082516023000,11.01402294921875,-2.217416960143298,0.10186638328135013,4.077589631140232
1789701082526045200,11.024045166015625,-1.5235754485599695,-0.1350549516558647,5.5327206351578235
1789701082536066000,11.034066162109376,-1.0321879157751799,-0.23719138405025003,6.118343764084577
1789701082546087000,11.0440869140625,-0.91914262441881,-0.28501111984550953,6.074046941718459
1789701082556108000,11.05410791015625,-1.3402829740881919,-0.4199982669621706,5.716305516704916
1789701082566129200,11.064129150390626,-2.0386972004145383,-0.6074696345537901,5.309649546396732
1789701082576150300,11.074150390625,-2.73648540379703,-0.896376008272171,4.958093532019853
1789701082586172200,11.084172119140625,-3.3244080418378115,-1.579824136134982,4.540131154799461
1789701082596193000,11.094193115234376,-3.14661927934885,-2.9409529143750666,3.2157156119287014
1789701082606214100,11.104214111328124,-1.650358977085352,-4.379197080999613,1.468362241512537
1789701082616235000,11.114235107421875,0.7811246582388878,-5.418720746490359,0.28713527239263054
1789701082626256100,11.124256103515625,2.982295270849764,-6.2869017568916075,-0.5679565393328666
1789701082636278300,11.1342783203125,4.454592221462726,-6.9399319501370185,-1.305291740205884
1789701082646299100,11.144299072265625,5.103266557586193,-7.518124636802077,-2.056580647629499
1789701082656320000,11.154320068359375,4.415188431835174,-8.002655873951316,-2.9636177506476638
1789701082666341000,11.164341064453126,2.5361235749721525,-8.25319189274311,-3.90123762345612
1789701082676362000,11.174362060546875,0.5883623446322978,-7.712160185214877,-4.120449114179611
1789701082686383000,11.184383056640625,-0.8880345886453985,-6.4878276493400335,-3.655982175415754
1789701082696405200,11.1944052734375,-1.2774781428679822,-4.999777541539073,-3.094693861800432
1789701082706426000,11.204426025390624,-0.6142272921204567,-3.576324701333046,-2.713096344903111
1789701082716447200,11.214447265625,0.661170537342131,-2.2549293830662966,-2.3831039275586603
1789701082726468000,11.224468017578126,2.0177365377113223,-0.9031097004413604,-1.8625959526211022
1789701082736489000,11.234489013671874,3.157479403798282,0.35184067653715606,-1.197925005942583
1789701082746510000,11.244510009765625,3.9470194236829874,1.4195552482455969,-0.5481763185858726
1789701082756532200,11.2545322265625,4.481380275145173,2.270139227157831,-0.02546995682120323
1789701082766553000,11.264552978515624,4.591685400947928,2.8893565826505423,0.24178864871263503
1789701082776574500,11.274574462890625,4.352890381093323,3.34983065238595,0.20236440081894397
1789701082786595300,11.28459521484375,3.826977624502778,3.8706285501807924,0.30672493900358677
1789701082796616200,11.2946162109375,3.2276065407305956,4.358377580332756,0.32548049287796016
1789701082806638300,11.304638427734375,3.0160183844923973,4.645489471849799,0.0894412014722824
1789701082816659200,11.3146591796875,3.179357765868306,4.7245326134264465,-0.43466859734952445
1789701082826680000,11.32468017578125,3.461704634940624,4.612777288815379,-1.2927671896755695
1789701082836701400,11.334701416015625,3.9358956798613067,4.405552003961802,-2.131512846755981
1789701082846722300,11.344722412109375,4.388145526608825,4.187127864223719,-2.7910218806266784
1789701082856743400,11.354743408203126,4.634582877910137,3.9983711329966782,-3.2209780625015494
1789701082866765300,11.364765380859374,4.695166233688592,3.809495159304142,-3.4982407601773735
1789701082876786200,11.3747861328125,4.624447268342972,3.6029935125499963,-3.760348558819294
1789701082886807300,11.384807373046876,4.338504712866246,3.3015257634222506,-3.9629946991890668
1789701082896828200,11.394828125,3.8605800343751904,2.995788666412234,-4.204706191012263
1789701082906849300,11.404849365234375,3.307314283695817,2.8420839593440292,-4.4509079799920315
1789701082916870400,11.414870361328125,2.5093834520846605,2.8692005143284796,-4.587266999983787
1789701082926892300,11.424892333984374,1.4567638659164308,3.062407210701704,-4.549702700743079
1789701082936913200,11.4349130859375,0.3476403022378683,3.2409225338995453,-4.295342155227065
1789701082946934300,11.444934326171875,-0.5467670363098383,3.2429367963314055,-3.764428521609306
1789701082956955100,11.454955078125,-1.2770809602439404,2.8759745385080575,-2.8891847332149743
1789701082966976300,11.464976318359374,-2.2922914377331733,2.068921658286452,-1.14908586397171
1789701082976997400,11.474997314453125,-5.43755404177606,0.16178279958367348,1.641688179373741
1789701082987019300,11.485019287109376,-9.536773320922254,-3.275187791594863,4.4635465122908355
1789701082997040400,11.495040283203124,-9.27296047192812,-6.7234776491671795,5.788659974297881
1789701083007061200,11.505061279296875,-6.3762985347002745,-9.098978700506686,5.563973267033695
1789701083017082000,11.51508203125,-6.1417158718436955,-9.477716151797772,5.233551810622215
1789701083027103200,11.525103271484374,-5.237844539380073,-6.447141418686509,4.781115501391888
1789701083037124400,11.535124267578125,-3.064433748093247,-2.5802146456331014,2.7270816156357527
1789701083047146200,11.545146240234375,-1.502390767842531,-0.45611938165724275,0.15245090761482716
1789701083057167400,11.55516748046875,-0.8210328902572392,0.7402975578099489,-1.9312135617733
1789701083067188200,11.565188232421875,-1.1312906795620918,1.5420441483169793,-3.4386376476079223
1789701083077209300,11.575209228515625,-2.3328461509615184,1.7123264806985854,-4.387274004471302
1789701083087230200,11.585230224609376,-3.2983819124385714,0.0685235011279583,-4.038687361294031
1789701083097252400,11.59525244140625,-1.919094961695373,-3.09969561561048,-1.354277597171068
1789701083107273200,11.605273193359375,1.5021686495244502,-6.364882822194695,2.0460984165817497
1789701083117294300,11.61529443359375,5.524413410061597,-8.092853446748853,3.31139307744205
1789701083127315200,11.625315185546874,6.950733330136537,-8.951164220520853,3.1427684491395946
1789701083137336300,11.63533642578125,5.946170503389835,-9.576643559017777,3.597419511809945
1789701083147357200,11.645357177734375,3.5242785800144074,-8.613964648276568,4.240582975557446
1789701083157379300,11.65537939453125,0.5844917868092656,-5.416730449455976,4.166259848240018
1789701083167400400,11.665400390625,-1.315148240570724,-1.852874184551835,2.7907822266519067
1789701083177421300,11.67542138671875,0.8045946734145283,0.5636860224068164,-0.44309681847691534
1789701083187442200,11.685442138671876,4.3853933052912355,1.5421394253849983,-3.704634854903817
1789701083197463300,11.69546337890625,6.1717076900035135,1.9627368272840975,-5.7175622387677425
1789701083207484200,11.705484130859375,6.782627172750234,2.209796694397926,-6.61086833807528
1789701083217506000,11.715506103515626,7.2133297890782355,1.8944389516055582,-6.288894976535439
1789701083227527400,11.72552734375,6.676812344104051,1.2562749035805463,-4.699219892993569
1789701083237548300,11.73554833984375,5.820872975638508,0.6416700103193521,-2.7199031023085114
1789701083247569400,11.7455693359375,4.814272213323414,0.35994624158143995,-1.0711620818138121
1789701083257590300,11.75559033203125,3.7734205140993,0.5434685792863369,0.8054056975364685
1789701083267611400,11.765611328125,3.164819829688966,0.5950894609302282,3.0440561459749937
1789701083277633300,11.77563330078125,2.458060676604509,0.4502718246728182,4.9079783787637945
1789701083287654100,11.785654052734374,1.7512405871130525,0.5327852727085352,6.158078393101692
1789701083297675300,11.79567529296875,0.6838508634448051,1.049931077736616,6.384955888408422
1789701083307696400,11.8056962890625,-0.9695454355098306,1.9831459935843943,5.678759922164678
1789701083317717200,11.81571728515625,-2.0631775616765022,2.7263433644890784,4.2517900137484075
1789701083327739100,11.8257392578125,-1.7063047361910342,3.0816385653942824,2.31434194149971
1789701083337760300,11.83576025390625,-1.0923682437106967,3.0959535064727066,0.5813444286942482
1789701083347781000,11.845781005859376,-0.9453764782845974,2.8050141656219956,-0.7453115865796804
1789701083357802500,11.855802490234375,-1.2431705073356627,2.3770775068759917,-1.5979402230620383
1789701083367823400,11.8658232421875,-1.530671982692182,1.804796090081334,-2.014085321727395
1789701083377844200,11.87584423828125,-1.5851473769843578,1.1492828478485344,-2.0802531996399165
1789701083387866400,11.885866455078125,-1.1725474035799504,0.362969388794899,-1.957663177281618
1789701083397887200,11.89588720703125,-0.3487912258386612,-0.37996144012808797,-2.101677095940709
1789701083407908000,11.905908203125,0.8966554828006774,-0.9259113148361444,-2.548489720070362
1789701083417929200,11.91592919921875,2.3853870700597763,-1.27064712780416,-2.984608516228199
1789701083427950300,11.925950439453125,3.442034304308891,-1.3631716822445392,-3.3183705152392386
1789701083437971500,11.935971435546875,3.67027607370615,-1.1875550030976534,-3.3769898774683473
1789701083447993300,11.945993408203124,2.97205532412529,-0.7620534625440836,-3.27239553052783
1789701083458014200,11.95601416015625,1.3871499392032622,-0.02533843939602375,-2.9117303270220756
1789701083468035300,11.966035400390625,-0.5280541525334119,0.8281523668736219,-2.0832593957185743
1789701083478056200,11.97605615234375,-2.541786423039436,1.3102765428811312,-0.676049834305048
1789701083488077000,11.9860771484375,-4.8121951147884126,1.5536135900795458,0.6749953568160534
1789701083498098400,11.996098388671875,-6.474582383319735,1.7454653647124767,1.5008061289995909
1789701083508120300,12.006120361328126,-6.393593952894211,1.830104134339094,1.7216332382261752
1789701083518141200,12.01614111328125,-4.804090718787908,1.8507132071256636,1.8319471318572758
1789701083528162300,12.026162353515625,-2.533347680518031,1.8072329618394374,2.184009342190623
1789701083538183200,12.03618310546875,-0.3757862733352929,1.7101158189117907,2.6705156788051125
1789701083548204300,12.046204345703124,0.8969337152201682,1.4741571915268896,3.1705309008121487
1789701083558226400,12.056226318359375,0.7463543736308813,1.0878887602090834,3.4632612167328594
1789701083568247300,12.066247314453125,-0.9196528389632701,0.8019950123101472,3.3541116907060142
1789701083578268400,12.076268310546874,-2.8214807317763566,0.8239321188300848,2.8484073171466586
1789701083588289300,12.086289306640625,-3.611169804742932,1.150505083119869,2.4219337166905404
1789701083598310100,12.09631005859375,-3.1871973734527823,1.7390122430503367,2.450012979227304
1789701083608331300,12.106331298828126,-2.424423049288243,2.329004673102498,2.8684675238788127
1789701083618353400,12.116353515625,-1.8767185859978197,2.72663854804337,3.342302594968676
1789701083628374300,12.126374267578125,-1.6454368643827735,2.794066655150056,3.7006834869295355
1789701083638395400,12.1363955078125,-1.5187906985014676,2.418207389643788,3.9188223799854516
1789701083648416300,12.146416259765624,-1.2715795863486825,1.631779364299774,4.087395570361614
1789701083658437400,12.156437255859375,-1.5309994610808788,0.34000410827100275,4.60915676023066
1789701083668458200,12.166458251953125,-2.107926803985238,-1.085517354902625,5.42809881568849
1789701083678480400,12.17648046875,-2.443021512904763,-1.9802450114458798,5.947533608436584
1789701083688501200,12.186501220703125,-3.003770897337794,-2.317469133609533,5.925718666991591
1789701083698522400,12.1965224609375,-3.572667347869277,-2.2307927206754683,5.719218189281225
1789701083708543200,12.206543212890624,-3.6401124061107635,-2.0258038165718317,5.383160188287496
1789701083718564400,12.216564453125,-3.2079321184456346,-2.167364496859908,4.832842766019701
1789701083728585200,12.226585205078125,-2.5476211205422876,-2.843231375813484,4.095736697727442
1789701083738607000,12.236607177734374,-1.4385679917514322,-3.8316537996202706,2.8788819503873584
1789701083748628500,12.24662841796875,0.6136357559680938,-4.688983745661377,1.413062963616848
1789701083758649300,12.2566494140625,2.6036720935881137,-5.355349805819988,0.3255453748077154
1789701083768671000,12.2666708984375,4.048354184305667,-5.866124322250485,-0.3617909926652908
1789701083778692000,12.276692138671875,4.789774608665704,-6.277023921477794,-0.9460627069830894
1789701083788714000,12.2867138671875,4.721276826500892,-6.745065211597084,-1.6981237678229808
1789701083798734800,12.29673486328125,3.555506661970913,-7.213773441192507,-2.6580817291676997
1789701083808756000,12.306755859375,1.960917795163393,-7.15953448600471,-3.3027479986935853
1789701083818777000,12.316777099609375,0.5951341768547892,-6.406247682762146,-3.300397051653266
1789701083828798000,12.3267978515625,-0.2481491236552596,-5.321994064185023,-3.132528794676065
1789701083838819000,12.336819091796874,-0.2683195127636194,-4.081307190358639,-2.9803467671304937
1789701083848841000,12.346841064453125,0.282731192214787,-2.87813376236856,-2.8570868826866147
1789701083858861800,12.35686181640625,1.204058978652954,-1.797136515238881,-2.810679936298728
1789701083868883000,12.366883056640624,2.2639120232060552,-0.5738812532067299,-2.5421996800154445
1789701083878904000,12.376904052734375,3.1032389873057604,0.6421604241847991,-1.9021844511657953
1789701083888925200,12.38692529296875,3.693535661001503,1.5398901851534843,-1.3709130901515483
1789701083898946000,12.396946044921876,4.3098786301016805,2.3357979865044354,-0.9631956280916929
1789701083908968000,12.406968017578125,4.352054807052016,3.05396613009274,-0.5929699845582247
1789701083918989000,12.416989013671875,3.682487612764537,3.7916923761099577,-0.12842062820792197
1789701083929010000,12.427010009765626,2.904416789138317,4.40089161093533,0.1856143415480852
1789701083939030800,12.43703076171875,2.52743757969141,4.882312022587657,0.44738487105965613
1789701083949052200,12.44705224609375,2.520455465719104,5.184776381537318,0.430810752877593
1789701083959073000,12.457072998046876,2.8273610219866034,5.179462493038177,-0.0994318496108055
1789701083969095000,12.467094970703124,3.4238761318057773,4.978954533740878,-0.87250588786304
1789701083979116000,12.477115966796875,3.9940310579657554,4.6735675653427835,-1.6589683999985456
1789701083989137000,12.487136962890625,4.506518223533034,4.432226660397649,-2.320152089083195
1789701083999158000,12.497157958984374,4.962175832897424,4.143361203211546,-2.804740024855733
1789701084009179000,12.507178955078125,5.310714545279741,3.6862072178095575,-3.075384181174636
1789701084019200000,12.517199951171875,5.536917502325773,3.1363053906053304,-3.1840584909051657
1789701084029222000,12.527221923828124,5.484022947484254,2.701613996902108,-3.2939106122434136
1789701084039243000,12.537242919921875,5.01791116412282,2.481062782007456,-3.4132436786323783
1789701084049263900,12.547263916015625,4.1389913175642485,2.4611317546129223,-3.464074871203303
1789701084059285000,12.557284912109376,2.8332378050655125,2.4818407806426284,-3.5272125876396894
1789701084069305900,12.567305908203124,1.435027250404656,2.523642279061675,-3.538841066113114
1789701084079327000,12.577326904296875,0.13758943856954572,2.4402397732317445,-3.459992570325732
1789701084089349000,12.58734912109375,-1.350364807641506,2.0528876383304593,-3.3224504780292508
1789701084099370000,12.597369873046874,-2.57797884940505,1.1661480579316614,-2.5860645407050846
1789701084109390800,12.607390869140625,-3.1097330255001783,-0.24156243874132632,-0.44057811365425587
1789701084119412000,12.617411865234375,-3.8485526197120543,-2.3698282664000985,2.103320186972618
1789701084129432800,12.627432861328124,-5.758549498194456,-5.006709971150755,4.062080511841177
1789701084139455000,12.637455078125,-7.456864404675364,-7.391572140553593,5.162462842920422
1789701084149476000,12.64747607421875,-7.331826989164948,-8.749254577732085,4.966507140100002
1789701084159497000,12.6574970703125,-5.994478314962983,-8.3711180149436,3.89935429392755
1789701084169518000,12.66751806640625,-4.600677685698867,-5.933624325549602,2.8210680593222377
1789701084179539000,12.6775390625,-3.243426333414018,-3.1910113787829872,1.5137497817248105
1789701084189560000,12.68756005859375,-2.245549268041551,-1.115512095671892,-0.06845102041363715
1789701084199582200,12.697582275390625,-1.8048852296695113,0.5336433508425951,-1.7604823165804147
1789701084209603000,12.70760302734375,-2.3343834435313937,2.0636954480707645,-3.165105953153968
