time,seconds_elapsed,z,y,x
1789665777365579000,0.0475791015625,-1.0792390052855014,0.5996539923667907,0.2708083339046687
1789665777375531300,0.05753125,-1.4716507616639136,0.8185235377848148,0.4101303684204817
1789665777385484300,0.067484375,-1.803938011947274,0.9780316704347729,0.4271873016834259
1789665777395436300,0.077436279296875,-2.028562759891152,1.046624729667604,0.4231070100998506
1789665777405389300,0.087389404296875,-2.258777875187993,0.994609588009119,0.36987409014943984
1789665777415341000,0.097341064453125,-2.437325931611657,0.8825792458489536,0.34871264417711645
1789665777425294000,0.107294189453125,-2.4674352386713028,0.7818649552121758,0.23234156939890235
1789665777435246300,0.117246337890625,-2.3123457992464305,0.7299079734817147,0.02582242352068424
1789665777445199400,0.127199462890625,-2.0928028846114874,0.6980947851136327,-0.21822598681747912
1789665777455151400,0.1371513671875,-1.8307319108486175,0.6938029331386089,-0.2502455114126205
1789665777465104100,0.147104248046875,-1.4574340202629565,0.758525872939825,-0.09647394965328275
1789665777475056000,0.15705615234375,-0.8925491434603929,0.8183663013964891,-0.009177687787823378
1789665777485009200,0.167009033203125,-0.38367724578082557,0.9063450291007756,-0.016525420202128587
1789665777494961200,0.176961181640625,-0.03755845402181148,0.898377118961513,-0.04571929291728884
1789665777504914200,0.1869140625,0.03054769847691059,0.7905082803949713,-0.026444610539637505
1789665777514866200,0.1968662109375,0.004261164575815201,0.6970008523970842,-0.07956055304687469
1789665777524819200,0.206819091796875,-0.03148585610985756,0.7062444815605878,-0.25000125432796777
1789665777534771200,0.216771240234375,-0.005221534040570259,0.691234543955326,-0.3822290197338909
1789665777544724200,0.22672412109375,0.13838321929574013,0.6383005338862539,-0.3051909343693405
1789665777554676200,0.23667626953125,0.5544195968896151,0.6325532224059105,-0.17613376182354987
1789665777564629200,0.246629150390625,1.0993600022941827,0.6442492131575942,-0.09563665857892482
1789665777574581200,0.256581298828125,1.6537562183082102,0.6112023913413286,-0.08783683501556515
1789665777584534300,0.2665341796875,2.13332428009212,0.46219519443958995,-0.13247819650303572
1789665777594486300,0.276486328125,2.4229250658154484,0.22249065852463243,-0.22350816500410436
1789665777604439300,0.286439208984375,2.510467740190029,-0.05640577783286571,-0.27084406280517576
1789665777614391000,0.29639111328125,2.4124603704243897,-0.22269524118602274,-0.23319577507544306
1789665777624344000,0.306343994140625,2.19729377117753,-0.2265793891429901,-0.15393270713780074
1789665777634296000,0.316296142578125,1.9472586876451967,-0.08865238918215036,-0.06542389114480465
1789665777644249000,0.3262490234375,1.7218045031398534,0.19374124164134263,-0.03735306764282286
1789665777654201300,0.336201416015625,1.6717349425911903,0.44158495260924097,-0.0001536744580604136
1789665777664154400,0.346154296875,1.6457307327628135,0.6395213078528642,0.01773810219382867
1789665777674106000,0.356106201171875,1.585115228280425,0.6383171927601099,0.08148777651609852
1789665777684059100,0.36605908203125,1.5707167005717753,0.3487792431399226,0.19296095971753818
1789665777694011100,0.37601123046875,1.6816016720890998,-0.2066299493089318,0.24513065261691808
1789665777703964200,0.385964111328125,1.8841010974645613,-0.865678087669611,0.10593671972649171
1789665777713916400,0.39591650390625,2.005782188284397,-1.440390531003475,-0.2466881842572242
1789665777723869200,0.405869140625,1.9040286177277563,-1.870486998131871,-0.5852050861777738
1789665777733821200,0.4158212890625,1.5228735839009284,-2.1274095030903815,-0.6984579193376004
1789665777743774200,0.425774169921875,0.8739023106575011,-2.1413822066023944,-0.8319444526329636
1789665777753726200,0.435726318359375,0.008833879318833351,-1.9084090247690677,-0.9247130449622869
1789665777763679200,0.44567919921875,-0.8785597810745239,-1.5182374485328793,-0.9206579243525862
1789665777773631000,0.455630859375,-1.578582027119398,-1.1110244288638234,-0.9082945557333528
1789665777783584000,0.465583984375,-1.9608295323580502,-0.7872790892153978,-0.9262607127957045
1789665777793536300,0.475536376953125,-1.9985271025896072,-0.5769494086056948,-0.9971242742437869
1789665777803489300,0.4854892578125,-1.7096476168781518,-0.5641837427958846,-1.094526444657892
1789665777813441300,0.495441162109375,-1.4565315184652805,-0.6333087169483304,-1.1130258318141102
1789665777823394300,0.505394287109375,-1.3350076640337705,-0.7124255082830786,-1.0245795596633105
1789665777833346000,0.515345947265625,-1.2509721209973097,-0.6848585791826248,-0.8290313416652381
1789665777843299000,0.525299072265625,-1.1496873369961977,-0.623753245356679,-0.6832080354966222
1789665777853251300,0.535251220703125,-0.918338249233365,-0.6659539722263813,-0.4090025334343314
1789665777863204400,0.545204345703125,-0.5447159489989281,-0.7455179228067398,-0.20413236033953724
1789665777873156400,0.55515625,0.07016425407230853,-0.6761231918022036,-0.38638065952062606
1789665777883109000,0.565109130859375,0.5775748470276594,-0.516528257651627,-0.7231244508214294
1789665777893061000,0.57506103515625,0.7538339157313108,-0.5447361150041222,-0.5904402468848973
1789665777903014100,0.58501416015625,0.8283166175246238,-0.6820873609036207,-0.44874249621368945
1789665777912966100,0.594966064453125,0.7521282808572054,-0.8038774650558829,-0.38336496496126055
1789665777922919200,0.604919189453125,0.5732622445255517,-0.8806628908336162,-0.41661761154793203
1789665777932871000,0.614870849609375,0.3380816157758236,-0.8565452254042029,-0.5021016728922725
1789665777942824000,0.624823974609375,0.15416998649239538,-0.7946852738186717,-0.519598166616261
1789665777952776000,0.63477587890625,0.021274843218922614,-0.7406061853677034,-0.31517727165892717
1789665777962729000,0.64472900390625,-0.15059855774641037,-0.639241906389594,-0.31192046182006594
1789665777972680700,0.6546806640625,-0.4612397934108972,-0.5267360556721687,-0.4488063552301377
1789665777982633700,0.6646337890625,-0.8726578635543585,-0.4075146329641342,-0.5207483595646918
1789665777992586000,0.6745859375,-1.3260504505962132,-0.29626375074386596,-0.43705505409464235
1789665778002539000,0.6845390625,-1.5583967327028512,-0.14819529599696396,-0.3108562666546553
1789665778012491000,0.694490966796875,-1.6047615935146808,0.040024844135344025,-0.33752266671881076
1789665778022444000,0.704444091796875,-1.6350678844511508,0.19435440510362387,-0.44592802331484854
1789665778032395800,0.714395751953125,-1.752109625032544,0.2885065607458353,-0.5278523463509976
1789665778042348800,0.724348876953125,-1.869163056051731,0.3088581516399979,-0.45499330023676154
1789665778052301000,0.734301025390625,-1.8597908320724963,0.27282237714082,-0.3470800380066037
1789665778062254000,0.744254150390625,-1.6948609666347503,0.24066344407498835,-0.33336795819215476
1789665778072206000,0.7542060546875,-1.4621967046201227,0.2275678156584501,-0.3682583620484918
1789665778082158800,0.764158935546875,-1.086716793820262,0.22727321662604807,-0.4526436683706939
1789665778092110800,0.77411083984375,-0.5902864445626735,0.23945523732900617,-0.5514398504264653
1789665778102063900,0.78406396484375,-0.3288473389625549,0.29287469282746315,-0.5805080509353429
1789665778112016000,0.794015869140625,-0.21079905168712137,0.29203619617670773,-0.5416687633227557
1789665778121969000,0.803968994140625,-0.0643926849335432,0.2934831801146269,-0.4198807780623436
1789665778131921000,0.8139208984375,0.0573515342503786,0.3971364468127489,-0.32713753936998546
1789665778141874000,0.8238740234375,0.36346564787924285,0.4012105643838644,-0.36292087347805496
1789665778151826000,0.833825927734375,0.7982832983106374,0.24800299318283794,-0.35829971648342906
1789665778161779000,0.843779052734375,1.332744395276904,0.019448212313652038,-0.11833170732669532
1789665778171731000,0.85373095703125,1.9843547848522662,-0.23588176275640724,0.221464311151579
1789665778181684000,0.86368408203125,2.6812416554808616,-0.4107598984956741,0.48212855992168185
1789665778191636000,0.873635986328125,3.244920079103112,-0.45339463286846876,0.5246127799078821
1789665778201589000,0.883589111328125,3.2125580246806145,-0.3960103653922677,0.6406801224991678
1789665778211541000,0.893541015625,2.7438457034319637,-0.3364709657087922,0.8087931480176747
1789665778221494000,0.903493896484375,2.139195802474022,-0.28242344143986703,0.9067594551205634
1789665778231446000,0.913446044921875,1.584950977629423,-0.18194412860274314,0.8702320977121591
1789665778241398800,0.923398681640625,1.129443590390682,-0.019101006311178205,0.7487092661939561
1789665778251350800,0.933350830078125,0.7159189033567905,0.20680910526812074,0.7403340904280543
1789665778261303800,0.9433037109375,0.3727133686959743,0.4077218459740281,0.850253577914089
1789665778271256000,0.953256103515625,0.18523790945112703,0.40276714617609977,0.9551716038510203
1789665778281209000,0.963208984375,0.27602935648858545,0.3023877865821123,1.0570486546568572
1789665778291160800,0.973160888671875,0.5302735821485519,0.12771949420124293,1.0696307805933059
1789665778301113900,0.98311376953125,0.8148767057150602,-0.07879618107825517,1.0124911355279385
1789665778311065900,0.99306591796875,1.0987836637109518,-0.39978053158074617,1.0405042009606957
1789665778321019000,1.003018798828125,1.3305629595845936,-0.7294564303219317,1.087832792238146
1789665778330971000,1.012970947265625,1.4750497564524412,-0.9478615730985999,1.1160760131649672
1789665778340924000,1.022923828125,1.4581366155743598,-1.060181545855105,1.122802544941008
1789665778350876000,1.0328759765625,1.3039292196810244,-1.0752572421729565,1.0112819058686495
1789665778360829000,1.042828857421875,1.045377067694068,-1.002427860544622,0.7950817257903516
1789665778370781000,1.052781005859375,0.7864291943877935,-0.8907929474428296,0.5095566650733352
1789665778380734000,1.06273388671875,0.39181729761660095,-0.871810014553368,0.31067163080275056
1789665778390685700,1.072685791015625,-0.02717792978286743,-0.8703662454858422,0.23913696516007182
1789665778400638700,1.082638671875,-0.36072657830417154,-0.7908814976215363,0.13900734254345298
1789665778410591000,1.092591064453125,-0.5260200163573027,-0.7885577308490872,0.10481003551781178
1789665778420544000,1.1025439453125,-0.5344312863498926,-0.7566559874147176,0.2166704279385507
1789665778430496000,1.11249609375,-0.4652116196513176,-0.5708779797375202,0.39653599670156836
1789665778440449000,1.122448974609375,-0.3279261324644089,-0.3713680915668607,0.6508914276510477
1789665778450400800,1.13240087890625,-0.21873452086150644,-0.276436768245697,0.8872156734779476
1789665778460353800,1.142353759765625,-0.13320201726555825,-0.2446151043102145,0.9518300383381545
1789665778470305800,1.152305908203125,-0.054230771881341934,-0.31104426350742576,0.8575678464502096
1789665778480258800,1.1622587890625,0.00033259295523166654,-0.3986141181498766,0.6776926330760121
1789665778490211000,1.172211181640625,0.054955579024553294,-0.5024944716021418,0.5420156039990485
1789665778500163800,1.182163818359375,-0.021083120039105414,-0.6436950864061712,0.4103871196605265
1789665778510115800,1.19211572265625,-0.19630115525722502,-0.7446247733592987,0.28153540655896064
1789665778520068900,1.20206884765625,-0.43780221920013423,-0.8087021087333559,0.16851590723097323
1789665778530020900,1.212020751953125,-0.7383861712306737,-0.793362500782311,0.01598798885717988
1789665778539974000,1.221973876953125,-1.0517921954333782,-0.7534878787726164,-0.19199410571306944
1789665778549926000,1.23192578125,-1.3312047646194696,-0.6890881795763969,-0.40709085459411143
1789665778559879000,1.24187890625,-1.5128268216609955,-0.6155532800272107,-0.5558908384859561
1789665778569831000,1.251830810546875,-1.6299357822597025,-0.5141384399056435,-0.5734263490460813
1789665778579784000,1.261783935546875,-1.5445599305301905,-0.35208734477460385,-0.5028947229661047
1789665778589736000,1.27173583984375,-1.3414397429078817,-0.16979513338655233,-0.4417952343590557
1789665778599689000,1.28168896484375,-1.1798983508646488,-0.07910188602656125,-0.36788814049661156
1789665778609641000,1.291640869140625,-1.0873884094715118,-0.044541444776952266,-0.2811049061872065
1789665778619593000,1.301593017578125,-0.9860837517261505,-0.039760055719316005,-0.19059139930829405
1789665778629546000,1.3115458984375,-0.8715250601321458,-0.033468846620619296,-0.088798519654572
1789665778639499000,1.3214990234375,-0.7409393628448248,0.010273848994076252,-0.13561229327768087
1789665778649451000,1.331450927734375,-0.5840963577508926,0.0830500391304493,-0.1536313495710492
1789665778659403800,1.34140380859375,-0.4694815520554781,0.15977964306771755,-0.07423837164342403
1789665778669355800,1.351355712890625,-0.4039449577838182,0.2502276834949851,0.07102437803298235
1789665778679308800,1.361308837890625,-0.25809271778166293,0.32826778550893065,0.2475583181552589
1789665778689261000,1.371260986328125,-0.09220482096672057,0.39399961009174583,0.3603413783788681
1789665778699213000,1.381213134765625,0.05654664760828018,0.4758700840488076,0.2976082972206175
1789665778709165800,1.391165771484375,0.1284030925512314,0.53669280154109,0.232447842784971
1789665778719117800,1.401117919921875,0.06671615944504737,0.5736190951392054,0.14753814726248382
1789665778729070800,1.41107080078125,-0.038054128584265705,0.574699583852291,0.026523411396890878
1789665778739022800,1.42102294921875,-0.12050035660266875,0.5943851120531559,-0.04874444942474365
1789665778748975900,1.430975830078125,-0.25548341206610203,0.6058090078651904,-0.007035451594740152
1789665778758928000,1.440927978515625,-0.37985330357849595,0.6554273175150156,0.0455462379053235
1789665778768881000,1.450880859375,-0.4957587336063385,0.7514908597365021,0.12260405088365077
1789665778778833000,1.4608330078125,-0.6154483583480119,0.891329246276617,0.20126199253499508
1789665778788786000,1.470785888671875,-0.7560352251678705,1.0846505089402199,0.2829612015783787
1789665778798738000,1.480738037109375,-0.8366197509676218,1.2278390826910734,0.3326331411115825
1789665778808691000,1.49069091796875,-0.8946183509498834,1.3037009638831019,0.355432855810225
1789665778818643000,1.500642822265625,-0.8773632647663354,1.3820640142410994,0.4437239373993128
1789665778828596000,1.510595947265625,-0.8025368641018867,1.437943722373247,0.5121564723081886
1789665778838548000,1.5205478515625,-0.5549298844993115,1.450389070187509,0.49378728740289807
1789665778848501000,1.5305009765625,-0.22968320037722587,1.3428946178913115,0.5435217707782983
1789665778858452700,1.54045263671875,0.0551689295142889,1.1976999650150537,0.5801433823414146
1789665778868405800,1.55040576171875,0.39807518896758554,1.0305363491758703,0.6222339268349111
1789665778878357800,1.560357666015625,0.6852040316194296,0.8188593456104397,0.6243177473716437
1789665778888310800,1.570310791015625,0.8543594057977199,0.5576987646907567,0.5322003854926676
1789665778898263000,1.580262939453125,1.0011281761229038,0.2870554851546883,0.35595571064054965
1789665778908216000,1.590216064453125,1.175298748114705,0.09898235227763652,0.15802980372570455
1789665778918167800,1.600167724609375,1.3836696958720682,-0.0591816722869873,-0.053594373673945664
1789665778928120800,1.610120849609375,1.5678747551441192,-0.18010230012834072,-0.15689853467345236
1789665778938073600,1.620073486328125,1.7367828765630722,-0.2549292853146791,-0.07246105977259576
1789665778948026400,1.6300263671875,1.7225334019362926,-0.2519827104687691,0.05456394935846329
1789665778957978400,1.639978271484375,1.610029889306426,-0.1754644111946225,0.17091471200101077
1789665778967931400,1.649931396484375,1.3492121304750442,-0.11827040559351444,0.25845139502622183
1789665778977883600,1.659883544921875,1.0010907667219637,-0.08520166420638561,0.28880810097567733
1789665778987836700,1.669836669921875,0.7225584875017405,-0.11593611742705107,0.23689104939680544
1789665778997788400,1.679788330078125,0.6662701985687017,-0.1846387745141983,0.1510355243915692
1789665779007741400,1.689741455078125,0.8983709814816713,-0.28939211140871046,0.02058627643287182
1789665779017693400,1.699693359375,1.2242448575913905,-0.502872657264769,-0.1131388148587197
1789665779027646500,1.709646484375,1.5134680421739817,-0.7792226240098475,-0.2207244891023263
1789665779037598700,1.7195986328125,1.6258277624189852,-1.0730372280359268,-0.24223580795824526
1789665779047551700,1.7295517578125,1.5025257923990487,-1.3174533026427029,-0.2906763790655881
1789665779057503500,1.73950341796875,1.11204704990983,-1.5245578837260603,-0.4758624852642417
1789665779067456500,1.74945654296875,0.6217582721471786,-1.5705714468821883,-0.8204966644886881
1789665779077408500,1.759408447265625,0.11258008499741554,-1.4449346041738986,-1.053340593919158
1789665779087361500,1.769361572265625,-0.32664544500410553,-1.4173068847969175,-1.1103457989498973
1789665779097313500,1.7793134765625,-0.5043184721589088,-1.3621210041478276,-0.9910176279317587
1789665779107266300,1.789266357421875,-0.579072976630926,-1.2753186267465353,-0.9261781490787864
1789665779117218600,1.799218505859375,-0.5629302356034517,-1.235441666649282,-0.91355934439376
1789665779127171600,1.809171630859375,-0.5856576157182455,-1.1804805346667766,-0.8815110320955515
1789665779137123600,1.81912353515625,-0.7588397611945867,-1.0569970706000924,-0.840074786792323
1789665779147076600,1.82907666015625,-0.9791343709796666,-0.8695172274410724,-0.760117306849733
1789665779157028400,1.8390283203125,-1.1288386102348564,-0.595358340999484,-0.6039778469152748
1789665779166981400,1.8489814453125,-1.0760627133369445,-0.3469689788475632,-0.5245806677365675
1789665779176933600,1.85893359375,-0.8393968144655227,-0.2543111534163356,-0.592647109279409
1789665779186886700,1.86888671875,-0.46563832063078875,-0.3841168062418699,-0.6360021207507699
1789665779196838700,1.878838623046875,-0.01211129355430603,-0.6194719147756695,-0.5706729221520945
1789665779206791700,1.888791748046875,0.48700610283017154,-0.7769350975945591,-0.5011075107557699
1789665779216743400,1.898743408203125,1.0374287390381096,-0.842438081857562,-0.5884790663471445
1789665779226696400,1.908696533203125,1.46302263405025,-0.9705217331960797,-0.7174594838622957
1789665779236648400,1.9186484375,1.6176199060440062,-1.0053346879020333,-0.8577681913278996
1789665779246601500,1.9286015625,1.3308137194752692,-0.9317281844213604,-0.8597226863965391
1789665779256553700,1.9385537109375,0.7055459779024124,-0.7259212419331074,-0.5487011461775749
1789665779266506500,1.948506591796875,0.2919832969456911,-0.5392585603758693,-0.4002838779930025
1789665779276458500,1.95845849609375,0.15093407331109046,-0.7039294826164841,-0.6885630597237498
1789665779286411500,1.96841162109375,0.0692377868771553,-1.068258469326794,-1.0429007407084108
1789665779296363500,1.978363525390625,0.14936989273428916,-0.8004279091238975,-1.2066905692655592
1789665779306316500,1.988316650390625,-0.07436521289348602,-0.32467151458263394,-1.256413435268402
1789665779316268500,1.9982685546875,-0.620088293108344,-0.2869201683372259,-1.191114522210136
1789665779326221600,2.0082216796875,-1.023614148697257,-0.32857875115424395,-1.2165353791926055
1789665779336173600,2.018173583984375,-1.162059327313304,0.0067167410343885415,-1.5056222971096633
1789665779346126600,2.028126708984375,-1.1395721856951713,0.3439943469509482,-1.5459991695530713
1789665779356078600,2.03807861328125,-1.1162404099464416,0.5119526202991604,-1.3027376718088983
1789665779366031600,2.048031494140625,-1.1074503697693348,0.6337079453989863,-1.0141902675960213
1789665779375983400,2.0579833984375,-1.1028718098074197,0.7286313776746391,-0.917739698818326
1789665779385936400,2.067936279296875,-1.0814952597796916,0.8059826206415891,-1.0317139415878802
1789665779395888600,2.077888671875,-0.9416694404602051,0.8270774311184883,-1.2760662302434445
1789665779405841700,2.087841552734375,-0.7728595187187194,0.7394613992467522,-1.4976106939591467
1789665779415793400,2.09779345703125,-0.5340799886941909,0.5182265860021114,-1.5933651702314615
1789665779425746400,2.107746337890625,-0.3474439028829336,0.270356863810122,-1.7357469576440752
1789665779435698400,2.117698486328125,-0.23569150088131427,0.12342822674810885,-1.781992722120881
1789665779445651500,2.1276513671875,-0.013097381982207298,0.038024025706946844,-1.7794598426423966
1789665779455603700,2.137603759765625,0.29797990701198573,-0.013031038747727871,-1.6475678850620985
1789665779465556700,2.147556640625,0.5691752674728632,0.015171850168704986,-1.4205619410701096
1789665779475508500,2.157508544921875,0.6657412062585354,0.12365414445847273,-1.3079896009877323
1789665779485461500,2.16746142578125,0.465958638626337,0.19932517925351856,-1.266286886768043
1789665779495413500,2.17741357421875,0.19227146134972573,0.20978753655701873,-1.2217005799360572
1789665779505365500,2.187365478515625,-0.09399930316805839,0.22301380561590192,-1.1056629748959093
1789665779515318500,2.197318603515625,-0.3602490239202976,0.28560733217298984,-1.0258327745947986
1789665779525270500,2.2072705078125,-0.5053641818195581,0.3656955988883972,-1.051260865035653
1789665779535223600,2.2172236328125,-0.6346440572053194,0.37942806390374895,-0.9814104992181062
1789665779545175600,2.227175537109375,-0.5349298835217953,0.5909472465589642,-1.240237961015105
1789665779555128600,2.237128662109375,-0.3381768928438425,0.7758209988728165,-1.3751305617161094
1789665779565080600,2.24708056640625,0.06833937673270701,0.6298249664857983,-0.9759825558852404
1789665779575033300,2.257033447265625,0.6475193208694457,0.5325906269192695,-0.49405331792794166
1789665779584985600,2.266985595703125,1.086507534983754,0.43651422521620986,0.06274827872738242
1789665779594938600,2.276938720703125,1.1813596555888652,0.3765665369927883,0.653077685648948
1789665779604890600,2.286890625,0.9822551333487033,0.3820227565720677,0.9414384812485426
1789665779614843600,2.29684375,0.6994955918222665,0.484181693059206,0.7643357282623648
1789665779624795400,2.30679541015625,0.29630291371047496,0.4126049418404698,0.32075434113889933
1789665779634748400,2.31674853515625,-0.19066227258741855,0.24280630132257938,0.18406258206143974
1789665779644700400,2.326700439453125,-0.37294776197373863,0.2785696886211633,0.2871042927324772
1789665779654653400,2.3366533203125,-0.2441390112310648,0.512844892963767,0.4227168782711029
1789665779664605700,2.346605712890625,-0.08659107273817061,0.7929746705085039,0.6819248638182878
1789665779674558700,2.356558837890625,0.01891688191592693,0.8333861758738755,0.8182204631850123
1789665779684510500,2.366510498046875,0.16274609165787696,0.7031880165994167,0.7415278302572668
1789665779694463500,2.37646337890625,0.32061376362442967,0.47169162932038305,0.546230445215106
1789665779704415500,2.38641552734375,0.5067611891359091,0.2153796574756503,0.3485387123823166
1789665779714368500,2.396368408203125,0.6876601925998925,0.04608692065328359,0.2193222576215863
1789665779724320800,2.40632080078125,0.8421943362295627,-0.007852467066049576,0.17138474066555498
1789665779734273500,2.4162734375,0.995685692808032,0.07341419577896595,0.2432838557064533
1789665779744225500,2.4262255859375,1.2772276752382516,0.07670943793207406,0.26620675839334723
1789665779754178600,2.436178466796875,1.6220716247558593,0.015954524978995323,0.3294360986359417
1789665779764130600,2.446130615234375,1.929861562642455,-0.019712708468735216,0.5102607216894627
1789665779774083600,2.45608349609375,2.1735195123583075,0.0663341743901372,0.7957007344715297
1789665779784035300,2.466035400390625,2.3178414740532634,0.12454027964323758,1.068007855566591
1789665779793988400,2.47598828125,2.184171839275956,0.07329758366197348,1.1888900510936975
1789665779803940600,2.485940673828125,1.7897768001258372,-0.04081745581775904,1.108910943841189
1789665779813893600,2.4958935546875,1.1817694054335355,-0.2117106135740876,0.9141985190801322
1789665779823845600,2.505845703125,0.456381831985712,-0.39753362943679094,0.6640697659149766
1789665779833798700,2.515798583984375,-0.1117237604290247,-0.569682924734056,0.49661111265197394
1789665779843750400,2.52575048828125,-0.40929508664011954,-0.6681126115649938,0.32211773844659325
1789665779853703400,2.535703369140625,-0.5620733265131712,-0.6370423505187034,0.07782207534909248
1789665779863655700,2.54565576171875,-0.7036456972390412,-0.6499535622790455,0.05753361281901598
1789665779873608700,2.555608642578125,-0.7815595425248145,-0.6668672876790166,0.16510829074457287
1789665779883560400,2.565560546875,-0.6824807441353797,-0.732928782607615,0.4012963429711759
1789665779893513500,2.575513427734375,-0.4794488193184137,-0.8516440093591808,1.0545891326755286
1789665779903465500,2.585465576171875,-0.16342589061558246,-0.8213336267694831,1.5584442251063881
1789665779913418500,2.59541845703125,0.29355273821949956,-0.5123422041386365,1.7678195276007056
1789665779923370500,2.60537060546875,0.5456570292413234,-0.13884849871993063,1.7292282233998177
1789665779933323300,2.6153232421875,0.5769698668718337,0.06748451346904039,1.6222081106171011
1789665779943275300,2.625275146484375,0.36174598447978495,0.07168371872454882,1.5067168143481016
1789665779953228300,2.635228271484375,0.06525251663327217,-0.09490618887990712,1.2626495531789959
1789665779963180300,2.64518017578125,-0.3150450235813856,-0.309907952953875,0.9460831652492284
1789665779973133300,2.65513330078125,-0.8432511518061161,-0.4721387885659933,0.6834085265047848
1789665779983085300,2.665085205078125,-1.4260428566992283,-0.44980391490012406,0.3982594594933092
1789665779993038300,2.675038330078125,-1.9917337891876696,-0.33308716848939657,0.07292129769548773
1789665780002990300,2.684990234375,-2.3812428098618983,-0.1592944898992777,-0.11274287434369325
1789665780012943400,2.694943359375,-2.500594580951333,0.028180969345569608,-0.15748773273825645
1789665780022895400,2.704895263671875,-2.4368355177462098,0.1853995297536254,-0.14847674328684807
1789665780032848400,2.714848388671875,-2.3963193829625844,0.3872767315775156,-0.1960436733648181
1789665780042800400,2.72480029296875,-2.321488306123018,0.5495838472962379,-0.24377207761481404
1789665780052753200,2.734753173828125,-2.356095509123802,0.6282566942557692,-0.18912644132226705
1789665780062705200,2.744705078125,-2.4544945085555314,0.7562924147993326,-0.10690803071036935
1789665780072658200,2.754658203125,-2.6274977903336283,0.9370897114545106,-0.09385200365185738
1789665780082610400,2.7646103515625,-2.749986690405011,1.0613555580705403,-0.12864647285304961
1789665780092563500,2.7745634765625,-2.576127084058523,1.0033969978377222,-0.3177668497607112
1789665780102515200,2.78451513671875,-2.257526998344064,0.8860726409226656,-0.4937871412724256
1789665780112468200,2.79446826171875,-1.9714222380429505,0.806040488308668,-0.5991691314592957
1789665780122420200,2.804420166015625,-1.845212271621823,0.7606324898302554,-0.5067122354276478
1789665780132373200,2.814373291015625,-1.7172306193530558,0.7978276634976267,-0.3806125975131988
1789665780142325500,2.824325439453125,-1.321304717373848,0.8681357099547982,-0.3204093270935118
1789665780152277200,2.83427734375,-0.6663800886839628,0.9299246421307324,-0.27052345254868265
1789665780162230300,2.844230224609375,0.06061375091671943,0.9320195685833692,-0.26684067238271236
1789665780172182300,2.854182373046875,0.3518623038470745,0.9576911854565143,-0.24779037334546444
1789665780182135300,2.86413525390625,0.2570318105518818,1.0516609702691435,-0.24718159379735588
1789665780192087300,2.87408740234375,0.09811901344656944,1.019803942759335,-0.23965075990110635
1789665780202040300,2.884040283203125,0.13861235187649726,0.9707678169116377,-0.25795126348435876
1789665780211992300,2.893992431640625,0.45131227363646026,0.9737029935806989,-0.4823946635119617
1789665780221945300,2.9039453125,0.6031880117118358,0.9956406846225261,-0.787677002491802
1789665780231897300,2.9138974609375,0.45306057860851284,1.0039210217118262,-0.797642662319541
1789665780241850400,2.923850341796875,0.20314941371679304,1.0771420330062509,-0.5830562010481953
1789665780251802400,2.93380224609375,0.19582476991713046,1.1250655214369296,-0.43745515932813284
1789665780261755100,2.943755126953125,0.2556155140131712,1.1493442226469517,-0.46403132382556794
1789665780271707400,2.953707275390625,0.3291121273785829,1.1586623783513903,-0.4498050839439034
1789665780281660400,2.963660400390625,0.6169640236079692,1.1515006700284778,-0.3469653255857527
1789665780291612400,2.9736123046875,0.9366945746570825,1.1122172919102014,-0.20460779583156108
1789665780301565400,2.9835654296875,1.3190502164453268,1.0981138016253709,-0.08561872057467698
1789665780311517200,2.99351708984375,1.6390093155533074,1.1956345569178461,-0.018956044882535935
1789665780321470200,3.00347021484375,1.918772013351321,1.338155460540205,0.017180413512140513
1789665780331422200,3.013422119140625,2.1239929726451634,1.3082071892611682,0.0639788434356451
1789665780341375200,3.023375244140625,2.1204981162667274,1.1149106226474046,0.002870294739305973
1789665780351327500,3.033327392578125,1.8385060519814491,0.8947316020660102,-0.038178485616296526
1789665780361280500,3.043280517578125,1.475607390335202,0.7436671803735196,-0.10986775729879736
1789665780371232300,3.053232177734375,1.344363521400094,0.7281633217714727,-0.25736498802900315
1789665780381185300,3.063185302734375,1.5974024629235266,0.9122931238502263,-0.5693796309385448
1789665780391137300,3.07313720703125,2.0089426981419325,0.8893963785178959,-0.8183143520135432
1789665780401090300,3.08309033203125,2.3805355383753777,0.5000859491556883,-0.8827545293506235
1789665780411042300,3.093042236328125,2.676931391066313,-0.012458061165362596,-1.047953932444751
1789665780420995300,3.102995361328125,2.8062475068092345,-0.5115848099000752,-1.2923524713948369
1789665780430947300,3.112947265625,2.6431764209806916,-0.9600643443286418,-1.4822069347307085
1789665780440900400,3.122900390625,2.4860990226089954,-1.1096069632813335,-1.9063284191027283
1789665780450852400,3.132852294921875,1.810793869191408,-1.346117233199626,-1.8268249665379523
1789665780460805400,3.142805419921875,1.1362141074389218,-1.3857551238439976,-1.6305252725854515
1789665780470757000,3.152757080078125,0.5266004465937614,-1.2697313281334937,-1.7688650911308823
1789665780480710100,3.162710205078125,-0.17889350886046884,-1.1212209748379887,-1.6585775009848176
1789665780490662400,3.172662353515625,-0.7102157232791185,-0.9353324925236404,-1.6033166554033755
1789665780500615400,3.182615478515625,-1.0299614718973635,-0.6866482390783727,-1.5090177847668527
1789665780510567400,3.1925673828125,-0.9896808994352817,-0.1521941563747823,-1.5035413991823792
1789665780520520200,3.202520263671875,-0.8733885159164667,0.26647052389606835,-1.473955239214003
1789665780530472200,3.21247216796875,-0.8144336381226778,0.4260831398338079,-1.2302411753967404
1789665780540425200,3.22242529296875,-0.7750543984144925,0.46781186527758833,-0.8438228872794657
1789665780550377500,3.23237744140625,-0.71849372228086,0.3834044201888144,-0.4954551475498825
1789665780560330500,3.24233056640625,-0.54405953091681,0.27422157641425726,-0.32181254495494066
1789665780570282200,3.2522822265625,-0.32077275357842444,0.2341822653621435,-0.29833873038701714
1789665780580235300,3.2622353515625,-0.019600772526860235,0.23928470306769012,-0.31022169507816433
1789665780590187300,3.272187255859375,0.29285248099565503,0.17228519663661718,-0.28369967192076145
1789665780600139300,3.28213916015625,0.5014116448014975,-0.02266848953440785,-0.267990134678781
1789665780610092300,3.29209228515625,0.6745680713146924,-0.19352102301940322,-0.3145270641218871
1789665780620044300,3.302044189453125,0.7567424966543912,-0.3358883435152471,-0.33316403311789033
1789665780629997300,3.311997314453125,0.6330290232241154,-0.5415294279173016,-0.25318689862675964
1789665780639949300,3.32194921875,0.42796705388426776,-0.739401047361642,-0.16234087185785173
1789665780649902300,3.33190234375,0.25904139680862426,-0.8050209360025823,-0.09298216201476753
1789665780659854300,3.341854248046875,0.030036826345324515,-0.7751559590928256,-0.11189422162510454
1789665780669807400,3.351807373046875,-0.2566261523604393,-0.8134544178269804,-0.11256978279910981
1789665780679759400,3.36175927734375,-0.6229360837548971,-0.9374939083412289,0.0157376673579216
1789665780689712400,3.37171240234375,-1.1406564738005398,-1.0238825903750954,0.08232274776920676
1789665780699664400,3.381664306640625,-1.697284394389391,-1.023843573538959,0.04355930187180638
1789665780709617400,3.391617431640625,-2.155883317902684,-0.9203566033184528,0.09030775517374276
1789665780719569400,3.4015693359375,-2.3867367311030625,-0.691808106059581,0.2646917507205158
1789665780729522200,3.411522216796875,-2.485001290500164,-0.4485167976990342,0.3614487550988793
1789665780739474200,3.42147412109375,-2.649799053990841,-0.35815059033632274,0.31189404873717574
1789665780749427200,3.43142724609375,-2.8907921684116125,-0.4251575494214892,0.21226320595555007
1789665780759379500,3.44137939453125,-3.019130963554978,-0.5368617283672094,0.12241623669397085
1789665780769332500,3.45133251953125,-2.9445857179194688,-0.5770376714110375,0.13838584964424372
1789665780779284200,3.4612841796875,-2.7124212221205233,-0.5926689557850361,0.14580412654411046
1789665780789237200,3.4712373046875,-2.3486510383367536,-0.563780130431056,0.16847265261113642
1789665780799189200,3.481189208984375,-2.099703750041127,-0.6042071256265044,0.23958416093830018
1789665780809142300,3.491142333984375,-1.7164339160174131,-0.7390829213231802,0.37788755646348
1789665780819094500,3.501094482421875,-1.3917781835258005,-0.8144611106514931,0.5464226798515767
1789665780829047600,3.511047607421875,-1.312671329063177,-0.9941177128389477,0.47114616079945115
1789665780838999300,3.520999267578125,-1.2223486685812472,-1.1354247106269002,0.44456389535479246
1789665780848952300,3.530952392578125,-1.1173854883283376,-1.2618082800492643,0.608182166737318
1789665780858904300,3.540904296875,-0.8740320745170116,-1.2672875882431864,0.7863127284012734
1789665780868857300,3.550857421875,-0.41180327006876466,-1.1351999619603157,1.0371214997198432
1789665780878809000,3.56080908203125,0.18365210156440734,-0.9866428469136357,1.4241858306556938
1789665780888762000,3.57076220703125,0.7808803280889988,-0.9759981187805533,1.8584497927270829
1789665780898714400,3.58071435546875,1.1934522444427014,-1.0898226508811115,2.2505463456764816
1789665780908667400,3.59066748046875,1.5511334637016057,-1.1463456253528594,2.454168345341086
1789665780918619400,3.600619384765625,1.9292577515304088,-1.0730987489648163,2.4245178879648446
1789665780928572400,3.610572509765625,2.412060557451844,-0.929963951227814,2.4031970136471092
1789665780938523600,3.620523681640625,2.774015800768137,-0.6966326036065816,2.2718065758481623
1789665780948476000,3.630475830078125,2.9537714794158934,-0.32017054990157484,2.0431585637375713
1789665780958429000,3.640428955078125,2.9489935974895953,0.04731923892721533,1.778158258524537
1789665780968381000,3.650380859375,2.9184429764032362,0.3186225898072123,1.5440712702304125
1789665780978333700,3.660333740234375,3.0204601663321253,0.5406855244390666,1.16083804189004
1789665780988285700,3.67028564453125,3.2718887500494716,0.629519553798437,0.510704446868971
1789665780998238700,3.68023876953125,3.6522219460994,0.6236949392981826,-0.2660490105483681
1789665781008191000,3.69019091796875,4.043077120685577,0.4930944097679108,-0.8318002218566835
1789665781018144000,3.70014404296875,4.2033705584943295,0.12757161016315222,-1.0912554601632058
1789665781028095700,3.710095703125,4.103911236354708,-0.21975838401652872,-1.1291655041016637
1789665781038048800,3.720048828125,3.761789405277371,-0.3367150035977363,-1.0474916486952452
1789665781048000800,3.730000732421875,3.2511458217501636,-0.13416892606895417,-0.7521333223585039
1789665781057953800,3.739953857421875,2.65666367906332,0.34902123520225287,-0.2778598598513752
1789665781067905800,3.74990576171875,2.1011580405026673,0.8982598492573947,0.30386582324542105
1789665781077858800,3.75985888671875,1.621151002779603,1.4161812417678534,0.9086152390550821
1789665781087810800,3.769810791015625,1.173292084467411,1.8183964531496166,1.3227192603468894
1789665781097763800,3.779763916015625,0.8069353913217783,2.042219675452262,1.5525681726798415
1789665781107715800,3.7897158203125,0.48831893899440765,2.043514829829335,1.7151672570824623
1789665781117668900,3.7996689453125,0.23367080870866774,1.8937091760262845,1.7467381611272692
1789665781127620900,3.809620849609375,0.022865911802649498,1.6244745942443608,1.7120315894052385
1789665781137573600,3.81957373046875,-0.1364145495712757,1.3677137095883487,1.6885479840956628
1789665781147526000,3.82952587890625,-0.3270347365826368,1.1170713808778672,1.6631303419835866
1789665781157479000,3.83947900390625,-0.7012696157574653,0.9111679192125797,1.588629520011693
1789665781167431000,3.849430908203125,-1.18207803299129,0.7307116910800338,1.4469031277678905
1789665781177384000,3.859384033203125,-1.640134520190954,0.6128538118101656,1.1946670270599424
1789665781187335700,3.869335693359375,-2.0827502771526576,0.5086809051521122,0.9182735134340823
1789665781197288700,3.879288818359375,-2.5436323431670664,0.3557910215981304,0.5427225832246244
1789665781207240700,3.88924072265625,-2.9720944870918986,0.17228519663661718,0.16011559702381492
1789665781217193700,3.89919384765625,-3.3377930085897445,-0.020662410409003493,-0.20737609150111674
1789665781227146000,3.90914599609375,-3.5745588607043026,-0.1785549245558679,-0.5789079222623259
1789665781237099000,3.91909912109375,-3.720905021703243,-0.29845570783019065,-1.0020949753284454
1789665781247050800,3.92905078125,-3.8977737467378377,-0.34059389085769654,-1.4072899331733584
1789665781257002800,3.939002685546875,-4.074553624445199,-0.36525939942821856,-1.6757459317982195
1789665781266955800,3.948955810546875,-4.15653808017075,-0.35373905750438567,-1.89483671875149
1789665781276908000,3.958907958984375,-4.0829707396566866,-0.3080944737911224,-2.1071935212746262
1789665781286861000,3.968861083984375,-3.898710735327005,-0.25138985914215445,-2.2001973836645483
1789665781296812800,3.978812744140625,-3.5481747116476297,-0.20505071729347107,-2.1784023159638046
1789665781306765800,3.988765869140625,-3.035151539507508,-0.11049202667698263,-2.1160190711565314
1789665781316717800,3.9987177734375,-2.330621460649371,0.02768397960886359,-2.126216786174476
1789665781326670800,4.0086708984375,-1.6135083790719509,0.0682278791822493,-2.1668593238167464
1789665781336622600,4.01862255859375,-0.947262730422616,-0.007949936091154814,-2.179673651073873
1789665781346575600,4.02857568359375,-0.24098960728943347,-0.11234802980720997,-2.1922592841416595
1789665781356527900,4.03852783203125,0.3132715841680765,-0.17931626431718467,-2.2895921156466006
1789665781366481000,4.04848095703125,0.6703419780522585,-0.20373583530262113,-2.461881988458335
1789665781376433000,4.058432861328125,0.9003566023409366,-0.16985680044591425,-2.695077580870688
1789665781386386000,4.068385986328125,1.0449334155797958,-0.11783376774191856,-2.7974539595007895
1789665781396337700,4.078337646484375,1.098184528774023,0.02270356084778905,-2.7618478085905314
1789665781406290700,4.088290771484375,1.226797464683652,0.3092075495995581,-2.5520798535168168
1789665781416243000,4.098242919921875,1.4169447734862566,0.6198254043884575,-2.168878262423724
1789665781426196000,4.108196044921875,1.7038333776414394,0.912175196558982,-1.8080055536471307
1789665781436148000,4.11814794921875,2.1381348952442405,1.1680958309985696,-1.4731874697118996
1789665781446100700,4.128100830078125,2.6474253105968235,1.311888069730997,-1.2328519424170254
1789665781456052700,4.138052734375,3.1564041757822037,1.39865186868757,-1.1236403840046376
1789665781466005800,4.148005859375,3.592404313996434,1.386848325908184,-1.0066559996336697
1789665781475957800,4.157957763671875,3.8331513447016476,1.3059113334089516,-0.8267631044723093
1789665781485910800,4.167910888671875,3.9180432123064994,1.2426286555439232,-0.6338507148705422
1789665781495862800,4.17786279296875,3.989980905792117,1.315687900405377,-0.5156672569081187
1789665781505815800,4.18781591796875,3.979152053263783,1.4981579525783657,-0.486574433414638
1789665781515767800,4.197767822265625,3.7551585889607666,1.6299058255128562,-0.5190873675499111
1789665781525720800,4.207720947265625,3.3780028539031743,1.607876656795293,-0.5949049712087958
1789665781535672800,4.2176728515625,3.0644261493086815,1.4274227667503059,-0.6562048777587711
1789665781545624800,4.227624755859375,2.999565846863389,1.1859722639508545,-0.6099384723527357
1789665781555577900,4.237577880859375,3.1523791580498215,0.9283883724741637,-0.6033084232211112
1789665781565529900,4.24752978515625,3.361417629805207,0.5464718527555465,-0.6301027605138718
1789665781575483000,4.25748291015625,3.3925919357478618,0.10017726115062832,-0.6544293925188481
1789665781585435000,4.267434814453125,3.2448762399613855,-0.3009038316346705,-0.6622172699160873
1789665781595388000,4.277387939453125,2.846767148724198,-0.7443737212076783,-0.6396281292282044
1789665781605339600,4.287339599609375,2.3044413097321987,-1.1201976231396198,-0.6245533827584236
1789665781615292700,4.297292724609375,1.7286697127342223,-1.298569738474488,-0.654785950871557
1789665781625245000,4.307244873046875,1.171128768953681,-1.245397974126786,-0.635133302026987
1789665781635198000,4.317197998046875,0.8054127117991446,-1.071220241741836,-0.5678352145081386
1789665781645150000,4.32714990234375,0.5617413180798292,-0.9100904992394149,-0.3693855759801343
1789665781655102700,4.337102783203125,0.2919353661507368,-0.8017103501498699,-0.28042346326168627
1789665781665054700,4.3470546875,-0.018569091391563413,-0.8709040056243539,-0.3253928511271253
1789665781675007700,4.3570078125,-0.35371699180305,-1.0145362314894795,-0.3700574108270928
1789665781684960000,4.3669599609375,-0.5632336024641991,-1.1633541894294321,-0.49087782969698307
1789665781694913000,4.3769130859375,-0.6618097120285034,-1.33563339471668,-0.586421622360684
1789665781704864800,4.38686474609375,-0.745103496786952,-1.539532457756996,-0.6115782754490152
1789665781714817800,4.39681787109375,-0.8279846090912818,-1.6695350944593548,-0.6280879866253585
1789665781724769800,4.406769775390625,-0.8940443504542112,-1.7567242792211473,-0.5811090125031769
1789665781734722800,4.416722900390625,-1.0314596015006303,-1.822235592921078,-0.5002474963929504
1789665781744674800,4.4266748046875,-1.2863847951620817,-1.8149311151266097,-0.4906959703240543
1789665781754627800,4.4366279296875,-1.6139432633578776,-1.7358371201455591,-0.37177053488790984
1789665781764579800,4.446579833984375,-1.962017865359783,-1.6519883318528532,-0.23797457031719385
1789665781774532900,4.456532958984375,-2.20328102889359,-1.5762611829563975,-0.2652943927887827
1789665781784484900,4.46648486328125,-2.303859125930071,-1.5222779560953377,-0.3411366194322705
1789665781794438000,4.47643798828125,-2.4048037181913853,-1.5177031955257057,-0.39719226865321394
1789665781804389600,4.4863896484375,-2.6101602865636346,-1.5249591580033302,-0.4252949120655656
1789665781814342000,4.496341796875,-2.7787720553845165,-1.5254133315116165,-0.32605544322170316
1789665781824295000,4.506294921875,-2.8292244777709246,-1.4398060091137885,-0.16046419126577674
1789665781834247000,4.516246826171875,-2.6950346185117957,-1.2616244479149579,0.013554258904233575
1789665781844200000,4.526199951171875,-2.4686124657571313,-1.084780565060675,0.15710048698633908
1789665781854151700,4.536151611328125,-2.3200644107997417,-1.0032710333704948,0.2891168015986681
1789665781864104700,4.546104736328125,-2.320994385126233,-1.0200886049196123,0.3798870597176254
1789665781874056700,4.556056640625,-2.328730532336235,-1.0181927081704139,0.39034773652069266
1789665781884009700,4.566009765625,-2.272260457095504,-1.0181377631127835,0.36910365376621485
1789665781893962000,4.5759619140625,-2.246017762336135,-0.9470946803793311,0.3052732788905501
1789665781903915000,4.5859150390625,-2.2580513144791126,-0.9495207384824752,0.21865604879781603
1789665781913866800,4.59586669921875,-2.1929425902307034,-0.9223986305400729,0.2307682922001928
1789665781923819800,4.60581982421875,-2.050385884642601,-0.9099202572390437,0.13291450556106865
1789665781933771800,4.615771728515625,-1.8952233799815177,-0.9466691484436393,0.007250263389199972
1789665781943725300,4.625725341796875,-1.709861551889777,-0.9554814004525541,-0.2005073747754097
1789665781953677300,4.63567724609375,-1.5227204391658304,-1.0204746816277503,-0.469525537327677
1789665781963630300,4.64563037109375,-1.3446411692976952,-1.1593120744317769,-0.6670373835489154
1789665781973582600,4.65558251953125,-1.218514789506793,-1.3086816749051213,-0.7262178137268871
1789665781983535600,4.66553564453125,-1.0843769526958464,-1.335200848518312,-0.6354870108354836
1789665781993487400,4.6754873046875,-0.9479629876464605,-1.2156494632035493,-0.35738289389945566
1789665782003440400,4.6854404296875,-0.7256096917659044,-0.9736150230363011,0.005121142406016588
1789665782013392400,4.695392333984375,-0.3685837215453386,-0.8432248483210801,0.31926132610216734
1789665782023345400,4.705345458984375,0.1372860717087984,-0.8236787285909056,0.5435308308675885
1789665782033297400,4.71529736328125,0.8046499107331037,-0.7894228232458234,0.5524896517403424
1789665782043250400,4.72525048828125,1.4174515539646149,-0.8511164783537387,0.4371963622614741
1789665782053202400,4.735202392578125,1.8046967213600873,-1.0500164179325102,0.37752690645754333
1789665782063154400,4.745154541015625,2.19408591504693,-1.2111848850101232,0.5349304680436849
1789665782073107500,4.755107421875,2.662372119837999,-1.1459987116113304,0.6294627090446651
1789665782083060500,4.765060546875,3.0631629975050685,-0.9281054638795554,0.6356817296899855
1789665782093012200,4.77501220703125,3.3001685035943984,-0.6305312150590121,0.6860594794049859
1789665782102964500,4.784964599609375,3.4323394242465493,-0.2545503689996898,0.9191565798789262
1789665782112917500,4.79491748046875,3.661676587665081,0.17581994663402437,1.324398299475014
1789665782122869500,4.804869384765625,3.9459576396703717,0.5729730523206293,1.6705984859071672
1789665782132822500,4.814822509765625,4.149103546255827,0.8176245431184768,1.857651335825771
1789665782142774300,4.824774169921875,4.273144351944327,0.8354100829169153,1.8531170533969998
1789665782152727300,4.834727294921875,4.199036913204193,0.6130950732201338,1.6856432025648653
1789665782162679600,4.844679443359375,3.7700440234035253,0.2773644044846296,1.451747937450558
1789665782172632600,4.854632568359375,3.047421238493919,0.1246126142270863,1.1373675152577458
1789665782182584600,4.86458447265625,2.298748651048541,0.2982886807002127,0.67597150837183
1789665782192537300,4.874537353515625,1.5728151341557501,0.5564790136374533,0.31604587118700145
1789665782202489300,4.8844892578125,0.9044903411448001,0.8062365954026579,0.15384952236637472
1789665782212442400,4.8944423828125,0.31122751111984254,1.1143620488539336,0.05223784449845552
1789665782222394400,4.904394287109375,-0.19886486826539038,1.3532615519963205,0.25966310890354216
1789665782232347400,4.914347412109375,-0.43168928927779193,1.568641647863388,0.5210198699824512
1789665782242299400,4.92429931640625,-0.33324586618244645,1.7868965685144065,0.7501515008915215
1789665782252252400,4.93425244140625,-0.0671118807643652,1.7733299615852534,0.9938268401335925
1789665782262204400,4.944204345703125,0.18317337813675402,1.576021528981626,1.1980839958965777
1789665782272157400,4.954157470703125,0.37549686193466186,1.3626057189248502,1.0980657246999441
1789665782282109400,4.964109375,0.5016010298937559,1.098755022138357,0.9018975481726229
1789665782292062500,4.9740625,0.4531821591615677,0.7865057667553425,0.7657914800286293
1789665782302014500,4.984014404296875,0.36763679608404637,0.47945510292872784,0.5944618305511772
1789665782311966500,4.993966552734375,0.1681990963667631,0.2933433332525194,0.41201179825291034
1789665782321919500,5.00391943359375,-0.03645020051896572,0.21082389386743305,0.17016791222169994
1789665782331871500,5.01387158203125,-0.24572306555211543,0.1656714775852859,-0.017466536977142094
1789665782341824300,5.02382421875,-0.5563637166947126,0.19042071891650555,-0.10016484006047248
1789665782351776300,5.0337763671875,-0.9882663564622401,0.26041926103308793,-0.1971057496383786
1789665782361729300,5.043729248046875,-1.4782722256302834,0.2648642577432096,-0.3812394972398877
1789665782371681500,5.053681640625,-1.9113778114467859,0.23944676176160573,-0.5286113480247557
1789665782381634600,5.063634521484375,-2.2607331009089946,0.19849749625772237,-0.6572644698143005
1789665782391586300,5.07358642578125,-2.513065355467796,0.19460940277799962,-0.8314192597150802
1789665782401539300,5.083539306640625,-2.653830501464009,0.2477224226757884,-0.9775918177127838
1789665782411491300,5.0934912109375,-2.7171891671746966,0.2945636688277125,-1.0697465159274637
1789665782421444400,5.1034443359375,-2.7787720553845165,0.2585327166341245,-1.1207558415442704
1789665782431396600,5.113396728515625,-2.701440978422761,0.2349687395647168,-1.1177109208904206
1789665782441349600,5.123349609375,-2.4899235493332146,0.2699266556993127,-1.0136031884230672
1789665782451301400,5.13330126953125,-2.3592004894018173,0.2527127783089876,-0.9521963874325156
1789665782461254400,5.14325439453125,-2.2557482982337476,0.24894027403295038,-0.8565101540908217
1789665782471206400,5.153206298828125,-2.09802032699883,0.25106004266589876,-0.6103754389978945
1789665782481158400,5.163158447265625,-1.88098910292387,0.33709786543548104,-0.43252705527618523
1789665782491111400,5.173111328125,-1.721936020565033,0.4122647501006722,-0.48136911985650654
1789665782501063400,5.1830634765625,-1.6412158856868744,0.4461775410965085,-0.6280953662142157
1789665782511016400,5.193016357421875,-1.5934616163432598,0.3786211314350366,-0.7784548545077443
1789665782520968400,5.202968505859375,-1.4532359840512274,0.3711696463853121,-0.8378621522441506
1789665782530921500,5.21292138671875,-1.2191910813331603,0.41658524364829064,-0.8717408948399126
1789665782540873500,5.22287353515625,-1.0352876353561877,0.4657689612731337,-0.935173648700118
1789665782550826200,5.232826171875,-0.8790700686842202,0.4666863683789968,-1.022201505420357
1789665782560778500,5.242778564453125,-0.6729571289867162,0.4418602624192834,-1.096912243815884
1789665782570731500,5.2527314453125,-0.3100824327379465,0.4691542197972536,-1.10188067987822
1789665782580683500,5.26268359375,0.19063012388348577,0.4181891717135906,-0.9825026783689856
1789665782590636500,5.272636474609375,0.6094505792379379,0.27120032889693974,-0.9416437214970588
1789665782600588300,5.28258837890625,0.9583002572655678,0.11959990063160657,-0.9878609905317425
1789665782610541300,5.292541259765625,1.284955639141798,0.02380173134803772,-1.011361839237064
1789665782620493300,5.302493408203125,1.6239362495839595,0.047994507840275764,-1.0310483172859997
1789665782630446300,5.3124462890625,1.7464000152140855,0.12849398570507764,-1.0945372583128512
1789665782640398600,5.322398681640625,1.5708084705084562,0.16690817977339029,-1.1191237102977931
1789665782650351600,5.3323515625,1.3249106329113245,0.25010873329043387,-1.1076283566847442
1789665782660303400,5.342303466796875,1.2677356242716311,0.4885539167940616,-1.1196674617856741
1789665782670256400,5.35225634765625,1.4814830043703318,0.795977067194879,-1.0124178510960191
1789665782680208400,5.36220849609375,1.7749322822153568,0.9504621109858155,-0.8427692135080694
1789665782690160600,5.37216064453125,2.2680735267996788,0.9659782445475459,-0.6865895676936954
1789665782700113400,5.382113525390625,3.016708704844117,0.7585334717243909,-0.4750214313302189
1789665782710065400,5.3920654296875,3.8256659573823213,0.26465923669040203,-0.35100407958254215
1789665782720018400,5.402018310546875,4.663528986409307,-0.25510610318630933,-0.42064606334641574
1789665782729970400,5.411970458984375,5.248169534039497,-0.8128867009416222,-0.43963301482386885
1789665782739923500,5.42192333984375,5.3213195259243244,-1.4371278759457171,-0.32414420277290046
1789665782749875200,5.431875244140625,4.857186349159479,-1.9485192091003058,-0.20443075876422226
1789665782759828200,5.441828125,3.9012633424192664,-2.1258567206904293,-0.287424464597553
1789665782769780500,5.451780517578125,2.682445186051726,-1.9393467454768716,-0.576688200386241
1789665782779733500,5.4617333984375,1.4694342546582222,-1.6216880322657525,-0.6591925883326679
1789665782789685500,5.471685546875,0.3812771989017725,-1.3434092894151806,-0.48294404102303085
1789665782799638500,5.481638427734375,-0.38672961908876896,-0.9452787169985473,-0.40562290093339975
1789665782809590300,5.49159033203125,-0.8068640796512365,-0.577557019110024,-0.4173210105769336
1789665782819543300,5.501543212890625,-1.0056061983197926,-0.4162931288339197,-0.5013968856237828
1789665782829495600,5.51149560546875,-1.136340948688984,-0.48401948823481794,-0.46984790114983915
1789665782839448600,5.521448486328125,-1.1959820551812648,-0.7273907299637794,-0.2876561544615775
1789665782849400600,5.531400634765625,-1.0678168630391358,-0.798461285226047,-0.21950959688723087
1789665782859353300,5.541353271484375,-0.9521516715079545,-0.7077917110025882,-0.23058906317576763
1789665782869305300,5.551305419921875,-0.9574562076568603,-0.5490507633328437,-0.06350457698740064
1789665782879257300,5.56125732421875,-1.1562304750293493,-0.36196196531802416,0.0696198449973017
1789665782889210400,5.57121044921875,-1.4693109205394983,-0.14187281497716903,0.0759744747210294
1789665782899162600,5.58116259765625,-1.764547666323185,0.031498131069540976,0.04841719023175537
1789665782909115400,5.591115478515625,-2.0343243921577927,0.08629442787915467,-0.0710389180149883
1789665782919067400,5.6010673828125,-2.1709698278754948,0.08983195435553788,-0.27177571763209996
1789665782929020400,5.6110205078125,-2.1504425881534814,-0.011032558406889438,-0.6062934303812683
1789665782938971600,5.6209716796875,-1.9478817879796027,-0.1804796090081334,-0.9158957514520734
1789665782948924700,5.630924560546875,-1.6244214027523993,-0.37299481598585843,-0.9693797235541045
1789665782958877000,5.640876953125,-1.2034960840731859,-0.5027215583562851,-0.9265194367971271
1789665782968830000,5.650829833984375,-0.800880329066515,-0.5548670483961701,-0.8946474309138953
1789665782978781700,5.66078173828125,-0.5872217962950468,-0.4791314239323139,-0.8447419748857616
1789665782988734700,5.670734619140625,-0.5731681365013123,-0.41667350645363327,-0.7286934100601822
1789665782998686700,5.680686767578125,-0.7468161459237337,-0.3525041088819504,-0.6338984995350241
1789665783008639700,5.6906396484375,-0.9628139352977275,-0.2504337274610996,-0.6580971943113952
1789665783018592000,5.700592041015625,-1.1987281390190123,-0.13094079433530567,-0.6935454512462019
1789665783028545000,5.710544921875,-1.402040634343028,-0.05155512293130159,-0.6396518023647367
1789665783038496800,5.720496826171875,-1.5305571241408586,-0.006719371382892131,-0.5423590106092393
1789665783048448800,5.73044873046875,-1.5306991629600524,-0.0023407179072499275,-0.5063789848852902
1789665783058401800,5.74040185546875,-1.4159376422703265,-0.07395487852692603,-0.44551798120923336
1789665783068353800,5.750353759765625,-1.230375907692313,-0.15591683015972374,-0.4514043358340859
1789665783078306600,5.760306640625,-1.0268822105824946,-0.2295478835597634,-0.5338161501262336
1789665783088258800,5.7702587890625,-0.8888187247604131,-0.2354541849941015,-0.6526843024171889
1789665783098211800,5.7802119140625,-0.8277759347766638,-0.13096943590790033,-0.7195289836127311
1789665783108163800,5.790163818359375,-0.7388099496006966,-0.03790478324145079,-0.6938460416279733
1789665783118116900,5.800116943359375,-0.6012374621659516,0.0016717326045036314,-0.5233526968441903
1789665783128068600,5.810068603515625,-0.4518985490918159,0.07078355501443147,-0.457047237091884
1789665783138021600,5.820021728515625,-0.21074936732649802,0.1506561331525445,-0.4868493048332631
1789665783147974000,5.829973876953125,0.08939560876488685,0.18650223029851912,-0.46789296768978234
1789665783157927000,5.839927001953125,0.43564065725207324,0.117333124743402,-0.40964616510011254
1789665783167879000,5.84987890625,0.9823217688441276,-0.06613339112102985,-0.284716009356454
1789665783177832000,5.85983203125,1.6120003125965594,-0.2642018483117223,0.026672464478760958
1789665783187783700,5.86978369140625,2.26059223113358,-0.33142157336473466,0.42185193200483917
1789665783197735700,5.879735595703125,2.8293308607548475,-0.3940829044610262,0.7766719166137278
1789665783207688700,5.889688720703125,3.140921359968185,-0.4150789307385683,1.15894294885844
1789665783217641000,5.899640869140625,3.2150843282878396,-0.4073085889980197,1.534991014935076
1789665783227594000,5.909593994140625,3.0402947476148605,-0.21948533922880886,1.7924083176732062
1789665783237545700,5.919545654296875,2.6327035422831773,0.18585633361041545,1.9392970611162483
1789665783247498800,5.929498779296875,2.0931442453950644,0.4967445297732949,2.0632238850362596
1789665783257450800,5.93945068359375,1.6917776136666536,0.6977487481549381,2.2156994887009263
1789665783267403800,5.94940380859375,1.5056553225964306,0.8368015372753143,2.222543655507266
1789665783277355800,5.959355712890625,1.5965274336546658,0.7439572493612766,2.127884427125752
1789665783287308800,5.969308837890625,1.9412346050500868,0.42148938230276106,1.9433098038889467
1789665783297260800,5.9792607421875,2.2627561311692,-0.06567249561101197,1.7468495125472545
1789665783307213800,5.9892138671875,2.561395378872752,-0.5077154211208224,1.547194809078425
1789665783317165800,5.999165771484375,2.7442431783169505,-0.87350337446779,1.270391399477422
1789665783327118800,6.009118896484375,2.6815345009475946,-1.1909829317197203,1.0319804835695772
1789665783337070600,6.019070556640625,2.3013094414472577,-1.3637550350904464,0.8895284073997288
1789665783347022800,6.02902294921875,1.702888790267706,-1.354971424654126,0.7947814276695251
1789665783356975900,6.038975830078125,0.9462643670350313,-1.1494976596429944,0.7444527047280222
1789665783366928000,6.048927978515625,0.1064466968089342,-0.8900245934188366,0.740425129712373
1789665783376881000,6.058880859375,-0.55123979780972,-0.6744204795375466,0.8376428104050457
1789665783386832600,6.06883251953125,-0.9735288060575723,-0.4721095624715089,0.9712485861659049
1789665783396785700,6.07878564453125,-1.1900345449537038,-0.2829103481739759,1.047640263385698
1789665783406738000,6.088738037109375,-1.227731530663371,-0.18824439779073,1.099330630069226
1789665783416691000,6.09869091796875,-1.1244663865000009,-0.1529030352964997,1.1716650677874683
1789665783426643000,6.108642822265625,-1.0084007974743843,-0.14561872350722552,1.2762787039503454
1789665783436595700,6.118595703125,-1.029835799691081,-0.15360416930317877,1.3445270413987338
1789665783446547700,6.128547607421875,-1.1763643315196037,-0.12120879713296889,1.2926507236890494
1789665783456500700,6.138500732421875,-1.3614999496400355,-0.19231150109916925,1.1530571056902408
1789665783466452700,6.14845263671875,-1.5292355201482772,-0.27175854730159044,1.0169446078054607
1789665783476405800,6.15840576171875,-1.6556617596685885,-0.3185118229091167,0.8357993744954466
1789665783486357800,6.168357666015625,-1.7043939341336487,-0.3711117787182331,0.7066421025760471
1789665783496309800,6.178309814453125,-1.7262912931650876,-0.3759259010016918,0.6664936320610344
1789665783506262800,6.1882626953125,-1.7166852604299783,-0.33694472070038317,0.6676682287983596
1789665783516214800,6.19821484375,-1.7313900776088236,-0.27027181587517257,0.6445588636286557
1789665783526167800,6.208167724609375,-1.7506652714431286,-0.1917556207820773,0.6298387027502059
1789665783536119800,6.218119873046875,-1.8096049516677855,-0.17141279771625995,0.4732499646782875
1789665783546072800,6.22807275390625,-1.8936615374922752,-0.2102820420756936,0.22623320605382322
1789665783556024800,6.23802490234375,-1.9590058240622281,-0.206924256080389,-0.022352555453032254
1789665783565977900,6.247977783203125,-2.0146756888359785,-0.18284049292057752,-0.22869798873215913
1789665783575929900,6.257929931640625,-2.1134055276572705,-0.14199118065983057,-0.3446599712528288
1789665783585883000,6.2678828125,-2.1440660388588904,-0.007992460058629513,-0.41440212745554744
1789665783595834600,6.277834716796875,-2.0777052687227724,0.12831249165832995,-0.39805041985251005
1789665783605787600,6.28778759765625,-2.0035405468374488,0.2900052748709917,-0.3213753956466913
1789665783615740000,6.297739990234375,-1.9149258593171834,0.4202680238142609,-0.20819697942994533
1789665783625693000,6.30769287109375,-1.861281362891197,0.4873021631672978,-0.13965214325301348
1789665783635644700,6.317644775390625,-1.8421984767585993,0.5310474891304969,-0.09764226278029382
1789665783645596700,6.3275966796875,-1.7931833936989305,0.5543579298302531,-0.07048179558888078
1789665783655549700,6.3375498046875,-1.685034569147229,0.6568050356090068,-0.0966949719928205
1789665783665502000,6.347501953125,-1.496273746266961,0.8138760042399168,-0.024249913506954907
1789665783675455000,6.357455078125,-1.1821698029279708,0.9580322539791464,0.0313369491584599
1789665783685406700,6.36740673828125,-0.8115022608458995,1.0510641734197734,-0.051947190988808865
1789665783695359700,6.37735986328125,-0.606656564605236,1.0646382330030202,-0.21958134694918988
1789665783705311700,6.387311767578125,-0.6886883666038512,1.059226437087357,-0.40256533999368543
1789665783715264800,6.3972646484375,-0.8631482769310473,1.0383350402280687,-0.46305575679168104
1789665783725216800,6.407216796875,-0.8758931922137737,1.0270151893123984,-0.5059683582577854
1789665783735169800,6.417169677734375,-0.6285334653705358,0.9892109438359736,-0.5764535148475319
1789665783745121800,6.427121826171875,-0.2074263603836298,0.8989847294658422,-0.6681883802149444
1789665783755074800,6.43707470703125,0.39899113476872444,0.8118360228449105,-0.6373956209357827
1789665783765026800,6.44702685546875,1.168196807155013,0.719851274369657,-0.4089166817817837
1789665783774978800,6.456978759765625,1.8901596668511629,0.6475774807974696,-0.2130268107391894
1789665783784931800,6.466931884765625,2.4572300709992647,0.6236506617650389,-0.34880540049448605
1789665783794883800,6.4768837890625,2.7111808666706083,0.5526490800857543,-0.5787199984747916
1789665783804836900,6.4868369140625,2.6716613417088984,0.3828320271283388,-0.7978774939887225
1789665783814788900,6.496788818359375,2.501182025450468,0.26365970425903795,-1.0201128625780342
1789665783824742000,6.506741943359375,2.3021435541838406,0.27075755356550213,-1.206067688126862
1789665783834693600,6.516693603515625,2.21075940195024,0.45520343585610384,-1.2800903711929916
1789665783844646700,6.526646728515625,2.1809236511349677,0.6224804489418864,-1.2623442866221068
1789665783854598700,6.5365986328125,2.2676076628535986,0.6964420494705438,-1.1767025504980235
1789665783864551700,6.5465517578125,2.6104332582861183,0.7026815283820033,-1.0275999303977936
1789665783874504000,6.55650390625,3.1210043610990046,0.6022621290385722,-0.8752969798862934
1789665783884457000,6.56645703125,3.5877784077614545,0.3021110154673457,-0.8060249254133551
1789665783894408700,6.57640869140625,3.9671372058212753,-0.13977292008846998,-0.7693339749410748
1789665783904360700,6.586360595703125,4.180711567440628,-0.6139212949112057,-0.8442259881876408
1789665783914313700,6.596313720703125,4.082961971828341,-0.9710966104745864,-1.0307610247772185
1789665783924266000,6.606265869140625,3.5361171941071747,-1.3047814525961876,-1.163475112395361
1789665783934219000,6.616218994140625,2.5433149477809667,-1.3965510970160364,-1.1453544223584233
1789665783944171300,6.626171142578125,1.4408604866027832,-1.1502625065356493,-1.2034898004628718
1789665783954124300,6.636124267578125,0.5199205304384231,-0.8759203724816441,-1.3038961941942573
1789665783964076300,6.646076171875,-0.16038462322354316,-0.7115811664134264,-1.270777768446505
1789665783974029300,6.656029296875,-0.5694032310098409,-0.551381544367969,-1.1794380398765205
1789665783983981000,6.66598095703125,-0.7517676308512687,-0.316133403339982,-1.1684615225058048
1789665783993934000,6.67593408203125,-0.7578378906756639,-0.2030377700358629,-1.1629613907195626
1789665784003886300,6.68588623046875,-0.7106272266894579,-0.19530892934948205,-1.0241609689250588
1789665784013839400,6.69583935546875,-0.5971832183390855,-0.26147651500105856,-0.7976356480568647
1789665784023791400,6.705791259765625,-0.5042272867441177,-0.35345804860591884,-0.5648041397165506
1789665784033744100,6.715744140625,-0.44479836169779297,-0.3784615569591522,-0.3854905057478696
1789665784043696000,6.725696044921875,-0.4003746980816126,-0.4344014708459377,-0.288885623191297
1789665784053648100,6.735648193359375,-0.3528963230699301,-0.48805648866593837,-0.18227949803695082
1789665784063601200,6.74560107421875,-0.405532519236207,-0.5660036516994238,-0.1565808470264077
1789665784073553200,6.75555322265625,-0.5061310745388269,-0.6964207144215703,-0.20199432539753615
1789665784083506200,6.765506103515625,-0.6551514231830835,-0.8043231629967689,-0.3145361242111772
1789665784093458200,6.775458251953125,-0.8544926767885684,-0.8933078528732061,-0.4102751837186515
1789665784103411200,6.7854111328125,-1.0976894387334584,-0.9636915949150919,-0.45808381359800693
1789665784113363200,6.79536328125,-1.330788000512123,-0.9652335636600852,-0.49619405628368257
1789665784123316200,6.805316162109375,-1.5532301437199114,-1.1204168188482522,-0.5961477378115058
1789665784133268200,6.815268310546875,-1.7667343627125023,-1.1975956278577446,-0.6231917390163988
1789665784143221200,6.82522119140625,-1.864261840006709,-1.0143699350118636,-0.5834984649229794
1789665784153173200,6.83517333984375,-1.847648558858037,-0.8067521437093615,-0.5810704340584576
1789665784163125200,6.845125244140625,-1.8552420827269553,-0.7900923930704593,-0.5222682626083492
1789665784173078300,6.855078369140625,-1.8252134396880864,-0.8552753515988588,-0.3960659680370241
1789665784183030000,6.865030029296875,-1.8319640829920767,-0.9009072219610214,-0.2820128878775984
1789665784192983000,6.874983154296875,-1.909860977143049,-0.902213336123526,-0.24157003752589223
1789665784202935300,6.884935302734375,-2.009443048879504,-0.8387854045689106,-0.24440284979902208
1789665784212888300,6.894888427734375,-2.1848832024157048,-0.8777104707688093,-0.00461801518946886
1789665784222840300,6.90484033203125,-2.2190210343390704,-0.8061816503450274,0.10199278613999485
1789665784232793000,6.91479296875,-2.1779992881208656,-0.643802053911984,-0.18150420281551777
1789665784242745000,6.9247451171875,-2.1205817028969527,-0.5890107255384326,-0.3917075901644304
1789665784252698000,6.934697998046875,-2.1137404587000606,-0.6457502653703093,-0.49669418782554564
1789665784262650400,6.944650390625,-2.1921189988881347,-0.8179273254573345,-0.4697647163784131
1789665784272603400,6.954603271484375,-2.2517677041649815,-0.9592851766496896,-0.41573834449537095
1789665784282555100,6.96455517578125,-2.2917934250831604,-1.0591899044692517,-0.44777069203946734
1789665784292507100,6.974507080078125,-2.263511333450675,-1.1295420823290943,-0.5035968068208545
1789665784302460200,6.984460205078125,-2.1192700357764958,-1.0926835932701826,-0.5024671817364171
1789665784312412200,6.994412109375,-1.9021739297717808,-1.0034726934224367,-0.48906087993551045
1789665784322365200,7.004365234375,-1.6654694524556397,-0.894106309774518,-0.3219629132110625
1789665784332317200,7.014317138671875,-1.3170114040941,-0.9264195566192269,0.08411854514479637
1789665784342270200,7.024270263671875,-0.840088303861022,-1.0979337688833475,0.6059873601067811
1789665784352222200,7.03422216796875,-0.2012736829727888,-1.1797232865586875,0.9650112992115318
1789665784362175200,7.04417529296875,0.554978984338045,-1.054116254466772,1.0201714608974755
1789665784372127200,7.054127197265625,1.3409960907936096,-0.9029308367431164,1.0027992511402815
1789665784382080300,7.064080322265625,1.9523346757352351,-0.7953516287729143,1.0667620932891964
1789665784392032300,7.0740322265625,2.3659862040191886,-0.7640273929655551,1.1996646161515265
1789665784401984300,7.083984375,2.6487159349292515,-0.6139630882263183,1.153600272656232
1789665784411937300,7.093937255859375,2.935544333329797,-0.2805263756468892,1.0196692835289984
1789665784421889300,7.10388916015625,3.3001439536750317,0.160424078451097,0.9561017973732203
1789665784431842000,7.113842041015625,3.623077684679627,0.6179392983809113,0.936001623956859
1789665784441794000,7.1237939453125,3.9472985328853127,1.0145907381556927,0.9982302627243101
1789665784451747000,7.1337470703125,4.213875001373887,1.1816925408050418,1.1125018079400062
1789665784461699300,7.14369921875,4.470743145796656,1.2327046429008244,1.0956550833616405
1789665784471652400,7.15365234375,4.700806869924068,1.0652351759828627,0.9801382142599672
1789665784481604000,7.16360400390625,4.829729602435231,0.667815674445033,0.7889849432852118
1789665784491557000,7.17355712890625,4.742555761373043,0.2661551743365824,0.5778652082763612
1789665784501509000,7.183509033203125,4.455249808588624,-0.1032575453788042,0.40983335823528466
1789665784511461400,7.19346142578125,3.8916099634110926,-0.3528463464483619,0.3335708603531122
1789665784521414400,7.203414306640625,3.1030256368160245,-0.3998787312582135,0.32924780952222643
1789665784531366100,7.2133662109375,2.20014740704298,-0.29086043039560316,0.4471206671655178
1789665784541319200,7.223319091796875,1.281415774577856,-0.06600640374049543,0.6394749844931066
1789665784551271200,7.233271240234375,0.5034440274119377,0.18066782505661247,0.9155936267003416
1789665784561224200,7.24322412109375,-0.1125987896978855,0.3770589966848492,1.1926433392126112
1789665784571176200,7.25317626953125,-0.5568453627318144,0.5315156911641359,1.5293749286189675
1789665784581129200,7.263129150390625,-0.9020552229523658,0.6733253777772188,1.8354199225343764
1789665784591081200,7.273081298828125,-1.2611083150863647,0.8015111743159592,2.000357532887161
1789665784601034200,7.2830341796875,-1.5692659172415733,0.8955876343734562,2.068151989088207
1789665784610986200,7.292986328125,-1.803583791682124,0.9497982402496039,2.0297651214182375
1789665784620939300,7.302939208984375,-1.9961796626806259,0.9678425771147012,1.9193078737936913
1789665784630891000,7.31289111328125,-2.0945932751595975,0.9366910675257444,1.8179282511159776
1789665784640843300,7.32284326171875,-2.1356828259170055,0.8744716349780559,1.6997431857183574
1789665784650796300,7.33279638671875,-2.058946207717061,0.7582403339967131,1.491399564359337
1789665784660748300,7.342748291015625,-1.873668550777435,0.5785933764204383,1.3021335684359072
1789665784670701300,7.352701416015625,-1.6745727963656185,0.365045026025176,1.14670620229356
1789665784680653000,7.362653076171875,-1.4719325012147426,0.1932096189826727,0.9058428517322987
1789665784690606000,7.372606201171875,-1.3885551298260688,0.10809344110265373,0.5774442063853145
1789665784700558000,7.38255810546875,-1.504448284894228,0.01741626809462905,0.2975527676410973
1789665784710511000,7.392510986328125,-1.7321218990147114,-0.045865971378982066,0.12054229604825377
1789665784720463400,7.40246337890625,-1.9716718288898467,-0.08040259336158632,-0.006864405876770615
1789665784730416400,7.41241650390625,-2.153124959105253,-0.06823299374878405,-0.1447767927903682
1789665784740368100,7.4223681640625,-2.2845997141867875,-0.019307634799182415,-0.30594197193235156
1789665784750320000,7.432320068359375,-2.3674527694404124,0.038909430239349604,-0.47364071756154297
1789665784760273200,7.442273193359375,-2.4027310035705565,0.1020889399908483,-0.5831047894302755
1789665784770225400,7.452225341796875,-2.3258266275882717,0.13150748830735684,-0.6276488645557314
1789665784780178400,7.462178466796875,-2.2027467758864163,0.1353923669166863,-0.7040853307653218
1789665784790130200,7.472130126953125,-2.0448849491387606,0.17658757000565528,-0.7467859699811786
1789665784800083200,7.482083251953125,-1.884717183536291,0.23258067538440227,-0.7519253056310117
1789665784810035200,7.49203515625,-1.5692518887162208,0.3439413015894592,-0.8005741126615553
1789665784819988200,7.50198828125,-1.1508499510347843,0.44524844355285165,-0.84171444375813
1789665784829940200,7.511940185546875,-0.6772802528828382,0.49930619695484635,-0.9318173240095377
1789665784839893000,7.52189306640625,-0.18169979845285414,0.5538479344815015,-1.1097989787220954
1789665784849845200,7.53184521484375,0.2544026310920715,0.5034427122376859,-1.2975772203058005
1789665784859797200,7.54179736328125,0.5921037231177091,0.3814668762549758,-1.5530116786636412
1789665784869750300,7.551750244140625,0.7889823860019445,0.3057194152228534,-1.9005711707502602
1789665784879702000,7.561701904296875,0.8064496536314487,0.32672844711244103,-2.217522466344386
1789665784889655000,7.571655029296875,0.7892009971886873,0.3856302795447409,-2.3839295647278425
1789665784899607300,7.581607177734375,0.8456909461736679,0.5339497864432633,-2.3892995673283934
1789665784909560300,7.591560302734375,1.0565823523193598,0.6467626572832464,-2.2227038145050404
1789665784919512300,7.60151220703125,1.3770675211280583,0.8332984975904226,-2.090158507582545
1789665784929465300,7.61146533203125,1.7138766327500343,1.0577204164385794,-1.9631497919991612
1789665784939417300,7.621417236328125,1.9434645560592412,1.2438533750332892,-1.7836182774960994
1789665784949370400,7.631370361328125,2.1066770961850882,1.393074506946653,-1.664514051426947
1789665784959322000,7.641322021484375,2.183009809759259,1.4599030407249927,-1.5608230830669403
1789665784969274400,7.6512744140625,2.154126829624176,1.4405132806003094,-1.5468889579996465
1789665784979227400,7.661227294921875,2.0883423980712887,1.4411800739459693,-1.548825771281123
1789665784989179400,7.671179443359375,2.0217174240410327,1.5739704416707156,-1.555926250936091
1789665784999132400,7.68113232421875,2.0374118367791176,1.8689817081354558,-1.5131719818368554
1789665785009084200,7.691084228515625,2.1694541626155375,2.246272175488621,-1.4942022006899118
1789665785019037200,7.701037109375,2.466056351533532,2.4827213628694413,-1.5437329781867564
1789665785028989400,7.710989501953125,2.828362892505526,2.407268500869721,-1.5832023803964257
1789665785038942500,7.7209423828125,3.2482173670828343,2.0112335855580867,-1.6329697431281207
1789665785048894500,7.73089453125,3.6956308797150847,1.4669360081017015,-1.6253540074273942
1789665785058847200,7.74084716796875,4.20333139552772,1.0028499584142119,-1.5199180950962006
1789665785068799200,7.75079931640625,4.7491415695041415,0.5679211757585406,-1.4067375599876046
1789665785078751200,7.760751220703125,5.150198989152908,0.11327237811051308,-1.2341245927013456
1789665785088704300,7.770704345703125,5.12580104547739,-0.33808614582046864,-0.9040374097455293
1789665785098656300,7.78065625,4.473312119501829,-0.753643726921454,-0.6067237115573137
1789665785108609300,7.790609375,3.4741952832013365,-0.9049901073604821,-0.7032263027831912
1789665785118561300,7.800561279296875,2.283127888068557,-0.8543940387196839,-0.9547975829068571
1789665785128514300,7.810514404296875,1.0947031163990497,-0.83942289875485,-0.9951508552789687
1789665785138466300,7.82046630859375,0.12157996853291987,-0.8007550221864134,-0.8567724582888185
1789665785148419300,7.83041943359375,-0.4898761053085327,-0.6418825570914894,-0.7656837818704545
1789665785158371300,7.840371337890625,-0.8116963221132755,-0.44255606266371905,-0.6627719811894
1789665785168323300,7.8503232421875,-0.9773258602529764,-0.23299115588143465,-0.5377631341863424
1789665785178276400,7.8602763671875,-0.9733452661842107,-0.067854515825212,-0.45819918360598383
1789665785188228400,7.870228271484375,-0.8694108444571494,-0.05451192691028118,-0.4219344591891393
1789665785198181400,7.880181396484375,-0.7070943763881922,-0.1041648694820702,-0.4939904087595641
1789665785208133000,7.890133056640625,-0.5427566316246986,-0.24423867221325635,-0.559575883674249
1789665785218086100,7.900086181640625,-0.43144905078113077,-0.4669663543641567,-0.558524036533758
1789665785228038400,7.910038330078125,-0.4053834661543369,-0.657704468666762,-0.483682986289449
1789665785237991400,7.919991455078125,-0.4389923057675361,-0.762738083807379,-0.429152756537497
1789665785247943400,7.929943359375,-0.49685588119328017,-0.7467454187750816,-0.3476632812546566
1789665785257896200,7.939896240234375,-0.5382265869796276,-0.7894980804391205,-0.2440367746992968
1789665785267848200,7.94984814453125,-0.6378273634165526,-0.9452999059170484,-0.18451571439011022
1789665785277800400,7.959800537109375,-0.7541442968547344,-1.1115844008341431,-0.21248718743715433
1789665785287753200,7.969753173828125,-0.9808996270865201,-1.2969684407576918,-0.301387815759331
1789665785297705200,7.979705322265625,-1.3144330780386924,-1.450987620602548,-0.3130606448311358
1789665785307658200,7.989658203125,-1.636201272395253,-1.5382646297782658,-0.27484062162805345
1789665785317610200,7.9996103515625,-1.959917678210139,-1.5784449567362666,-0.2608558806183748
1789665785327563300,8.009563232421876,-2.253424823722243,-1.5833251299932598,-0.33628501468263566
1789665785337515300,8.019515380859374,-2.4788445214360952,-1.6082620028510688,-0.42424079990275204
1789665785347468300,8.02946826171875,-2.6393063015490767,-1.6608143201261758,-0.5455555781608447
1789665785357420300,8.039420166015624,-2.7714070795744656,-1.7379203561604022,-0.6246842425964773
1789665785367373300,8.049373291015625,-2.8479671721637247,-1.802371493282914,-0.6843701380785554
1789665785377325300,8.0593251953125,-2.804635395437479,-1.804946896728873,-0.7082984184157103
1789665785387277300,8.06927734375,-2.7207646875739098,-1.7527970227748155,-0.7400331347201019
1789665785397230300,8.079230224609375,-2.5870149732977152,-1.7660574863642453,-0.7785457476615906
1789665785407182300,8.089182373046874,-2.395212883025408,-1.784031242211163,-0.7548014455892145
1789665785417135400,8.09913525390625,-2.164703753218055,-1.7899951190516352,-0.7535046837769448
1789665785427087400,8.10908740234375,-1.9502952788621186,-1.763471269263327,-0.7330999744560569
1789665785437040400,8.119040283203125,-1.828293285524845,-1.7191031352266668,-0.6990570542745291
1789665785446992400,8.128992431640626,-1.7465718646496533,-1.6891253455922006,-0.6215649415321648
1789665785456945200,8.138945068359375,-1.7004373054623603,-1.722557075072825,-0.46170452484581614
1789665785466897200,8.148897216796875,-1.6250941874474285,-1.8165131236210463,-0.3329032632898539
1789665785476849400,8.158849365234374,-1.4710843599528074,-1.9085177458405493,-0.25038439016034825
1789665785486802400,8.168802490234375,-1.2319435954004525,-1.9992063170254228,-0.17158954252265393
1789665785496754200,8.178754150390626,-0.91793726721704,-2.0549857796534896,-0.03475139724444598
1789665785506707200,8.188707275390625,-0.5060100785076618,-2.1538275544166563,0.10929313574861735
1789665785516659200,8.1986591796875,-0.08412497488558292,-2.286494149631262,0.26854937599673867
1789665785526612200,8.2086123046875,0.4085825544565916,-2.3927961772724986,0.3932901466481387
1789665785536564200,8.218564208984375,0.908328896394372,-2.361262098106742,0.4814809827331453
1789665785546517200,8.228517333984374,1.222813363483548,-2.2881562376245856,0.6214836929894983
1789665785556469200,8.23846923828125,1.3673510137557983,-2.162671662868559,0.8012310422003269
1789665785566421200,8.248421142578126,1.3975059135228394,-1.9601435959205031,0.9215656868472695
1789665785576374300,8.258374267578125,1.3764759849756956,-1.6621309556826949,0.9753379013061523
1789665785586326300,8.268326171875,1.3255857556939123,-1.3269511988282203,1.0129601412791758
1789665785596279300,8.278279296875,1.3065437860935927,-0.9977812037825584,1.0968787799376993
1789665785606231300,8.288231201171875,1.3675427369356155,-0.6510664919570088,1.2015049833212048
1789665785616184300,8.298184326171874,1.5265285992771387,-0.30183044496029615,1.2624921706601977
1789665785626136300,8.30813623046875,1.7633809606313704,-0.028818974988162514,1.3960937086373566
1789665785636089300,8.31808935546875,1.9832915395349262,0.1258927171654999,1.5389491049110888
1789665785646041300,8.328041259765625,2.2587240991741417,0.10927972827777266,1.7102581499919294
1789665785655994000,8.337994140625,2.6039035642564294,-0.009529606498032807,1.8058679570965468
1789665785665946400,8.3479462890625,2.9350170945852994,-0.15357377416491508,1.7861054181367158
1789665785675898400,8.3578984375,3.105471860924363,-0.22182532648369668,1.740335600608587
1789665785685851400,8.367851318359374,3.1032477551341056,-0.2131929610863328,1.7259451100759207
1789665785695803400,8.377803466796875,2.843046666896343,-0.17067279300391672,1.80484533605054
1789665785705756200,8.387756103515626,2.4772142898857594,-0.1043808503203094,1.9441221431851385
1789665785715708200,8.397708251953125,2.0977759968489407,0.0036935938209295273,2.2355849233880636
1789665785725661200,8.4076611328125,1.8058090665161608,0.3226163356184959,2.5665795035123824
1789665785735613400,8.417613525390625,1.5649030458569526,0.8151113912537693,2.8064409835547206
1789665785745566500,8.42756640625,1.2775228587925433,1.2886645766623317,3.159124540656805
1789665785755518200,8.437518310546874,1.0036486345112323,1.6183100802652537,3.5835344865813847
1789665785765470200,8.44747021484375,0.7063081944465637,1.8460545676648616,3.8406595283746716
1789665785775423200,8.45742333984375,0.33280572119951246,1.9177965924479066,3.8952451050430534
1789665785785375200,8.467375244140625,-0.033784196180105204,1.940435417496413,3.7595901416674256
1789665785795328300,8.477328369140626,-0.29497487997710703,1.9132352758817373,3.471471703456342
1789665785805280300,8.4872802734375,-0.43129415248036385,1.7328990208670496,3.1087545358568427
1789665785815233300,8.4972333984375,-0.49714112787544723,1.4378659809619188,2.8208316202178594
1789665785825185300,8.507185302734374,-0.47915597385168074,1.1767774423651396,2.549140292933583
1789665785835138300,8.51713818359375,-0.4907347679644823,1.000795875428617,2.284891682870686
1789665785845090300,8.52709033203125,-0.5637193401545286,0.9095764122374356,2.0417462127216157
1789665785855042300,8.537042236328125,-0.7578279538035392,0.7965323629900812,1.8101865509480237
1789665785864995300,8.546995361328126,-1.045330305942893,0.6828498697087169,1.620277727076411
1789665785874947300,8.556947265625,-1.3849725951641798,0.591237607807666,1.3491653687238692
1789665785884900400,8.566900390625,-1.74685769585371,0.49876069190129635,1.0395091255087405
1789665785894852400,8.576852294921874,-2.0618606338590384,0.42694677092581984,0.6900971374232322
1789665785904805000,8.58680517578125,-2.359768060156703,0.3735759768746793,0.3421458695400506
1789665785914757400,8.59675732421875,-2.569182379487157,0.349116950661689,0.03403539446219802
1789665785924710400,8.60671044921875,-2.678327813860774,0.34338322931528087,-0.2414145912358537
1789665785934662400,8.616662353515625,-2.7031372609466313,0.30580811641961336,-0.5173000822743401
1789665785944614400,8.626614501953124,-2.653084651532769,0.27651260996088384,-0.7563448756389319
1789665785954567400,8.6365673828125,-2.5833453448742625,0.31821020961403845,-0.9453093313325196
1789665785964519400,8.64651953125,-2.472665540540218,0.33583222941383717,-1.0900701959013939
1789665785974472400,8.656472412109375,-2.320145659342408,0.32211700779423114,-1.2658537560477852
1789665785984424400,8.666424560546876,-2.116644947969913,0.34686186521127815,-1.404295719793439
1789665785994377500,8.67637744140625,-1.7862281677335499,0.38634558820724485,-1.515424583069235
1789665786004329500,8.68632958984375,-1.3764426672279835,0.3334137700952589,-1.6828483111493289
1789665786014282500,8.696282470703125,-0.9565425999432802,0.22380568664595482,-1.8850681889310479
1789665786024234500,8.706234375,-0.5977741699695587,0.09496040328517556,-2.0915084608867764
1789665786034187500,8.7161875,-0.3112397860795259,0.04356719291731715,-2.3436177203446626
1789665786044139300,8.72613916015625,-0.09777356100976467,0.07195142975002526,-2.6039953341931104
1789665786054091500,8.736091552734376,0.04784370119273662,0.1033149746544659,-2.7326445104598998
1789665786064044500,8.74604443359375,0.08835866693258285,0.17226283867433667,-2.723993878753483
1789665786073996500,8.75599658203125,0.16054010604619978,0.30034663614332674,-2.61516730107069
1789665786083949600,8.765949462890624,0.23490941059291362,0.47554479761719703,-2.446427375825494
1789665786093901300,8.7759013671875,0.39128655174076554,0.6668230101458728,-2.253466324776411
1789665786103854300,8.785854248046874,0.7667483423620461,0.8232121339924633,-2.1244643895491957
1789665786113806600,8.795806640625,1.2534364652842283,0.918475173486024,-2.0173481229156254
1789665786123759600,8.805759521484376,1.8856261150747538,0.9611657296992838,-2.0082897871911523
1789665786133711400,8.81571142578125,2.510526776900887,0.9163058666229248,-2.0706096113733947
1789665786143663400,8.825663330078125,3.0169781694352626,0.8611023041866719,-2.13551536039561
1789665786153616400,8.835616455078124,3.3613369657844303,0.8193003673762083,-2.1861355405643583
1789665786163568400,8.845568359375,3.613768589064479,0.8837984123803675,-2.181214889166504
1789665786173521400,8.855521484375,3.8195179561465977,1.1226603599913418,-2.131712314850837
1789665786183473400,8.865473388671875,4.018578639245033,1.4563903564289211,-1.9934198425784706
1789665786193426400,8.875426513671876,4.1308045039772985,1.6596107895553112,-1.8554028262466191
1789665786203378400,8.88537841796875,4.218453561335802,1.7493479052342473,-1.7807459369301795
1789665786213331500,8.89533154296875,4.191677198091149,1.6573298390112816,-1.7809566570714115
1789665786223283500,8.905283447265624,4.113486873951554,1.4649040638826787,-1.7842212118253111
1789665786233235500,8.9152353515625,4.198589753958583,1.1731380629494785,-1.6718039161741733
1789665786243188500,8.9251884765625,4.303678606417775,0.8057223622702062,-1.5612636664412916
1789665786253140500,8.935140380859375,4.294598058861494,0.4995774881768971,-1.4103041664279996
1789665786263093500,8.945093505859376,3.8816660770237443,0.13326565708629787,-1.2128163586694747
1789665786273045500,8.95504541015625,3.1969431069195267,-0.1383344847831875,-1.117654952919483
1789665786282998500,8.96499853515625,2.3176585187017915,-0.33897067357003685,-0.8689207228526472
1789665786292950300,8.9749501953125,1.3487234701752662,-0.48864378703460093,-0.4881047117218375
1789665786302902500,8.984902587890625,0.5626099176079035,-0.5067500101547688,-0.22512736370377243
1789665786312855600,8.99485546875,0.026457214292883873,-0.4519738062851131,-0.09928187408032826
1789665786322807600,9.0048076171875,-0.33677462483048437,-0.36037791099697347,0.020271894987765698
1789665786332760600,9.014760498046876,-0.5634060364216565,-0.28447803588211534,0.18185807602079584
1789665786342712300,9.02471240234375,-0.6514929006755351,-0.21083061586916446,0.3653119333330542
1789665786352665300,9.034665283203125,-0.6747802527606487,-0.1954894004829228,0.5390645721737295
1789665786362617600,9.04461767578125,-0.6696727004885673,-0.21090821115002034,0.6902161606930196
1789665786372570600,9.054570556640625,-0.6246247674942016,-0.25026523902639747,0.7392357737973332
1789665786382522400,9.0645224609375,-0.6497019256055355,-0.30619901543334127,0.7166743978992104
1789665786392474400,9.074474365234375,-0.6758990276575088,-0.31968466608077284,0.6880456117209046
1789665786402427400,9.084427490234376,-0.682241674682498,-0.38292423545643683,0.6512555117230862
1789665786412379400,9.09437939453125,-0.7278034024178981,-0.5625340758927166,0.5885326231652871
1789665786422332400,9.10433251953125,-0.8490881873965263,-0.732361796374619,0.515888498443365
1789665786432284400,9.114284423828124,-0.9772025261342525,-0.91063571203202,0.3247646727588028
1789665786442237400,9.124237548828125,-1.14776192189157,-1.1426990855440498,0.09744373540035449
1789665786452189400,9.134189453125,-1.3703911121040582,-1.3868312286429105,-0.05217154692974873
1789665786462142500,9.144142578125,-1.5871242300152777,-1.5488216796278953,-0.10198310499619692
1789665786472094500,9.154094482421876,-1.8203490485221145,-1.5988780884340406,-0.10315185651462525
1789665786482046500,9.16404638671875,-2.1390099245131013,-1.5783549403652548,-0.09512883692095056
1789665786491999500,9.17399951171875,-2.4187439807385203,-1.5345684056088327,-0.04290094756092876
1789665786501951500,9.183951416015624,-2.6490181327462197,-1.5249956906214355,0.022678855664795262
1789665786511904500,9.193904541015625,-2.8222242436200378,-1.5140791598096488,0.14057074680211953
1789665786521856500,9.2038564453125,-2.949183567103743,-1.5195634364396333,0.20187988697132095
1789665786531809500,9.2138095703125,-2.9768045644789933,-1.566387146934867,0.11251213432773947
1789665786541761300,9.22376123046875,-3.004888503190875,-1.6262836894929409,-0.07028538710079156
1789665786551714300,9.23371435546875,-3.074800243806839,-1.754614593590796,-0.26669899888969956
1789665786561666600,9.24366650390625,-3.1143308746844527,-1.8731144240260122,-0.3996463838070631
1789665786571618600,9.25361865234375,-3.115174339771271,-1.9333046888336538,-0.4767443461326882
1789665786581571300,9.2635712890625,-3.1081063010811802,-1.9311685535877943,-0.530172752122581
1789665786591523300,9.2735234375,-3.0973955219745632,-1.866151014754176,-0.5336851441577076
1789665786601476400,9.283476318359375,-2.9496587834000585,-1.7186393171072005,-0.5204960653040558
1789665786611428600,9.2934287109375,-2.799465299323201,-1.581881068664789,-0.5784107863951474
1789665786621381600,9.303381591796875,-2.6792554500997063,-1.5512065289378165,-0.6421291522637009
1789665786631333400,9.31333349609375,-2.5306220549464222,-1.5571175065472722,-0.6754405433002859
1789665786641286400,9.323286376953124,-2.284140279981494,-1.5938143753036855,-0.7734394374985247
1789665786651238400,9.33323828125,-1.9534177947968243,-1.677032172216475,-0.856535580793023
1789665786661190400,9.3431904296875,-1.625451330322027,-1.7996295010983943,-0.9042645695649086
1789665786671143400,9.353143310546875,-1.200025193092227,-1.8591335372075437,-0.8474293142735958
1789665786681095400,9.363095458984375,-0.6361328344583511,-1.8470204900875686,-0.6236344412826001
1789665786691048400,9.37304833984375,-0.008989362141489982,-1.7988678690761326,-0.3607666180536151
1789665786701000400,9.38300048828125,0.6523667609006166,-1.7315221795558928,-0.13717713144160806
1789665786710953500,9.392953369140624,1.2650655282795429,-1.7537816498979926,0.06816409323103725
1789665786720905500,9.402905517578125,1.7371645693570374,-1.8180258662715554,0.19533870343323795
1789665786730858500,9.4128583984375,2.0594687702864407,-1.8430746750712395,0.3474657859211787
1789665786740810500,9.422810546875,2.341319380274415,-1.698384172324836,0.4728104772824794
1789665786750762500,9.432762451171875,2.6452450439482926,-1.330090665897727,0.5694571531541646
1789665786760715500,9.442715576171874,2.945805030581355,-0.9205869049429893,0.6790458012506365
1789665786770667500,9.45266748046875,3.0855747357994314,-0.524684091578424,0.8774023546677082
1789665786780620300,9.462620361328124,3.218753956711292,-0.19150456863045692,1.0890966746941209
1789665786790572300,9.472572265625,3.382122564181685,0.14574381119161844,1.3031306166492402
1789665786800525300,9.482525390625,3.739081898906827,0.48135348389595745,1.3443633752696216
1789665786810477600,9.4924775390625,4.168351852083206,0.7472920928724109,1.269074033268541
1789665786820429600,9.5024296875,4.48811805896759,0.8275381804980337,1.0953631877429784
1789665786830382300,9.51238232421875,4.770025952100753,0.7281191903688014,0.9705636726416647
1789665786840334300,9.522334228515625,4.954032858452201,0.6220911573633551,0.8545099201843142
1789665786850287400,9.532287353515626,4.905761871758103,0.6111421125214547,0.8025139946829527
1789665786860239600,9.542239501953125,4.638056691500545,0.6466547399293631,0.8002580324497074
1789665786870192600,9.552192626953126,4.234326253250241,0.7735089225381613,0.8551874541196972
1789665786880144400,9.562144287109374,3.7690947598546742,1.0392525934644044,0.9579010288149118
1789665786890097400,9.572097412109375,3.3105840991467237,1.3916418437950313,1.1829470709107817
1789665786900049400,9.58204931640625,2.888439467805624,1.6770482465684413,1.5860092545107005
1789665786910001400,9.59200146484375,2.5505624346911904,1.997410811910778,2.0767275097317994
1789665786919954400,9.601954345703126,2.2152888620734212,2.238969597390294,2.630141290579736
1789665786929906400,9.611906494140625,1.7905185584038494,2.3295468171551823,3.070492317479849
1789665786939859700,9.621859619140626,1.2616507513999937,2.352815610670298,3.3581802553191777
1789665786949811700,9.631811767578125,0.6739455555021763,2.357492516440153,3.4227120564624665
1789665786959764500,9.641764404296875,0.04670972872674465,2.276683534234762,3.3525992403164504
1789665786969716500,9.651716552734374,-0.5676122559398412,2.164204863785207,3.2837817246779797
1789665786979668700,9.661668701171875,-1.1446394059568643,2.0299968843474985,3.149237352892756
1789665786989621800,9.671621826171876,-1.6729501635998487,1.8185891992427408,2.8681305470094083
1789665786999573500,9.681573486328125,-2.1368857719659804,1.5243885185085235,2.46168675814718
1789665787009526500,9.691526611328126,-2.4833587839901448,1.1893014083735645,2.006870421912521
1789665787019478500,9.701478515625,-2.6977339405983685,0.8304984916083514,1.6110962033636866
1789665787029431600,9.711431640625,-2.825163219681382,0.4760569849230349,1.273623805527389
1789665787039383600,9.721383544921874,-2.974790886569023,0.1279692311786115,0.9780584853764622
1789665787049336600,9.731336669921875,-3.075346187251806,-0.16528306278958915,0.7346186353906988
1789665787059288600,9.74128857421875,-3.1546722374230622,-0.4223658728763461,0.5214410910692066
1789665787069240600,9.751240478515625,-3.3020851508706808,-0.644665392743051,0.26866408841758965
1789665787079193600,9.761193603515625,-3.450458433783054,-0.8385171090215444,0.007161251665186137
1789665787089145600,9.7711455078125,-3.4687639058023687,-0.986341087488085,-0.21816870367228983
1789665787099098600,9.7810986328125,-3.419622566014528,-1.0750197801552712,-0.37721455257274206
1789665787109050600,9.791050537109374,-3.3456109888643026,-1.1139283336117862,-0.4668212833376601
1789665787119003600,9.801003662109375,-3.125450234591961,-1.0873024847537278,-0.5316279193669557
1789665787128955600,9.81095556640625,-2.954402178534865,-1.0398397457025945,-0.6218611479997634
1789665787138907600,9.82090771484375,-2.965352027094364,-1.0458479000762104,-0.7391318019662052
1789665787148860700,9.830860595703125,-3.0361265220195053,-1.0798816871032118,-0.7984428727865218
1789665787158812400,9.8408125,-3.037175738811493,-1.0885447398997843,-0.8555109139204025
1789665787168765400,9.850765380859375,-2.924122775605321,-1.0776657646194099,-1.0060511656083166
1789665787178717700,9.8607177734375,-2.744010538604855,-1.0059902292013168,-1.1839686690434812
1789665787188670700,9.870670654296875,-2.4468477931946513,-0.8710439986169338,-1.3180138591349124
1789665787198622500,9.88062255859375,-2.1118939540505406,-0.6495782992258667,-1.411557089098543
1789665787208575500,9.890575439453125,-1.8773866945177315,-0.42442528962418435,-1.4696809228956698
1789665787218527500,9.900527587890625,-1.7215841383874415,-0.20223317565470933,-1.5348900387786328
1789665787228479700,9.910479736328124,-1.5517963115245104,-0.01135930614322424,-1.5825361715726554
1789665787238432800,9.920432861328125,-1.288752693337202,0.14643793093562124,-1.6352299431450663
1789665787248384500,9.930384521484376,-0.9163760092496871,0.32027064927518367,-1.7318416207686065
1789665787258337500,9.940337646484375,-0.487879963055253,0.44869946078956124,-1.8409376630425451
1789665787268289500,9.95028955078125,0.008255202648043632,0.5338377043709158,-1.9007503267094492
1789665787278242600,9.96024267578125,0.6256283915787935,0.6003010580986737,-1.8490933508388696
1789665787288194600,9.970194580078125,1.356336867788434,0.6208769592680037,-1.8473045677259563
1789665787298147600,9.980147705078124,2.1236679784744976,0.6570096182703972,-1.9013753267399967
1789665787308099600,9.990099609375,2.9146769018679857,0.8067899915017187,-2.039457225001603
1789665787318051600,10.000051513671876,3.6440772180885075,0.9795423672586678,-2.1859451325587926
1789665787328004600,10.010004638671875,4.232216713750362,1.1191365697793663,-2.3014698927059767
1789665787337956600,10.01995654296875,4.685974042451382,1.2597002018541097,-2.36105985353291
1789665787347909600,10.02990966796875,5.015126501840353,1.36855074493438,-2.3628059665478767
1789665787357861600,10.039861572265625,5.261251133930683,1.5210324860788882,-2.3689928384892642
1789665787367814700,10.049814697265624,5.377835193872452,1.7281239154197274,-2.426209202052653
1789665787377766700,10.0597666015625,5.467896573069691,1.8407751659572122,-2.379413110216707
1789665787387718700,10.06971875,5.571978294312953,1.7323419715061783,-2.262408194514364
1789665787397671400,10.07967138671875,5.666264597728848,1.4486724755279718,-2.088026756250858
1789665787407623400,10.08962353515625,5.7646139127999545,1.0680159658078103,-1.98025407153517
1789665787417576400,10.099576416015625,5.706344094660878,0.6890615838304162,-1.8940761096425354
1789665787427528700,10.10952880859375,5.384276040574908,0.34338279092386365,-1.8269459625691173
1789665787437481700,10.119481689453124,4.875336922878026,-0.02654671920724213,-1.6503325274698435
1789665787447433500,10.12943359375,4.199114654615522,-0.3294914820849895,-1.396631761036813
1789665787457386500,10.139386474609376,3.2079069840043783,-0.4894700087256729,-1.0172882336113602
1789665787467338500,10.14933837890625,2.1103964089691636,-0.4530013227019459,-0.626664456628263
1789665787477290800,10.159290771484375,1.1620511440068482,-0.21711977914124725,-0.30478039907338095
1789665787487243800,10.169243896484375,0.3582482054919004,-0.039989918952435255,-0.1552042979761958
1789665787497195500,10.179195556640625,-0.20776070690453052,0.14133702760003505,-0.10729695696271956
1789665787507148500,10.1891484375,-0.5147597866743803,0.3241959329601377,0.0836759159438312
1789665787517100500,10.1991005859375,-0.7857341978609561,0.28203414986133574,0.309614742160961
1789665787527053600,10.209053466796876,-1.0339771372795103,0.17950185001716018,0.6284517784364522
1789665787537005600,10.219005615234375,-1.1790817737847565,0.2705690452560782,1.0497628815628588
1789665787546958600,10.22895849609375,-1.292861297699809,0.2956678306773305,1.412337279690802
1789665787556910600,10.23891064453125,-1.3453466872185469,0.20947204086706042,1.5861491013728082
1789665787566862600,10.248862548828125,-1.3812240562856197,0.02648834008350968,1.5478062189750372
1789665787576815600,10.258815673828124,-1.4079530732572079,-0.24340704369470476,1.3693882186718285
1789665787586767600,10.268767578125,-1.5900953547805547,-0.4738853399723768,1.201777516652271
1789665787596720600,10.278720703125,-1.8722890791177749,-0.645200522533059,1.0865251437056809
1789665787606672600,10.288672607421875,-2.1426012270033357,-0.841591401900351,0.9606159868620335
1789665787616625700,10.298625732421876,-2.390066752308607,-1.0196974136449397,0.8123121889892965
1789665787626577700,10.30857763671875,-2.524541273728013,-1.1681019684784113,0.6784888249550014
1789665787636530700,10.31853076171875,-2.5667940230458974,-1.335391841045767,0.5505385907378048
1789665787646482400,10.328482421875,-2.5838293289989234,-1.452542741090059,0.4950899309666827
1789665787656434400,10.338434326171875,-2.6288012741476297,-1.5274915990903972,0.4708476527769118
1789665787666387500,10.348387451171876,-2.6577853765696284,-1.5665893915086984,0.48779703401215374
1789665787676339700,10.358339599609375,-2.6361247489035127,-1.5932244465865193,0.452904328600876
1789665787686292700,10.368292724609375,-2.6490368374466895,-1.662725414444506,0.3432389620063826
1789665787696244500,10.378244384765624,-2.6865210571885108,-1.7665999226778744,0.18445466838525607
1789665787706197500,10.388197509765625,-2.7132787157326934,-1.788262596170604,0.04266437602580991
1789665787716149500,10.3981494140625,-2.673996506658196,-1.7750693525984882,-0.06023609497705474
1789665787726101800,10.408101806640625,-2.627222480523586,-1.7992676820486784,-0.12800862247408368
1789665787736054800,10.4180546875,-2.659850492405891,-1.8023852295473217,-0.09183244399037212
1789665787746006500,10.428006591796875,-2.677583132973313,-1.7585604086071251,0.03696794534933288
1789665787755959600,10.43795947265625,-2.6699995459765193,-1.5776464998349546,0.17879216737784445
1789665787765911600,10.44791162109375,-2.6626404153853653,-1.3221297700211405,0.25324567960929123
1789665787775864600,10.457864501953125,-2.5312094994455574,-1.0975418469563125,0.17673585590254515
1789665787785816600,10.467816650390626,-2.260396416300535,-0.9676838794216513,-0.01461686946733389
1789665787795769600,10.47776953125,-1.9847259562522173,-0.9488985149309038,-0.2700618629189208
1789665787805721600,10.4877216796875,-1.797537497255206,-1.0717626780554652,-0.49556412434969094
1789665787815673600,10.497673583984374,-1.6591881802290678,-1.271033204512298,-0.581836523060128
1789665787825626600,10.507626708984375,-1.5074088882654904,-1.5104638919219373,-0.49333220057915894
1789665787835578600,10.51757861328125,-1.3379600840985775,-1.732512359637022,-0.3874226428542286
1789665787845531400,10.527531494140625,-1.081739005407691,-1.8684332804724573,-0.3786767340797931
1789665787855483600,10.537483642578126,-0.7112532496333122,-1.8809841344878075,-0.06861229365626349
1789665787865436700,10.547436767578125,-0.14995909079909323,-1.7492533588185906,0.2615379445984028
1789665787875388700,10.557388671875,0.49178164666891094,-1.6678008180126547,0.22359956961460412
1789665787885341700,10.567341796875,0.9176204563528298,-1.6259090109616516,0.2599413778556511
1789665787895293400,10.57729345703125,1.0691863978266716,-1.6944819041892885,0.505924519116059
1789665787905245400,10.587245361328126,1.198645136910677,-1.7179066189184784,0.748348104731366
1789665787915198500,10.597198486328125,1.431156838712096,-1.5737642515741288,0.9932124345622956
1789665787925150700,10.607150634765626,1.7367203327208756,-1.2373987920664251,1.105353689751029
1789665787935103700,10.617103759765625,2.023567435821891,-0.8880259669475257,1.133796086511761
1789665787945055500,10.627055419921875,2.2539257589817048,-0.5723303705029189,1.0999851484552026
1789665787955008500,10.637008544921875,2.4428490789473054,-0.22906024617329238,1.0444850872904061
1789665787964960300,10.646960205078125,2.683113879093528,0.03616130057498813,1.0261661712676287
1789665787974912500,10.65691259765625,3.0118717862069606,0.20200155885592103,1.0129898788303136
1789665787984865500,10.666865478515625,3.480885720750689,0.25556524513065815,0.8949676758442073
1789665787994817500,10.676817626953126,3.9686668996065855,0.18968626716211437,0.6536388997282833
1789665788004770600,10.6867705078125,4.291668435150385,0.05032265852689743,0.32916466128341854
1789665788014722300,10.696722412109375,4.3574575428783895,-0.16080094893947242,0.058362309594964606
1789665788024675300,10.70667529296875,4.061828582906723,-0.3583859334621578,-0.10157652435614727
1789665788034627300,10.71662744140625,3.494353689610958,-0.4097574434548616,-0.13053956572380848
1789665788044580400,10.726580322265624,2.7916946653217076,-0.2512274351220578,-0.028136052491609005
1789665788054532600,10.73653271484375,2.1813176188886163,0.05714351752288639,0.19538714568484575
1789665788064484400,10.746484375,1.715251428234577,0.5151593804512172,0.5046197931930423
1789665788074437400,10.756437255859375,1.3116636133253574,0.9499788575135171,0.8988765929162502
1789665788084389400,10.766389404296875,0.9610241292715072,1.302718528717011,1.314540776196867
1789665788094342400,10.77634228515625,0.7490022577911615,1.5230585850790141,1.7353981442064046
1789665788104294400,10.78629443359375,0.5716816973358393,1.6050798656836152,2.074503550072014
1789665788114247400,10.796247314453124,0.31377076586186886,1.5224129806518554,2.2700264144331217
1789665788124199400,10.806199462890625,-0.031980361628532405,1.3964163647204637,2.324041789998114
1789665788134152400,10.81615234375,-0.4111322389394045,1.3449047886699437,2.269366927611083
1789665788144104400,10.8261044921875,-0.7997457720786333,1.3611699870333074,2.167433178181946
1789665788154056200,10.83605615234375,-1.2135621355354784,1.3871759504273533,2.046379571610689
1789665788164009200,10.84600927734375,-1.5988666902571915,1.4045226604171097,1.8998454868242143
1789665788173961500,10.85596142578125,-1.9458909064233303,1.372539814570546,1.827611879131943
1789665788183914500,10.86591455078125,-2.2240824093818663,1.3618752126932143,1.810770634446293
1789665788193866500,10.875866455078125,-2.388597264277935,1.411762986934185,1.7562433638364077
1789665788203819500,10.885819580078126,-2.4231729030966758,1.3672228573314844,1.718444086796045
1789665788213771300,10.895771240234374,-2.3942338088601827,1.2500342556253075,1.4180476201616228
1789665788223724300,10.905724365234375,-2.3402251552969218,1.0587884840615094,1.001213150992617
1789665788233676500,10.915676513671874,-2.272519400292635,0.8653662452414631,0.6386872681815177
1789665788243628500,10.925628662109375,-2.1537509820491074,0.7255196023296564,0.3631470103841275
1789665788253581600,10.93558154296875,-2.0613076761513947,0.6675908527132123,0.17300799448583273
1789665788263533300,10.945533203125,-2.0270166994929313,0.6819420341487974,-0.042593014122918244
1789665788273486300,10.955486328125,-1.9998451994508504,0.7173844458647072,-0.25027334926761685
1789665788283438300,10.965438232421874,-1.9330887079954147,0.7401133603494614,-0.4757598286073655
1789665788293391400,10.975391357421875,-1.8413848222881555,0.7200665976207703,-0.6972825919479131
1789665788303343400,10.98534326171875,-1.745076657655835,0.6482281997911632,-0.8614677764981985
1789665788313295400,10.99529541015625,-1.5415502273201942,0.5884582792874425,-0.9716259681109338
1789665788323248400,11.005248291015626,-1.2789005768865347,0.5001522193249315,-1.1051751913789658
1789665788333200400,11.015200439453125,-0.9523609303444623,0.39089572579227383,-1.2521332737311721
1789665788343153400,11.0251533203125,-0.5293786791354418,0.31066965804137286,-1.4112994610756635
1789665788353105400,11.03510546875,-0.09690262339413165,0.25235936176143586,-1.6533061364531516
1789665788363058400,11.045058349609375,0.261811446043849,0.22832031452618537,-1.868820672354847
1789665788373010400,11.055010498046874,0.512483073914051,0.3097430447157472,-2.060517548687011
1789665788382963500,11.06496337890625,0.5823357778191566,0.42070751121006905,-2.155798123837262
1789665788392915500,11.07491552734375,0.49786535049676894,0.48827064287327226,-2.1932211149111387
1789665788402867200,11.0848671875,0.383396675273776,0.5824165149051695,-2.2043292227722704
1789665788412820200,11.0948203125,0.37954935219585895,0.6965732015695423,-2.2316345783270894
1789665788422772500,11.1047724609375,0.5528717829257249,0.7819535102784633,-2.258934234793484
1789665788432725500,11.1147255859375,0.9246516701638698,0.8367515606537461,-2.26592599337697
1789665788442677500,11.124677490234374,1.44584587379992,0.8650172856733203,-2.2415980461977423
1789665788452630500,11.134630615234375,2.0078385362923146,0.8819960391335189,-2.1139050016120073
1789665788462582300,11.144582275390626,2.5257705232620236,0.9019253860276192,-1.978441176894307
1789665788472534500,11.154534423828125,2.924626633474231,0.9597266368068754,-1.8022912676535545
1789665788482487600,11.164487548828125,3.2982471801429987,1.0454053439404816,-1.6437310833781957
1789665788492439600,11.174439453125,3.7279555247366427,1.2132667327854783,-1.5712015614792703
1789665788502392600,11.184392578125,4.147627043962478,1.3500889133095741,-1.619609180165082
1789665788512344300,11.19434423828125,4.4814802283883095,1.3746861789494753,-1.5854777779825031
1789665788522297300,11.20429736328125,4.741541031372547,1.301357907888293,-1.4575933024778962
1789665788532249300,11.214249267578126,4.997577401146293,1.1652669642481952,-1.2264762699052691
1789665788542202400,11.224202392578125,5.1930765923708675,0.94167879281044,-1.0079304765488952
1789665788552154400,11.234154296875,5.242198642936349,0.6106026718825102,-0.9351686071988194
1789665788562106400,11.2441064453125,5.054405203783512,0.16507869932390748,-0.9238768133338541
1789665788572059400,11.254059326171875,4.575543828964233,-0.32925694267675276,-0.930948578350991
1789665788582011400,11.264011474609376,3.8041935457646843,-0.7821303281500935,-0.88323646764867
1789665788591964400,11.27396435546875,2.89603708332777,-1.1125137906387448,-0.748322093507275
1789665788601916400,11.28391650390625,1.8843132789105175,-1.1592200122341514,-0.48606041947789486
1789665788611869400,11.293869384765625,0.9668915600001812,-0.9147234928023069,-0.2403238916560076
1789665788621821400,11.303821533203125,0.16049451333880424,-0.6011471535339952,-0.11913213698938488
1789665788631773400,11.3137734375,-0.5433668724775313,-0.37193303197324273,0.028950784674286842
1789665788641726500,11.3237265625,-1.0606015248328446,-0.19867840578258036,0.12330726724956184
1789665788651678200,11.33367822265625,-1.3247259239941835,-0.12621405807435512,0.17790656191604212
1789665788661631200,11.34363134765625,-1.3658061224013567,-0.1592925902031362,0.1300225287129171
1789665788671583500,11.35358349609375,-1.2881880451917647,-0.28507074107825753,0.03211547751659527
1789665788681536500,11.36353662109375,-1.0861854634225367,-0.4101318297252059,0.000847958598844707
1789665788691488500,11.373488525390625,-0.8869488392353058,-0.5285965888470411,0.09636553910905495
1789665788701441500,11.383441650390624,-0.7598305257976055,-0.6197213594920933,0.12468078409247099
1789665788711393300,11.393393310546875,-0.7416945651262998,-0.6707077426247299,0.07934189619435929
1789665788721345500,11.403345458984376,-0.8401035014301538,-0.7534294265836476,0.11088995821969583
1789665788731298600,11.413298583984375,-0.9957447295188904,-0.8479676589339971,0.14647303878162055
1789665788741250600,11.42325048828125,-1.1036989082813262,-0.9656187635853886,0.09289096746682189
1789665788751203300,11.433203369140625,-1.2411287723749875,-1.1121719914637505,-0.007879676445850053
1789665788761155300,11.4431552734375,-1.3660370085477829,-1.300349023106694,-0.15329808076238258
1789665788771108400,11.4531083984375,-1.5517302605509757,-1.5157783649429677,-0.2814312337984331
1789665788781060400,11.463060302734375,-1.8270909239977597,-1.6839336221680044,-0.3384200904825702
1789665788791012600,11.4730126953125,-2.0766087056577205,-1.7201014986142515,-0.3159593619473278
1789665788800965400,11.48296533203125,-2.35843125859499,-1.7063678645551204,-0.29710361736780033
1789665788810917400,11.49291748046875,-2.62648832103014,-1.6781287352815268,-0.2416807496250607
1789665788820870400,11.502870361328124,-2.8733284079134465,-1.5903174730986356,-0.17940503857918083
1789665788830822400,11.512822509765625,-3.0625685387432573,-1.5290908509805798,-0.138189103229437
1789665788840775400,11.522775390625,-3.200990336483717,-1.6335843678951263,-0.22908952706670388
1789665788850727400,11.5327275390625,-3.3123727361291646,-2.1077096541032194,-0.5840066701734438
1789665788860679400,11.542679443359376,-3.341096141788363,-1.8970342287957667,-0.47950986532326784
1789665788870632400,11.552632568359375,-3.3461557632654904,-1.5035156802192329,-0.4223219606693834
1789665788880584400,11.56258447265625,-3.353829366633296,-1.3709250728502869,-0.4617214029153809
1789665788890537500,11.572537353515624,-3.2805034336596726,-1.3311971658349036,-0.2553207140513696
1789665788900489200,11.5824892578125,-3.0257027431607244,-1.2796379512503742,-0.2005045982964337
1789665788910442200,11.592442138671874,-2.797827468988299,-1.224834932439029,-0.43387397637311365
1789665788920394500,11.60239453125,-2.6548019768446682,-1.3322884682029486,-0.3535639566658065
1789665788930346500,11.612346435546876,-2.469236150613427,-1.2681006581917404,-0.4677959370560944
1789665788940299500,11.622299560546875,-2.2963865980923175,-1.1551987938940524,-0.44207489155065266
1789665788950250800,11.632250732421875,-2.1259031901806593,-0.9736410342603922,-0.39665271841641514
1789665788960203500,11.64220361328125,-1.9652841736793516,-0.8803419883161783,-0.2678202032056637
1789665788970155800,11.65215576171875,-1.765226296237111,-0.8701803675249219,-0.06892705869385972
1789665788980108800,11.66210888671875,-1.4398656303465365,-0.9277110577344894,0.13368134348141028
1789665788990060500,11.672060546875,-0.8400567396789789,-1.109154543338716,0.34920419055372476
1789665789000012500,11.682012451171875,0.4714116433352232,-1.4866443326562642,0.46747751875668764
1789665789009965600,11.691965576171874,1.287950729304552,-1.6631328262016176,0.5031409162795171
1789665789019917800,11.701917724609375,2.0683856517136094,-1.9124530394628643,0.6361804729923606
1789665789029870800,11.711870849609374,2.7665806823313233,-1.8958964569374919,0.6365118969038128
1789665789039822600,11.721822509765625,3.036964726409316,-1.8221490836814045,0.7178570318125188
1789665789049775600,11.731775634765626,3.120795102262497,-1.6944177529118953,0.7836210050992667
1789665789059727600,11.7417275390625,2.9488854609400033,-1.4717735112607477,0.8195370987415314
1789665789069679600,11.7516796875,2.752296720913052,-1.149377978786081,0.8550280988395214
1789665789079632600,11.761632568359374,2.555019414100051,-0.8087697671420871,0.9447809966094791
1789665789089584600,11.771584716796875,2.426712183138728,-0.4659938560701906,1.0650133499257266
1789665789099537700,11.78153759765625,2.432827451148629,-0.22701778056025504,1.1020184078484774
1789665789109489700,11.79148974609375,2.63943080471158,-0.0355656727693975,1.1728874491892753
1789665789119442700,11.801442626953126,3.0151147136509415,0.10562266707494854,1.2116354783218353
1789665789129394700,11.811394775390625,3.5018098508357998,0.09429156411290168,1.193448298919946
1789665789139347500,11.821347412109375,3.871463247439265,-0.040661242342740295,1.0466132584255188
1789665789149299700,11.8312998046875,3.9460833118766545,-0.2301391274511814,0.7561613357655703
1789665789159251700,11.841251708984375,3.6278847927004096,-0.4490853913672268,0.5465429086977616
1789665789169204700,11.851204833984376,3.0494927840709685,-0.5996240356199443,0.4488829275976866
1789665789179156700,11.86115673828125,2.351955340579152,-0.5985586714107543,0.4212836671302095
1789665789189109500,11.871109619140626,1.6467746888577937,-0.39203130569346245,0.445258270827122
1789665789199061800,11.881061767578124,1.0360679720789194,0.005476970106363296,0.4991294521484524
1789665789209014500,11.8910146484375,0.574472204837203,0.41457061589024957,0.6537994240522385
1789665789218966800,11.900966796875,0.29372283408939837,0.7728853838123381,0.9361544764310121
1789665789228918500,11.91091845703125,0.13389350666105745,1.063662885164842,1.2566399375006556
1789665789238871600,11.92087158203125,-0.01711538545191288,1.239378421576321,1.542307037036866
1789665789248823600,11.930823486328125,-0.17823183008134363,1.3011458725728093,1.6792784898385404
1789665789258776600,11.940776611328126,-0.3713900111377239,1.3054095213666557,1.6742019172266125
1789665789268728800,11.950728759765624,-0.5704939488559961,1.2360140597097575,1.5964615288116037
1789665789278681900,11.960681884765625,-0.7811971389532089,1.1408807840757071,1.5287174876235425
1789665789288633600,11.970633544921874,-1.02724519867599,1.0231430971194058,1.4451209205262363
1789665789298585600,11.980585693359375,-1.2874258286476135,0.9658101214390248,1.3730321281321345
1789665789308538600,11.99053857421875,-1.560607394489646,0.9632665013708174,1.2660831808894872
1789665789318490600,12.00049072265625,-1.794130319160223,0.9810414467100054,1.0872850952275097
1789665789328443600,12.010443603515625,-2.0149124202013016,1.0107510138623417,0.9096854255698621
1789665789338395600,12.020395751953124,-2.1873779418408867,1.0395515033457428,0.8062232975296676
1789665789348348700,12.0303486328125,-2.3273417083263395,1.0279631376869975,0.8192119584403932
1789665789358300700,12.04030078125,-2.4099229609012602,0.9854238265126943,0.774414785336703
1789665789368252700,12.050252685546875,-2.421881694242358,0.9433768288999795,0.6808874835945665
1789665789378205700,12.060205810546876,-2.4283804086118934,0.8782990843117237,0.512400583262369
1789665789388157700,12.07015771484375,-2.447515901714563,0.7736714196234941,0.3358673372598365
1789665789398110700,12.08011083984375,-2.4456331567078826,0.7309305945277214,0.16943881249586118
1789665789408062700,12.090062744140624,-2.4140789115369317,0.7459633284866809,0.011715745764924212
1789665789418015700,12.100015625,-2.3143892877727748,0.7550899071417748,-0.14590312993917615
1789665789427967500,12.109967529296876,-2.080701527929306,0.7628671170145273,-0.27105613465327766
1789665789437919700,12.119919677734375,-1.7605565508604049,0.7642619323737919,-0.4768097029864788
1789665789447872500,12.12987255859375,-1.4084388109475374,0.7732629849530755,-0.5835203844938427
1789665789457824800,12.13982470703125,-1.142860705846548,0.7884640612162649,-0.718221335080266
1789665789467777800,12.14977783203125,-0.9215385065793991,0.8372812836162745,-0.8572429253447801
1789665789477729500,12.1597294921875,-0.7175298456847667,0.9358499405264854,-0.9600357758212834
1789665789487682600,12.1696826171875,-0.4986439336538315,1.037342229798436,-1.1401925095506011
1789665789497634600,12.179634521484376,-0.21578443888425825,1.110482284811139,-1.3124072712995112
1789665789507586800,12.1895869140625,0.10148176787793636,1.161790081917867,-1.4636444192104041
1789665789517539800,12.199539794921876,0.43607787962555883,1.1162832261748612,-1.636121485157311
1789665789527491600,12.20949169921875,0.8018243319183588,1.0762742371957748,-1.7850114854201673
1789665789537444600,12.219444580078125,1.2185083597660065,1.0351575061704963,-1.9561542340233922
1789665789547396600,12.229396728515624,1.5662813484728335,1.0091695168245582,-2.0380960196509954
1789665789557349600,12.239349609375,1.8039684070855377,1.0305601684428751,-1.9477955710008739
1789665789567301600,12.249301513671876,1.943604841312766,1.0578031993512063,-1.7020653450556098
1789665789577253600,12.259253662109375,2.117840879756212,1.1121613239392638,-1.4321666002765296
1789665789587206700,12.26920654296875,2.328182250803709,1.2279694310724734,-1.298974812144041
1789665789597158700,12.27915869140625,2.523308517062664,1.347722476439178,-1.2792581581525504
1789665789607111700,12.289111572265625,2.772004460945725,1.4191209484815597,-1.2264881064735351
1789665789617063700,12.299063720703124,3.000543167462945,1.4047270969480274,-1.1128733446661383
1789665789627016400,12.309016357421875,3.2812066134929654,1.3432029531881213,-1.096362939370051
1789665789636968700,12.31896875,3.617165830287337,1.3313397891759873,-1.2162065125644206
1789665789646920700,12.328920654296875,3.851763106191158,1.3299129712432622,-1.3508670580752193
1789665789656873700,12.338873779296875,3.9531437517821786,1.2778405464395879,-1.4453383626691996
1789665789666825700,12.34882568359375,3.963145505836606,1.2086703449059277,-1.4243150099933146
1789665789676778500,12.358778564453125,4.007714130881428,1.126537566750869,-1.3100430263862013
1789665789686730500,12.36873046875,4.062849742648005,0.9819291162647307,-1.1183514107510446
1789665789696683500,12.37868359375,4.145071514260769,0.7361919491220266,-0.9207860077116637
1789665789706635800,12.3886357421875,4.233893122529984,0.41274449644163247,-0.8355874122451991
1789665789716587500,12.39858740234375,4.1623102338314055,0.06195208684839308,-0.8316071104373782
1789665789726540500,12.40854052734375,3.8156706330686805,-0.31420893808342515,-0.8263677484791725
1789665789736492500,12.418492431640624,3.0874346844524143,-0.715779787147045,-0.747553739483282
1789665789746445600,12.428445556640625,2.127386706736684,-1.0066724393118172,-0.5463195482706651
1789665789756397800,12.438397705078126,1.0777940671741961,-1.0754957271039485,-0.3500874761942774
1789665789766349600,12.448349609375,0.09265840995311736,-0.9130610394828022,-0.168924086173065
1789665789776302600,12.458302490234376,-0.7353764680206776,-0.6959362919054926,0.02410641338303685
1789665789786254600,12.468254638671874,-1.3017454459011555,-0.5091248495273292,0.1942620871776715
1789665789796207600,12.47820751953125,-1.631566598331928,-0.3412354036316275,0.32194362398870285
