time,seconds_elapsed,z,y,x
1789752360163351600,0.0383515625,1.3849270024567841,0.5503337888807058,-0.48958640164695677
1789752360173405400,0.048405517578125,2.095805573558807,0.3601856032952666,-0.43659262421466405
1789752360183459600,0.05845947265625,2.537610598659515,0.4082093372300267,-0.3443585771534592
1789752360193512400,0.068512451171875,2.635275438597798,0.517201626868546,-0.14916180294156073
1789752360203566600,0.078566650390625,2.4475731848597526,0.6731587890386581,0.13244820322357118
1789752360213620500,0.088620361328125,2.11756498542428,0.9485366958811878,0.3014299013353884
1789752360223674600,0.098674560546875,1.5117770203471184,1.2039791914150118,0.2502235918417573
1789752360233728500,0.108728515625,0.8279834400475025,1.3658733424186706,0.09344473802521824
1789752360243781600,0.11878173828125,0.43373219328224655,1.3633502536818385,0.014049714270979166
1789752360253835500,0.12883544921875,0.5772592052072286,1.2387076827079058,-0.0039146892257034775
1789752360263889700,0.1388896484375,1.1501374188512563,0.9778621590867638,-0.12260850786305963
1789752360273943600,0.148943603515625,1.964610219940543,0.6458990261912345,-0.35686624961420893
1789752360283996700,0.15899658203125,3.2337410979628562,0.011761749464273451,-0.5996555267367512
1789752360294050600,0.169050537109375,4.408393949389457,-0.4878279406070709,-0.7107851937301457
1789752360304104400,0.1791044921875,5.155419938671589,-0.906881620195508,-0.7475828194472939
1789752360314158300,0.189158447265625,5.6065106785118575,-1.519364406736195,-0.7914303636759519
1789752360324211700,0.199211669921875,5.093927066832781,-1.9737530190780759,-0.8566006819184869
1789752360334265300,0.209265380859375,4.048040880572795,-2.089561710733175,-0.973704089559242
1789752360344319500,0.219319580078125,2.6713872009426356,-1.3844593849450348,-1.083546785482019
1789752360354373400,0.229373291015625,1.2078782446801661,-0.4728799623221159,-1.1885917257342486
1789752360364426500,0.239426513671875,-0.2371580663025379,-0.27924831853508947,-1.5574635435059665
1789752360374480400,0.24948046875,-1.4275129292517899,-0.7541340677216649,-1.4049747880987822
1789752360384534500,0.259534423828125,-0.8919465013921261,-1.632118971517682,-1.4722887673065066
1789752360394588400,0.26958837890625,0.20759294912219045,-2.158276642780006,-2.327176873153448
1789752360404641500,0.2796416015625,0.43367607918083667,-2.695550751340389,-2.3614672652900217
1789752360414695400,0.2896953125,-0.46138650840520856,-2.7021964729651806,-1.6485142260015009
1789752360424749600,0.29974951171875,-1.9082599716871975,-1.9755586071953177,-0.6381877211615443
1789752360434803500,0.309803466796875,-2.7903146091401574,-1.0201359511926769,0.506065608087182
1789752360444857600,0.319857666015625,-3.3467280101954935,-0.1652428769096732,1.3650946131311357
1789752360454910500,0.329910400390625,-2.9995816289544104,-0.552149898391962,1.3946249512590467
1789752360464964600,0.339964599609375,-1.843189241361618,-1.5373524833694099,0.9900184608265757
1789752360475018500,0.3500185546875,-1.3958552237063646,-1.3238117317587137,1.0486312471844255
1789752360485072600,0.36007275390625,-1.957355718767643,-0.76939885687083,1.6374794756375253
1789752360495125500,0.37012548828125,-3.076955376014113,-0.5717258287385105,2.1944915732383725
1789752360505179400,0.380179443359375,-3.8783120904207227,-0.18774843096733093,2.498859719982743
1789752360515233500,0.390233642578125,-4.416844382348656,0.3688467563956976,2.8899831901162862
1789752360525287700,0.40028759765625,-4.928679221487045,1.0692518642783164,3.284472921812534
1789752360535340500,0.410340576171875,-5.071973593699932,1.6497878991991282,3.4247307028084992
1789752360545394400,0.42039453125,-4.913471130961179,1.9177067222073674,3.2355341188594697
1789752360555448600,0.430448486328125,-4.515926687869429,1.7881141276106238,2.7001626290500162
1789752360565502500,0.44050244140625,-2.8794577044486998,0.9118360277324914,1.9046417811900376
1789752360575555600,0.4505556640625,0.8024497703403234,-2.2535060722649094,0.42940337029770015
1789752360585609500,0.460609375,4.512795988628268,-6.8983011321097605,-2.045393483182788
1789752360595663600,0.47066357421875,4.578908921483158,-5.916356379884481,-2.854348689894378
1789752360605717500,0.480717529296875,2.7778543560177087,-1.0976102360174058,-0.9516400687240063
1789752360615771600,0.490771728515625,0.14432137717306612,0.5816986489593983,-0.6712173726473003
1789752360625824500,0.500824462890625,-1.0896569389253854,1.0197913755387067,-0.8527285897254944
1789752360635878700,0.510878662109375,-2.211434524732828,0.611725538432598,-0.5327825692947954
1789752360645932500,0.5209326171875,-3.712270464348793,0.16455781725496052,-0.48517991031631824
1789752360655986400,0.530986328125,-4.315211223301291,0.48311084895730017,-0.653105450438708
1789752360666039600,0.54103955078125,-4.256757865288853,1.3267144674628972,-0.7634121106114238
1789752360676093700,0.55109375,-3.5819413721710442,2.169714274856448,-0.555672081168741
1789752360686147600,0.561147705078125,-2.2783856619775293,2.4465417959854006,-0.2625791424807161
1789752360696201500,0.571201416015625,-0.6312251886725425,2.1095184570908545,-0.059635626599565145
1789752360706254800,0.5812548828125,0.734674457231164,1.7899387126892805,0.5363450840819627
1789752360716308500,0.59130859375,1.3556640830934046,1.8889073287025093,1.2093606652576476
1789752360726362600,0.601362548828125,1.0784423019498586,1.826284868311882,0.7788371318235993
1789752360736416500,0.61141650390625,0.50196635607481,1.7578771025180815,-0.40669586392715573
1789752360746470700,0.621470703125,-0.05964812075495719,1.9995286808475852,-1.5017698594652116
1789752360756523500,0.6315234375,-0.4635299501746893,2.1520830488368867,-1.9837553576543927
1789752360766577700,0.64157763671875,-0.2045622031241655,2.132771614645421,-1.7167618327975271
1789752360776631600,0.651631591796875,0.4065747217655182,2.2425483326599,-1.107742630714178
1789752360786685700,0.661685791015625,1.6801982350319622,2.708862945117056,-0.6779778797581791
1789752360796738600,0.671738525390625,2.0353449673771857,2.5170713762387633,-0.48695145003348583
1789752360806792700,0.681792724609375,2.247203172728419,0.832572229142487,-1.1290784103401004
1789752360816846600,0.6918466796875,-0.1768652179032564,-1.3473092194631695,-0.5903505227748305
1789752360826900700,0.701900634765625,-1.1507324621349573,0.6461357575565576,2.5331547882944343
1789752360836953600,0.71195361328125,-0.7727624880850315,3.454227138666808,4.270006346179545
1789752360847007700,0.7220078125,-1.562684785285592,1.7120348042756317,1.8888504839487372
1789752360857061600,0.7320615234375,0.00849836375415325,0.09818331085443496,0.2808181982003152
1789752360867115800,0.74211572265625,1.7243226234406233,-0.1684986638352275,-0.3231302034247666
1789752360877169700,0.752169677734375,2.4987843166589734,-0.761205905804038,-0.14065116422772406
1789752360887222500,0.762222412109375,2.161850117352605,-1.2747922647848724,0.513738334672153
1789752360897276700,0.772276611328125,2.365957562446594,-0.7388932439699769,0.5437398705083877
1789752360907330800,0.782330810546875,2.206449137535691,0.08011369341760874,0.4558024977277964
1789752360917384700,0.792384765625,0.9560808276504278,-0.683996409395337,1.8425528431542217
1789752360927437600,0.8024375,0.41638650620579715,-1.6135168546393512,2.3114535265818237
1789752360937491700,0.81249169921875,0.850371797466278,-2.1652654787540433,0.7269063805129379
1789752360947545600,0.822545654296875,0.8293027059525251,-2.830284508217871,-0.45733927884101866
1789752360957599700,0.832599853515625,0.42119712135791776,-2.441262978799641,-0.7104650949303061
1789752360967652600,0.842652587890625,0.3383183471411466,-0.12941811481267212,0.24498488747067748
1789752360977706800,0.852706787109375,0.08563654849231242,1.6664938270673155,0.8410217122536152
1789752360987760600,0.8627607421875,-0.32228257361948487,1.9463474180191753,0.5062037013836205
1789752360997814500,0.872814453125,-0.37836861797869203,1.6055004291832446,0.5061448108032346
1789752361007868700,0.88286865234375,-0.4777975449800491,0.9773346280813217,0.667328037058562
1789752361017921800,0.892921875,1.6120763004422187,-0.54779900970608,0.1587593601092696
1789752361027975700,0.9029755859375,5.258483422783017,-2.5944205733790993,0.02080035757496953
1789752361038029600,0.913029541015625,6.260547418451309,-3.0346421286806464,-0.787105193953216
1789752361048083500,0.92308349609375,6.229922563084959,-2.0516332543551923,-1.457257786913216
1789752361058136600,0.933136474609375,4.6954590791553255,-0.8122747065231204,-1.5693648475714026
1789752361068190500,0.9431904296875,2.581625681474805,0.35620500922650095,-0.9941051456183194
1789752361078244600,0.95324462890625,0.6125070441991091,0.9818637959435581,-0.4716283548258245
1789752361088298500,0.963298583984375,-1.1040671570718288,1.0597788102731107,0.27903292221874
1789752361098352600,0.9733525390625,-2.249265950477123,0.9521423191577195,0.911696180870384
1789752361108405500,0.983405517578125,-2.7513912965059277,0.6685901659488678,1.1397926965780556
1789752361118459600,0.993459716796875,-2.4959108070492744,0.13863134883791206,1.2326625573247671
1789752361128513500,1.003513427734375,-2.0828841326653955,-0.1932996353536844,1.3081012446686624
1789752361138567700,1.013567626953125,-1.9032190549105406,-0.12234686125218867,1.5842958747215568
1789752361148620500,1.02362060546875,-1.8271680808871984,-0.01827653818577528,1.0461223331034182
1789752361158674700,1.0336748046875,-1.8941215562194584,-0.031877778036892415,0.24196342075765132
1789752361168728600,1.043728515625,-2.104131503355503,-0.06225508838295936,-0.2525038117334246
1789752361178782700,1.05378271484375,-2.1797142753452063,-0.06324234585464,-0.4621165762454271
1789752361188835600,1.063835693359375,-2.1970897730380297,0.004201543343067169,-0.2026873491629958
1789752361198889700,1.0738896484375,-2.052639216527343,-0.14350480009317398,0.19472689167782664
1789752361208943600,1.083943603515625,-1.6414005946040153,-0.47230537730455396,0.6560368277154862
1789752361218997800,1.093997802734375,-1.2645324443161488,-0.7380009713053702,0.6177499132886528
1789752361229051600,1.1040517578125,-0.9939233593106269,-0.6902265359565615,0.4782376899629831
1789752361239104800,1.114104736328125,-0.8566033853322267,-0.42550066377073525,0.42887306281328197
1789752361249158700,1.12415869140625,-0.8212018170833587,-0.17208178301900623,0.20979104368835685
1789752361259212800,1.134212890625,-0.6350988152354955,0.11008534557223319,0.06821779617965221
1789752361269266700,1.1442666015625,-0.24561668256819247,0.3272273365452885,-0.02208572121039033
1789752361279319800,1.15431982421875,0.08502163146436215,0.2353779048874974,-0.2255963694550097
1789752361289373700,1.164373779296875,0.15437223106622694,0.130201666405797,-0.36555092972069975
1789752361299427800,1.174427734375,0.22855390408635137,0.34487872857004404,-0.20764219509139656
1789752361309481700,1.184481689453125,0.26225802076756954,0.4972282216370105,-0.08563742527514695
1789752361319535600,1.19453564453125,0.302183203920722,0.47274990620166063,-0.1789532762236893
1789752361329588700,1.204588623046875,0.31681203325390817,0.43856969644129273,-0.28053821221515535
1789752361339643000,1.214642822265625,0.3406640334844589,0.41916415422558784,-0.3694672263815999
1789752361349696500,1.224696533203125,0.5488835900723934,0.5652879046455025,-0.39289384080693124
1789752361359750700,1.234750732421875,0.8494336398333311,0.7136947975665331,-0.48027474874854087
1789752361369803800,1.2448037109375,1.0095961447387933,0.8318085512936115,-0.5410018969118595
1789752361379857700,1.254857666015625,0.8692465938061475,0.9557637245252728,-0.4636633672960102
1789752361389911600,1.26491162109375,0.60293783634305,1.099611054445803,-0.4072127274081111
1789752361399965700,1.274965576171875,0.21530162380337714,1.245178632287681,-0.44741687363311644
1789752361410019600,1.28501953125,-0.10631459486186504,1.3174667466461658,-0.42997561722770333
1789752361420072400,1.295072509765625,-0.13593056544661522,1.2286629662945865,-0.5269583201207221
1789752361430126600,1.305126708984375,0.20402035133242605,1.0487889219641684,-0.9336363561302423
1789752361440180500,1.315180419921875,0.8713976343601941,0.6793629043757915,-1.393389125853777
1789752361450234600,1.325234619140625,1.740858163177967,-0.018008242638409135,-1.9298370127230882
1789752361460288800,1.335288818359375,2.822023752611875,-0.631373364971578,-2.292956039121747
1789752361470341600,1.345341552734375,3.4131256052106616,-1.0438766000032424,-2.333246110064536
1789752361480395500,1.3553955078125,3.1682559416174887,-1.3390826583877204,-2.1596084759056566
1789752361490449700,1.36544970703125,2.2482693406552077,-1.3902584266126154,-1.7815926168873906
1789752361500503600,1.375503662109375,1.083079898622632,-1.1991709143504499,-1.225901977148652
1789752361510556700,1.385556640625,0.009081716600060463,-0.9746279994711279,-0.7184709259271621
1789752361520610600,1.395610595703125,-0.6730149966537952,-0.7553402286410331,-0.44229733866229654
1789752361530664700,1.405664794921875,-0.8202507999688387,-0.5630930249497295,-0.2701661635436117
1789752361540718600,1.415718505859375,-0.49057402444481846,-0.5234352605611086,-0.3971672803424299
1789752361550771700,1.425771728515625,0.08390168752372264,-0.5687585033655166,-0.7569114234805107
1789752361560825600,1.43582568359375,0.5264192448079585,-0.6377502065271139,-0.8914321221292019
1789752361570879700,1.445879638671875,0.8175321886599063,-0.8103186040192842,-0.9693218558870256
1789752361580933600,1.45593359375,0.7938052761137485,-0.8716229675486683,-0.921777283771336
1789752361590987800,1.46598779296875,0.45245033775568005,-0.8416112756446004,-0.6947785001724958
1789752361601040600,1.47604052734375,-0.0014677344650030136,-0.8150564461961388,-0.5585886992678046
1789752361611094800,1.4860947265625,-0.5366805265814065,-0.7555693612217903,-0.4028996865145862
1789752361621148700,1.496148681640625,-0.8481383393257856,-0.6107242524355649,-0.15356968251168726
1789752361631202800,1.506202880859375,-0.4769657703310251,-0.51658817114532,-0.01912000327259302
1789752361641256400,1.51625634765625,-0.24513503653109073,-0.6054448507279158,-0.08766739673279225
1789752361651309800,1.526309814453125,-0.5017956756830215,-0.589638502047956,0.03166486593857407
1789752361661363700,1.53636376953125,-1.043566218879819,-0.431661232227087,0.4348712803147733
1789752361671417600,1.54641748046875,-1.6610323467910288,-0.28934476513564583,0.6370614936105906
1789752361681471500,1.556471435546875,-2.0866513762444256,-0.15874913097620008,0.6431910093415528
1789752361691524900,1.56652490234375,-2.327531093418598,0.026771979330480096,0.7093702854309231
1789752361701578500,1.57657861328125,-2.17396257995069,0.1512266265168786,0.8590236712817102
1789752361711632600,1.586632568359375,-1.7239058593332766,0.04966857853233814,0.8276964397996663
1789752361721686500,1.5966865234375,-1.1637041719108818,-0.0444026208281517,0.8179138083886355
1789752361731740700,1.60674072265625,-0.8133762380242348,-0.022836393447220323,0.6876167187843472
1789752361741793500,1.61679345703125,-0.7374667182981968,0.053475277338922024,0.5161781290397047
1789752361751847700,1.62684765625,-1.0197194793462752,0.1935419196769595,0.39397396419383585
1789752361761901600,1.636901611328125,-1.513774916166067,0.42851095150262114,0.4074654600601643
1789752361771955700,1.646955810546875,-1.933854431670904,0.6886889511257409,0.32495573835149405
1789752361782008600,1.657008544921875,-2.1144845550656317,0.9278098419338464,0.33535423663854597
1789752361792062700,1.667062744140625,-1.911269090375304,1.098238597048819,0.33078758631013333
1789752361802116600,1.67711669921875,-1.4118886591404676,1.2127476042822003,0.3067489774663001
1789752361812170800,1.687170654296875,-0.7822966246277093,1.1640858647048473,0.37331389187239106
1789752361822224600,1.697224609375,-0.20479250474870203,1.0061685083776712,0.46379517698213457
1789752361832277500,1.707277587890625,0.13901450293660164,0.902983735974133,0.5836753558598459
1789752361842331600,1.71733154296875,0.3510521565079689,0.8687094181895255,0.7102608045298606
1789752361852385800,1.7273857421875,0.42642274705171584,0.9202113496288656,0.7535759223822504
1789752361862439700,1.737439697265625,0.45558395960628983,1.0201084786638617,0.8216116399932653
1789752361872493800,1.747493896484375,0.38171383675336834,1.0590314990371466,0.9743257285889237
1789752361882546700,1.757546630859375,0.251600433152914,1.036371046678722,0.9411001161396503
1789752361892600600,1.7676005859375,0.3175847711920738,0.9657961659789085,1.002256376435235
1789752361902654700,1.77765478515625,0.4568745839387178,0.9002043343886732,1.049037928289175
1789752361912708900,1.787708984375,0.7700801171332597,0.7799506460234522,0.7975487004257739
1789752361922761700,1.79776171875,1.228242402794957,0.6527636512637138,0.6116770231157541
1789752361932815600,1.807815673828125,1.6256763712495566,0.5384583499088883,0.4890563864234835
1789752361942869800,1.817869873046875,1.7300649664849042,0.4207809417724609,0.5774367537312209
1789752361952923600,1.827923583984375,1.545634866285324,0.542319409251213,0.8741804700117558
1789752361962977500,1.8379775390625,1.2590724253445862,0.7590276849821209,1.0331696933541445
1789752361973030700,1.84803076171875,1.071625023150444,0.875327375024557,0.9435804617132991
1789752361983084800,1.858084716796875,1.066332177439332,0.8580114985644817,0.654524304260686
1789752361993138400,1.868138427734375,1.4190198261946438,0.6348702671766281,0.39940928711555895
1789752362003192600,1.878192626953125,2.0270231292337177,0.3876873582050204,0.309483736192435
1789752362013246500,1.88824658203125,2.70683260833323,-0.009209142372012138,0.3583139642044902
1789752362023299600,1.898299560546875,3.182685448986292,-0.5947992458119988,0.35535672183409334
1789752362033353500,1.908353515625,3.281312411954999,-1.1161349037453532,0.49099254211783405
1789752362043407600,1.91840771484375,2.8336779500484464,-1.4158368122443556,0.7482277662873268
1789752362053461500,1.92846142578125,2.073264071404934,-1.5440706857085227,0.9565306172445416
1789752362063515600,1.938515625,1.3083844455242155,-1.2615697951182723,1.097336825903505
1789752362073568500,1.948568603515625,0.6753156748116016,-0.9923936655253172,1.0430926100187004
1789752362083622700,1.95862255859375,0.23681261386573313,-0.8312129234880209,0.7794360475648194
1789752362093676500,1.968676513671875,-0.019960253489017487,-0.6409867042303085,0.4682395891703665
1789752362103730700,1.978730712890625,-0.11418225949704647,-0.658928895895183,0.3396400241989642
1789752362113783600,1.988783447265625,0.08493687579035758,-0.844858879263699,0.2794677334394306
1789752362123837700,1.998837646484375,0.37207565531432624,-0.9849030175089836,0.2637437292806804
1789752362133891600,2.0088916015625,0.7435054139405488,-1.2175514974325894,0.19595175729766487
1789752362143945700,2.01894580078125,0.9417851757943629,-1.441902981393039,0.08743833721727132
1789752362153999600,2.02899951171875,0.7161796001195907,-1.5030693977564573,0.090752137940377
1789752362164052700,2.039052734375,0.19352526080310345,-1.4625594004526734,0.08116473684050142
1789752362174106600,2.049106689453125,-0.4364402831971645,-1.2499807718724012,-0.06879143134914338
1789752362184160800,2.059160888671875,-1.1824106259465217,-0.8797399307698011,-0.3507389989055693
1789752362194214700,2.069214599609375,-1.862118982759118,-0.5930652616262435,-0.4755250700034201
1789752362204268800,2.079268798828125,-2.306007243874669,-0.4464315158575773,-0.38721901004090903
1789752362214321700,2.08932177734375,-2.5018863743275404,-0.39578269411623473,-0.1357393537234515
1789752362224375800,2.099375732421875,-2.3890578675270078,-0.3929147374644875,0.18279095469042658
1789752362234429700,2.1094296875,-1.9238427407443521,-0.43396980143040415,0.37644378739595413
1789752362244483600,2.119483642578125,-1.389481597021222,-0.508119033485651,0.3432835683330893
1789752362254536700,2.12953662109375,-1.001642555385828,-0.6283554784551263,0.20994090048782527
1789752362264590800,2.1395908203125,-0.7913812638372182,-0.6284948869258165,-0.026263810612633824
1789752362274644700,2.149644775390625,-0.7958674693405627,-0.47058951329737897,-0.1827708617504686
1789752362284698600,2.15969873046875,-1.050863390150666,-0.27943361197412014,-0.23900683597438035
1789752362294752500,2.16975244140625,-1.3720809648871422,-0.09493950662761926,-0.4324186995308846
1789752362304805600,2.1798056640625,-1.5960188996106386,0.14232640396356583,-0.44892581689134237
1789752362314859500,2.189859619140625,-1.679486287370324,0.29447891315370794,-0.42592407681457695
1789752362324913700,2.19991357421875,-1.533046018347144,0.3501248125299811,-0.4543888315375894
1789752362334967600,2.209967529296875,-1.2595716070383787,0.2957613541796803,-0.41440965317487716
1789752362345021700,2.220021728515625,-0.9076812461405992,0.2410264321684837,-0.281624253886193
1789752362355074600,2.230074462890625,-0.418690106973052,0.2576522805377841,-0.0948472982995212
1789752362365128700,2.240128662109375,-0.009520108017325401,0.1630278312087059,-0.12227920284345745
1789752362375182600,2.2501826171875,0.11352934854626655,0.16093056666851044,-0.2367124414268881
1789752362385236700,2.26023681640625,0.020986673927307128,0.3111398328363895,-0.2852561806477606
1789752362395290600,2.27029052734375,-0.1742506514906883,0.45597412796765563,-0.20847868244815618
1789752362405343500,2.280343505859375,-0.3582464519262314,0.5053206349387764,-0.11705280996467918
1789752362415397600,2.290397705078125,-0.38900633184909816,0.5381415390446782,-0.1969006189877167
1789752362425451800,2.30045166015625,-0.12988544006347655,0.5626525877058506,-0.25811536800488827
1789752362435505700,2.310505615234375,0.2076782893180847,0.53856707098037,-0.3389899627923965
1789752362445559800,2.320559814453125,0.6738549546092748,0.43470366866290566,-0.5270238231049851
1789752362455612700,2.33061279296875,1.2540233252614736,0.25614392180144785,-0.6825166191663593
1789752362465666600,2.34066650390625,1.6288006407499311,0.2815419824302196,-0.6497600855335592
1789752362475720700,2.350720703125,1.5850895093172788,0.44811406211704014,-0.37407442791610956
1789752362485774800,2.36077490234375,1.0642980412632226,0.6292597338184714,-0.04434628753103315
1789752362495828700,2.370828857421875,0.3746002053558826,0.8591381645068525,0.19539953024238346
1789752362505881600,2.380881591796875,-0.1898456955075264,1.024007531929016,0.3411777551602572
1789752362515935700,2.390935791015625,-0.46178222972452637,1.0815665714502334,0.2816721846811473
1789752362525989600,2.40098974609375,-0.4132914627999067,0.9443038806170224,-0.08872969220206141
1789752362536043500,2.41104345703125,-0.005793196448683738,0.5739522726163268,-0.6986025885052979
1789752362546097700,2.42109765625,0.7920230688720941,-0.01952653824687004,-1.2545647386617957
1789752362556150800,2.43115087890625,2.0296751050472257,-0.6818363087520003,-1.6997437702402471
1789752362566204700,2.44120458984375,3.445381861171126,-1.363168175113201,-2.1259899916812777
1789752362576258600,2.451258544921875,4.309732499629259,-1.8155320036292075,-2.3085775327540934
1789752362586312400,2.4613125,3.8957033702045676,-1.86726277538836,-2.1421866548530755
1789752362596366600,2.47136669921875,2.4994442418724296,-1.6261147626668213,-1.8516018265284597
1789752362606419500,2.48141943359375,0.7015396648705006,-1.0499009748592971,-1.354363814149797
1789752362616473600,2.4914736328125,-1.077210714328289,-0.4146875933334231,-0.9228129834946245
1789752362626527500,2.501527587890625,-2.2253818015426394,-0.035356560063362116,-0.7833660074248909
1789752362636581600,2.51158154296875,-2.5822341687619685,0.11930910099148749,-0.5789641824942082
1789752362646634500,2.521634521484375,-2.0785849741667506,-0.0015419687449932098,-0.5550212891098112
1789752362656688600,2.531688720703125,-0.7845704147785901,-0.4730608718469739,-0.7061131102658808
1789752362666742500,2.541742431640625,0.6551239506542682,-0.9063403529256582,-0.9192416278138756
1789752362676796700,2.551796630859375,1.5787117909789083,-1.1857008996635674,-1.0713703908022492
1789752362686850300,2.561850341796875,1.8208242648184298,-1.353755619123578,-1.2523448706552385
1789752362696904200,2.571904296875,1.5180805044054984,-1.3678911119818686,-1.15336872892268
1789752362706957300,2.581957275390625,0.8161872037917375,-1.1184151236370206,-0.9362330215599387
1789752362717011200,2.59201123046875,-0.1473901170939207,-0.7509326413318514,-0.757119147947058
1789752362727065300,2.6020654296875,-1.145322712045908,-0.446402289763093,-0.6736939188286661
1789752362737119200,2.612119140625,-1.8552040888041257,-0.30795155818909403,-0.4626435227289796
1789752362747173400,2.62217333984375,-2.3748475558668374,-0.1953296798765659,-0.09262801481485367
1789752362757226200,2.632226318359375,-2.7288217373013497,-0.08007453045099973,0.27107275699451566
1789752362767280400,2.6422802734375,-2.9832220303058623,-0.13540361896306274,0.5675174172632396
1789752362777334300,2.652334228515625,-3.1310920398712154,-0.35399463970065115,0.6918081791248172
1789752362787388400,2.662388427734375,-3.144827135235071,-0.6752753428012133,0.5430369829360395
1789752362797441300,2.672441162109375,-3.1472786200404164,-1.0274842681288718,0.3572226618364453
1789752362807495400,2.682495361328125,-3.2026229061216114,-1.4303914072975517,0.17820355383493006
1789752362817549300,2.69254931640625,-3.4447494084864854,-1.937119863207638,-0.33638372581675646
1789752362827603500,2.702603515625,-4.062338870516419,-2.5486644921153783,-0.7734356381062418
1789752362837657000,2.712656982421875,-4.97070809892118,-3.1410704130500555,-0.6306796836189925
1789752362847710500,2.72271044921875,-5.635474907189607,-3.1113007132083177,-0.3353241337612271
1789752362857764400,2.732764404296875,-6.193249659726023,-2.525216688771546,-0.20809856055676937
1789752362867818200,2.742818359375,-6.96756931412518,-2.314643847055733,-0.2065137755833566
1789752362877872000,2.7528720703125,-7.834487172722816,-2.5601699287310242,-0.3459611169792712
1789752362887926300,2.76292626953125,-8.348650747069716,-2.450182198314369,0.21200345904082057
1789752362897979100,2.772979248046875,-8.476205113837123,-2.254075981107354,0.8032970348194242
1789752362908033300,2.783033203125,-8.498658937707543,-2.219877358907461,1.0794321897700427
1789752362918087200,2.793087158203125,-8.218751278480887,-2.1054659668296574,1.0937871705979108
1789752362928141300,2.803141357421875,-6.939409972089528,-1.8641557492837308,0.2698699570760131
1789752362938195200,2.8131953125,-4.75104711086452,-1.1458286157414317,-1.6270242787271738
1789752362948249300,2.823249267578125,-2.914282349592447,-0.25845599813610315,-3.259581057140231
1789752362958302200,2.83330224609375,-0.4610147524833679,0.14659209858402608,-4.005010424880683
1789752362968356400,2.8433564453125,3.6398709985703226,0.47781814937666056,-4.027647788624465
1789752362978410200,2.85341015625,7.587510307717323,1.0685276416569947,-3.785352359433472
1789752362988464400,2.86346435546875,10.418029501473903,1.5691526661254465,-3.517445811384916
1789752362998518300,2.873518310546875,11.544613610780239,2.005211694920063,-2.0106646996289492
1789752363008571400,2.8835712890625,11.910267124092579,2.4606506930977106,0.014766484238207339
1789752363018625300,2.893625244140625,11.529769092869758,2.362736262312531,0.613961919182539
1789752363028679400,2.903679443359375,11.31374383096695,2.2704753272444007,0.4767968435049057
1789752363038733300,2.9137333984375,11.33442655351162,2.647614403428137,0.18817454742491244
1789752363048787500,2.923787353515625,10.459708250296115,2.861260953500867,0.43621173513829703
1789752363058840300,2.93384033203125,8.74167391334474,2.711003172016144,0.8080284472554922
1789752363068894500,2.94389453125,6.7103779290974135,2.6378078796848654,1.1247976642809807
1789752363078948400,2.9539482421875,5.1885991546958685,2.5824983726561066,1.3498703021228313
1789752363089002500,2.96400244140625,4.3507109912276265,2.3591832460060713,1.268384005177766
1789752363099056000,2.97405615234375,3.869454830226302,2.0431250998593864,1.0096345770530402
1789752363109109200,2.984109130859375,3.6255502122730014,1.656251103863865,0.6822703162550926
1789752363119163400,2.994163330078125,3.520872278702259,1.2279407894998788,0.46291240279823537
1789752363129217300,3.00421728515625,3.6335529014647006,0.7563887878458947,0.48885582235008473
1789752363139271200,3.014271240234375,3.9992333027839657,0.20486608144156634,0.6095582773961127
1789752363149325300,3.0243251953125,4.337513071480394,-0.4193943827848881,0.8043995892338455
1789752363159378200,3.034378173828125,4.388896052715182,-0.9488764492295682,0.9631783846959471
1789752363169432000,3.04443212890625,3.9782442907691,-1.3071636715576052,1.009696536373347
1789752363179486200,3.054486328125,2.893082909697294,-1.4697503348700702,0.9933509662501513
1789752363189540400,3.064540283203125,1.330400462499261,-1.4290315171211958,0.8623705705568194
1789752363199594200,3.07459423828125,-0.3025871085464954,-1.152704712055996,0.8652223067261278
1789752363209647000,3.084647216796875,-1.48243752861619,-0.8157502736791968,0.7850085139349102
1789752363219701200,3.094701171875,-2.041450883036852,-0.44090778400003905,0.8683912921510636
1789752363229755100,3.104755126953125,-2.0754262178748846,-0.31933351455554365,0.991741046835482
1789752363239809300,3.114809326171875,-1.5667928051263094,-0.4475128813534975,1.0736845860287547
1789752363249863400,3.124863525390625,-0.8325947332352399,-0.579239273108542,1.205906506215781
1789752363259916300,3.134916259765625,-0.30495968289673325,-0.6857201644480228,1.2577448300026357
1789752363269970200,3.14497021484375,0.020844635108113286,-0.7647573146753013,1.145046233192086
1789752363280024300,3.1550244140625,0.05637947434782981,-0.77844433311373,0.7230744741998613
1789752363290078200,3.165078125,-0.27478783199489115,-0.6455600034952164,0.2746303033456206
1789752363300132400,3.17513232421875,-0.7159434532761574,-0.5175086469911039,-0.23666034591346977
1789752363310185200,3.185185302734375,-1.157172724315524,-0.28126535744592546,-0.7290908118799329
1789752363320239400,3.1952392578125,-1.6877619482845068,-0.01818243016153574,-1.0651660562694072
1789752363330293200,3.205293212890625,-2.3432950642615555,0.27355580598190427,-0.8575259070046246
1789752363340347400,3.215347412109375,-2.835812039467692,0.37701121202036736,-0.43991102804765103
1789752363350401300,3.2254013671875,-2.7853759836941956,0.2919169537112117,0.008954436958581209
1789752363360455200,3.235455078125,-2.255804996857047,0.09281301599293947,0.4509932708151638
1789752363370508300,3.24550830078125,-1.7059014160871504,-0.12434475707113742,0.7603340914055705
1789752363380562400,3.2555625,-1.37089146284163,-0.23210911234989762,0.8660703018575906
1789752363390616000,3.265615966796875,-1.3346031748861074,-0.28161826253682376,0.8422538113318383
1789752363400670200,3.275670166015625,-1.5048720632642507,-0.2952928598850965,0.7565038655929267
1789752363410724000,3.28572412109375,-1.7180588868707418,-0.2424177403964102,0.45612931852936744
1789752363420777200,3.295777099609375,-2.0015087487488983,-0.029690789386630057,0.19002704342380164
1789752363430831000,3.3058310546875,-2.197939083343744,0.13291647832244635,0.021276742915064095
1789752363440885200,3.31588525390625,-2.375283024674654,0.276295021687448,-0.07655468576177954
1789752363450939100,3.325939208984375,-2.453728200358152,0.447975384298712,0.07799144056662917
1789752363460993300,3.3359931640625,-2.3182331037193538,0.5624843915320933,0.20498627375513315
1789752363471046100,3.346046142578125,-2.0558587630957366,0.644336160788685,0.28998832373619077
1789752363481100300,3.356100341796875,-1.688627040681243,0.643096828252077,0.3115507517248392
1789752363491154200,3.366154296875,-1.243852644380927,0.5873199959725142,0.2842157316841185
1789752363501208300,3.376208251953125,-0.8732903162389993,0.5697935455016792,0.23736630222573876
1789752363511262200,3.38626220703125,-0.6468021125108003,0.5797504375010728,0.18482289890944956
1789752363521315300,3.3963154296875,-0.5508148503959178,0.5779742216087878,0.2163544938571751
1789752363531369200,3.406369140625,-0.52430912078619,0.6864136996701359,0.29260829697623847
1789752363541423400,3.41642333984375,-0.5121984117537737,0.8292325633257627,0.3752756203994155
1789752363551477200,3.426477294921875,-0.5406564444750547,0.8636036194831133,0.32360286243781444
1789752363561531400,3.436531494140625,-0.48449265870451924,0.865559575856477,0.1237215106062591
1789752363571585300,3.446585205078125,-0.2539274147957563,0.8777814901784062,-0.21241364727690815
1789752363581638400,3.456638427734375,0.08034604086875916,0.8563375740028917,-0.44093335683271284
1789752363591692300,3.4666923828125,0.44063539679944513,0.7399789933800697,-0.534690667938441
1789752363601746400,3.476746337890625,0.5886819319754839,0.551127861867845,-0.47488794114366173
1789752363611800300,3.48680029296875,0.5906330660432577,0.2981571632750332,-0.3427811717689037
1789752363621854200,3.496854248046875,0.5869874030172825,0.08432517363280058,-0.2754470265559852
1789752363631907300,3.5069072265625,0.5077753346145153,0.08418415772691369,-0.16720716271996497
1789752363641961200,3.516961181640625,0.23822014257609841,0.2590240072824061,-0.11714490869492292
1789752363652015000,3.52701513671875,-0.028806407767534254,0.4264056497864425,-0.2855268142826855
1789752363662069200,3.5370693359375,-0.1567144102782011,0.6452079751871526,-0.5526188310779631
1789752363672123100,3.547123046875,-0.28799802670180796,0.7926375475086271,-0.7448084593631327
1789752363682176800,3.5571767578125,-0.12556173164546489,0.679271572830528,-0.9519273612327873
1789752363692230700,3.567230712890625,0.43912733032405377,0.3476749351598322,-1.3121141335718334
1789752363702284800,3.577284912109375,1.5830764159291981,-0.08052709652408957,-1.6509953752927482
1789752363712338700,3.587338623046875,3.3851603244423862,-0.86433237214908,-1.9389095231033862
1789752363722392800,3.597392822265625,5.107202727991342,-1.7156195308946072,-2.025911076338589
1789752363732446700,3.60744677734375,5.9142222904652355,-2.260839922284335,-1.9010577852234243
1789752363742499800,3.617499755859375,5.447445321193337,-2.3856821074835954,-1.678652028503269
1789752363752553700,3.6275537109375,4.089413924446702,-2.1675705408260226,-1.32502622211501
1789752363762607900,3.63760791015625,2.3037311156362295,-1.7325567833006381,-1.012053620893508
1789752363772661800,3.647661865234375,0.6217898363292217,-1.1588118698246777,-0.8321521040342748
1789752363782716000,3.6577158203125,-0.5688561185210943,-0.7393247672550379,-0.7944353907108307
1789752363792768800,3.667768798828125,-1.327210726547241,-0.4653400683365762,-0.8000339413702487
1789752363802823000,3.677822998046875,-1.6247393826603889,-0.22164909313395617,-0.7352307759396731
1789752363812876800,3.687876708984375,-1.2821633780747652,-0.19228037530854344,-0.7835578767351806
1789752363822930700,3.6979306640625,-0.5056599498957395,-0.38755788660645485,-0.8231886069864034
1789752363832984600,3.707984619140625,0.3453676811307668,-0.63169149101004,-0.8016141962990164
1789752363843038000,3.718037841796875,0.8422931204289198,-0.7779635638594626,-0.886135184764862
1789752363853091800,3.728091796875,0.9040846829533576,-0.8222834748402238,-1.0051885574296116
1789752363863145700,3.738145751953125,0.5391752660065889,-0.8322773378491402,-1.0349679018825293
1789752363873199600,3.74819970703125,-0.14435820205211639,-0.6463306956067681,-0.8056573342099785
1789752363883253800,3.758253662109375,-0.9201707253575324,-0.4104606232881546,-0.5659567438177764
1789752363893307600,3.7683076171875,-1.4995330403238534,-0.22403818022757768,-0.41318054977133867
1789752363903360800,3.77836083984375,-1.9034867659360168,-0.0679983082100749,-0.22690452944412826
1789752363913414700,3.78841455078125,-2.148646936908364,0.01584887264743447,0.018259294790029523
1789752363923468800,3.79846875,-2.15040810136199,0.01835734833702445,0.29943931204006075
1789752363933522700,3.808522705078125,-2.039640034222603,0.018866759163886308,0.5899066514648497
1789752363943576800,3.818576904296875,-1.7781670263528824,-0.03653846332430839,0.7965101511582732
1789752363953629700,3.828629638671875,-1.461015970402956,-0.12784472801610827,0.8911192567877471
1789752363963683800,3.838683837890625,-1.2812690595835448,-0.15642638711705803,0.8362769288793206
1789752363973737700,3.84873779296875,-1.41143623919785,-0.044659664329141376,0.6561165418881922
1789752363983791900,3.8587919921875,-1.812336422458291,0.13828501961827278,0.5282122657045721
1789752363993845800,3.868845703125,-2.1139742674559354,0.30053382927849887,0.37677440758980807
1789752364003899000,3.87889892578125,-2.179654654112458,0.47105245463401074,0.14978972558155654
1789752364013952800,3.888952880859375,-2.032647398856282,0.6551115295641123,0.03744096512198448
1789752364024007000,3.8990068359375,-1.8461299709886312,0.7591532110579311,0.006489435084536671
1789752364034060800,3.909060791015625,-1.7049094824403523,0.857908330450952,0.025308117322996256
1789752364044115000,3.919114990234375,-1.4962433511286972,0.9068222912237047,-0.052239159672707314
1789752364054168600,3.92916845703125,-1.2161053902775047,0.9486153140753507,-0.11724361982904374
1789752364064222000,3.939221923828125,-1.094618360725045,0.9908234935991466,-0.10252112086303532
1789752364074275800,3.94927587890625,-1.0078308886319398,1.0384783942215143,-0.19503281582184134
1789752364084329700,3.959329833984375,-0.8979641542464494,1.1593081289090215,-0.2471506141372025
1789752364094383600,3.969383544921875,-0.7203758827656507,1.229922903227806,-0.229604582183063
1789752364104437800,3.979437744140625,-0.5289356115430593,1.2122263568870721,0.027689751762524247
1789752364114490600,3.98949072265625,-0.3528822945445776,1.2228405437514185,0.3045695876006037
1789752364124544800,3.999544677734375,-0.14579787946641445,1.3018642499752342,0.523854070495069
1789752364134598700,4.0095986328125,-0.004206804040074348,1.4106693464785813,0.6855063025016337
1789752364144652800,4.01965283203125,0.09736439568698406,1.5019389324218033,0.7772833265103399
1789752364154706700,4.029706787109375,0.19783201808631418,1.5671790279649198,0.8166308559060096
1789752364164760800,4.0397607421875,0.42454467822015285,1.5433238128639757,0.8204395274739712
1789752364174813700,4.049813720703125,0.8282301082849503,1.4355920446805654,0.7983201231896877
1789752364184867800,4.059867919921875,1.1470330230951309,1.2402338693618773,0.7248412646766752
1789752364194921700,4.069921630859375,1.3613567417770622,1.0356441937088965,0.5755586118344217
1789752364204975900,4.079975830078125,1.3833447017014027,0.9565132277183234,0.5698648571722209
1789752364215029800,4.09002978515625,1.0442308202683925,0.9399787108942865,0.7800592209644616
1789752364225083000,4.100082763671875,0.5421288551151752,0.9438149280562996,0.8692477628499269
1789752364235136800,4.11013671875,0.1804945143163204,0.9785969031020998,0.9210079068340361
1789752364245191000,4.12019091796875,0.12080956868231296,1.0113409425795077,0.9905088746920228
1789752364255244800,4.130244873046875,0.5217670350879431,0.9888535087004303,0.9743762166671455
1789752364265299000,4.140298828125,1.0175801292300224,0.7991782013237476,0.7403132668357342
1789752364275352800,4.150352783203125,1.6944196526080368,0.41707244264334437,0.46998497153297064
1789752364285406000,4.160406005859375,2.8396143543601036,-0.09308920258581638,0.2829034069765359
1789752364295459800,4.1704599609375,4.117808828803897,-0.7129005784489214,0.10475574804730713
1789752364305514000,4.180513916015625,4.925907418686151,-1.2464756863608955,-0.019068053889647125
1789752364315567600,4.190567626953125,4.955158063089847,-1.5132554223366081,0.11222747216746211
1789752364325621800,4.200621826171875,4.064280652233958,-1.6504120224468408,0.4971091253019869
1789752364335675600,4.210675537109375,2.3573387871831653,-1.6029625812686978,0.8837997275546192
1789752364345728800,4.220728759765625,0.5986667348951101,-1.232314912930876,1.1565007433380932
1789752364355782700,4.23078271484375,-0.823254657959938,-0.8103532369412482,1.051293744391948
1789752364365836800,4.2408369140625,-1.7524387108564377,-0.5034380360625684,0.9251859962362795
1789752364375890700,4.250890625,-1.5940566596269607,-0.3917439401194453,0.686941888262704
1789752364385944800,4.26094482421875,-0.6084148064494133,-0.4614955217376351,0.26236155420728025
1789752364395997700,4.270997802734375,0.5030120657354593,-0.5828684233911335,0.15073065969347954
1789752364406051800,4.2810517578125,1.270401044088602,-0.8063010389409959,0.2696405322343111
1789752364416105700,4.291105712890625,1.4845061515837907,-1.0437906752854584,0.3390465883504599
1789752364426159900,4.301159912109375,1.1724082873702049,-1.1435706076815724,0.3422119935788214
1789752364436213800,4.3112138671875,0.4494838891655206,-1.0888469377167522,0.2153377180300653
1789752364446268000,4.321267822265625,-0.40013153697550297,-0.9756697636090218,0.0008186229065060615
1789752364456320800,4.33132080078125,-1.2190204009413719,-0.7223642801038921,-0.1978698658786714
1789752364466375000,4.341375,-1.9677894344985485,-0.4580144016236067,-0.22985183494240044
1789752364476428800,4.3514287109375,-2.47613117082417,-0.2960021771982312,-0.10041150829792023
1789752364486483000,4.36148291015625,-2.7276655530035496,-0.178655462320894,0.13680975943394005
1789752364496536800,4.371536865234375,-2.7834254341483113,-0.07960062932893633,0.3575940524321049
1789752364506590000,4.38158984375,-2.813503761547804,-0.004882657475024461,0.4345129683963954
1789752364516643800,4.391643798828125,-2.9227286908984182,0.07379851892143488,0.41765265368409454
1789752364526698000,4.401697998046875,-3.1806045510590075,0.19452844649627804,0.38140060608573256
1789752364536751900,4.411751953125,-3.672677874150872,0.29568390502929687,0.39077012665122746
1789752364546805800,4.4218056640625,-4.206391367620229,0.29960385495200753,0.33311953638903796
1789752364556859600,4.431859619140625,-4.763581598266959,0.30235432270392776,0.2560778708279133
1789752364566912800,4.441912841796875,-5.293998972800374,0.34776743574887514,0.24126652453467248
1789752364576966700,4.451966552734375,-5.664335675492882,0.3524873038776219,0.3021652298726141
1789752364587020800,4.462020751953125,-5.945000875088573,0.24339681456163526,0.3683468440495431
1789752364597074700,4.47207470703125,-6.196779587417841,-0.08429477849453687,0.3324405411489308
1789752364607128800,4.48212890625,-6.486596061718464,-0.5431311640255153,0.3870841316148638
1789752364617181700,4.492181640625,-6.71086834296286,-1.001428766504675,0.5207673565261066
1789752364627235800,4.50223583984375,-6.816916980364918,-1.5092676678746937,0.46620735269039865
1789752364637289700,4.512289794921875,-6.6863330366432665,-2.034070709657669,0.5383551817953586
1789752364647343900,4.52234375,-6.892785583558679,-3.057464201341569,0.20413491762280464
1789752364657397800,4.532397705078125,-7.319704005172849,-4.243021600881218,-0.2245730177566409
1789752364667452000,4.542451904296875,-7.328824884739518,-4.447627058625221,0.9682841834023594
1789752364677504800,4.5525048828125,-7.456563960424065,-4.678597960725426,1.7356377981811761
1789752364687559200,4.56255908203125,-7.563464246219396,-4.9365679289102555,1.7450927320078014
1789752364697613000,4.572613037109375,-7.648503413340449,-5.011957224154472,1.5814721956029534
1789752364707667200,4.582667236328125,-8.020479699933528,-5.408325024682283,1.231125849276781
1789752364717721000,4.59272119140625,-8.05257287428677,-6.6603399327307935,1.3765595716059207
1789752364727775000,4.60277490234375,-6.21917846623063,-8.199941948592663,2.2770044367522
1789752364737828000,4.612828125,-3.0575907503306863,-9.412785706725716,3.1604771243095398
1789752364747882200,4.62288232421875,0.2001110689342022,-10.616556516087055,3.0796465147942302
1789752364757936000,4.63293603515625,2.4882863035202023,-11.56697157306075,2.745968102413416
1789752364767990000,4.642989990234375,3.0978841822743415,-12.638929773688316,2.14593124820888
1789752364778044000,4.6530439453125,2.121694048053026,-13.581646677374838,1.3268816407233477
1789752364788098000,4.66309814453125,0.5082821150928736,-13.57151691302657,0.32815000434815883
1789752364798151000,4.67315087890625,-1.1620716022729873,-12.695283529072999,-1.0993038881927728
1789752364808205000,4.683205078125,-2.6631246917709706,-12.064317868119478,-2.898295675909519
1789752364818259000,4.693259033203125,-2.4450528726018965,-11.957612228113412,-5.383007628074288
1789752364828313000,4.70331298828125,-0.7936503778129815,-11.989532968509197,-8.022107593396306
1789752364838367000,4.713366943359375,1.4442261636435985,-11.666463043904304,-9.842039293289185
1789752364848419800,4.723419921875,4.191536328315735,-11.048564954316616,-12.47778644105196
1789752364858474000,4.733473876953125,6.6618018219768995,-9.025960810568929,-15.487802954781055
1789752364868528000,4.743528076171875,7.528229266709089,-6.027319677335024,-17.363012305259705
1789752364878582000,4.75358203125,6.541068241140246,-3.5638404828131196,-18.52674628778696
1789752364888636200,4.76363623046875,3.8950451985567804,-1.8242858034491538,-18.07534107517004
1789752364898690000,4.77368994140625,0.6870090352147817,-0.810852272504568,-15.961631596130132
1789752364908743000,4.783742919921875,-1.3468337109059094,-0.581708585831523,-13.59352416217327
1789752364918797000,4.793797119140625,-1.968060652655363,-0.3302314867973327,-11.61059327264428
1789752364928851200,4.803851318359375,-1.4220698614150284,0.0042681788384914396,-10.495055458009242
1789752364938905000,4.813905029296875,0.15513152500092983,0.5908914247184992,-10.261090050268173
1789752364948959200,4.823959228515625,2.06021578926146,1.5248995367705822,-10.797625030899047
1789752364959012900,4.834012939453125,3.558616610684991,2.5895617351710793,-11.544272249996661
1789752364969066000,4.84406591796875,4.582894191727042,3.882996448844671,-11.645882028168439
1789752364979120000,4.8541201171875,5.125513460707664,4.808299276393652,-11.504268740910291
1789752364989174000,4.864174072265625,4.789374211171269,5.293266566872596,-11.162813264787196
1789752364999228000,4.874227783203125,3.7910154997617003,5.666089825683832,-9.94195278893709
1789752365009282000,4.884281982421875,2.6247370934486387,5.8898336991399525,-8.106184052965045
1789752365019336000,4.8943359375,1.531107305369526,6.033829497620463,-6.416372770935297
1789752365029388800,4.904388916015625,0.34706337913274765,6.109446171879768,-4.8765083047449584
1789752365039443000,4.91444287109375,-0.8119407253284007,6.122817694628238,-3.945022404646873
1789752365049497000,4.9244970703125,-1.9926415516823528,6.260878257840871,-3.215275466945767
1789752365059551000,4.934551025390625,-2.568104521122575,6.434690517914295,-2.5174609600782394
1789752365069605000,4.944605224609375,-2.815873997810483,6.55523471365869,-2.000496941357851
1789752365079659000,4.954658935546875,-3.4956834769099947,6.469276093605161,-1.6372434749245643
1789752365089711900,4.9647119140625,-6.647051412090659,6.190221251815557,-1.3398375684082506
1789752365099766000,4.97476611328125,-8.892620846137405,6.012649931469559,-0.5392097527980804
1789752365109820200,4.984820068359375,-9.08144187477231,5.952994796451926,0.7437813082724809
1789752365119874000,4.9948740234375,-7.252166592472792,5.282523054540157,1.7423627225220202
1789752365129928200,5.00492822265625,-5.0268017420649524,4.5700890706896775,2.1413386597216126
1789752365139982000,5.014982177734375,-3.278359991890192,4.07065486344099,1.781073269188404
1789752365150035000,5.025034912109375,-2.7139386409461497,3.6104654558658598,0.9488561370939016
1789752365160089000,5.035089111328125,-2.414061960402131,2.784983769506216,0.07664952443838119
1789752365170143200,5.045143310546875,-1.4204887297034263,2.125356662213802,-0.04703823002874851
1789752365180197000,5.055197021484375,-0.332137028157711,1.9390777192771433,-0.7351414902210235
1789752365190251000,5.0652509765625,-0.24445819671545177,1.820602146500349,-1.590493998709321
1789752365200304000,5.07530419921875,-1.186102466201782,1.6852794838190077,-3.7023604802310466
1789752365210358000,5.08535791015625,-2.7295804467141624,1.7947013970464467,-5.770389573591947
1789752365220412000,5.095411865234375,-3.6251042220711707,2.2359341752171513,-4.884920743781328
1789752365230466000,5.105466064453125,-3.16875746139884,2.1787524445757267,-2.19268715416491
1789752365240520000,5.11552001953125,-1.216351473993063,1.679915326437354,-0.16966624630987642
1789752365250574000,5.125573974609375,2.178508406686783,-0.5002779645964504,-1.8865631036639212
1789752365260627000,5.135626953125,1.4970155045449733,-1.0978151109397412,0.6325245808333159
1789752365270680800,5.145680908203125,0.5069827959973364,-0.9250935687124728,1.3730910187125205
1789752365280735000,5.15573486328125,-2.1175860282123087,-2.900557775622606,0.14545242702960967
1789752365290789000,5.1657890625,-6.394031175267696,-1.626242480699718,1.162858953258395
1789752365300843000,5.175843017578125,-1.8541082563914357,2.8949706231400367,1.1816560081869363
1789752365310897200,5.185897216796875,-0.45885194842629135,3.3277900854915377,1.7865929093927144
1789752365320950000,5.195949951171875,-0.130346189443022,2.13801477599591,0.5917670385092496
1789752365331004000,5.20600390625,1.510651231187582,1.8510057603314518,-0.8232873911857604
1789752365341058000,5.21605810546875,2.0996178253233433,1.3450070800006388,-1.4611919114917515
1789752365351112200,5.2261123046875,2.3361188890218734,0.5741789209790528,-1.4795722023129463
1789752365361166000,5.236166015625,3.1749346887290475,-0.2841645860187709,-1.208930384081602
1789752365371220200,5.24622021484375,4.005627972257137,-2.6419419107496735,-0.508745640951395
1789752365381273000,5.256273193359375,-3.7712370325803755,-9.362721991395949,-0.21784663211107252
1789752365391327000,5.266326904296875,-9.088450292229652,-8.015116127073764,0.8072077785223722
1789752365401381000,5.276381103515625,0.8155518284976482,-2.3506192696698007,1.4040245016366242
1789752365411435000,5.28643505859375,8.815083432948589,-3.0920757882565257,0.8129664881795644
1789752365421489000,5.296489013671875,10.133885227590799,-4.3604862430498,0.15553133797347546
1789752365431543000,5.30654296875,5.084534384587407,-5.538392835575342,-0.8828460800915956
1789752365441596000,5.316595947265625,1.0861451314121484,-5.440298372048139,-0.7114379585504531
1789752365451649800,5.32664990234375,1.714188767439127,-5.107382176211476,0.435887325489521
1789752365461704000,5.336703857421875,2.916890486264229,-4.816311902457476,1.5527192715883253
1789752365471758000,5.346758056640625,2.9464848295390604,-4.194097118714452,2.8262720577061176
1789752365481812000,5.35681201171875,3.4132565381139517,-4.140872601266205,2.552575528079271
1789752365491866000,5.3668662109375,3.792693077585101,-3.723666887632012,1.3249211543053387
1789752365501919000,5.3769189453125,3.9640637897253033,-3.3008170306310056,-0.019824644410610198
1789752365511972900,5.386972900390625,3.509469425678253,-3.029232670852542,-1.0226543637543917
1789752365522027000,5.397027099609375,3.2509488378733393,-2.8338293412178754,-2.178610698017478
1789752365532081200,5.4070810546875,3.082566201633215,-3.0854633843794463,-4.854606269538403
1789752365542135000,5.417135009765625,0.9988584776252507,-2.3853753796219825,-7.196264087986946
1789752365552189200,5.427189208984375,-1.7241414216548203,-0.7491825827941299,-8.409597090941666
1789752365562242000,5.437241943359375,-4.214581396077573,0.584009848511219,-8.249768348035216
1789752365572296000,5.4472958984375,-5.305875873076915,1.903167616984248,-6.631423634847998
1789752365582350000,5.45735009765625,-4.680673597955703,2.4856495252758264,-5.149618558916449
1789752365592404200,5.467404296875,-3.50324602111876,2.5568548128336666,-3.702345867183804
1789752365602458000,5.4774580078125,-2.793806542909145,3.202773128247261,-2.2065748097419737
1789752365612512000,5.487511962890625,-3.5942817983061075,3.2311849837392566,-0.9454887064874171
1789752365622565000,5.497565185546875,-4.8497892246454954,2.0227093576878308,-0.017196633994579314
1789752365632619000,5.507618896484375,-4.397508982759714,1.3234785542815923,0.13216799804270266
1789752365642673000,5.5176728515625,-3.766390177071094,0.5452309127837419,0.38048224913179873
1789752365652727000,5.52772705078125,-3.063490329763293,1.3530161989331244,1.5332242975234984
1789752365662781000,5.537781005859375,-3.081405341160297,3.170429778525233,2.9833892035663125
1789752365672835000,5.5478349609375,-2.5540309875845906,3.350712695917487,4.134513587628304
1789752365682887700,5.5578876953125,-2.1279490167945623,2.7286393664717674,5.59016803099811
1789752365692941300,5.56794140625,0.5332359390854835,2.747444604706764,7.785901713252067
1789752365702995500,5.577995361328125,-0.6662865651816129,2.8958021055281162,8.972169014626742
1789752365713049300,5.58804931640625,-7.07277390191853,2.147934404724836,7.051449958860874
1789752365723103500,5.598103515625,-9.109652070212364,2.97550458779633,4.8867318848565215
1789752365733157600,5.60815771484375,-6.654514587578177,4.741987021574378,1.8430610849373041
1789752365743210500,5.61821044921875,-5.5732665805578225,5.507552291631698,-1.0524179261162876
1789752365753264400,5.628264404296875,-4.412072930163145,5.158115753626823,-1.478412803144753
1789752365763318500,5.638318603515625,-4.061361549916863,3.469608539932966,-1.1403551527664064
1789752365773372400,5.648372314453125,-1.437816881123185,2.018398508751392,-1.1869576947916298
1789752365783426600,5.658426513671875,2.7879700918406245,2.373788986724615,-0.6837653771184384
1789752365793480700,5.668480712890625,5.318752305784821,2.9686440543770787,-0.6959210943363606
1789752365803533600,5.678533447265625,6.0733367476224895,2.8397674990952013,-1.8333437007822095
1789752365813587500,5.68858740234375,4.142510723862052,2.3757716849744317,-2.595019416055083
1789752365823641600,5.6986416015625,3.3015596656918524,2.0257254906386137,-2.089976867405325
1789752365833695500,5.708695556640625,3.789669930371642,0.9692623807847499,-0.49291781109198923
1789752365843749600,5.71874951171875,4.663942827907205,0.2529319740176201,0.8476876729488372
1789752365853802500,5.728802490234375,5.431365708529949,-0.40051147620379923,1.3643895336017011
1789752365863856600,5.738856689453125,4.602687271955609,-1.3409499135643244,1.1880445401802657
1789752365873910500,5.74891064453125,3.9533506725311276,-1.1669319017857311,0.8107277693420648
1789752365883964400,5.75896435546875,3.746714585742354,-0.8832751191586256,0.4472612446799874
1789752365894018300,5.769018310546875,3.5649463982284066,-0.7083709721952677,0.7177087093830108
1789752365904072400,5.779072509765625,4.732025599530339,-0.5470511139482259,1.1082833134621382
1789752365914125600,5.78912548828125,5.2154252023011445,-0.9315203868895768,0.8170131332218646
1789752365924179500,5.799179443359375,4.287366354042291,-1.518414850926399,0.6998661787003279
1789752365934233300,5.8092333984375,4.306807552093267,-1.5934043331980705,2.1475196864441037
1789752365944287500,5.81928759765625,4.156979394197464,-1.5700035838663577,4.156544217650592
1789752365954341400,5.82934130859375,2.781068641889095,-1.6106296087652443,5.690236424946785
1789752365964395500,5.8393955078125,1.544015740650892,-1.4415893853992223,5.862682072842121
1789752365974448400,5.849448486328125,0.06524374880492687,-1.6777379823982714,4.811568799583614
1789752365984502500,5.85950244140625,-1.2910861047208309,-2.1262679318398234,3.3772152106568214
1789752365994556400,5.869556396484375,-0.9826607915401459,-1.6731091535538434,1.9212965633928776
1789752366004610600,5.879610595703125,2.1035960813045502,-1.1661544876724481,2.615807644800842
1789752366014664400,5.88966455078125,-2.136622152593732,-2.8178105188310143,1.6079305789396166
1789752366024718600,5.899718505859375,-7.192158990755677,-4.07626978071332,-0.7477738850399851
1789752366034771500,5.909771484375,-5.391102671724558,-4.022214949920773,-2.583124980121851
1789752366044825600,5.91982568359375,-3.310447321024537,-3.7147254562854766,-3.8112376190572976
1789752366054879500,5.92987939453125,0.06616320173740387,-3.741222418066859,-4.475979877406359
1789752366064933600,5.93993359375,2.2881004157841205,-2.830477108180523,-3.605052783167362
1789752366074987500,5.949987548828125,2.6110236253947017,-1.8791262316614388,-3.4969016205281016
1789752366085041400,5.96004150390625,2.5242834995746612,-1.2595850510418414,-2.9744454341322184
1789752366095094500,5.970094482421875,0.9372709132403135,-0.6101484983742237,-2.1718325821846722
1789752366105148700,5.980148681640625,0.42295711676776404,-0.4674094219565391,-1.4976935499370096
1789752366115202300,5.990202392578125,0.4798649989038706,0.08256722404956818,-0.6208586929589509
1789752366125256400,6.00025634765625,0.8892623768746852,0.7066127303510904,-1.458923382037878
1789752366135310300,6.010310302734375,1.7687638227134943,1.1764946799010039,-2.0603122353732584
1789752366145364500,6.020364501953125,1.4278086973279713,1.2679758627682924,-1.7370874124675988
1789752366155417300,6.030417236328125,0.4677274018645286,0.9986071332126856,-1.6631138292402028
1789752366165471500,6.040471435546875,-0.9983259781837462,0.43501404978632924,-1.3735942920595408
1789752366175525400,6.050525390625,-3.3547909051418303,0.45841596816182134,-0.9825924024790524
1789752366185579500,6.06057958984375,-4.585931367465854,1.0314484955847263,-1.0058446832507848
1789752366195633400,6.07063330078125,-4.584264311036467,2.117268632826209,-1.3525626099467276
1789752366205687600,6.0806875,-2.7532223113253713,2.7348732924252745,-2.4434926375478505
1789752366215740400,6.090740478515625,-1.9317530754774808,3.158150142666697,-2.7533874387592077
1789752366225794600,6.100794677734375,-3.0216745105579492,3.0290292572349307,-2.734697351336479
1789752366235848400,6.110848388671875,-3.6647891667276618,2.462503627488017,-2.7446616959899663
1789752366245902600,6.120902587890625,-3.6465038607135414,1.7809119411468506,-3.1991742269724606
1789752366255956500,6.13095654296875,-3.3570202716290947,1.4316209490925074,-3.7329298060178755
1789752366266010600,6.1410107421875,-3.1146944472998377,1.4340812017261981,-3.7711376638591285
1789752366276063500,6.1510634765625,-1.9521189871579407,1.4148638755589722,-3.6938913425713777
1789752366286117600,6.16111767578125,0.8599982884675264,1.4968454086750744,-3.0836691944390533
1789752366296171500,6.171171630859375,2.9705174470335245,1.28387018199265,-3.292626417651772
1789752366306225700,6.1812255859375,3.5984926939994093,0.9818781167298555,-4.469107069027424
1789752366316279300,6.191279296875,3.7837715199828144,0.8578490014791488,-4.727019754067063
1789752366326333400,6.20133349609375,2.3656568259343502,0.48479661008715624,-2.7106904528051614
1789752366336386600,6.211386474609375,-0.6030769525527954,-0.6734504654616117,-0.8284504730373621
1789752366346440400,6.2214404296875,-1.595249668803811,-2.8004063795655965,1.7518360687881707
1789752366356494300,6.231494384765625,-0.7034165646582842,-4.446414760226011,4.528223274862766
1789752366366548500,6.241548583984375,0.582277325630188,-4.582739877948165,5.0451568984448905
1789752366376602400,6.251602294921875,11.277679999417066,-2.208611284005642,7.205647417882084
1789752366386656500,6.261656494140625,15.120726715189218,1.461379543018341,8.9825033616364
1789752366396709400,6.27170947265625,1.3003171666637063,2.1931214539289474,4.178879675838351
1789752366406763500,6.281763427734375,-2.8261995769917965,2.5195219842612744,4.207354659694433
1789752366416817400,6.2918173828125,-3.2252935876131055,2.4544734657675025,3.9854327409684656
1789752366426871600,6.30187158203125,-0.90842110472247,2.0442150870531797,4.118458817145228
1789752366436925400,6.311925537109375,0.2952330925218761,1.3700187716603278,4.088706068438292
1789752366446979600,6.3219794921875,2.686235225984454,-0.27249884427487847,4.352423055842519
1789752366457032400,6.332032470703125,5.482637046083807,-4.9033086333870886,5.595519328898191
1789752366467086600,6.342086669921875,10.2799899810493,-10.950766258865594,7.316604285591841
1789752366477140500,6.352140380859375,9.871956292647123,-12.378255222719908,4.599229240456223
1789752366487194600,6.362194580078125,2.562693601989746,-7.6370467843025915,2.1188971108108756
1789752366497248500,6.37224853515625,-3.3018519266366955,-1.5262112038910387,1.1640724207013844
1789752366507302400,6.382302490234375,-6.521551639765501,3.4429826910749077,1.9621482137411832
1789752366517355500,6.39235546875,-8.0657029894948,4.710055467523635,2.288385077944398
1789752366527409700,6.40240966796875,-8.475095691290496,3.6568463910296556,1.1490928782343863
1789752366537463600,6.412463623046875,-7.758475946187972,2.4223133636578917,0.23961831893622873
1789752366547517400,6.422517333984375,-7.290859603482485,1.7067887203156946,0.4542173474282026
1789752366557571300,6.4325712890625,-7.064877595710754,1.4010399328678846,0.825474087575078
1789752366567625500,6.44262548828125,-6.818650672289729,0.0024368717581033706,0.10743512332439421
1789752366577678300,6.45267822265625,-5.892314994561672,-4.123986932916939,-1.463764976850152
1789752366587732500,6.462732421875,-3.8437408355161544,-8.321313242810964,-2.3895769229650496
1789752366597786400,6.472786376953125,-0.0179945063740015,-8.627653566411137,-2.4271014747172592
1789752366607840500,6.482840576171875,2.7116619281858205,-5.868710831612348,-3.0859932534724472
1789752366617894400,6.492894287109375,2.8065421058416367,-2.9993033965349194,-4.587158863434195
1789752366627948500,6.502948486328125,1.8672902479171751,-1.041898577928543,-5.285975825342535
1789752366638001400,6.51300146484375,0.38888518968746066,-0.29086101491749283,-5.727380452948808
1789752366648055600,6.5230556640625,-1.1702689372539519,-0.33542963996231556,-6.283679287713766
1789752366658109400,6.533109375,-2.525212304857373,-0.8974106120169162,-6.498562393844128
1789752366668163600,6.54316357421875,-3.3859622884750364,-1.3970084853947162,-6.52731444107592
1789752366678217500,6.553217529296875,-3.6548014411985874,-1.2920979121118783,-6.233729554152489
1789752366688271400,6.563271240234375,-3.593528934112191,-1.305101186069846,-5.694155644217133
1789752366698324500,6.573324462890625,-2.9418314507752656,-1.9394518132865428,-5.245542108145356
1789752366708378400,6.58337841796875,-2.088822290542722,-2.7335826680928466,-5.243534275454283
1789752366718432500,6.5934326171875,-1.517085063627362,-3.5162639081239697,-5.568416217917203
1789752366728486400,6.603486328125,-0.3083119159340858,-2.802583723604679,-5.348547140067815
1789752366738540300,6.613540283203125,0.18933482337594032,0.4406003254860639,-4.0285967599123715
1789752366748594200,6.62359423828125,0.41046873352937396,2.291553186586499,-3.196565505778789
1789752366758647600,6.6336474609375,0.7112035652726888,2.6032594211339948,-2.888012182304263
1789752366768701400,6.643701416015625,0.7607394573360681,2.665479438203573,-2.1710271110206842
1789752366778755300,6.65375537109375,-5.8276154356360435,0.30102585057914255,1.580635452517867
1789752366788809200,6.663809326171875,-3.167487295332551,-1.091229887330532,0.4234779257714748
1789752366798863400,6.67386328125,-0.7876257837612182,-1.0778197861373424,-0.31126784313023087
1789752366808917200,6.683917236328125,-1.2301491131991147,-4.980082660987973,2.323553421959281
1789752366818970400,6.693970458984375,4.072721148321032,-3.2696102837234733,3.865698108041286
1789752366829024300,6.704024169921875,9.331299263650179,3.4278409437835213,7.837863955679535
1789752366839078400,6.714078369140625,5.518125123572349,6.873593391832709,9.434290267047286
1789752366849132300,6.72413232421875,-1.301871118107438,7.882402770107984,10.00775358710289
1789752366859186400,6.7341865234375,-2.0570856745421886,8.180311949971317,9.336173007166385
1789752366869240300,6.744240234375,2.3924679682314394,7.394490658348798,7.013408689758181
1789752366879293400,6.75429345703125,5.2817070619821544,7.510705884978175,4.907041390174627
1789752366889347300,6.764347412109375,5.585680656450987,8.323972232887149,4.000775271528959
1789752366899401500,6.7744013671875,5.189499902927875,8.98365896141231,3.843070096647739
1789752366909455400,6.784455322265625,5.674144537323713,9.556077156329154,4.20066480666697
1789752366919509500,6.794509521484375,7.086758588129282,8.799044736817478,4.449143892928958
1789752366929563400,6.8045634765625,8.332683362609147,6.498257273417711,4.310120037642121
1789752366939616500,6.814616455078125,8.960544043284655,4.298696726351976,4.1854400572672485
1789752366949670400,6.82467041015625,5.53524460067749,3.122607704642415,4.276142656977474
1789752366959724500,6.834724609375,0.154070033249259,1.6812918754875659,4.672912900826335
1789752366969778200,6.844778076171875,-2.5567262180179355,0.2467220134615898,5.082739902386069
1789752366979832300,6.854832275390625,-2.2935645264089106,-2.2299510091543198,5.770054642549157
1789752366989886200,6.86488623046875,-2.9036569106817245,-5.745543886148929,4.962864984205365
1789752366999939300,6.874939208984375,-2.913670355173945,-8.228269048410654,2.1169711111843585
1789752367009993200,6.8849931640625,0.466317681197077,-7.597177715250849,0.555191750305891
1789752367020047400,6.89504736328125,3.2807886803418396,-3.5470430772691963,2.782558588185906
1789752367030101200,6.905101318359375,3.4719793607175347,-3.416349243432283,2.5334195767104624
1789752367040155400,6.9151552734375,3.639542497268319,-5.991542261511087,3.161019560623169
1789752367050209300,6.925209228515625,1.4608328689210115,-6.10852905703485,6.637466422143578
1789752367060263400,6.935263427734375,-1.6701054416932164,-5.381341156166791,8.550348208412528
1789752367070316300,6.94531640625,-2.3821976263687015,-5.146405442088842,6.495894635939598
1789752367080370400,6.955370361328125,-2.9846970712944865,-5.701297917187214,1.5759551857471465
1789752367090424300,6.96542431640625,-4.308428723554313,-7.743031708818673,-3.1393431508660314
1789752367100478500,6.975478515625,-5.4528106476187705,-9.723272044089436,-6.251470378026366
1789752367110532400,6.985532470703125,-6.25205899156928,-10.09988358926773,-7.6746981773048635
1789752367120586500,6.99558642578125,-6.049395900064707,-8.858309995734691,-7.069058096265793
1789752367130639400,7.005639404296875,-4.521478476777673,-7.5261939614892,-5.886234213343262
1789752367140693500,7.015693603515625,-1.7338491611987352,-7.189141104239225,-5.494555447414517
1789752367150747400,7.025747314453125,-1.3960416861891747,-6.392696127271652,-4.247002779471874
1789752367160801500,7.035801513671875,-7.272910105293989,-1.9090800558984278,0.8509902216255665
1789752367170855200,7.045855224609375,-2.3882450898393985,2.4024755675047635,5.048220962190627
1789752367180909300,7.055909423828125,3.056079176723957,5.0397091544330115,7.2686512788057325
1789752367190962400,7.06596240234375,4.446755536487698,5.595851337331533,6.588667612183094
1789752367201016300,7.076016357421875,3.609433774730563,5.137553442591429,4.117475066804886
1789752367211070200,7.0860703125,1.7291455135524272,5.1460681729584925,1.5273679727107285
1789752367221124400,7.096124267578125,0.7503804873418063,5.063953368851542,-0.22459785993695258
1789752367231178200,7.10617822265625,4.67885281226933,2.6427555652201176,-2.6808050176292655
1789752367241232400,7.116232421875,5.575750214067101,2.59549170974195,-1.669724771812558
1789752367251285200,7.12628515625,1.5480384202957151,2.3540379920721053,0.06966799498796462
1789752367261339400,7.13633935546875,0.10286825380027294,2.9208365935415026,0.23103753759562967
1789752367271393300,7.146393310546875,-1.2479548190027474,3.573765664499998,0.9876292276024817
1789752367281447400,7.156447509765625,-1.4735107103168963,1.5447376251846552,0.603762012207508
1789752367291501300,7.166501220703125,-0.8896025686144828,-0.7912713737219571,-1.2102946581721306
1789752367301555500,7.176555419921875,-0.40822774966955183,-1.285783322137594,-2.691666018861532
1789752367311608300,7.1866083984375,-0.1031616837888956,0.2565174312889576,-1.4234399807244538
1789752367321662500,7.196662353515625,-0.5700671748112887,1.9017647644490003,1.2817039438694715
1789752367331716400,7.20671630859375,-4.430374310529232,1.3166703355714677,6.1833683171808715
1789752367341770500,7.2167705078125,-3.9823119785994288,0.36848201473653314,-0.7422118669986725
1789752367351824400,7.226824462890625,-1.7729782255381346,3.06952931766659,-5.5862464736402035
1789752367361878300,7.236878173828125,-2.346368626488,2.5478715881720184,-11.54873332105875
1789752367371931400,7.246931396484375,-2.709855755546689,-0.11183949576318264,-13.55105981593132
1789752367381985500,7.256985595703125,-3.528177048757672,-1.2823995249181985,-13.960584035152197
1789752367392039400,7.267039306640625,-3.0832977307781575,-0.5553220986872911,-14.498616560864448
1789752367402093300,7.27709326171875,-3.089561175087094,-0.5688429667785764,-14.619900176799296
1789752367412147200,7.287147216796875,-1.8447594132877885,0.22794074062407016,-11.644866129124164
1789752367422201300,7.297201416015625,-0.24272666021510958,2.231791668584943,-8.358092529153824
1789752367432254200,7.307254150390625,1.8723193281255661,3.4132550768092274,-7.982284117051958
1789752367442308400,7.317308349609375,5.734901496103405,2.952143878214061,-8.083858239388466
1789752367452362200,7.3273623046875,7.77882782934308,1.5686112527251244,-3.8486791687011714
1789752367462416400,7.33741650390625,5.821021444198489,-1.168679914496839,0.22924071730673312
1789752367472470300,7.34747021484375,3.845782278215885,-2.254358889701962,5.297185786142945
1789752367482524400,7.3575244140625,14.9323201125741,-0.09687953477948903,24.638670832478997
1789752367492578600,7.36757861328125,15.10546601769328,-3.125358172394335,34.77418453805446
1789752367502631400,7.37763134765625,-1.81801227613762,-1.4806231726706027,14.307442831623554
1789752367512685300,7.387685302734375,-1.7227996516570447,2.5871289550662038,3.954977981472015
1789752367522739500,7.397739501953125,-0.6014366379998624,2.603947695659101,-3.5871763502150773
1789752367532793300,7.40779345703125,0.07418218447677791,1.0569278047561645,-8.570622934678196
1789752367542847500,7.417847412109375,1.7401181584656238,-2.332959840469062,-13.275588677847384
1789752367552901600,7.427901611328125,-0.6675995474763214,-4.301430242969095,-13.565059115189314
1789752367562954500,7.43795458984375,-3.4187118809103962,-5.716152956491708,-6.2144590364933014
1789752367573008400,7.44800830078125,-6.753402247309684,-8.72789439431727,1.06749186886847
1789752367583062500,7.4580625,-8.9550495375216,-11.802302423936128,6.582161883550882
1789752367593116200,7.4681162109375,-3.469364794304967,-17.436477354443074,16.83405039023161
1789752367603170300,7.47817041015625,9.972585243088007,-12.38707098186016,14.938422521102428
1789752367613224400,7.488224365234375,-0.000813069948554039,-1.8689380151242017,6.508508618319034
1789752367623277300,7.49827734375,-8.689152867990732,1.6904703304603694,2.020247351488471
1789752367633331200,7.508331298828125,-4.369342626461386,1.4517007373079656,0.005423778614401817
1789752367643385300,7.51838525390625,-3.5688521734952925,0.8981400953352451,-0.5560118345171213
1789752367653439200,7.528439208984375,-1.7509769677408038,-0.6559367283418774,-1.8628923052191733
1789752367663493400,7.538493408203125,-1.082307745206356,-1.0348241094976662,-3.7551603425264357
1789752367673547500,7.548547607421875,-1.6791382045850156,-1.5125696320295332,-4.648846381062269
1789752367683600400,7.558600341796875,-1.6359095959722996,-3.213791365867853,-5.0184313886046406
1789752367693654500,7.568654541015625,-0.05772036756277084,-3.876628667378425,-5.294103017696738
1789752367703708700,7.578708740234375,1.2990244965046644,-3.802053026604652,-5.311061166760325
1789752367713762800,7.5887626953125,1.4581465524464845,-3.3976240846961736,-4.46779072573185
1789752367723816700,7.598816650390625,0.4583838194578886,-2.1450556344181297,-4.646970650318265
1789752367733870800,7.608870849609375,-1.0681892034828662,0.07637421462833881,-5.7699558583498
1789752367743924700,7.6189248046875,-2.394609656435251,0.000633037206530571,-1.9738246230095624
1789752367753977600,7.6289775390625,-3.5237469573557374,1.262241703030467,1.4864081858128309
1789752367764031700,7.63903173828125,-3.2005057678371664,2.412313070908189,3.3140164116829633
1789752367774086000,7.6490859375,-2.070902310709655,2.933714195293188,3.4823283207744358
1789752367784139500,7.659139404296875,-1.2574611907556652,2.7538410277456045,3.2153619761854406
1789752367794193700,7.669193603515625,-0.6781827546805143,2.4482319410294293,3.0610002665132283
1789752367804247600,7.67924755859375,0.06207388659715652,2.345595742419362,2.7092671420037746
1789752367814300400,7.689300537109375,0.14231398287341,1.5963976697951554,1.2975450716018675
1789752367824354600,7.6993544921875,-1.44803271631971,-1.8051251759052276,-1.0788093816965818
1789752367834408700,7.70940869140625,-0.9258344502076506,-2.5125766951680184,-2.578048407509923
1789752367844462600,7.719462646484375,-0.5140175900049507,-1.6295003134518862,-2.5399498552620408
1789752367854516700,7.729516845703125,0.002447393152117729,0.4482306742340326,-1.3899977298498152
1789752367864570600,7.739570556640625,0.25397885272204873,2.7024130383253095,-0.3281125949472189
1789752367874623500,7.74962353515625,0.31101839841380713,4.2209833720743655,0.4373913003116846
1789752367884677600,7.759677734375,0.12631108870804308,5.07068998363018,1.0682780508100986
1789752367894731800,7.769731689453125,-0.16707279575057327,5.217048419588804,1.2315899596571922
1789752367904785700,7.77978564453125,-0.048237084424495695,5.263184732341766,1.1455232030540705
1789752367914839800,7.78983984375,0.1532668271075934,5.547499686616659,0.9590309096276759
1789752367924893700,7.799893798828125,0.6540285566329955,5.305805730450153,0.7598527376294135
1789752367934947800,7.80994775390625,0.9964104999512433,4.266103785783052,0.7658475941300392
1789752367945000700,7.820000732421875,1.3743155920714138,3.1286651049852368,1.098760867357254
1789752367955054800,7.830054931640625,2.353663313540816,3.09266440179944,2.304412083637714
1789752367965108700,7.840108642578125,2.982922755098343,3.63883171865046,3.5642978711917994
1789752367975162600,7.85016259765625,4.8752118351936335,3.255560131061077,4.318698480895161
1789752367985216500,7.860216552734375,7.560376217076182,2.19746211348176,4.309878045579791
1789752367995270700,7.870270751953125,7.884476653772592,1.4571002582639454,2.939314499518275
1789752368005323800,7.88032373046875,6.301168767175078,1.883999390655756,1.8823653597131371
1789752368015377700,7.890377685546875,5.060172096747159,3.1208892102867365,2.4028113753303884
1789752368025431600,7.900431640625,4.77879904114306,3.124260148024559,3.6262577760204673
1789752368035485700,7.910485595703125,4.615718602964281,1.7178560577750206,4.225459640705585
1789752368045539600,7.92053955078125,4.41271648876369,-0.05481003307402134,4.449840643021464
1789752368055593700,7.93059375,3.7878964909583326,-1.7335989858299492,4.6798289638251065
1789752368065646600,7.940646484375,2.770799761331081,-3.313242504701018,4.891674894216656
1789752368075700700,7.95070068359375,2.5563743358403443,-4.01623470646739,4.452579712596536
1789752368085754600,7.960754638671875,3.0965549794971943,-4.2623289434194565,3.8280376549497244
1789752368095808800,7.970808837890625,3.556709900280833,-4.49190400724709,3.100317254640162
1789752368105862700,7.980862548828125,3.4050334841698406,-4.360927264815569,2.2700863279268146
1789752368115916800,7.990916748046875,2.751190805497765,-3.8605017084419724,1.3897042998611926
1789752368125970700,8.000970703125,2.2088776798568666,-3.427567387539148,0.8798381304472684
1789752368136023800,8.01102392578125,1.7064005977809429,-3.45473713401556,0.8344675413697957
1789752368146077700,8.02107763671875,1.301935561645776,-4.029381188288331,0.896963452771306
1789752368156131800,8.0311318359375,0.9866524915248155,-5.1294689203351735,1.1173860728502274
1789752368166185700,8.041185791015625,0.4720727375924587,-6.253498668983578,1.335129829108715
1789752368176239600,8.051239501953125,0.24597718644365668,-6.688119920060038,1.4380068507373331
1789752368186293500,8.06129345703125,0.18700725721120834,-6.632310354554653,0.4758098782941699
1789752368196347600,8.07134765625,-0.3283633548378944,-6.0477855422586195,-0.819895702920854
1789752368206400500,8.081400390625,-0.7638269019573927,-6.677329645976424,-1.7069637846216559
1789752368216454700,8.09145458984375,-1.7740449779868124,-6.923513314777613,-3.2304268588483334
1789752368226508500,8.101508544921876,-3.512454578968882,-6.49941579580307,-4.566900503781437
1789752368236562700,8.111562744140626,-5.603804926684498,-5.9995239079147575,-4.479589592336118
1789752368246616600,8.121616455078126,-5.688611454093456,-4.899689273846149,-4.665314700782298
1789752368256670700,8.131670654296874,-5.523273592376708,-3.1447476402580734,-4.791418868741393
1789752368266723600,8.1417236328125,-4.691619939383864,-1.4495248545736075,-4.571973569262028
1789752368276777700,8.15177783203125,-3.592491992279887,-0.47008770125508303,-4.186586596953869
1789752368286831600,8.16183154296875,-2.9374188950300213,-0.14019815976321695,-3.7344519010186192
1789752368296885800,8.1718857421875,-2.4319290410041807,0.07541735229492187,-3.3688641464188693
1789752368306939600,8.181939697265625,-2.3536153827458617,1.2221323954820633,-2.6370442018359896
1789752368316993800,8.191993896484375,-1.936976655344665,4.056076302990317,-0.4088736463576555
1789752368327047700,8.202047607421875,-1.1905503855213522,5.657550545397401,1.728183390522003
1789752368337100800,8.212100830078125,-0.4671203758820891,5.7287733686119315,2.4101368959128857
1789752368347154700,8.22215478515625,0.726151251296699,5.3079357282161705,1.4873369910955427
1789752368357208800,8.232208740234375,1.2947118940025568,3.1118828970104455,-1.300731884944439
1789752368367262700,8.2422626953125,1.7120853654190897,2.4900135657042264,-3.010709172168374
1789752368377316600,8.252316650390625,1.1778440486833452,3.944192968085408,-2.776674790844321
1789752368387370500,8.26237060546875,0.256641642190516,2.590748314607143,-3.650946519336104
1789752368397423900,8.272423828125,-0.38267099134773014,1.412948981848359,-4.272734602099657
1789752368407477500,8.2824775390625,-0.8827136858835816,1.0093442158043384,-4.5667461900025605
1789752368417531600,8.29253173828125,-1.4769780941665172,1.0374813460081815,-4.911738023558259
1789752368427585500,8.30258544921875,-2.4265455944001673,1.3087322360485791,-5.372342441675067
1789752368437639700,8.3126396484375,-3.3643823248296973,1.630727809420228,-5.593464149934053
1789752368447693600,8.322693603515624,-4.089635458242893,2.1173364373654127,-5.674360225901007
1789752368457747700,8.332747802734374,-7.393289465865492,4.287102150148153,-4.867250647056102
1789752368467800600,8.342800537109374,-7.4034852811872955,4.889369539883733,-4.865089085108042
1789752368477854700,8.352854736328124,-2.919092087961733,2.141009573897719,-6.616588469287753
1789752368487908600,8.36290869140625,-1.3231576517641543,2.0786451799213883,-6.712391022485495
1789752368497962800,8.372962646484375,-0.6756225488036871,2.7794308115541932,-6.255286721444129
1789752368508016600,8.3830166015625,0.07831102790981531,3.0306396150410175,-5.8773617555797095
1789752368518070800,8.39307080078125,1.3577253995373844,3.303890154466033,-4.882198625341058
1789752368528123600,8.40312353515625,3.8377369189262387,2.4611317546129223,-2.1655244219511744
1789752368538177800,8.413177734375,7.4576377271354195,0.38505262578725813,1.4073667978018523
1789752368548231700,8.423231689453125,11.011970376890897,-1.615745928865671,7.208291210389137
1789752368558285800,8.433285888671875,12.558273936218022,-2.898278724774718,14.20612414535284
1789752368568339700,8.443339599609375,19.664616345739365,-3.8683185196727514,22.502460767817496
1789752368578393600,8.4533935546875,19.128388823622466,-6.648107058623433,28.760887540853023
1789752368588447500,8.463447509765626,1.725951393686235,-5.332324904063344,18.72386109751463
1789752368598500600,8.47350048828125,-4.049942038019001,-0.736585843810439,6.599663053449988
1789752368608554500,8.483554443359376,-5.1813031524688,-1.362165135550499,-1.3265350192427634
1789752368618608600,8.493608642578126,-3.838831143903732,-3.8438679690271615,-7.3773483848899595
1789752368628662500,8.50366259765625,-1.1509349989697337,-4.9679006402850145,-9.043741381931305
1789752368638716700,8.513716552734374,0.4347518917188048,-5.270290180432796,-7.315107909554243
1789752368648770600,8.5237705078125,1.4410890346616505,-6.345333487594127,-4.375898623976111
1789752368658823700,8.53382373046875,1.4361989245325326,-8.256939262577891,-1.5717881291955709
1789752368668877600,8.543877685546875,-0.37333529998660087,-11.205057830798625,0.4330769442439079
1789752368678931700,8.553931640625,-1.6717583234667777,-12.057752518254517,-0.8901134407460689
1789752368688985300,8.5639853515625,3.606654373145103,-5.32393993755579,-3.1689906856328247
1789752368699039500,8.57403955078125,3.3286464100599287,0.8272194699376821,-0.27159517343342304
1789752368709093400,8.58409326171875,0.4528881446510553,4.329571172565221,2.5312632754594087
1789752368719147500,8.5941474609375,0.16739420972466468,3.250487650102377,1.9312538937836885
1789752368729200400,8.604200439453125,-2.0231106319651007,1.1384393822729586,1.403838623675704
1789752368739254500,8.614254638671875,-5.113886735799908,0.13986439776420592,0.5419809710770845
1789752368749308400,8.624308349609375,-5.852547632318735,-0.81521280580163,0.05722235491275787
1789752368759362600,8.634362548828125,-5.354759438711405,-1.6001082147508858,0.8680570917606353
1789752368769416400,8.64441650390625,-6.024194823312759,-1.694324375540018,1.844101387770474
1789752368779470300,8.65447021484375,-8.003854728347063,-1.7088140886634586,2.0720468045696614
1789752368789524500,8.6645244140625,-8.692149711719155,-2.4284230787098404,0.21874650356024503
1789752368799577600,8.67457763671875,-7.6379317504435775,-2.28875449577868,-1.5315414590030907
1789752368809631200,8.68463134765625,-6.768173699983954,-1.352936703956127,-2.3092668301925063
1789752368819685400,8.694685302734374,-6.443059702330827,-0.21618016020357608,-1.9421698400735854
1789752368829739300,8.7047392578125,-6.84753832859993,1.3977736245483159,-1.1226429704651235
1789752368839793400,8.71479345703125,-6.332935193791985,3.123581518110633,-0.5505290191918611
1789752368849847600,8.72484765625,-4.480555514758825,3.7270010004907843,-0.8266077677801251
1789752368859900400,8.734900390625,-2.7599036887854336,3.605284253835678,-1.2672700525864957
1789752368869954300,8.744954345703125,-2.283338023687899,3.554968025049567,-1.282948683233559
1789752368880008400,8.755008544921875,-2.0744111956134437,3.1251404379904266,-1.735745934730768
1789752368890062300,8.765062255859375,-1.839414106737077,3.067743895554542,-2.114369988775253
1789752368900116500,8.775116455078125,-2.1928730321258305,3.4515058970093726,-2.161494143521786
1789752368910170600,8.785170654296875,-1.6141037146165966,2.659524913713336,-1.6100681754902004
1789752368920224500,8.795224609375,-0.16838307463154195,1.2488310173153876,-1.3193196810364722
1789752368930277400,8.80527734375,1.1186626686573027,-0.46926469443440433,-0.9704689800955355
1789752368940331500,8.81533154296875,1.609821653383225,-1.5294699134260414,-1.500605199600011
1789752368950385400,8.825385498046876,1.132860047770664,-0.5183113416761159,-1.7596996417701243
1789752368960439600,8.835439453125,1.0171042553465812,0.47010582143366336,-1.9028588432960212
1789752368970493400,8.845493408203126,1.6305436850249766,1.536712724161148,-2.6691204250544307
1789752368980547300,8.85554736328125,2.680300575238466,3.4717928982347246,-3.108108931429684
1789752368990601500,8.8656015625,3.3864527023404833,5.770120109000802,-3.7969811301678416
1789752369000654300,8.875654296875,3.015437954255938,7.401607212355732,-4.647620346398651
1789752369010708200,8.885708251953124,1.8569611616045236,8.074479001146555,-4.837065059889853
1789752369020762400,8.895762451171874,0.9005600159585475,7.138171379980444,-4.618392206087708
1789752369030816500,8.90581640625,-0.1949520787358284,4.22056485440135,-4.031399250112473
1789752369040870400,8.915870361328125,-1.8102859196692704,0.6782055510342121,-2.975143061007559
1789752369050924500,8.925924560546875,-4.504453107696771,0.4785667757868767,-0.6285173910185694
1789752369060978400,8.935978515625,-6.333107627749443,7.602067240858077,0.8877365555468946
1789752369071031300,8.94603125,-3.5418688895016905,13.587180930626392,-0.9630111383702605
1789752369081085400,8.95608544921875,-1.7785989880293607,7.403169054844975,1.5826985225275159
1789752369091139600,8.9661396484375,-1.1119652168452738,1.6959060917735098,2.5544100500300524
1789752369101193500,8.976193359375,-0.08910100973248482,-4.5294361577838655,5.4702481046319
1789752369111247600,8.98624755859375,1.441916133135557,-9.45047100199759,7.142440143340826
1789752369121301500,8.996301513671876,2.7611200788378714,-13.305637779152393,6.610974136537313
1789752369131355600,9.006355712890626,1.2090858669042586,-14.060117591571807,8.154051719555259
1789752369141408500,9.016408447265626,-1.1583926214993,-12.689320236754417,8.463516897177696
1789752369151462700,9.026462646484376,-2.5657857227861878,-11.135905384117365,7.7157877280622715
1789752369161516500,9.0365166015625,-2.332473810517788,-8.65959418055117,8.415468613323569
1789752369171570400,9.0465703125,-1.5140578247606753,-7.082485733115672,9.093497638747095
1789752369181624300,9.056624267578124,0.13742694148421286,-7.272811321094632,9.441603220409155
1789752369191678500,9.066678466796875,2.1885845411516724,-7.622105235758423,9.015946197032928
1789752369201731300,9.0767314453125,4.258807491295039,-7.788560703328251,7.66060418550074
1789752369211785500,9.086785400390625,5.523126292860508,-7.830107934725284,5.256515922102332
1789752369221839400,9.09683935546875,6.281610080224275,-7.434651988345384,2.8434765827462076
1789752369231893500,9.1068935546875,12.32107144625187,-5.222207994309067,2.8608438971325754
1789752369241947400,9.116947509765625,28.957120891571044,1.567459160080552,8.241260047408938
1789752369252001500,9.12700146484375,18.280393692159652,-0.5726134252279996,9.220697200727463
1789752369262055400,9.137055419921875,11.0920475376904,-7.411774970626831,5.667018630966544
1789752369272108500,9.147108642578125,10.00040380886197,-7.9027698508322235,4.688931430952251
1789752369282162400,9.157162353515625,4.014917194128036,-8.729967108938098,2.752744464680552
1789752369292216600,9.167216552734375,-0.6730366239637136,-9.21463804681897,1.889389705391973
1789752369302270500,9.1772705078125,-2.008671479985118,-7.923634359684586,1.6523492741197348
1789752369312324600,9.18732470703125,-1.2972405356973409,-6.876366363677382,-0.18381520143793895
1789752369322378500,9.19737841796875,-0.4843247547917068,-5.478956896266341,-1.2750669900730252
1789752369332432400,9.207432373046874,0.26851240498721596,-4.169120498368144,-1.9549074488326905
1789752369342485500,9.217485595703126,0.9886363588184117,-4.1352591452986,-3.2527450736403463
1789752369352539600,9.22753955078125,1.1710849298119543,-5.591514184910059,-5.887818852186203
1789752369362593500,9.237593505859374,0.5227031468942761,-7.329293671295046,-9.121877930057048
1789752369372647400,9.2476474609375,-1.034524542029202,-8.575903505429626,-12.332394804298877
1789752369382701300,9.257701416015625,-3.2518662449792024,-7.915203215947747,-13.812829760921
1789752369392755500,9.26775537109375,-5.9304737525641915,-5.586096836036443,-13.876499392277001
1789752369402809300,9.277809326171875,-7.901405576741695,-2.6724913627922535,-13.244375208938122
1789752369412862500,9.287862548828125,-9.667200028255582,-0.0061275429695844645,-11.309473314040899
1789752369422916400,9.297916259765625,-10.468748465842008,2.2388322347462175,-8.845573263758421
1789752369432970500,9.307970458984375,-10.057000725352763,3.4317356131345034,-7.495757906693219
1789752369443024400,9.3180244140625,-8.685296777084469,4.506242913722992,-5.8428176809430115
1789752369453078500,9.32807861328125,-7.800508915275334,5.480680651319027,-4.27267205825746
1789752369463132400,9.33813232421875,-6.6911670326709745,6.09972498833239,-3.1647593316733835
1789752369473186600,9.3481865234375,-6.020746144163608,6.633216948005557,-2.172846581532806
1789752369483240400,9.358240478515626,-5.775803415334225,7.041391506183147,-1.209736878158897
1789752369493293600,9.36829345703125,-2.7719331492751835,7.02663408203423,0.012015870355814695
1789752369503347500,9.378347412109376,7.671835773611068,6.4276680719316,5.857515483859181
1789752369513401600,9.388401611328124,2.463873746797442,4.450682354542613,4.029946713216603
1789752369523455500,9.39845556640625,0.20081702524647116,3.3209348127692935,0.3236228823125362
1789752369533509400,9.40850927734375,-0.07545359265208244,2.57010884668231,-1.6613056107744573
1789752369543563300,9.418563232421874,-1.190250818052888,2.3936077859163283,-3.126939888627827
1789752369553617400,9.428617431640625,-2.5159347734242674,2.5050562365353106,-4.419869575388729
1789752369563670300,9.438670166015624,-3.5181057365983723,2.913625931510329,-5.116615868502855
1789752369573724400,9.448724365234375,-4.040876688031852,3.8319191725581883,-5.157738152486085
1789752369583778300,9.4587783203125,-4.120711272247135,4.777794248014688,-5.371788314923644
1789752369593832400,9.46883251953125,-3.741545366410911,5.674135184973478,-5.627899503499269
1789752369603886300,9.47888623046875,-3.141747873920202,6.350632178524136,-5.81922754651904
1789752369613940500,9.4889404296875,-2.363605446362495,6.7541340687155715,-5.851301431649923
1789752369623993300,9.498993408203125,-1.3683765574112534,6.822770967090129,-5.8128130033016205
1789752369634047500,9.509047607421875,-0.2086417275227606,6.272067175853252,-5.8446168393194675
1789752369644101400,9.519101318359375,1.0357352329932152,4.308242553332447,-5.92336947351694
1789752369654155500,9.529155517578126,4.471604146540165,0.7409095522284508,-5.2549523260474205
1789752369664209400,9.53920947265625,18.70785688817501,-7.896213268795609,-1.6170733780771493
1789752369674263600,9.549263671875,41.97944091079235,-13.988884246963261,20.78107185974121
1789752369684317400,9.5593173828125,21.6723344705224,-13.212103755408524,35.76554301531315
1789752369694371600,9.56937158203125,-1.1477252431429923,-17.283626049333808,28.747656303358077
1789752369704424700,9.5794248046875,-2.592567346727848,-15.353096378171443,17.21197418705225
1789752369714478600,9.589478515625,-2.776936072129011,-7.043657697549462,5.654010096311569
1789752369724532500,9.599532470703124,-1.2846167625762521,0.708685444971919,1.2410881481036544
1789752369734586400,9.60958642578125,-2.7368723572880027,5.287399720665812,-0.24878274538367987
1789752369744640500,9.619640625,-4.054872772419452,6.524309998562932,-1.2388128966480494
1789752369754694400,9.6296943359375,-3.9870962902665137,5.044968097874522,-2.9640105493575333
1789752369764748500,9.63974853515625,-3.7266818515390154,1.3013561543226242,-5.163589216601848
1789752369774801400,9.649801513671875,-3.5965047350525854,-3.647594870820641,-6.768115832316875
1789752369784855600,9.65985546875,-3.9714860486805437,-9.736406835472582,-9.035251786005496
1789752369794909400,9.669909423828125,-2.884369441887736,-16.481436391234396,-11.756617362082004
1789752369804963600,9.679963623046875,7.575251714646816,-19.024349772477148,-12.765347829902172
1789752369815017500,9.690017578125,3.727672031620145,-11.891359010004997,-8.421189329057931
1789752369825071600,9.700071533203126,-1.0692390778619796,-3.668413202443719,-7.405545136326551
1789752369835125500,9.71012548828125,-0.7462836464822292,-0.5276502479076385,-7.684034745448828
1789752369845178600,9.7201787109375,-2.0462726041048764,1.4864754058301448,-6.744919665646552
1789752369855232500,9.730232421875,-2.1766122176766394,3.5643133610218762,-5.54180936602056
1789752369865286700,9.74028662109375,-1.943742788478732,4.830190205684304,-4.835357963711023
1789752369875340500,9.750340576171874,-1.8850345789223908,5.129199455744028,-4.4143198323071005
1789752369885394700,9.760394775390624,-2.048766759008169,4.8857507648646825,-3.756912739151716
1789752369895448300,9.7704482421875,-2.288373387506604,4.020117685380578,-3.060579410752654
1789752369905502500,9.78050244140625,-2.7869033393919467,2.41158300306797,-2.831823846614361
1789752369915555600,9.7905556640625,-3.2700913452386855,0.47653673126399515,-2.8864088387608526
1789752369925609500,9.800609375,-3.6218648017585275,-0.9478782319724559,-2.563514270722866
1789752369935663400,9.810663330078125,-4.000263230353593,-1.1359084024906159,-1.851065089303255
1789752369945717500,9.820717529296875,-4.289185970684886,-0.6357388667047024,-1.2949581238485872
1789752369955771400,9.830771484375,-4.187475070226192,-0.21737959912121294,-0.40969153861179947
1789752369965825500,9.840825439453125,-3.428696683830023,-0.07247311553657054,0.3915833427302539
1789752369975879400,9.85087939453125,-2.797829807075858,-0.13503624695539473,0.7012281147032976
1789752369985933600,9.86093359375,-2.71446003447175,-0.3649240299940109,0.5607758340485394
1789752369995986400,9.870986328125,-3.1571541173666713,-0.5163900182247162,0.4780899520553648
1789752370006040600,9.88104052734375,-2.3027017725884913,-0.12026128714978694,1.3699785857804119
1789752370016094500,9.891094482421876,-1.6567320192486046,0.1272825640887022,2.596459385730326
1789752370026148600,9.901148681640626,-1.8723592217445373,0.4443956261157989,2.9882559328198433
1789752370036202500,9.911202392578126,-2.183932769823074,0.9085936848103999,2.5896108350098133
1789752370046256600,9.921256591796874,-1.6283552350699901,1.4744523750811815,2.462484922787547
1789752370056310500,9.931310546875,-1.0634072299033404,2.072827433553338,2.587373285216093
1789752370066363600,9.94136376953125,-0.9866735343128442,2.5572984649479387,2.2016367688179015
1789752370076417500,9.95141748046875,-1.4580390004187822,2.837702967780828,1.7362753654323517
1789752370086471700,9.9614716796875,-2.2543267409980294,3.2091315573632717,1.6693243743181228
1789752370096525300,9.971525390625,-1.7951707681238651,3.314391090214252,1.8503388208553193
1789752370106579500,9.981579345703125,-0.35704350587725636,2.7077409553498026,2.2761621407091615
1789752370116633300,9.99163330078125,1.032910969352722,1.579979034435749,2.6782787140220403
1789752370126687500,10.0016875,2.1172306389033793,0.5152841028094292,2.7600533263891935
1789752370136741600,10.01174169921875,2.8042262301146983,-0.4006003235310316,2.6691438059300183
1789752370146794500,10.02179443359375,3.13983064212203,-1.1004852069318294,2.6295003623276947
1789752370156848400,10.031848388671875,3.1763293579578398,-1.5335124668151139,2.4589745765790343
1789752370166902500,10.041902587890625,2.9553754074811933,-1.549275268614292,2.121251564982533
1789752370176956400,10.051956298828125,2.7374767529219386,-1.1912012506455183,1.7385858343318104
1789752370187010600,10.062010498046876,2.728121480077505,-0.5893208144009113,1.4813175846755504
1789752370197064700,10.072064697265626,3.0545617578983304,0.06299275500774383,1.8995586327068505
1789752370207118600,10.08211865234375,3.4074992897614833,0.23991057988107203,3.0446696016982195
1789752370217171500,10.09217138671875,3.6797415289267894,0.07203823125064372,4.299531715871393
1789752370227225600,10.1022255859375,3.969753233538568,0.1968693105340004,5.286946131679415
1789752370237279500,10.112279541015624,4.140635577639937,0.5719260274857282,5.956563302588463
1789752370247333600,10.122333740234374,4.039102371835709,0.6924380745261908,6.542918837442993
1789752370257387500,10.132387451171875,3.723452075837552,0.11972644962072372,7.349782332572341
1789752370267441400,10.14244140625,3.6174750423669813,-0.6775801126122474,8.273605735218524
1789752370277495600,10.15249560546875,4.036882649959623,-1.3338736915677785,8.760833371844887
1789752370287549400,10.162549560546875,4.492719707544148,-2.0910048952788114,8.77796980008483
1789752370297602300,10.172602294921875,4.801967150762677,-2.7102333566874264,8.750935662686825
1789752370307656400,10.182656494140625,5.020984580218792,-2.93906257058382,8.599621065625549
1789752370317710600,10.192710693359375,5.3878468847990035,-2.610230429190397,8.223639635044336
1789752370327764500,10.202764404296875,6.374173797631263,-1.9284002579182384,8.032682763424516
1789752370337818600,10.212818603515625,6.925428208488226,-1.0153910947531462,8.097815453070401
1789752370347872500,10.22287255859375,5.952592060869931,-0.19266542910337447,7.848250909659266
1789752370357926700,10.2329267578125,4.797539397448301,-0.7148433830797671,7.376961431398987
1789752370367979500,10.2429794921875,3.865325183075666,-3.1496412575185295,7.164858311375975
1789752370378033700,10.25303369140625,2.2767875791311263,-5.462980159455538,6.614153351095318
1789752370388087600,10.263087646484376,0.7720411880731582,-6.336873117762804,5.1052586081862446
1789752370398141700,10.2731416015625,0.5103910700708627,-6.752190533432364,3.2540222539693113
1789752370408195600,10.283195556640624,0.3632388899186626,-7.687610850369929,1.9183042497090994
1789752370418249700,10.293249755859375,-0.13746084375381468,-9.195926332086325,0.5215281117655337
1789752370428303400,10.303303466796875,-0.8983277268618345,-10.940196934056281,-1.2624670362189412
1789752370438357500,10.313357421875,-1.8696750972270963,-12.534124998867512,-3.263038504117727
1789752370448410600,10.32341064453125,-3.4018875873595475,-13.325527890014648,-6.123370652335882
1789752370458464500,10.333464599609375,-5.2857805950313805,-12.912101402658223,-8.094037103575468
1789752370468518400,10.343518310546875,-5.970774783292413,-11.225254231131077,-9.178543820130825
1789752370478572500,10.353572509765625,-6.772972040176391,-8.325940902611613,-9.139650902634859
1789752370488626400,10.36362646484375,-6.821384481167793,-5.2035097235798835,-8.274145833444594
1789752370498680600,10.3736806640625,-5.383220394042134,-2.782778952938318,-8.169604093474149
1789752370508734500,10.383734375,-5.123897257682681,-0.1921025345236063,-7.4759776859462255
1789752370518787600,10.39378759765625,-4.799351999828219,2.2316578130722045,-6.449373707783222
1789752370528841500,10.403841552734375,-3.0616140144973993,4.46555142237246,-5.083308642184734
1789752370538895600,10.4138955078125,1.683828115966916,6.731953216567635,-2.5201760642558333
1789752370548949500,10.423949462890626,4.6127258508890865,7.266117376413941,0.3535971648156643
1789752370559003600,10.434003662109374,3.215260853898525,5.598814278790354,0.5938970362752676
1789752370569057500,10.4440576171875,1.7647898045159875,3.557392621847987,-0.169717391975224
1789752370579111700,10.454111572265624,0.5139617681644857,2.0078607481241226,-1.1151517379269003
1789752370589165600,10.46416552734375,-0.9338117126971482,0.9785732299655675,-2.1727856451258063
1789752370599218700,10.47421875,-2.061052970737964,0.6902022782981395,-2.9048355990722774
1789752370609272600,10.4842724609375,-3.100043406134844,1.1728262205213307,-3.4368916807234284
1789752370619326500,10.494326416015625,-3.8225492866665123,2.257730996483564,-3.5891242694124577
1789752370629380400,10.50438037109375,-4.493094678336382,3.047203211829066,-4.2597897803306575
1789752370639434500,10.5144345703125,-5.50286793320775,3.531245204156637,-5.395635054457188
1789752370649488400,10.52448828125,-6.209437408939004,4.097041350585222,-6.347558762428164
1789752370659542500,10.53454248046875,-6.224950035369396,4.883606738573312,-6.831475082549453
1789752370669596400,10.544596435546875,-5.671286809805035,5.552840463122725,-7.387374688863754
1789752370679649500,10.5546494140625,-4.886232995423675,6.019979835966229,-8.001543528795242
1789752370689703000,10.564702880859375,-4.096230618724227,6.496985938307643,-8.477142686948179
1789752370699757000,10.574757080078125,-3.2315880115821956,6.727644121196866,-8.750015625232457
1789752370709811000,10.58481103515625,-2.415881577044725,6.586458703961968,-8.697870427453518
1789752370719865000,10.594864990234376,-1.8271750951498746,6.029448506057262,-8.305242982497811
1789752370729919000,10.6049189453125,-1.2732412359505891,5.235944843238592,-7.507050285080075
1789752370739973000,10.61497314453125,-0.6082094931356609,4.138289306774735,-6.651127283227443
1789752370750027000,10.625027099609374,0.7735721970327198,2.0318349134296176,-5.670751387754082
1789752370760080100,10.635080078125,5.36194730438888,-1.9330524676382541,-4.2803275414466855
1789752370770134000,10.645134033203124,23.648680136442184,-11.038532220602034,1.981005766685307
1789752370780188200,10.655188232421875,43.690219577527046,-16.549833635634183,30.29854719047546
1789752370790242000,10.665241943359375,9.227370102620124,-11.948445755839348,39.83074312047958
1789752370800296200,10.675296142578125,-3.58053150537312,-14.246397703552246,29.81205897403955
1789752370810349800,10.685349853515625,-1.9523473890863359,-11.866982109117508,16.03781817923188
1789752370820404000,10.695404052734375,-0.08673778773248195,-2.91093888438344,4.798481354473531
1789752370830457900,10.705457763671875,-0.6286585530549288,4.423156634235382,1.6243459994286298
1789752370840511000,10.715510986328125,-3.302845029327273,7.236155368870496,-0.11819295644313096
1789752370850564900,10.72556494140625,-4.260619801414013,7.161729365700483,-1.7343533113285898
1789752370860619000,10.735618896484375,-4.556182125890254,5.413149668359756,-3.5091695659488438
1789752370870673000,10.7456728515625,-5.201566188296676,2.3732547337174412,-5.553162534683943
1789752370880727000,10.75572705078125,-5.289243302705883,-2.935081391993165,-7.842948711597919
1789752370890781000,10.765781005859376,-4.67193324213922,-10.503684170144796,-9.77777637221515
1789752370900835000,10.7758349609375,-3.845278420346975,-18.297299234253167,-11.721079600232839
1789752370910889000,10.785888916015624,8.90471401951313,-21.792701556134222,-14.121967021763323
1789752370920942000,10.795942138671874,7.332166596382856,-15.621424658763408,-9.482674066466092
1789752370930996000,10.805995849609374,-1.8698118753492832,-6.110667822629213,-7.907516168576478
1789752370941050000,10.816050048828124,-0.6653531567890196,-0.8000216664105654,-7.607823612427711
1789752370951104000,10.82610400390625,-1.4030658857375382,2.530012983137369,-6.228244400739669
1789752370961158100,10.836158203125,-1.3061089018076657,4.709083115360141,-5.35142941750586
1789752370971212000,10.8462119140625,-1.103760867601633,6.20966771056354,-4.73067155457288
1789752370981266000,10.856265869140625,-1.1012754074614495,7.036227839809656,-4.157602202270925
1789752370991320000,10.866320068359375,-1.4498001643836498,7.206398528510332,-3.633365854460001
1789752371001373000,10.876373046875,-2.0858289539456365,5.969689326143264,-3.3737013573169707
1789752371011426800,10.8864267578125,-2.8552134900301693,3.521258063149452,-3.227314572046697
1789752371021481000,10.89648095703125,-3.3759394916325807,1.0493500629782677,-2.8000910300061106
1789752371031534800,10.906534912109375,-3.6813399040341377,-1.1135364116847515,-2.1672888012751934
1789752371041589000,10.916589111328125,-3.840000772204995,-2.2404677269935607,-1.3921381028793751
1789752371051643100,10.92664306640625,-3.651170975741744,-2.3494214381873606,-0.6442918832555413
1789752371061697000,10.936697021484376,-3.2524206639915705,-1.7218635398507116,0.08397811376079917
1789752371071751200,10.946751220703124,-2.976366757583618,-1.1866390572965144,0.8289347494229674
1789752371081804000,10.956803955078126,-2.7079484606206417,-0.8934481381267309,1.4101367009066044
1789752371091858000,10.96685791015625,-2.757794733807444,-0.5585667796969414,1.5484674593627452
1789752371101912000,10.976912109375,-2.910203555846214,-0.1008048915296793,1.728700400133431
1789752371111966200,10.98696630859375,-2.7100597536861897,0.5797521910667419,2.1101529556021092
1789752371122020000,10.99702001953125,-2.53407657931447,1.242433425232768,3.1259505853295324
1789752371132074200,11.00707421875,-2.070789205724001,1.423348210787773,3.509877129696309
1789752371142127900,11.0171279296875,-1.9062404485583304,1.689051988095045,2.8258614310786125
1789752371152182000,11.02718212890625,-1.5900380716353655,1.7102601958185433,2.6138141328960653
1789752371162235100,11.037235107421875,-1.1437170304149389,1.8349334541916846,2.7336612862870098
1789752371172289000,11.0472890625,-0.9653758947402238,1.9494979910045862,2.771907722572982
1789752371182343000,11.057343017578125,-0.7752408608973026,2.0023340936571357,2.8764740124627948
1789752371192397000,11.06739697265625,-0.6165326464533806,2.0385610068142412,2.91502293882668
1789752371202451000,11.077450927734375,-0.47636663539409635,1.9926321993321179,3.072558017838001
1789752371212505000,11.087505126953126,0.07755436432361602,1.7846382681936024,3.294027224360406
1789752371222559000,11.09755908203125,0.6773942346513271,1.4533482122540473,3.235796569187939
1789752371232613000,11.107613037109376,1.167465497205779,1.0053548539072275,2.8576389636114237
1789752371242667000,11.1176669921875,1.6599731931269168,0.5533861621886491,2.5515286493748426
1789752371252720000,11.12772021484375,2.0532769299089906,0.09749299050271511,2.3247056607343257
1789752371262774000,11.13777392578125,2.448806526046991,-0.3459749993741512,2.093373231845349
1789752371272828200,11.147828125,2.83850142468214,-0.6561480330049991,1.8355565545260906
1789752371282882000,11.157882080078124,3.0875545114398,-0.6273088920116424,1.606472635216266
1789752371292936200,11.167936279296875,3.2320728724896908,-0.21901275328099726,1.5383032082229853
1789752371302990000,11.177989990234375,3.325543767869472,0.27477146538197994,1.5372919853538274
1789752371313044000,11.1880439453125,3.5825545356333253,0.6545043574512004,1.6797279871717095
1789752371323097900,11.198097900390625,3.9614039228662845,0.5718804347783327,2.170676397886872
1789752371333151000,11.20815087890625,4.303218295429646,0.317903335621953,3.1789535689815875
1789752371343204900,11.218204833984375,4.50314962388277,0.5918050324320793,4.33672601275593
1789752371353259000,11.228259033203125,4.2649253896534445,1.1123545084238051,5.261445195198059
1789752371363313000,11.23831298828125,3.7226200089275836,1.1543746180295944,6.228943488919734
1789752371373367000,11.248366943359375,2.8313302178785205,0.5810287868738174,7.326355864277482
1789752371383421000,11.2584208984375,2.133005423401296,-0.2896124761611223,8.13537799874544
1789752371393475000,11.26847509765625,2.330951715517044,-1.1565952166885136,8.615352303242682
1789752371403529000,11.278529052734376,2.9053181218922135,-1.714699639570713,8.663967573329806
1789752371413582000,11.28858203125,3.4680011047363277,-2.154078314307332,8.560562143912911
1789752371423636000,11.298635986328126,3.9370559558123346,-2.3154040177732704,8.39672533440888
1789752371433690000,11.308690185546874,4.253725950247049,-2.021062759524584,8.038777573168277
1789752371443744000,11.318743896484374,4.945900405400991,-1.7259779894322156,7.87877405821681
1789752371453798100,11.328798095703124,5.937401506000757,-1.3062439263641834,7.949908034104109
1789752371463852000,11.33885205078125,6.2365235687851905,-0.5720207200318574,7.4695099512368435
1789752371473906000,11.348906005859375,5.996421850246191,-1.0414058259755372,6.867140854692459
1789752371483959800,11.358959716796875,5.376061754459142,-3.0584914985626934,6.419189581921696
1789752371494014000,11.369013916015625,3.3898505280852316,-5.044326877361535,5.576085145109891
1789752371504067000,11.379067138671875,1.2162006673455237,-6.490759611138701,4.365477183204889
1789752371514121000,11.389120849609375,0.6774094322204589,-7.463091316366195,2.693789002364874
1789752371524174800,11.3991748046875,0.5827730001926422,-8.372323299080133,1.190989069199562
1789752371534229000,11.40922900390625,0.2113689605295658,-9.713442139470576,0.04964388248249888
1789752371544283000,11.419282958984375,-0.485907274742797,-11.246586942017078,-1.5253516644522547
1789752371554337000,11.4293369140625,-1.3373241242825984,-12.237103707754612,-3.6047517543941736
1789752371564391200,11.43939111328125,-2.847569697278738,-12.72780749605894,-6.17723668255806
1789752371574445000,11.449445068359376,-4.657811193284392,-12.09148761459589,-8.206787868964671
1789752371584498000,11.459497802734376,-5.571245888385176,-9.880715937685967,-9.080794224518536
1789752371594552000,11.469552001953126,-5.326873068398237,-6.686119101631641,-8.429580725306272
1789752371604606000,11.47960595703125,-4.042785444262623,-3.4501147349119186,-7.263958152553439
1789752371614660000,11.48966015625,-3.478304472085833,-1.365598032608628,-7.2482894587785
1789752371624714200,11.49971435546875,-3.7355072552904485,0.4490490048795938,-7.226521863606572
1789752371634768100,11.50976806640625,-3.407668508848548,2.3026754691034554,-6.140464410477876
1789752371644822000,11.519822021484375,-2.9808564702183005,4.045793978428841,-4.941070501026511
1789752371654876000,11.5298759765625,-2.313431840917468,5.662722395077347,-3.1744650253906843
1789752371664930000,11.539929931640625,0.24816227539777755,6.564215307971835,-0.8858300643384456
1789752371674983000,11.54998291015625,2.4300737685263156,6.138675773495435,1.0364058257311581
1789752371685037000,11.560037109375,2.1936153749257326,4.489653013449907,1.1575187612742186
1789752371695091500,11.570091552734375,1.242071606183052,2.873202151185274,0.41007308527529235
1789752371705145300,11.580145263671875,-0.023377806847542523,1.9180682489961385,-0.6658157327994704
1789752371715199500,11.590199462890626,-1.1665646759085357,1.3863286859482526,-1.8544702215716242
1789752371725253400,11.60025341796875,-2.0868758326500654,1.5599568216264248,-2.4664400901541113
1789752371735307500,11.6103076171875,-3.2266403260469434,2.1743138776063917,-3.139909260316193
1789752371745361400,11.620361328125,-4.617897700569033,2.954257217106223,-4.102349978387355
1789752371755414500,11.63041455078125,-5.6825213205248115,3.7349440684497353,-4.947941555839777
1789752371765468400,11.640468505859374,-6.461521826216578,4.318372902202606,-5.855172135603428
1789752371775522600,11.6505224609375,-6.6741855027318,4.989847683677077,-6.623388212430477
1789752371785576400,11.660576416015624,-6.025670156562328,5.774257939457893,-7.258050389814376
1789752371795630300,11.67063037109375,-5.080147547805309,6.346333604547381,-7.98485601336658
1789752371805684200,11.680684326171875,-4.088362369567156,6.801740454021096,-8.671493292659521
1789752371815738400,11.69073828125,-3.0242981370598074,7.176462239930033,-9.085788379544018
1789752371825792300,11.700792236328125,-2.1239995485164225,7.137645894801616,-9.204134188461303
1789752371835846400,11.710846435546875,-1.5198726485192775,6.61452393797338,-8.887511540299654
1789752371845899300,11.720899169921875,-0.9973137324012815,5.6952223966658115,-8.320997600990534
1789752371855953400,11.730953369140625,-0.2761165963806212,4.005102487078309,-7.606442971724271
1789752371866007300,11.74100732421875,1.7641652428768575,0.9598521628826856,-6.346878963470458
1789752371876061400,11.7510615234375,9.488091999861597,-5.009691032788157,-4.5221483388632535
1789752371886115300,11.761115234375,31.53769618721008,-14.803608392465113,8.84991918400824
1789752371896169500,11.77116943359375,37.2055150286436,-15.138654001545905,38.85607625030279
1789752371906223400,11.781223388671876,-0.06664017159938812,-11.7363332834661,39.20912279549837
1789752371916277500,11.791277587890624,-3.3493612813085316,-13.105152616208791,24.352271473145482
1789752371926331400,11.801331298828124,-1.244753392612934,-7.708660652661323,9.055376874667406
1789752371936384500,11.811384521484374,-0.2725495515488088,-0.0920470000565052,2.1849264570355413
1789752371946438400,11.8214384765625,-1.9491629138313233,4.101199054786563,0.3659779229611158
1789752371956492500,11.831492431640624,-3.629083062574267,3.8658033219814296,-0.8472633100569248
1789752371966546200,11.841546142578125,-4.197676730766892,1.356211780104041,-2.6443910574674603
1789752371976600300,11.851600341796875,-5.075005508741736,-2.35296597892642,-5.15619969087243
1789752371986654200,11.861654296875,-5.873619646441936,-8.282671085205674,-7.639522234505415
1789752371996708400,11.871708251953125,-3.115581751528382,-15.025895052850245,-9.812824889242648
1789752372006762500,11.881762451171875,12.532086186516285,-20.274504147350786,-13.607324723988771
1789752372016816400,11.89181640625,15.357758524763582,-12.035707859706879,-9.473407056427002
1789752372026870500,11.90187060546875,1.898169370305538,-3.5854040798455475,-7.945574388813972
1789752372036923400,11.91192333984375,-1.8663930068165062,-0.7677186486989259,-9.423324636396766
1789752372046977300,11.921977294921875,-3.7531016564309594,1.7185738506555557,-8.61504250664115
1789752372057031400,11.932031494140626,-3.9989837119370697,3.645922553694248,-7.736853312444686
1789752372067085600,11.94208544921875,-3.3546523734539746,5.328483426204324,-6.642427259421348
1789752372077139500,11.952139404296876,-2.9551258166342973,6.233724877977371,-5.642775585591793
1789752372087193600,11.962193603515624,-2.698241890120506,6.25008213853836,-4.455327842260897
1789752372097247500,11.97224755859375,-2.9746786583662033,5.0959384066551925,-3.2024843744337557
1789752372107301400,11.98230126953125,-3.8890287147462366,2.8652877247989177,-2.424511750485003
1789752372117355300,11.992355224609375,-5.451380322554707,0.16556524073183534,-2.0193135777696964
1789752372127408400,12.002408447265625,-6.561219633287191,-2.5203023209840056,-1.787576659733057
1789752372137462300,12.012462158203125,-6.343155559033155,-4.560024188271164,-1.5428534188732503
1789752372147516400,12.022516357421875,-5.785343397095799,-5.05552690128982,-0.850849351850152
1789752372157570300,12.0325703125,-5.6484495395749805,-4.145803920188546,-0.11047536780312657
1789752372167624400,12.04262451171875,-4.767770282128453,-2.5782079819858073,0.4268094082817435
1789752372177678300,12.05267822265625,-4.108824727359414,-0.884509044867754,1.0671791496574878
1789752372187732500,12.062732421875,-4.062475648638606,0.3590074994266033,1.4795407842613755
1789752372197786400,12.072786376953125,-3.710997375673055,1.4093687852740286,1.4341121813863515
1789752372207840500,12.082840576171876,-1.8267606691300868,2.2611510340601204,1.7232764753885566
1789752372217894400,12.092894287109376,-1.3655997861742972,2.3014029649496077,1.6632400859683751
1789752372227947500,12.102947509765626,-1.2561924859941005,2.4040911860078573,1.7425279960863291
1789752372238001400,12.11300146484375,-1.2970347839921712,2.302297867962718,1.6663579257279633
1789752372248055600,12.1230556640625,-1.4682032515585421,2.127204920428991,1.4495178403109312
1789752372258109400,12.133109375,-1.1893810494810342,2.131125308743119,1.5900661286860704
1789752372268163300,12.143163330078124,-0.7499754867374897,2.1170757406026124,2.13448952447921
1789752372278217200,12.15321728515625,-0.3253536516278982,2.036808610188961,2.6957538726970554
1789752372288271400,12.163271240234375,-0.02584989604949951,1.9164304186612366,2.971562572172284
1789752372298325200,12.1733251953125,0.10536007974916137,1.8513707942515611,2.869093546822667
1789752372308379400,12.18337939453125,0.23474868533955887,1.89838973505795,2.5611484183743594
1789752372318432300,12.193432373046875,0.3403764487147331,2.0040315452247857,2.298594045008719
1789752372328486400,12.203486328125,0.2198819373309612,2.101310016193986,2.10726132581383
1789752372338540300,12.213540283203125,-0.04156056580264121,2.158889513981342,1.8907015186429024
1789752372348594400,12.223594482421875,-0.13094108659625053,1.937640379950404,1.6003323788955808
1789752372358648300,12.2336484375,0.40228440416045486,1.1976385902166367,1.3205769876211881
1789752372368702500,12.243702392578125,1.8313259312190113,0.055896659266948694,1.1480386199411003
1789752372378756400,12.25375634765625,3.353596142399311,-1.0980459970861673,1.1466482615612446
1789752372388810500,12.263810546875,4.2951042548179625,-1.779301583340764,1.4540703890487552
1789752372398864400,12.273864501953126,4.692438854551315,-1.8450339924454688,1.9879756056979296
1789752372408918300,12.283918212890624,4.610278165476024,-1.295256083881855,2.6332401333779094
1789752372418971400,12.293971435546876,4.1040918536186215,-0.5053250188529491,3.266106659516692
1789752372429025500,12.304025634765624,4.170963495886325,-0.011607435685396194,4.19928533500731
1789752372439079200,12.3140791015625,5.34969572558105,0.3076116587102413,5.090256853887438
1789752372449133300,12.32413330078125,6.2341550860881805,0.7997381732940674,5.603554751315713
1789752372459187500,12.3341875,5.973347264128923,1.263981824696064,6.213626677322387
1789752372469241300,12.344241455078125,4.826344636172056,1.0986673438549042,6.631596653327345
1789752372479295500,12.35429541015625,3.292634016436338,0.2970534398168325,7.053627887421846
1789752372489349400,12.364349365234375,2.1070000445291397,-0.553500143957138,7.296368137770891
1789752372499403500,12.374403564453125,1.9045321833357214,-1.033737483304739,7.203256138831376
1789752372509457400,12.38445751953125,2.2423640621341763,-1.3285329150617122,7.164858895897865
1789752372519510500,12.394510498046875,2.583074711239338,-1.474251884073019,7.415743874257802
1789752372529564400,12.404564453125,2.6595795665100215,-1.6525830828756094,7.723994415393471
1789752372539618600,12.41461865234375,2.66569951069504,-1.6820476622909306,7.975466253730654
1789752372549672400,12.42467236328125,3.1552772175788877,-1.437591255673766,8.047659967803954
1789752372559726600,12.4347265625,4.326743255662918,-1.116841882970929,8.07573396964371
1789752372569780200,12.4447802734375,6.519132888185977,-0.5984381868362426,8.075238879603146
1789752372579834400,12.45483447265625,8.457723116207122,-1.2772171538442372,7.881609573903679
1789752372589888300,12.46488818359375,8.121398573231696,-3.283925224801898,6.935792366114258
1789752372599942400,12.4749423828125,4.92199346011281,-5.417667438045144,5.5230351074457165
1789752372609996300,12.484996337890625,1.361851831817627,-7.088367192369699,4.059672573916614
1789752372620049400,12.49504931640625,0.46640287526249885,-8.0411226749897,2.294886422662437
1789752372630103300,12.505103271484375,0.13931727614230474,-8.829177424752713,0.54264206533432
1789752372640157400,12.515157470703125,-0.1170996447810903,-10.090772062051295,-0.8513853584229946
1789752372650211300,12.52521142578125,-0.6533044801421463,-11.425022770237922,-2.2477783422678708
1789752372660265500,12.535265380859375,-1.583951445198059,-12.278202610862254,-4.408848122897744
1789752372670319400,12.5453193359375,-3.3126918850809335,-12.638092738342284,-7.083736609959602
1789752372680373500,12.55537353515625,-4.905156891602277,-12.169341254127024,-9.122524411267042
1789752372690427000,12.565427001953125,-5.100054609802365,-9.886177710223198,-9.277717311066388
1789752372700481000,12.57548095703125,-4.2747307443529365,-6.328344943392277,-7.824732671427726
1789752372710535200,12.58553515625,-3.2767864589631555,-3.5241046847522255,-7.378254393818974
1789752372720588000,12.595588134765626,-3.1282524325311183,-1.1847229945421218,-7.029875255912542
1789752372730642000,12.605641845703126,-2.5805086601436136,0.7284381931900977,-6.435019019216298
1789752372740696000,12.615696044921876,-1.328093792992085,2.410242109853029,-5.3155660769641395
1789752372750750000,12.62575,0.607223550838232,4.000853012940287,-3.4813258657336235
1789752372760803800,12.635803955078124,2.1828835530310866,4.567252385959029,-2.364079493615031
1789752372770858000,12.64585791015625,1.6190077071405946,4.138530714315176,-1.9902207542762158
1789752372780911900,12.655911865234375,0.5740355669856071,3.6886172015607355,-1.30879565667361
1789752372790966000,12.665966064453125,-0.2615386204518378,3.3018390671551225,-0.6813619692385197
1789752372801020000,12.67602001953125,-0.9554565582722425,2.869790881437063,-0.7868494656264782
1789752372811074000,12.686073974609375,-1.3712201102741062,2.442947278624773,-1.5907430050343274
1789752372821128000,12.6961279296875,-1.7753706736326216,2.3605782074958084,-2.4780659382790327
1789752372831181000,12.70618115234375,-2.6621260361224413,2.61815128531754,-3.5395699649095533
1789752372841235000,12.71623486328125,-3.2988328710764643,3.1969325855255124,-4.30492743743509
1789752372851289000,12.7262890625,-3.6842923240989442,3.840935422706604,-4.8849458782225845
1789752372861343000,12.736343017578125,-4.112068239325285,4.389800308078527,-5.584879276940226
1789752372871397000,12.746397216796876,-4.501701178640127,4.894398766222596,-6.234180805051326
