time,seconds_elapsed,z,y,x
1789665868260782000,0.057781982421875,0.25948563344478603,-0.4709487019985914,0.7559101374834776
1789665868270734000,0.067734130859375,-0.07776070055067538,-0.571310818196833,0.6117423434369266
1789665868280687000,0.07768701171875,-0.44739363888800143,-0.6837818898618221,0.5195541448114439
1789665868290639000,0.08763916015625,-0.8488818511694669,-0.7337061967208981,0.4405279909022152
1789665868300592000,0.097592041015625,-1.1010445943802594,-0.7139443884134292,0.32823059530369936
1789665868310544100,0.107544189453125,-1.1639742210239172,-0.7138876897901296,0.4032595328029245
1789665868320496000,0.11749609375,-1.1681582287102936,-0.7791556962534785,0.5764123791195452
1789665868330449200,0.12744921875,-1.2105255443185567,-0.8656579216644167,0.6353688643485307
1789665868340401200,0.137401123046875,-1.3925538440734146,-0.9180854435160756,0.5555404906783252
1789665868350354200,0.147354248046875,-1.5389911904871463,-0.8553396490067243,0.6690040074467659
1789665868360306000,0.157305908203125,-1.6545926691323518,-0.8623109493240714,0.9741354667138308
1789665868370258200,0.167258056640625,-1.7699632616311312,-0.31879327019900083,0.9609441959030925
1789665868380211200,0.177211181640625,-2.120963395690918,-0.4889885088190436,0.7310510060369968
1789665868390163200,0.1871630859375,-2.3360656975299117,-0.5858958083882928,0.7988575910672545
1789665868400116200,0.1971162109375,-2.4395950455874202,-0.37134120355993505,0.5291890017822385
1789665868410068000,0.20706787109375,-2.376627425020933,-0.2224506187751889,0.23885949992556124
1789665868420021000,0.21702099609375,-2.0614333483576774,-0.22599223690479991,0.06090056850146502
1789665868429973200,0.22697314453125,-1.7769640803039073,-0.23388415919840336,0.28367009876640514
1789665868439925200,0.23692529296875,-1.7539403475910424,-0.3219268920496106,0.591126000659354
1789665868449878300,0.246878173828125,-1.8644161537855863,-0.2446615738004446,0.4163028099777177
1789665868459830000,0.256830078125,-2.0867694496661424,-0.058469432364404196,0.02884378063585609
1789665868469783000,0.266782958984375,-2.179102865448594,0.12346505162715911,-0.09747910810783506
1789665868479735000,0.276735107421875,-2.0213000754117965,0.26374679802060125,-0.03511851352378726
1789665868489687300,0.286687255859375,-1.8012468731671571,0.38422669635713097,0.1275081895381212
1789665868499640300,0.296640380859375,-1.6808306877166033,0.5761518284872174,0.28669114535432305
1789665868509592000,0.306592041015625,-1.6013205131500958,0.7470213131070137,0.4244136357190087
1789665868519545000,0.316545166015625,-1.53057290623188,0.9698349199756979,0.4305485217448324
1789665868529497000,0.3264970703125,-1.340150287619233,0.8997241496562958,0.3996364469349384
1789665868539449000,0.336448974609375,-1.0912029993236065,0.34721067864894867,0.6962319869164377
1789665868549402000,0.346402099609375,-0.5349339751750231,0.14838205074071883,0.8723404681682586
1789665868559354000,0.35635400390625,0.10902385382056236,0.653951399743557,0.8009946761611849
1789665868569307100,0.36630712890625,0.4663309790700674,1.2676397626817226,0.48829694635830817
1789665868579259100,0.376259033203125,0.263348154091835,1.6651029572308063,0.16087927487269044
1789665868589212200,0.386212158203125,-0.11427812108695506,1.4793182275518775,-0.19625161702707408
1789665868599164000,0.396163818359375,-0.4389379452317953,0.4041775974959135,-0.9888005364041775
1789665868609116200,0.4061162109375,-0.5033908359199762,-0.02946633298099041,-1.3029131745062768
1789665868619069200,0.416069091796875,0.23424656277000902,0.5404661825999617,-1.4130521499618887
1789665868629021200,0.426021240234375,0.7898761199712753,1.1122592313557862,-1.64243636739254
1789665868638974200,0.43597412109375,1.1785223863363266,1.6639838900730013,-1.9370444598838685
1789665868648926000,0.445926025390625,1.3912363317340612,2.3618261617302894,-1.8072616034120321
1789665868658878200,0.455878173828125,1.297880002644658,2.4866616249278186,-1.2749082923799753
1789665868668831200,0.465831298828125,1.0095464603781699,1.9832775110095737,-0.4240029725588858
1789665868678783200,0.475783203125,0.5258370610058307,1.3417249895900487,0.2755012409612536
1789665868688736300,0.485736328125,0.13117547987401484,1.1376496931999922,0.5227752622824162
1789665868698688000,0.49568798828125,-0.06189443837702274,1.2827946617156267,0.4000943467702716
1789665868708640000,0.505639892578125,-0.1318482645690441,1.4687325361296533,0.05907426638975739
1789665868718593000,0.515593017578125,-0.049185178929567336,1.7609736072286963,-0.20109847253635524
1789665868728545300,0.525545166015625,0.9107587538897991,1.660565898323059,-0.17872670092619955
1789665868738498300,0.535498291015625,2.7917741602987047,0.5689674699410796,-0.05830832351855934
1789665868748450000,0.545449951171875,5.047074130243063,-0.8313166761234402,0.05145421984009444
1789665868758403000,0.555403076171875,6.8888891606420275,-1.7676672596484422,0.24878891939613967
1789665868768355000,0.56535498046875,7.212765140932798,-2.154626595839858,0.2864597477512434
1789665868778307000,0.57530712890625,5.699065043568611,-1.9744354483842848,0.3206703161172569
1789665868788260000,0.585260009765625,3.2891011661350724,-1.6045669477254152,0.5494745051702484
1789665868798212000,0.595212158203125,1.4573381586730478,-1.2697644997507334,0.8283474510543047
1789665868808165000,0.6051650390625,0.13958148916959762,-1.037167165492475,0.952039881696552
1789665868818117000,0.6151171875,-0.7206359950065613,-0.8528326346218585,0.6578478226602077
1789665868828069000,0.625069091796875,-1.026340943312645,-0.7269742581173777,0.12791998520940542
1789665868838022100,0.635022216796875,-1.0048504115164278,-0.7336696641027927,-0.35733215009290725
1789665868847974100,0.64497412109375,-0.9059487232595682,-0.8555474465385079,-0.7514497240085154
1789665868857927200,0.65492724609375,-0.6812713683456182,-1.3106146887943149,-0.7882865126922726
1789665868867879200,0.664879150390625,-0.41132571568489074,-1.8844345672026275,-0.5488166623160242
1789665868877832200,0.674832275390625,-0.2451397127062082,-2.1403177922412753,-0.2501469646752812
1789665868887784000,0.684783935546875,-0.21331074224710464,-2.0202122801750897,-0.06366511957766488
1789665868897736200,0.694736083984375,-0.3011538608729839,-2.0041127937674523,-0.14194025419019163
1789665868907689200,0.704689208984375,-1.6926111418813465,-1.6500544411808251,-0.044886577553348614
1789665868917641200,0.71464111328125,-2.795354941394925,-1.5613208034560084,0.009913710444793104
1789665868927594200,0.72459423828125,-2.6665245633423327,-1.5543094633892178,0.10346964462636969
1789665868937546000,0.7345458984375,-2.0881454141944644,-1.2693208476364612,0.4235317383179441
1789665868947498000,0.744498046875,-1.7257698996394872,-0.9841454771399497,0.8014028185706585
1789665868957451000,0.754450927734375,-1.7894272560358047,-0.750700293880701,0.8110637963633984
1789665868967403300,0.7644033203125,-1.8745646228343247,-0.6436977167546749,0.5241510441476479
1789665868977356300,0.774356201171875,-1.6739368365496397,-0.5895835569903254,0.24579733636472373
1789665868987308000,0.78430810546875,-1.4264935230761766,-0.7022554119244218,0.07516971594309434
1789665868997261000,0.794260986328125,-1.5992261712193487,-0.910216025315225,-0.03525288049317896
1789665869007213000,0.804213134765625,-1.962669022744894,-0.9447422720342874,-0.2792509488835931
1789665869017165300,0.814165283203125,-1.963138978344202,-0.712005237044394,-0.5974416866121813
1789665869027118300,0.824118408203125,-1.9011884258657692,-0.5153863941401243,-0.6971991514481604
1789665869037070600,0.834070556640625,-2.506554366138577,-0.3697185707941651,-0.831445855461061
1789665869047023600,0.844023681640625,-3.1469507032603024,-0.3197267516568303,-0.58993865403831
1789665869056975600,0.8539755859375,-2.9423125122904774,-0.43659722732454537,-0.3723479329170659
1789665869066927400,0.86392724609375,-1.9656430701196193,-0.30642127988189455,-3.0158257845297456
1789665869076880400,0.87388037109375,-1.0570435400903224,0.18628040424138306,-3.876304549990594
1789665869086832600,0.88383251953125,-1.3607272117018698,0.6413499845847487,-1.9803661536075174
1789665869096785700,0.89378564453125,-1.7959312311023472,1.0667875199913979,-1.1272409657798708
1789665869106737700,0.903737548828125,-1.6098288137763739,1.3953168790459631,-1.7897464049875735
1789665869116690700,0.913690673828125,-1.2426841851234436,1.4416151043623684,-3.1365424142315983
1789665869126642400,0.923642333984375,-1.1219219627141952,0.777879100446403,-2.293616256596148
1789665869136594400,0.933594482421875,-0.93791154923141,0.07640899368077517,-0.46224224845170975
1789665869146547500,0.94354736328125,-0.5000684134989977,0.1239995968952775,-0.44369624567478894
1789665869156499700,0.953499755859375,-0.037844285225868225,0.2677577872276306,-0.35204781648181377
1789665869166452700,0.96345263671875,0.6799152775615454,-0.022569266943633554,-0.6334666839890182
1789665869176404500,0.973404541015625,1.494599091053009,-1.030559437790513,-0.7758095276307314
1789665869186357500,0.983357421875,2.0513117673158643,-2.191203053086996,-0.15436083288937807
1789665869196309500,0.9933095703125,1.8887404477030039,-1.7102318465068935,0.002958557544648647
1789665869206261800,1.00326171875,0.9612596915930509,-0.3625064474582672,-0.48517508801072834
1789665869216214500,1.013214599609375,1.0809674365133046,0.10447831934541463,0.7620107924461365
1789665869226166500,1.02316650390625,0.434430696940422,-0.3984557127177715,1.9344462600842116
1789665869236119600,1.03311962890625,-0.40475276703536506,-0.5030716869682074,1.7142422511920332
1789665869246071600,1.043071533203125,-1.0299036042302847,-0.42212884925007815,1.6424157629959284
1789665869256023600,1.0530234375,-1.1905085922062397,0.5559156806662678,2.280501046696305
1789665869265976300,1.062976318359375,-0.3845452607870102,1.8620362729117272,3.2223166176289317
1789665869275928600,1.072928466796875,1.770456013584137,2.109103446549177,4.0385067440301174
1789665869285881600,1.082881591796875,4.735801610937714,1.3188000410765408,3.764973880532384
1789665869295833600,1.09283349609375,6.672239044839143,-0.08184826212525367,2.852438472358882
1789665869305785300,1.102785400390625,9.769557994446158,-3.2515479728102683,3.6437118919074534
1789665869315738400,1.11273828125,5.853804354381561,-5.5997933529555795,3.611938743288815
1789665869325690600,1.122690673828125,3.3360417810082432,-3.2271570433974266,1.3192635669350623
1789665869335643600,1.1326435546875,0.7695113773345946,-1.1861527350842953,-1.1097913799375294
1789665869345595600,1.142595703125,-2.2723113104999064,-2.5619185259640216,-0.05025485398769378
1789665869355548700,1.152548583984375,-3.803103412440419,-2.7722628196209667,-0.04606412429958582
1789665869365500400,1.16250048828125,-3.752113814437389,-2.3239158255308867,1.09092564368695
1789665869375452400,1.172452392578125,-2.7750270236372945,-1.8366235992357134,2.214717491926253
1789665869385405400,1.182405517578125,-0.9425766184329986,-0.6131542560614646,2.5439827640399337
1789665869395357700,1.192357666015625,0.34043490090370176,-0.27323709542155267,2.6791701099038123
1789665869405310700,1.202310791015625,1.2220669290304182,-0.31041897121593354,2.6134172425329685
1789665869415262500,1.212262451171875,1.4936971737772224,-0.44631592665389175,2.6199577502176163
1789665869425214500,1.22221435546875,-0.44532793852984903,-0.874658828113228,2.9180475473448633
1789665869435167500,1.23216748046875,-1.5272013839721679,-0.7085891449905931,2.298577093873918
1789665869445119700,1.24211962890625,-3.083569825717807,0.3535999412946403,-0.6807566968217492
1789665869455072800,1.25207275390625,-3.5550527807235714,2.126337636075169,-5.155397142317891
1789665869465024500,1.2620244140625,-1.9410785377055406,2.591489488363266,-4.9927808145195245
1789665869474977500,1.2719775390625,-2.3696458955705166,0.3866970319934189,-2.3443264531359076
1789665869484929500,1.281929443359375,-3.273697260776162,-2.0223887474313376,-0.8240764957368374
1789665869494881500,1.291881591796875,-3.1198107674002644,-1.5302444049298762,-2.008359345296025
1789665869504834300,1.301834228515625,-3.9031028328061104,-1.1050108676627277,-2.3786966325104237
1789665869514786600,1.31178662109375,-4.150313506567478,-1.0478257760204375,-2.7083032654076815
1789665869524739600,1.321739501953125,-3.7815024060070512,-0.7613568585820496,-2.340790972486138
1789665869534691600,1.331691650390625,-3.677435882332921,-0.42810806979015464,-1.472047652027011
1789665869544643600,1.3416435546875,-3.4467759458780285,-0.06723579940497874,-1.1822615728646515
1789665869554596400,1.351596435546875,-2.8075848928928373,0.1990384712666273,-1.7625374955445527
1789665869564548600,1.361548583984375,-1.945373020029068,-0.17125746102407574,-2.802682507804036
1789665869574501600,1.371501708984375,-2.0749206064403056,-1.339683400759846,-3.2075872505307195
1789665869584453600,1.38145361328125,-2.419886136510968,-2.077941561696678,-3.39943960968554
1789665869594406700,1.39140673828125,-3.095050420153141,-2.116748408344388,-3.4397914938181637
1789665869604358400,1.4013583984375,-3.7594413808465004,-2.4628064098268747,-3.7059780862063167
1789665869614310400,1.411310302734375,-3.8481829096168276,-2.9332895401403305,-3.9394530800819396
1789665869624263400,1.421263427734375,-3.781633338910341,-3.1013597494304177,-3.4518156936109063
1789665869634215700,1.431215576171875,-2.7697049518316983,-3.827620598581433,-2.649339619785547
1789665869644168700,1.441168701171875,-1.5421791728734968,-3.15801453358829,-1.3984469937652348
1789665869654120400,1.451120361328125,-1.862172758772969,-1.3471709800362586,0.5541957250058651
1789665869664072400,1.461072509765625,-3.1687171293884515,-1.3627347521319984,1.4055197086304425
1789665869674025500,1.471025390625,-3.9550355568781494,-2.45504717400223,0.16251111385822295
1789665869683977700,1.480977783203125,-4.527314343324304,-3.230961111855507,-2.0762077236413954
1789665869693930800,1.4909306640625,-5.076039527964592,-3.577291792799532,-2.4477783520430325
1789665869703882500,1.500882568359375,-4.663794943869114,-3.3560648706004024,-0.8475193306446075
1789665869713835500,1.51083544921875,-3.354196446380019,-3.038767684178054,0.7846388038396835
1789665869723787500,1.52078759765625,0.527623359900713,-3.1304779996261,1.559682096338272
1789665869733739500,1.530739501953125,6.345102016925812,-4.848626318345963,2.8921108497947454
1789665869743692500,1.540692626953125,1.7416361618131397,-4.792891571642458,4.278225016209483
1789665869753644500,1.55064453125,1.799116875401139,-3.4483833810746667,5.001805832496285
1789665869763597600,1.56059765625,1.1205600267112255,-2.486662501710653,4.473530730688572
1789665869773549600,1.570549560546875,-0.8046667888026684,-2.5967192057102917,4.813565818619728
1789665869783501600,1.58050146484375,-0.9941430664759129,-3.2513457282364366,5.891200895839929
1789665869793454600,1.59045458984375,0.682446841865778,-4.403514068393409,6.660526979735494
1789665869803406600,1.600406494140625,0.5628643307603896,-3.169467655494809,8.589180335631966
1789665869813359600,1.610359619140625,0.5082885448336601,-0.353702086494863,8.286689088675379
1789665869823311600,1.6203115234375,1.4685095410287379,1.7583359522014856,8.465774905237556
1789665869833263600,1.630263671875,2.5427836173832414,1.7508458887070417,9.423804528868198
1789665869843216400,1.64021630859375,3.5256922462046143,1.1186164914280174,10.342205321943759
1789665869853168400,1.65016845703125,2.57059399985075,1.0705421963497996,11.502813281404972
1789665869863121400,1.660121337890625,1.637664476815611,1.410511525568366,11.440129153954983
1789665869873073700,1.67007373046875,1.2983074342764913,2.359074232673645,10.062141010850667
1789665869883026700,1.680026611328125,1.3588812915742396,3.226736479897797,9.425445281812548
1789665869892978400,1.689978515625,1.7725673066496848,3.764380006292462,9.523881690645217
1789665869902930400,1.699930419921875,1.9869675976991652,3.7970804988890885,8.85105724812746
1789665869912883500,1.709883544921875,1.464781460416317,3.7665868686869737,7.305132458984851
1789665869922835700,1.719835693359375,0.32810959927253425,3.7150294076681134,5.152793681821227
1789665869932788700,1.729788818359375,-0.5762239438753575,3.437795936086774,2.9669454337656496
1789665869942740500,1.739740478515625,-1.0814296471975744,3.863082372584939,2.7833845176160334
1789665869952692500,1.7496923828125,-1.451351485478878,4.9657244652897115,3.368889573121071
1789665869962645500,1.7596455078125,-2.7719477623224256,5.516223673865198,3.4000276387065647
1789665869972597500,1.769597412109375,-3.9315865844905376,5.13042753623426,2.6645126389980316
1789665869982550500,1.779550537109375,-5.192518373966217,4.357659787452221,1.1277946541398762
1789665869992502500,1.78950244140625,-6.377906554418802,3.8317633974745866,0.42657764535248277
1789665870002454500,1.79945458984375,-3.84782459769845,4.1772801316872235,2.566988084313273
1789665870012407300,1.8094072265625,-1.252832654172182,3.7571596996501087,0.47308980568051334
1789665870022359300,1.819359375,-1.258405485868454,3.2184581886351107,-2.2776930035382508
1789665870032312300,1.829312255859375,1.0291016401976347,2.9073846990332006,-2.5970354320526123
1789665870042264600,1.8392646484375,4.191859568920731,0.589707475630939,-3.747386201393604
1789665870052217300,1.84921728515625,2.476459087604284,-3.5084149481892584,-6.011500761434435
1789665870062169300,1.85916943359375,0.9339601812571287,-5.15926024748683,-9.755200383269786
1789665870072121300,1.869121337890625,-0.7412462368369102,-3.910465470528602,-12.18592998535633
1789665870082074400,1.879074462890625,-1.5758043790996075,-2.5548592551022766,-11.515696143853663
1789665870092026400,1.8890263671875,-1.7057057473845778,-1.070306049506366,-8.240982984033227
1789665870101979100,1.898979248046875,-2.463531216970086,0.4996250536456704,-4.9136973409324884
1789665870111931400,1.908931396484375,-2.704245514449477,0.8737737158417701,-3.07569339325428
1789665870121883400,1.91888330078125,-2.306869559792429,-0.2513201549068093,-2.3094272814512253
1789665870131836400,1.92883642578125,-0.07447400703020393,-2.1049530488714576,-2.920519198155403
1789665870141788200,1.9387880859375,1.3164523089066147,-3.225328658926487,-3.565801553753018
1789665870151741200,1.9487412109375,1.2216969266742468,-3.7059897766441106,-3.526058741429448
1789665870161693400,1.958693359375,0.6323030470371246,-4.1229990909233685,-2.488424835208058
1789665870171645400,1.9686455078125,0.8570312553554773,-4.542084042432904,-2.001186092665791
1789665870181598500,1.978598388671875,1.03138595174253,-4.772791325160861,-1.6123989565253256
1789665870191550200,1.98855029296875,0.5840722462229431,-3.8033161784082647,-0.7084270862966775
1789665870201503200,1.998503173828125,0.38966201927885413,-2.560608027887344,1.2444815899342299
1789665870211455200,2.008455322265625,1.9830203213781117,-1.8835294350564478,3.273669203725457
1789665870221407500,2.018407470703125,1.365691848371923,0.7110083349615335,5.4686190421253436
1789665870231360500,2.028360595703125,-0.5997571604803205,2.6668922276109455,8.732505687505006
1789665870241312300,2.038312255859375,2.795926896063983,3.337376244482398,8.372823649817704
1789665870251265300,2.048265380859375,-6.193399881851673,6.493338521715998,12.979523664546011
1789665870261217300,2.05821728515625,-6.271950855997204,8.911697887051105,11.600030962097645
1789665870271170300,2.06817041015625,-3.1105420037955045,8.85644712447226,12.31258185032606
1789665870281122600,2.07812255859375,-7.074056927466392,9.55254138341844,13.248160572695731
1789665870291074300,2.08807421875,-6.776513658306002,8.813134636968373,11.958225976097584
1789665870301027300,2.09802734375,-6.514518672388792,7.0969988271147,10.371885005414486
1789665870310979300,2.107979248046875,-6.3033186386853455,5.963187104642391,9.5753500120759
1789665870320932400,2.117932373046875,-4.439832459226251,5.28382244670093,9.453683534303307
1789665870330884400,2.12788427734375,-2.741228214409947,5.3867047290265555,8.823506393378972
1789665870340836400,2.13783642578125,-1.5832348213613032,5.163784446913003,8.10535520092547
1789665870350789400,2.147789306640625,-1.8834990399181841,4.550249813231826,7.761485649397969
1789665870360741400,2.157741455078125,-1.47962130215168,4.612806514909863,7.2402908612400285
1789665870370694400,2.1676943359375,-1.4386276129841804,4.59341675478518,6.7794993961185215
1789665870380646400,2.177646484375,-0.21787176655232904,5.62987518748641,6.833630799278617
1789665870390598400,2.187598388671875,2.680184839904308,2.758281932802498,4.2525668433398005
1789665870400551400,2.197551513671875,5.026152922767401,-1.8820850814670322,0.3989361897110939
1789665870410503400,2.20750341796875,6.624400604343414,-6.545180937156081,-4.325305916336179
1789665870420456400,2.21745654296875,6.596802987843751,-9.16019860062301,-5.126557416802644
1789665870430408400,2.227408447265625,6.004187808072567,-9.651113401329518,-5.86837239343822
1789665870440360200,2.237360107421875,3.4773359193146227,-9.029304860299826,-4.724382391300797
1789665870450313200,2.247313232421875,-0.009058847181126475,-8.940545211350917,-3.9462867254942653
1789665870460265500,2.257265380859375,-3.6777252206683158,-9.900013343352079,-4.563440134194493
1789665870470218500,2.267218505859375,-5.638191764932871,-10.875144323909282,-6.091697749221325
1789665870480170200,2.277170166015625,-5.0251767712116235,-8.842540179672836,-4.961667883375287
1789665870490122200,2.287122314453125,-4.072639899778366,-8.161890742617844,-2.9715713400006294
1789665870500075300,2.2970751953125,-2.0562354874536393,-8.082343743172288,-2.560211137524247
1789665870510027500,2.307027587890625,1.0452689311444758,-8.002148508951068,-0.9060627050280571
1789665870519980500,2.31698046875,2.1298563117206095,-8.007035696470737,-1.4019956261575222
1789665870529932300,2.326932373046875,4.113128562033176,-6.191138951182365,-2.5447306597977875
1789665870539885300,2.33688525390625,4.848792614823579,-4.991548642376065,-2.061902134913206
1789665870549837300,2.34683740234375,4.648270042479038,-3.920451442492008,-0.6835621096312999
1789665870559789300,2.356789306640625,4.684725503695011,-2.4359599039554594,-0.7649328173726797
1789665870569742300,2.366742431640625,4.095778783303499,-0.7920246763072908,-0.9393553182989358
1789665870579694300,2.3766943359375,3.9499814883589743,0.9718803081981837,-0.3259685686558485
1789665870589646300,2.386646240234375,4.177810585302114,2.380295446009189,0.6460755518019199
1789665870599599400,2.396599365234375,4.435257406395674,3.4292589938879012,1.612924441704154
1789665870609551400,2.40655126953125,4.264885642164946,3.8939801996737717,0.8270768465965985
1789665870619504400,2.41650439453125,3.4595629467368125,4.517580884817242,0.43316345348358154
1789665870629456400,2.426456298828125,2.769858681088686,4.720449143505096,-0.14330489360690116
1789665870639409400,2.436409423828125,2.3578595961868762,4.197157967589796,-1.1956079611718653
1789665870649361400,2.446361328125,2.0094377881824967,3.1709660773590205,-2.8894349085837603
1789665870659313400,2.4563134765625,1.3755062631607056,2.338820987587422,-4.265871730592846
1789665870669266400,2.466266357421875,1.1644319016635418,2.0213862923905253,-5.376300239390135
1789665870679218200,2.47621826171875,1.281449676847458,1.782665799076855,-6.350371481761336
1789665870689171200,2.486171142578125,0.627165245757252,1.207664017407596,-7.1879352355808015
1789665870699123500,2.49612353515625,-0.49110462419018147,0.819336315472424,-7.738722613447904
1789665870709075500,2.506075439453125,-1.2007292497083544,0.5703928265690803,-7.802507980138063
1789665870719028500,2.516028564453125,-1.6097694848045705,-0.0884042596399784,-6.456598982861638
1789665870728980200,2.525980224609375,-2.361969661854207,-1.0953706403970718,-3.3447458964675665
1789665870738933200,2.535933349609375,-4.349029906272888,-1.6502125543519854,-2.176170903649926
1789665870748885500,2.545885498046875,-4.5580265847131605,-1.821502894732356,-2.1071458827406166
1789665870758837500,2.55583740234375,-3.489883266198635,-1.8396192739203572,-3.2151772672682997
1789665870768790300,2.565790283203125,-5.157177011471987,-2.812141825544834,-5.1929479975551365
1789665870778742300,2.5757421875,-10.073788194024562,-0.4143748741224408,3.347612976336479
1789665870788695300,2.5856953125,-6.299538535624742,3.58138958350718,12.10840367808342
1789665870798647300,2.595647216796875,0.623399755743891,3.2762808475285765,11.764247710829972
1789665870808600300,2.605600341796875,0.9879368322469293,1.353593706560135,11.844473340189456
1789665870818552300,2.61555224609375,-0.3358604325950146,-0.6244362591847777,10.812111821413039
1789665870828504300,2.62550439453125,-2.500643388529122,-1.0502169089406728,8.572124571412802
1789665870838457300,2.635457275390625,-3.648392450939119,0.5831430025488138,4.933717800176144
1789665870848409300,2.645409423828125,-1.463140122950077,1.4434516721397637,0.8950736935019492
1789665870858362400,2.6553623046875,0.1973277218259871,0.6127911218374967,-1.2370558238476514
1789665870868314400,2.665314453125,1.719073032349348,-0.35397593500018115,-2.4977286701261994
1789665870878266400,2.675266357421875,1.2043830960407853,-1.6150135229378937,-2.7691286132484674
1789665870888219400,2.685219482421875,0.019314941322803498,-2.3509672063246367,-2.289944582346082
1789665870898171400,2.69517138671875,-1.6722820550799369,-3.003834902484715,-1.857628101080656
1789665870908124400,2.70512451171875,-1.8303677537113427,-4.244803808122873,-1.5683049632549284
1789665870918076200,2.715076171875,1.4987968350037932,-4.166144989688695,-1.8993319843441248
1789665870928028400,2.7250283203125,3.158936032347381,-4.004506859272718,-2.0309166295409202
1789665870937981400,2.7349814453125,3.274735956174135,-3.5686434991806744,-1.9192448915600775
1789665870947933400,2.744933349609375,2.755736632233858,-2.3651731340706346,-1.3503180458903312
1789665870957886500,2.754886474609375,1.4409747606322167,-1.0031611432552336,-1.0991221018850803
1789665870967838200,2.764838134765625,-0.5179774335466325,0.3722445821404457,-1.2078607090234756
1789665870977791200,2.774791259765625,0.5863175409317016,1.3317489544987677,-2.1484037758022545
1789665870987743500,2.784743408203125,2.2910730018541217,1.9026532377213239,-3.2960148910462856
1789665870997695500,2.794695556640625,4.288773005969822,1.9421020355343817,-4.327594904056191
1789665871007648500,2.8046484375,7.061784305870533,1.256739598482847,-4.815817396938801
1789665871017600000,2.81460009765625,8.286991286492347,0.8818553154885769,-5.0082846731215716
1789665871027553000,2.824552978515625,8.78812995957136,0.8767559465229511,-4.91966121777296
1789665871037505000,2.834505126953125,8.963532119184732,1.0305641139656305,-4.372644006094336
1789665871047457000,2.84445703125,8.730962549716233,1.1624328368008137,-3.714851713013649
1789665871057410000,2.85441015625,7.9840897051692,1.433749193292856,-3.410228714725375
1789665871067362000,2.864362060546875,7.943237470299005,1.5011147565573453,-3.4801164899438617
1789665871077315000,2.874315185546875,5.053106396144628,-7.976699010396003,-5.0827165215104815
1789665871087266800,2.884266845703125,8.537917181384563,-4.167715307745337,-3.4351708482801913
1789665871097219800,2.8942197265625,2.4736960526317358,-7.017312126937508,1.457683026587963
1789665871107172000,2.904172119140625,1.2369507560379802,-9.470824638718366,2.5354525438427924
1789665871117124000,2.9141240234375,-0.19576529481485486,-9.871654679352044,1.538665319533646
1789665871127077000,2.9240771484375,-0.513997570130229,-6.757283472657203,1.6800655485630034
1789665871137028900,2.93402880859375,0.012968787166476248,-1.5350965211361647,0.9807948515377938
1789665871146982000,2.94398193359375,0.10487243322953581,1.2149772630304096,-0.5288181226432324
1789665871156934100,2.95393408203125,0.3865985400550067,2.6215391741901635,-0.8382076046809553
1789665871166886100,2.96388623046875,1.1614321353256702,3.845723826026916,-0.07842544806972146
1789665871176839000,2.9738388671875,1.661399426537752,3.806262753254175,1.2581370441906155
1789665871186791000,2.983791015625,1.0309173113174737,1.528569749715924,2.3049064430259167
1789665871196744000,2.993743896484375,-0.2309714866220951,0.1549140828579664,3.307150033044815
1789665871206696000,3.003696044921875,-0.9531418515890836,1.7226456301391124,5.106365692645311
1789665871216648200,3.013648193359375,-3.2398084351778027,0.7109393613785505,5.693804346561431
1789665871226601000,3.02360107421875,-1.3780546324692666,-0.4306844961494207,4.87508850107491
1789665871236553000,3.033552978515625,0.7943142485491931,0.3087929774492979,4.9799371150374405
1789665871246506000,3.043506103515625,0.7320160516768693,-0.4298094668805599,6.0656923703491685
1789665871256458000,3.0534580078125,1.3269142278186976,-1.616187827414274,6.873702112904191
1789665871266411000,3.063410888671875,-2.394020458370447,-4.306081575906276,12.156007140779495
1789665871276363000,3.073363037109375,-3.5391944095954297,-1.686331038698554,12.765820123589037
1789665871286315000,3.08331494140625,-10.13341877912283,0.3761164551377296,7.902416215088963
1789665871296268000,3.09326806640625,-24.81381229532957,0.9634142392784356,4.645996836850047
1789665871306220000,3.103219970703125,-7.567538363790511,-0.08677110548019408,7.82737471036911
1789665871316173000,3.113173095703125,3.7644092323869462,-3.299523191428184,8.131195744624733
1789665871326124800,3.123124755859375,6.153356625276803,-4.814346739864349,7.799532179197668
1789665871336077800,3.133077880859375,1.2732486886046825,-3.2164871808230875,8.043909090837836
1789665871346030000,3.143030029296875,-4.790761866137385,-2.7564889119058846,6.339041109451651
1789665871355982000,3.152982177734375,-3.6773698313593863,-1.9905062932193278,3.725686995282769
1789665871365935000,3.16293505859375,-0.6582908902525901,-1.5616075114428996,2.4437073032118377
1789665871375886800,3.172886962890625,0.04708791438937187,-1.5254805515289305,0.7070166349768638
1789665871385839900,3.18283984375,-0.5788626948811113,-1.0025520714461802,1.188711041264981
1789665871395792100,3.192792236328125,0.7458053614459932,-0.7047352460414171,3.125585551409423
1789665871405744000,3.202744140625,1.5097785400062798,-1.4794564669787882,2.3633602394297717
1789665871415697200,3.212697265625,0.2709101137787103,-3.302914587432146,0.26054683293551206
1789665871425649000,3.22264892578125,-2.366895720079541,-4.505017755842209,-1.4213354096606372
1789665871435602000,3.232601806640625,-3.539954288052022,-4.716508881446719,-1.5117830116964877
1789665871445554000,3.242553955078125,-4.43248501907289,-4.6629356966912745,1.9622699404247104
1789665871455507000,3.2525068359375,-7.179685293629765,-4.087866110482811,4.089462439763546
1789665871465459000,3.262458984375,-5.543125709316134,-2.633696644973755,4.081827414840459
1789665871475411000,3.272410888671875,-2.8050182572752234,-1.7289409308910368,4.568702584767341
1789665871485364000,3.282364013671875,-1.3440584009736776,-1.1282657787829637,4.186428776043654
1789665871495316000,3.29231591796875,-0.27620412853360177,-0.9360095150023698,2.279287725383788
1789665871505269000,3.30226904296875,0.6063174688439816,-1.0221902533739804,0.16332783706858753
1789665871515221000,3.312220947265625,1.4589458861306308,-1.9393658885687588,-0.9821106103114783
1789665871525173000,3.322173095703125,2.0360792730011044,-3.349280032765865,-1.5150211168348788
1789665871535126000,3.3321259765625,2.7899381770431995,-4.941133629390597,-1.391462249444425
1789665871545078000,3.342078125,4.123981087698042,-7.033546053379774,-1.754353312306106
1789665871555031000,3.352031005859375,5.862255371862649,-9.127629625451565,-2.1280263198144733
1789665871564982800,3.361982666015625,6.043560033518076,-11.557281369173525,-6.882608472937345
1789665871574935800,3.371935791015625,6.357355933821201,-12.017489481449127,-9.604059389209747
1789665871584888000,3.38188818359375,6.830414175319671,-10.41372625132203,-4.417307615946233
1789665871594840000,3.391840087890625,0.7026251220196486,-8.288713872501253,-0.8671846197750419
1789665871604793000,3.40179296875,-5.6961623078644275,-4.557220236766338,1.532641236938536
1789665871614744800,3.411744873046875,-3.17387641184777,-1.5628718322902917,1.0609368942670523
1789665871624697900,3.42169775390625,1.4996727410554884,0.5427496173620223,0.9468421669229865
1789665871634650000,3.431650146484375,3.9575007779479026,1.9296300919741391,0.5407878157697618
1789665871644602000,3.44160205078125,5.145837871333956,2.3280483952909705,-0.2685724646113813
1789665871654555100,3.45155517578125,5.965237607431411,2.4792764831125735,-0.34885990716069937
1789665871664507000,3.4615068359375,6.415968281787634,2.7072680771410464,-0.39493192250579595
1789665871674460000,3.4714599609375,5.954025893065333,2.936944263255596,-0.7274364688016474
1789665871684412000,3.481411865234375,5.3279743076384065,3.275972804492712,-1.554440834683925
1789665871694365000,3.491364990234375,5.5119537414610384,3.5767391273528335,-2.106759513771534
1789665871704317200,3.501317138671875,6.0096565948724745,3.782240072631836,-2.4908637527927753
1789665871714269000,3.51126904296875,6.245189105799794,4.271644468775391,-3.010305559803545
1789665871724222000,3.521221923828125,6.106755033099651,4.967235454374552,-3.6694413764476774
1789665871734174000,3.531174072265625,5.758791490256786,5.640276169991493,-4.335085844333469
1789665871744127000,3.541126953125,5.650151082795858,6.246821675437689,-4.637240114420652
1789665871754079000,3.551078857421875,5.985012567481398,6.579557254010439,-4.950402977517247
1789665871764032000,3.561031982421875,6.310010245278478,6.714028852820396,-5.31058595046401
1789665871773984000,3.57098388671875,6.469326362487673,6.852077141073345,-5.544468940618634
1789665871783936000,3.58093603515625,6.135597681224346,7.176596679964661,-5.532329590013623
1789665871793889000,3.590888916015625,5.3736991169810295,7.52692110671997,-5.569657157889008
1789665871803840800,3.6008408203125,4.529093920217454,8.02472858954966,-5.540214205783605
1789665871813793800,3.610793701171875,4.167247105711699,8.513381875064969,-4.404909029883146
1789665871823746000,3.62074609375,3.4859897658914325,8.09166336018145,-2.128839974284917
1789665871833698000,3.630697998046875,1.8380434029057622,6.275426423153281,-0.5519885703504085
1789665871843651000,3.640651123046875,-0.6798539027631283,3.65955185059607,-0.17947795768491923
1789665871853602800,3.650602783203125,-4.9868555161237715,-0.5287269372284412,-0.6359555051300674
1789665871863555800,3.660555908203125,-15.083521896910666,-9.064828009101747,2.321381192486733
1789665871873508000,3.670508056640625,-24.676463679778575,-18.57687605409026,13.127604101991652
1789665871883460000,3.680460205078125,-21.252385887920855,-20.314169802784917,14.27680803938508
1789665871893413000,3.6904130859375,-9.155169958806038,-18.65875003517866,11.665275295424461
1789665871903364900,3.70036474609375,-0.39598464642912146,-14.525845928573608,8.67738761139512
1789665871913318000,3.71031787109375,-2.3904162963986395,-4.878273560851812,3.1157334349587558
1789665871923270000,3.720269775390625,-3.3547695700928566,2.6203023258715867,-1.5174015822306275
1789665871933223000,3.730222900390625,-2.213225207541883,4.512467487326264,-4.189211100238562
1789665871943175200,3.740175048828125,-1.253830725298822,3.9557565646290778,-5.728307504665851
1789665871953127000,3.750126953125,1.8704057495892046,1.0786983225375413,-6.315723946750164
1789665871963080000,3.760079833984375,5.119779300969839,-1.6230775869280099,-5.207474535557627
1789665871973032000,3.770031982421875,7.650125461584329,-2.1420891858279703,-3.701498894965648
1789665871982985000,3.77998486328125,10.01397991427183,-2.5025550673693417,-3.164582806062698
1789665871992937200,3.789937255859375,7.856872607532143,-5.055441561093926,-3.1959926743268965
1789665872002889000,3.799888916015625,-9.363200130301713,-11.959397357964516,-2.9323166034549475
1789665872012842500,3.809842529296875,-16.978539525187013,-13.459519011831283,-2.4700164873361588
1789665872022794500,3.81979443359375,3.9432688389778137,-3.7444220908910033,-2.9173388145536183
1789665872032747500,3.82974755859375,9.48280616841316,2.22838390596807,-3.4678812777489423
1789665872042699500,3.839699462890625,9.714057056498527,4.597159448444843,-3.1803657738670705
1789665872052652500,3.849652587890625,8.551096980953217,6.830103209674358,-2.59143542008847
1789665872062604500,3.8596044921875,7.242891399127244,7.575161113753914,-2.135827495084703
1789665872072556500,3.869556640625,6.736145992082357,7.075462118089199,-1.9001741342566907
1789665872082509600,3.879509521484375,7.3892369756042955,5.399278379395604,-2.1526060497976838
1789665872092461600,3.889461669921875,8.233474800360202,3.1364369080305097,-2.1595959086850285
1789665872102414300,3.899414306640625,8.3310934630692,0.9822498726516962,-1.7193198467172681
1789665872112366300,3.909366455078125,8.148045757138728,-1.0227549015194177,-0.9779690535273402
1789665872122318600,3.919318603515625,7.288640758389234,-2.7129432001680134,-0.17830679501369595
1789665872132271600,3.929271728515625,7.035534596848487,-4.2862323815762995,0.8582070211365819
1789665872142223600,3.9392236328125,7.259855393409729,-5.356522941252589,2.3352213556602597
1789665872152176400,3.94917626953125,6.980685400807857,-5.5708560122847555,3.5279511310473084
1789665872162128400,3.95912841796875,5.36787844800353,-4.253848115321993,3.741317987395823
1789665872172081400,3.969081298828125,3.6418633414313195,-2.2125649900674818,3.052875996768474
1789665872182033700,3.97903369140625,2.574560565394163,-0.6498609155595302,2.2049838872887193
1789665872191985700,3.988985595703125,1.5955236634396015,0.3537695987731218,1.4329988133169709
1789665872201938400,3.9989384765625,-0.2925415153503418,1.0054448702782393,0.7414487006064504
1789665872211890400,4.008890380859375,-3.127533470606804,1.2134370478510856,0.07886800420545041
1789665872221843500,4.018843505859375,-8.870850328356028,1.0089905800610781,-0.5623354845806956
1789665872231795500,4.02879541015625,-10.515747532904147,1.8742945737212895,-0.5401663959357887
1789665872241747500,4.03874755859375,-4.095709809720516,2.484375852078199,-0.43633258503898975
1789665872251700500,4.048700439453125,0.7798480624318123,1.5128361740112304,0.8507491794113069
1789665872261652500,4.058652587890625,1.8395967698276041,0.8940876050740479,1.254602586454153
1789665872271605500,4.06860546875,2.047843798944354,0.9435054237157106,1.015355073591694
1789665872281557500,4.0785576171875,0.826807382005453,0.9940583838671445,0.28763883800059553
1789665872291509500,4.088509521484375,-1.2213076350957155,1.4096750747442244,-0.3405960097495466
1789665872301462500,4.098462646484375,-2.010499864456057,1.7203455365031957,-0.5695660568887367
1789665872311414500,4.10841455078125,-1.7057845117092132,1.6809674658387899,-0.4131129278952256
1789665872321367600,4.118367431640625,-0.7174456745326518,1.0876748251974582,0.33288843104690313
1789665872331319600,4.128319580078125,-0.31853447313234207,-0.21940204485952852,1.3189552316382527
1789665872341272600,4.1382724609375,-1.443206757467985,-1.0828571957826614,1.2829871155478059
1789665872351224300,4.148224365234375,-3.4459558616667985,-1.0072703321397305,0.6285906023852527
1789665872361176600,4.158176513671875,-5.129506329736113,-0.27480186052024363,0.20946371143013237
1789665872371129600,4.168129638671875,-5.4751732860744,-0.008097966259717941,0.20336955927349626
1789665872381081600,4.17808154296875,-4.345646109053492,-0.70827335703969,1.0479938260637223
1789665872391034600,4.18803466796875,-2.322919215708971,-2.219853978031874,2.8242370447471736
1789665872400986400,4.197986328125,-1.2958252620719373,-2.7048937492251395,4.998699098652601
1789665872410938600,4.207938720703125,-0.6373293507665395,-2.4881892728865145,6.935185047870874
1789665872420891600,4.2178916015625,0.2014431943207979,-1.955676971900463,8.623634978419542
1789665872430843600,4.22784375,0.1872311290949583,-1.2287567820578813,9.673265611904858
1789665872440796400,4.23779638671875,-1.016834863820672,-0.6682043815016746,9.424142967042327
1789665872450748400,4.24774853515625,-2.4333378848887977,-0.5732686742663383,8.511373457852006
1789665872460700400,4.257700439453125,-3.5041701502263543,-0.89522157754004,7.429426362651586
1789665872470653400,4.2676533203125,-3.816906312343478,-1.3407330559432507,6.972994846305251
1789665872480605700,4.277605712890625,-3.429448963502049,-2.3234698353290555,6.102271165683865
1789665872490558500,4.287558349609375,-2.9255168603122232,-3.8021605786323547,5.0855701573759315
1789665872500510500,4.297510498046875,-3.805305306398868,-5.024461316418647,3.787690739253163
1789665872510463500,4.30746337890625,-5.660221810433268,-5.5238207048654555,2.53172680131793
1789665872520415500,4.31741552734375,-6.365560283064842,-5.246380312535166,2.7647286247238516
1789665872530367500,4.327367431640625,-4.161977640876174,-4.0048564033627505,4.430785521678627
1789665872540320500,4.337320556640625,-1.095929370258376,-2.445233343735337,5.489473029583692
1789665872550272500,4.3472724609375,0.42914661905765533,-0.9067015874534845,5.6240176936298605
1789665872560225500,4.3572255859375,-0.40452071184515953,0.39089550659656525,5.062430104807019
1789665872570177500,4.367177490234375,-2.05603821131587,0.9192313986808061,3.465051899541914
1789665872580129300,4.37712939453125,-2.3447066846251485,0.46212417502999303,2.3166620550103483
1789665872590082300,4.387082275390625,-1.0001987132530659,-1.7368617870181797,2.0763576535061
1789665872600034600,4.39703466796875,0.09348148983903229,-3.736974112972617,1.7140929058492183
1789665872609987600,4.406987548828125,1.2917045288801192,-4.99176316190958,1.039221686869487
1789665872619939600,4.416939697265625,3.834007669270038,-6.256408418950438,0.2716081790454686
1789665872629892600,4.426892578125,5.75591213542819,-7.490484934726357,-0.7312295774742961
1789665872639844400,4.43684423828125,5.474208824956417,-8.95980286952853,-1.9093522969685495
1789665872649796600,4.446796630859375,4.206954554460943,-10.75805991322994,-3.388430139893293
1789665872659749600,4.45674951171875,2.357337910400331,-11.333552108764648,-4.773094692021608
1789665872669701600,4.46670166015625,-0.8587602711051702,-9.371253672897815,-4.550626829850674
1789665872679654700,4.476654541015625,-2.948324904447794,-5.339579405236244,-2.0882310466513037
1789665872689606400,4.4866064453125,-0.5745721580803393,-3.2876205721884966,-0.9186270030468702
1789665872699558400,4.496558349609375,2.3698902257204053,-2.238055405154824,-0.6986839831784367
1789665872709511400,4.506511474609375,3.6644004596710205,-0.6762555860102176,-0.18039134620279074
1789665872719463700,4.516463623046875,4.24205801654607,0.4524900852441787,-0.12363017906099558
1789665872729416400,4.52641650390625,4.336333214046061,1.574376392123103,0.5143430225670338
1789665872739368400,4.536368408203125,4.96891770837307,2.236099594911933,0.6724114778026938
1789665872749321500,4.546321533203125,5.657878462177515,2.658929285907745,0.39603696113824843
1789665872759273500,4.5562734375,5.6418239839553825,2.953533579006791,-0.17848726614713667
1789665872769225500,4.5662255859375,4.836261342291533,2.827315429279208,-1.207891396422684
1789665872779178500,4.576178466796875,4.348475779521465,2.3286060291737316,-2.7014076606750486
1789665872789130500,4.586130615234375,4.833706104850768,1.8605197308689354,-3.436454166088998
1789665872799083500,4.59608349609375,5.077392696139216,1.597625750285387,-3.9825481254428623
1789665872809035500,4.606035400390625,5.223894339960813,1.6603361812204123,-4.593242567262053
1789665872818987300,4.6159873046875,5.396679010552168,2.028132551780343,-5.254234533166885
1789665872828940300,4.625940185546875,5.265513467550277,2.612026664957404,-5.969499941051006
1789665872838892500,4.635892578125,5.198025154688954,3.237437614393234,-6.551446427291632
1789665872848845600,4.645845458984375,5.374958177131414,3.8071214159101245,-7.232408583557605
1789665872858797600,4.655797607421875,5.516568541780114,4.261678955078125,-7.937899616402387
1789665872868750600,4.66575048828125,5.481921591290831,4.6375130861431355,-8.511336632972956
1789665872878702300,4.675702392578125,5.30202504286766,5.236777786931396,-8.718018896991014
1789665872888654600,4.685654541015625,4.816295828105509,5.90205429828763,-8.430546355468035
1789665872898607600,4.695607666015625,4.233360915349424,6.234634394037723,-7.897690940132737
1789665872908559600,4.7055595703125,4.14389311813116,6.2003252972006795,-7.307276485276222
1789665872918512600,4.7155126953125,3.866109026929736,6.075578973591328,-6.45299482088983
1789665872928464400,4.72546435546875,2.661201322492957,5.618252554231882,-5.175757793301344
1789665872938416400,4.73541650390625,0.7909984019994736,4.433475199154019,-3.6350060228824614
1789665872948369400,4.745369384765625,-3.149740041717887,2.234637121143937,-2.2239149438604713
1789665872958321700,4.75532177734375,-10.86207441445589,-2.4352888728260993,0.9092685153320431
1789665872968274700,4.765274658203125,-21.209923879766464,-10.418685335034132,10.766946984040736
1789665872978226400,4.775226318359375,-19.423559518432615,-15.04865750427842,17.826942652928828
1789665872988179500,4.785179443359375,-10.166937602365016,-15.978651704514025,18.53228171008229
1789665872998131500,4.79513134765625,-2.4193293794110415,-14.022619343304633,15.143009858667849
1789665873008083500,4.80508349609375,-1.344693484006822,-8.042048557662964,9.294483152428269
1789665873018036700,4.81503662109375,-4.7526910786792635,-0.535303393009305,3.302669965021312
1789665873027988700,4.82498876953125,-4.935444477838278,3.756712832665443,-1.3528732833310961
1789665873037941800,4.834941650390625,-1.0021589804753661,2.9616414821386337,-4.695569261531531
1789665873047893800,4.844893798828125,2.6569854583635926,-1.5962059466153382,-6.260130069822073
1789665873057845800,4.854845703125,3.241550018148124,-4.74787607961297,-7.104140515562891
1789665873067798800,4.864798828125,3.2926784400999543,-4.591362160342931,-7.533470674493908
1789665873077750800,4.874750732421875,4.079494295717776,-3.779332076230645,-7.550167542272805
1789665873087703800,4.884703857421875,2.188300901904702,-4.499011793425679,-7.6072893594205375
1789665873097655800,4.89465576171875,-6.446050116318464,-7.446184020707011,-6.729965257620811
1789665873107608800,4.90460888671875,-6.201850314810872,-9.809226572489738,-1.4203338314026592
1789665873117560600,4.914560546875,3.825513397169113,-7.32460639026165,1.35020815577507
1789665873127512600,4.9245126953125,8.531206285569072,-2.0366560499757527,-0.022694646888971326
1789665873137465600,4.934465576171875,10.480683233785628,1.2209995920598506,-1.2202803378745912
1789665873147417900,4.94441796875,9.693166244161128,3.5276059708714484,-1.5935352661013602
1789665873157371000,4.954370849609375,8.337475273060798,5.13475299821794,-2.0696634165644645
1789665873167322600,4.964322509765625,7.022908924031257,5.77023409076929,-2.2350170603722335
1789665873177274600,4.974274658203125,5.807686746329069,5.38257449735403,-2.2158462036952375
1789665873187227600,4.9842275390625,5.480550887459517,3.9260061540096998,-1.9597455365136265
1789665873197180000,4.994179931640625,5.860066337385773,1.869349518534541,-1.7169541404992341
1789665873207133000,5.0041328125,6.582295154541731,-0.37665070814490315,-1.1278870085984467
1789665873217084700,5.014084716796875,7.089946570515632,-2.293904718148708,-0.3340063291609287
1789665873227036700,5.02403662109375,7.2967469079554075,-3.6778596607029437,0.7424395382747053
1789665873236989700,5.03398974609375,6.819214735913277,-4.220300065985322,1.9059525715276597
1789665873246941700,5.043941650390625,5.963925940310955,-3.876578983017802,3.360765011115372
1789665873256894700,5.053894775390625,5.151834481400251,-2.74733997528851,4.040324607107043
1789665873266846700,5.0638466796875,3.942141588513553,-0.8654927942305802,3.221166863071918
1789665873276799700,5.0737998046875,2.4930139165639877,0.6820955442100763,1.8377716002270579
1789665873286751700,5.083751708984375,0.8261679150581359,1.3626111257523297,1.1149670290097593
1789665873296703700,5.093703857421875,-2.47102069594264,1.3388438811957835,0.10984423029273747
1789665873306656800,5.10365673828125,-9.674470896041393,1.316964642342925,-0.44774552106559273
1789665873316608800,5.11360888671875,-10.279469756567478,2.1168419318467375,-1.0872662443965673
1789665873326561800,5.123561767578125,-2.5714965016484257,2.297310727199912,-0.8105629341691732
1789665873336513800,5.133513671875,2.603653388887644,1.4506868840903042,0.8888128795415162
1789665873346465800,5.1434658203125,3.282964270815253,1.2503536968380211,2.138997649553418
1789665873356418800,5.153418701171875,3.3339065225452185,1.2380828288078307,1.810279197667539
1789665873366370600,5.16337060546875,2.581170338922739,1.1913409513771533,1.4857833319127558
1789665873376323600,5.173323486328125,1.196449599627778,1.1614221984535456,1.5309642436370252
1789665873386275800,5.18327587890625,-1.0330892485290766,1.0192682284474373,1.2815101748630404
1789665873396227800,5.193227783203125,-5.736406639969348,0.8749474357962608,0.5261243535146117
1789665873406180600,5.2031806640625,-6.106469786417484,1.0482277809500693,-0.02231207731217146
1789665873416132600,5.213132568359375,-0.9585447335459292,0.892843742492795,0.624835633765906
1789665873426085600,5.223085693359375,1.170259584903717,0.5340566078186035,1.8676520669668912
1789665873436038000,5.233037841796875,1.5482020864248276,0.4155938945233822,2.520044546830654
1789665873445991000,5.242990966796875,0.4780271159522235,0.35713293772637844,2.6179659918785094
1789665873455942700,5.252942626953125,-2.9048405675083395,0.4353852211862802,1.907576373337209
1789665873465894700,5.262894775390625,-7.152611993265151,0.41609132265150545,0.7976071526147425
1789665873475847700,5.27284765625,-8.203360232603549,0.0206523274064064,0.527163487304002
1789665873485799700,5.282799560546875,-4.740533315634727,-1.0141302810370922,1.2458802046857773
1789665873495752700,5.292752685546875,-1.588308179102838,-2.107443988904357,3.2088439725935456
1789665873505704700,5.30270458984375,0.24872809258699416,-2.09205177398324,5.547711868062615
1789665873515656700,5.31265673828125,1.993435916930437,-1.760362489593029,7.734176202189922
1789665873525609700,5.322609619140625,2.0277968900851904,-1.005586909097433,9.689970662990213
1789665873535561700,5.332561767578125,0.010271218645572662,-0.09526596210300922,10.281109924989938
1789665873545514800,5.3425146484375,-1.7327350624769926,0.39881227107048034,9.194705265858769
1789665873555466800,5.352466796875,-1.6863059042572974,0.29445407097339626,7.811679128587246
1789665873565418800,5.362418701171875,-1.0359130737781523,0.20731588574647902,7.048589308732748
1789665873575371800,5.372371826171875,-1.3217244040906428,-0.12599953854084014,6.653995532140136
1789665873585323800,5.38232373046875,-2.5128017360955477,-1.4114257178038359,5.428160190486907
1789665873595276800,5.39227685546875,-3.318579189553857,-2.9244997922241684,3.98032372739166
1789665873605228500,5.402228515625,-3.9818209802120923,-4.400708655583858,2.984173924203217
1789665873615181600,5.412181640625,-4.088157202383876,-4.8657145235300066,2.43311415913552
1789665873625133800,5.4221337890625,-3.664991995823383,-4.240842503276467,3.3531849312499165
1789665873635085800,5.4320859375,-3.4437323403984306,-2.830870491412282,5.305608746573329
1789665873645038800,5.442038818359375,-3.296944865372777,-1.4039566970974207,5.547210348281264
1789665873654990600,5.451990478515625,-2.177791198328137,-0.10366612617969512,4.415081756590307
1789665873664943600,5.461943603515625,-1.9555659127414224,0.5122609555959701,3.3081086489439007
1789665873674896000,5.471895751953125,-3.228354728749394,0.06580021364390849,2.3553103500954804
1789665873684847900,5.481847900390625,-2.6058061830073593,-1.0038006102025507,1.3149103401616216
1789665873694801000,5.49180078125,-1.5377204398989677,-2.2474527635753154,0.7894767453901469
1789665873704752600,5.501752685546875,-0.9293675927698611,-3.6068718152880668,0.6294838979631662
1789665873714705700,5.51170556640625,-0.2625497702557593,-4.6494642206996675,0.5595467306450009
1789665873724657700,5.52165771484375,1.9811597882032392,-5.432805970466137,0.6631435909807681
1789665873734610000,5.53160986328125,4.327911130398512,-6.1563283345639706,0.11675269450694321
1789665873744562700,5.541562744140625,4.637829312485456,-6.999989236214756,-0.7981146637454628
1789665873754514700,5.5515146484375,3.7468835125684734,-8.212426751634478,-1.8616098641932008
1789665873764467700,5.5614677734375,2.044567699883133,-9.457170791897177,-3.4751463003158567
1789665873774419700,5.571419677734375,-0.7003682830035686,-9.480791321459412,-4.516803762964904
1789665873784372000,5.5813720703125,-2.4831667685493826,-6.979730876561999,-3.7121754795417186
1789665873794324700,5.59132470703125,-0.9509091241009533,-3.8923505526453255,-2.4450202855065464
1789665873804276700,5.60127685546875,3.2037118704020977,-2.645609785607457,-2.3904855622425676
1789665873814229800,5.611229736328125,4.7777299506068225,-1.2756103031694888,-1.4449416184365749
1789665873824181800,5.621181640625,3.920342721420526,0.3333177623748779,0.3381885832816362
1789665873834134800,5.631134765625,3.681138828504085,1.3345488143503665,0.8505822253465652
1789665873844086500,5.64108642578125,4.622238944643736,1.9460510654211043,0.6221516553789377
1789665873854038800,5.651038818359375,4.489891498380899,2.444502691373229,0.6734709237277507
1789665873863991800,5.66099169921875,4.749869299256801,3.621555005156994,0.6579770019978285
1789665873873943800,5.67094384765625,4.922210902255773,3.242812877690792,-0.5174339743196964
1789665873883896800,5.680896728515625,4.497874021567404,2.3609622383773328,-1.6666536938041447
1789665873893848600,5.6908486328125,4.350846308045089,1.5345833109170197,-2.6118857951819896
1789665873903800800,5.70080078125,4.3542517325744035,1.0463345145493745,-3.336571942362189
1789665873913753900,5.71075390625,4.384279791091382,1.0575468134373427,-4.102004525950551
1789665873923705900,5.720705810546875,4.654002740912139,1.107642092949152,-4.905839613169431
1789665873933659000,5.730658935546875,4.903651163214445,1.3525269541114568,-5.653263661858439
1789665873943610600,5.740610595703125,4.923664608195423,1.7438930008292197,-6.33042701036334
1789665873953562600,5.750562744140625,5.211429410663246,2.116362623897195,-6.91383772393763
1789665873963515600,5.760515625,5.457904755887389,2.581878779453039,-7.5783865055412045
1789665873973468000,5.770468017578125,5.349375407585502,3.038051937124133,-8.1137074342072
1789665873983421000,5.7804208984375,5.290774750056863,3.5167473077267406,-8.58499691246748
1789665873993372700,5.79037255859375,4.946009126472473,4.103044974914193,-8.882619092082976
1789665874003324700,5.80032470703125,4.326126000547409,4.731588961678743,-9.035944444444775
1789665874013277200,5.810277099609375,3.893393924218416,5.126115518254041,-9.002790947383641
1789665874023229400,5.8202294921875,3.579390226383507,5.194664153823256,-8.631333131706715
1789665874033182500,5.830182373046875,3.317006533409655,4.949170220851898,-7.892912473684549
1789665874043134200,5.84013427734375,2.317563241633773,4.184408668392896,-6.8201178222328425
1789665874053086200,5.850086181640625,0.4881470895588398,2.8724218144625424,-5.210557888525724
1789665874063039200,5.860039306640625,-3.6266783395200966,0.6568553044915199,-3.020543168440461
1789665874072991500,5.869991455078125,-11.842457908713817,-3.307574395936727,0.708088648122549
1789665874082944500,5.879944580078125,-21.69315514023304,-10.103230561608076,10.624574987369774
1789665874092896300,5.889896240234375,-14.300826043832302,-14.13255154414177,20.85850931968689
1789665874102849300,5.899849365234375,-7.765719341444969,-15.327543419241904,25.65774499965906
1789665874112801300,5.90980126953125,-4.922045482560992,-12.835391087943314,22.70305231374502
1789665874122753300,5.919753173828125,-4.993917709594965,-5.144263169363141,11.791581123435497
1789665874132706000,5.9297060546875,-7.7435051715493195,1.24356739769876,3.0084622700244186
1789665874142658300,5.939658203125,-5.352998274257779,2.118480931225419,-1.9130863689303397
1789665874152611300,5.949611328125,-0.2734438700400293,-0.3519447214335203,-3.947818172845244
1789665874162563300,5.959563232421875,3.2774539829611777,-3.2704736225545403,-5.510820938038826
1789665874172515300,5.969515380859375,5.798304000955819,-5.124623233869672,-6.231561562463641
1789665874182468000,5.979468017578125,7.0089680769622325,-4.851176879611611,-6.016747429916262
1789665874192420400,5.98942041015625,7.42548434702754,-5.301564439618587,-5.974108896151185
1789665874202373400,5.999373291015625,1.9761857991829512,-7.258682257977128,-5.41718988366127
1789665874212325400,6.009325439453125,-8.044455618804692,-9.394944929608702,-1.6175222908884286
1789665874222277000,6.019277099609375,-6.808322755020856,-6.97253132044673,0.8935153581440448
1789665874232230100,6.029230224609375,1.5678756319269538,-0.6223299345552921,-3.106023065066337
1789665874242182100,6.03918212890625,7.256031451207399,1.3410294085413217,-4.906638070070743
1789665874252135200,6.04913525390625,9.175734607928991,2.6577853765696284,-5.269740145334601
1789665874262087400,6.05908740234375,8.134771265023947,4.449263719916344,-5.0781958292156455
1789665874272039200,6.0690390625,6.643821928650141,5.454170830056071,-5.008774502465129
1789665874281992200,6.0789921875,5.556470928579569,5.3702317331314084,-5.031295546352863
1789665874291944200,6.088944091796875,5.160141706496477,4.129368333694338,-5.01667840745747
1789665874301897200,6.098897216796875,5.889692829364538,2.2074013236939907,-4.923211019209027
1789665874311849500,6.108849365234375,6.598972733098268,0.06612871494591235,-3.5886455459848046
1789665874321801200,6.11880126953125,6.482560522592068,-1.4350000701367853,-1.8258552447229623
1789665874331754200,6.128754150390625,6.828107651942968,-2.3493951347023248,-0.6819757172226906
1789665874341706200,6.138706298828125,7.308260820138454,-2.3755226786494252,0.369220850405097
1789665874351659300,6.1486591796875,8.067862213355303,-1.267583064058423,2.158717664545774
1789665874361611300,6.158611328125,7.499387787628174,-0.292626855546236,3.30598391187489
1789665874371563300,6.168563232421875,3.637960196512937,0.7035252857297658,3.5754859124213456
1789665874381516300,6.178516357421875,1.502600026679039,1.0262485888540744,3.861901930628717
1789665874391468300,6.18846826171875,0.1971346834719181,1.1906401096314192,2.9429715607210993
1789665874401421300,6.19842138671875,-2.582378545668721,0.3541238190382719,2.3311536678299305
1789665874411373300,6.208373291015625,-5.365396568059921,-0.8969809884279966,1.2962076855182647
1789665874421325300,6.2183251953125,-6.495747920945286,-1.6956816353678703,0.8495534668207169
1789665874431278300,6.2282783203125,-4.946553316351771,-1.5808242530882357,0.9603311785712838
1789665874441230300,6.238230224609375,-1.816668898704648,-0.4373778563082218,1.414632989412546
1789665874451183400,6.248183349609375,-0.04155366113781929,0.3774637780934572,2.019275876107812
1789665874461135400,6.25813525390625,0.9564094750829041,1.0901958681076764,2.2102999677449464
1789665874471087000,6.268087158203125,1.2239479204714299,1.6066121898174286,1.8531790127173065
1789665874481040100,6.2780400390625,0.40211759622618554,1.5288409678727388,1.0100938651278615
1789665874490992400,6.287992431640625,-0.8530778415545821,1.4025859932661056,0.2273731698691845
1789665874500945400,6.2979453125,-1.9082360062897203,0.8298369589596987,-0.21508038226813075
1789665874510897400,6.3078974609375,-2.0999032181359825,0.48056993230283257,-0.12616115884333848
1789665874520849200,6.31784912109375,-1.7818664653927088,0.16513678618669508,0.2890150947898626
1789665874530802200,6.32780224609375,-0.948800169122964,0.19819091452658175,0.5889496430009603
1789665874540754400,6.33775439453125,-0.09054667849615215,0.2045715554744005,0.7635527611911297
1789665874550707500,6.34770751953125,-0.003068155398964882,0.26516601716876026,1.2840016994178294
1789665874560659200,6.3576591796875,-1.3439730607777833,0.0894242503374815,0.978324223640561
1789665874570611200,6.367611083984375,-3.8831227055728434,-0.19905892953276633,0.30409429823905226
1789665874580564200,6.377564208984375,-5.818711998212337,0.01757365061342716,-0.012649638214707375
1789665874590516200,6.38751611328125,-5.038849907255172,0.3370353215932846,0.6807140267238021
1789665874600469200,6.39746923828125,-2.2536945805743334,0.09675473935604095,2.635458101688325
1789665874610421200,6.407421142578125,-0.17558511496484278,-0.5095739084690809,4.709671144381165
1789665874620373200,6.417373291015625,0.4002858507543802,-0.8156845149666071,6.376807653266191
1789665874630326300,6.427326171875,-0.2313677924633026,-0.8445446987479924,7.77642193724513
1789665874640278300,6.4372783203125,-1.7091788303226232,-0.38898119740784165,8.854533399805426
1789665874650231300,6.447231201171875,-2.715784268812835,0.8160211995750665,8.786766854524611
1789665874660183300,6.457183349609375,-2.6409219200521705,1.3505506856024265,8.180572062212228
1789665874670135300,6.46713525390625,-1.9118869300127028,1.0161287613779306,7.5112769628643985
1789665874680088300,6.47708837890625,-1.5451204870223998,0.3446633322536945,6.631057724145054
1789665874690040300,6.487040283203125,-2.3555258925423024,-0.6040870063781738,5.656005069521069
1789665874699993300,6.496993408203125,-3.5956045713424682,-1.7528402773946523,4.641376775833964
1789665874709945000,6.506945068359375,-4.278239629256725,-3.216676565915346,4.148713085633516
1789665874719897300,6.5168974609375,-4.565285469800234,-4.509180136218667,4.365226715575158
1789665874729850400,6.526850341796875,-4.927544664499163,-4.757880756276846,4.918983172380924
1789665874739802400,6.53680224609375,-4.949828392499685,-3.584189443358779,6.447837584257125
1789665874749755400,6.54675537109375,-4.288139968763292,-1.8062959732502697,7.375581375217437
1789665874759707100,6.55670703125,-3.0224320509269833,-0.20873101324141025,7.059792255270481
1789665874769659400,6.566659423828125,-1.1935413840308784,1.092953057861328,6.409693439301848
1789665874779612400,6.5766123046875,-0.5274234534144401,1.8320558529287576,5.756330068579316
1789665874789564400,6.586564453125,-1.4823802454710007,1.9823755937337875,4.964595753520727
1789665874799517400,6.596517333984375,-2.145907867333293,1.1624743378549813,4.2373213434129955
1789665874809469200,6.60646923828125,-1.58191672450006,-1.0494038389921188,3.7292020176663994
1789665874819421200,6.616421142578125,-0.3656436129728332,-3.4414088658869266,3.1713910247728228
1789665874829374200,6.626374267578125,2.127852570682764,-4.975909174695611,2.9893069031774995
1789665874839326500,6.636326416015625,5.131217225307226,-4.68220913695991,2.6806705775946376
1789665874849279200,6.646279296875,6.863363674241304,-5.594165576201677,1.2342203081607819
1789665874859231200,6.656231201171875,7.220572015291452,-7.4886150492012495,0.48377457356303927
1789665874869183200,6.666183349609375,5.930990469914675,-9.757099494889378,-0.9564373860031365
1789665874879136300,6.67613623046875,1.771543224298954,-12.666765875118971,-3.1981147810474035
1789665874889088500,6.686088623046875,-3.533641743904352,-13.766287789976596,-4.031895509196818
1789665874899041300,6.696041259765625,-2.598434777456522,-8.941741727659105,-2.9967332537859677
1789665874908993300,6.7059931640625,0.3485854741334915,-4.758050852146744,-1.636893346312642
1789665874918945300,6.7159453125,3.293529503971338,-2.700953487166762,-1.1933049449265003
1789665874928898300,6.725898193359375,5.471675507086515,-1.2142395964056252,-0.8558914376705884
1789665874938850000,6.73585009765625,6.358229209524393,-0.12789046685397623,-0.67617667555511
1789665874948803000,6.745802978515625,6.514754819232225,1.0738619884222744,-0.012641454908251762
1789665874958755300,6.75575537109375,5.76090979758501,2.1551029811799527,0.31011984213888644
1789665874968707300,6.765707275390625,5.376538724321127,2.6254987254709006,-0.32104630982279775
1789665874978660400,6.775660400390625,5.25211797940433,2.7686995741814373,-1.456338626241684
1789665874988612000,6.785612060546875,4.64258819745034,2.554633045130968,-2.4015958620607853
1789665874998565000,6.795565185546875,4.583707553936541,2.138337139818072,-3.4414053587555884
1789665875008517400,6.805517333984375,4.790366144818067,1.9377479319781064,-4.3973704510718585
1789665875018470400,6.815470458984375,5.033509130749106,2.01008485391438,-5.1960015399068595
1789665875028422700,6.825422607421875,5.1827288013577455,2.2580361169099805,-5.847908282080293
1789665875038374400,6.83537451171875,5.325305380690097,2.597380884489417,-6.225386673220992
1789665875048327400,6.845327392578125,5.470048198145627,3.013079992952943,-6.425708754557371
1789665875058279400,6.855279541015625,5.6246238428294655,3.4224913994491097,-6.6310384349226945
1789665875068232400,6.865232421875,5.801337669563293,3.8408220254600045,-6.893504545482993
1789665875078184700,6.875184814453125,5.9052715067684645,4.11289767588675,-7.34141022554636
1789665875088136400,6.885136474609375,5.944404078239202,4.463759862780571,-7.777545972838998
1789665875098089500,6.89508935546875,5.828976202595234,4.984326289907098,-8.15339530147314
1789665875108041500,6.90504150390625,5.339393527275323,5.506700058716535,-8.47352215836346
1789665875117994500,6.914994384765625,5.00269255220294,5.840231171581149,-8.628497031497956
1789665875127946500,6.924946533203125,4.889812022954225,6.0152902168452735,-8.511302730703353
1789665875137898500,6.9348984375,4.215849224056304,5.818028107601404,-7.575534623241424
1789665875147851500,6.9448515625,2.6976924395442006,4.9926878755390645,-5.971746843194961
1789665875157803500,6.954803466796875,-0.13529606693536042,3.388930490630865,-4.3898470698297025
1789665875167756500,6.964756591796875,-6.23303631119132,0.36728725199401374,-3.1373043385148045
1789665875177708500,6.97470849609375,-17.448291710877417,-6.18648615694046,1.2851315802305936
1789665875187660500,6.98466064453125,-20.891670415532587,-13.95587863394022,18.13651129092574
1789665875197613600,6.994613525390625,-8.724860141187905,-16.594101816427706,27.55782692558765
1789665875207565600,7.004565673828125,-6.018368309116363,-17.070218276453016,27.988970271420477
1789665875217518600,7.0145185546875,-6.080624566543102,-11.322855358183384,17.56759029047489
1789665875227470600,7.024470703125,-7.518770533490181,-2.7364181837797164,7.120741521751881
1789665875237422600,7.034422607421875,-6.794965260797738,0.05516366881728172,1.6011404804080724
1789665875247375600,7.044375732421875,-3.7765079587206243,1.2064689624041318,-2.9791724626541134
1789665875257327600,7.05432763671875,-0.9840846868634223,2.2472283071696757,-5.677462868091464
1789665875267280600,7.06428076171875,1.6818036244019865,1.504794906374812,-7.3470713200479745
1789665875277232600,7.074232666015625,3.9164723097279666,-0.3883434840261936,-8.368449087995291
1789665875287184400,7.084184326171875,4.55395275940299,-1.025180667361617,-8.305782496201992
1789665875297137400,7.094137451171875,6.391186891752481,-1.163071719226241,-7.768132832327485
1789665875307089700,7.104089599609375,9.340041373032332,-2.5211194825857874,-7.919785283041
1789665875317042700,7.114042724609375,2.952359274530411,-5.824006012967229,-8.98313698336482
1789665875326994400,7.123994384765625,-9.939425316286087,-11.692911490368843,-5.768206968855858
1789665875336946400,7.133946533203125,-6.242262404698133,-11.619767928224801,2.069029794836044
1789665875346899500,7.1438994140625,3.2649475526094434,-5.3077369907736776,1.7932301554501056
1789665875356851500,7.1538515625,9.283042305481434,0.6896738705098628,-1.2702543290942907
1789665875366804500,7.163804443359375,10.289269850569962,2.928423103147745,-2.4362486577689646
1789665875376756500,7.173756591796875,9.223679431408643,4.41793860732615,-2.76561739025712
1789665875386708500,7.18370849609375,8.004808668071032,5.34406268813014,-2.466239306885004
1789665875396661500,7.19366162109375,7.0558607610404485,5.493861035409569,-1.989203978449106
1789665875406613500,7.203613525390625,6.809474263143539,5.006144153961539,-1.4928686139985918
1789665875416566500,7.21356640625,7.405091547340154,4.102797722154856,-0.6451748035699129
1789665875426518500,7.2235185546875,7.65519677349925,2.5072382567495106,0.45185500221103425
1789665875436470500,7.233470458984375,7.310144149667024,1.110059090963006,1.4003072346791625
1789665875446423600,7.243423583984375,7.044412315309048,-0.39450317569971083,2.365322187152505
1789665875456375600,7.25337548828125,6.3320636716544625,-2.404728899389505,3.7323107973366976
1789665875466328600,7.26332861328125,5.44667433682084,-3.993283454468846,5.59162407502532
1789665875476280600,7.273280517578125,4.980068047940731,-3.690863519182801,6.506032583594322
1789665875486233600,7.283233642578125,3.3407764083147047,-1.7967098142594098,4.968714879277348
1789665875496185600,7.293185546875,0.9740835173308848,-0.499551111626625,2.544541274705529
1789665875506137600,7.3031376953125,-1.5545692833691835,-0.15969196478426456,0.6943836556360126
1789665875516090600,7.313090576171875,-4.572692531186342,0.3547510110259056,-0.8579694129884242
1789665875526042400,7.32304248046875,-6.736676737958192,0.7661527145564556,-2.1903853069633246
1789665875535995400,7.332995361328125,-6.0712330533415075,0.816053932800889,-2.545343238738179
1789665875545947600,7.34294775390625,-2.9033658187806606,0.7593056251406669,-1.618868152539432
1789665875555899600,7.352899658203125,0.13427636849880217,0.8531120360851288,-0.33965310287624595
1789665875565852700,7.362852783203125,2.2313106070697306,1.2614268795162438,0.2734697351336479
1789665875575804400,7.372804443359375,3.034332624340057,1.3931839586704968,0.6976698376998305
1789665875585757400,7.38275732421875,2.770637848767638,1.2622481327712536,0.7739546204790473
1789665875595709400,7.39270947265625,1.8348942912250756,1.0761766951054335,0.5685606427058577
1789665875605661700,7.40266162109375,-0.2685920460946858,0.7609691744387149,-0.0035337270841002463
1789665875615614500,7.412614501953125,-3.108552875804901,0.9608148704349994,-0.5354328646078705
1789665875625566500,7.42256640625,-4.885729722076654,1.0328016637593507,-0.38874154343307016
1789665875635519500,7.43251953125,-4.248903060135245,0.7970143012881279,-0.16028554676324128
1789665875645471500,7.442471435546875,-1.9416988615609705,0.4768044422894716,0.04481733910888433
1789665875655423700,7.452423828125,0.17268281765207646,0.0825011730760336,0.6858838305771351
1789665875665376500,7.46237646484375,0.9564138589970766,-0.017241057658195495,1.353722009114921
1789665875675328500,7.47232861328125,0.27899434377402066,0.05295300703048706,1.6348983731031417
1789665875685281500,7.482281494140625,-2.0485124919861555,0.013968904119729996,1.2103066408708691
1789665875695233500,7.492233642578125,-5.4620507696509355,0.010796119302511214,0.40102936259806155
1789665875705185500,7.502185546875,-7.131227259930968,-0.45846331443488597,0.5555842567548156
1789665875715138600,7.512138671875,-5.304581741613149,-1.4561059865295887,2.2085681755162776
1789665875725090600,7.522090576171875,-2.0537527307271954,-2.1384441073238847,4.468986949779093
1789665875735043600,7.532043701171875,0.18403028722703454,-1.8434569523870943,6.359701035642623
1789665875744995600,7.54199560546875,0.43723581748902796,-0.609405571052432,7.328196523708105
1789665875754947300,7.551947265625,-1.1643936154797672,1.0408446849614381,8.555483233213424
1789665875764900400,7.561900390625,-2.5221412268489596,2.7028508452206848,9.845220261412859
1789665875774852600,7.5718525390625,-2.291251573291421,3.1574580687493086,10.082363130146264
1789665875784805600,7.5818056640625,-1.7459256757006048,2.3688924468547103,8.626858616641163
1789665875794757600,7.591757568359375,-1.4939903115049005,0.9517103574812412,6.5643783895790575
1789665875804709400,7.60170947265625,-1.6798343701556324,-0.7189502338767051,5.257258849424123
1789665875814662400,7.611662353515625,-2.293737252627313,-2.440858197391033,4.219010610696673
1789665875824614400,7.621614501953125,-3.132821640142798,-4.160900367033482,3.630621524187922
1789665875834567400,7.6315673828125,-4.576327380557358,-5.24961856380403,3.3052912534356116
1789665875844519700,7.641519775390625,-5.768376480203867,-4.815068624398112,4.19066714426577
1789665875854471400,7.651471435546875,-5.5833647807240485,-3.2897768734395503,6.23745646572113
1789665875864424400,7.661424560546875,-4.484278919196129,-1.9712913051396608,7.077465859127044
1789665875874376400,7.67137646484375,-2.7559257250651714,-0.843443459507823,6.8835828709274525
1789665875884329500,7.68132958984375,-1.0708831187419592,0.1349514912813902,6.363930051514506
1789665875894281700,7.69128173828125,-0.469000490540266,1.0554939725607633,5.348578704249858
1789665875904233500,7.7012333984375,-1.0475111571133136,1.6371932060420513,3.7585233892187473
1789665875914186500,7.7111865234375,-1.5222441999562084,1.0615823525637387,2.4256968686163423
1789665875924138500,7.721138427734375,-0.8896902468979359,-0.7498048063457011,2.1408356786355376
1789665875934091500,7.731091552734375,0.48443712912499903,-3.199279440912604,2.4300647084370253
1789665875944043500,7.74104345703125,1.948793057605624,-5.562643479734659,2.727162864178419
1789665875953995500,7.75099560546875,4.129131602329015,-7.030931486967206,2.693305310501158
1789665875963948500,7.760948486328125,5.895314760899543,-7.970725781205296,1.6878680390074847
1789665875973900500,7.770900634765625,6.39676556866765,-9.234162831500171,0.36457010198980566
1789665875983853600,7.780853515625,5.629754775977134,-10.313982267022132,-1.3466449103355407
1789665875993805600,7.7908056640625,2.1725591428935527,-10.415728823316096,-3.681991645941138
1789665876003757600,7.800757568359375,-1.4313514845013617,-7.972219234633445,-4.093746985214948
1789665876013710800,7.8107109375,-1.7507180245436726,-4.399953453302383,-3.1120711130589247
1789665876023662600,7.82066259765625,-0.3473299211144447,-2.281702823701501,-1.9584306545227765
1789665876033615600,7.83061572265625,2.1237233619235454,-1.3827362144142388,-0.7853022361844778
1789665876043567600,7.840567626953125,3.8940368982970712,-0.5516863725334405,-0.03690963472425937
1789665876053520600,7.850520751953125,4.460753082180023,-0.08398527415394783,0.285787949436903
1789665876063472600,7.86047265625,4.537190425172448,0.6327116278380155,0.7388362530857324
1789665876073424600,7.870424560546875,4.817880466948449,1.4299632450133561,0.6663970398187637
1789665876083377700,7.880377685546875,4.902293611125648,2.264202822846174,0.3275666515022516
1789665876093329700,7.89032958984375,4.79345709657073,2.577283852878213,-0.23865151973068713
1789665876103282700,7.90028271484375,4.709371284651756,2.5122084463775156,-1.0770967325598
1789665876113234700,7.910234619140625,4.734525891913473,2.067316561177373,-2.342318328183889
1789665876123186700,7.920186767578125,4.852143678817153,1.777488396438956,-3.3922704487085342
1789665876133139700,7.9301396484375,4.983922385281324,1.8297902460843323,-4.039626103448867
1789665876143091700,7.940091796875,5.307618917351961,1.8774533300131557,-4.803377017560601
1789665876153044700,7.950044677734375,5.570335787802934,2.158599591124058,-5.473399262139201
1789665876162996700,7.959996826171875,5.839116488337517,2.634887900584936,-5.9981397600799795
1789665876172948500,7.969948486328125,6.129489427477121,3.127140087375045,-6.416626453435421
1789665876182901500,7.979901611328125,6.295188523721695,3.5339427726775408,-6.868637815251946
1789665876192853800,7.989853759765625,6.385096173661947,3.7866327546328304,-7.4444590966105455
1789665876202806800,7.999806884765625,6.373052100124955,3.858112182956934,-7.989886993271112
1789665876212758500,8.009758544921874,6.13247516528964,4.366038908740878,-8.6442843832165
1789665876222710500,8.01971044921875,5.665989287918806,4.616703522348404,-9.028383069279789
1789665876232663600,8.02966357421875,4.582587317734957,4.857844520807266,-9.152950529190898
1789665876242615800,8.03961572265625,4.151768673811853,4.816968320539593,-9.089231797996163
1789665876252568800,8.04956884765625,4.23652025616318,4.724136307585239,-8.45964736226797
1789665876262520600,8.0595205078125,3.894768135181069,4.718379351493716,-7.017222695088386
1789665876272472600,8.06947265625,2.3096942618243395,4.434632552495598,-5.2321185629487035
1789665876282425600,8.079425537109374,-0.48772725671157235,2.9132226114064452,-4.1213028083994985
1789665876292377600,8.089377685546875,-5.972632978379726,-0.7169757189333439,-3.139052643486857
1789665876302329600,8.09932958984375,-17.868993157672882,-6.954422832304239,3.778313254576921
1789665876312282600,8.10928271484375,-23.450132079041,-14.044156636852025,21.651025140511987
1789665876322234600,8.119234619140625,-10.522201823610066,-18.523024052393435,29.170564904808998
1789665876332187600,8.129187744140625,-4.352290369373559,-17.416977704203127,27.102708829927444
1789665876342139600,8.1391396484375,-5.547111564081907,-10.124262828242777,17.33379556312561
1789665876352092700,8.1490927734375,-7.24207891370058,-2.0711697294741866,4.777525075684488
1789665876362044700,8.159044677734375,-5.362705429279804,-0.15919453665614128,-0.694045217461884
1789665876371996700,8.16899658203125,-2.1557715280912815,-0.19144553191959857,-3.735000767073035
1789665876381949700,8.17894970703125,0.43003260811194777,-1.017914475750923,-6.006106793436408
1789665876391901700,8.188901611328125,1.7034860255084932,-2.3048984058499333,-7.236978960213064
1789665876401854700,8.198854736328125,2.8435309432819484,-3.089033936342597,-8.085209069475532
1789665876411806500,8.208806396484375,5.530886405467987,-4.438012842583656,-8.959317716360092
1789665876421758700,8.2187587890625,7.19571463741064,-6.787243726634979,-9.198463741609453
1789665876431711700,8.228711669921875,5.052026199692487,-9.381068379947543,-7.166468669182062
1789665876441663700,8.238663818359376,0.6217991886794567,-8.650710032349824,-0.6880676043570041
1789665876451616800,8.24861669921875,-1.214143442554772,-1.866488868406415,3.094981154309213
1789665876461568500,8.258568603515625,1.690849977427721,3.114064332702756,-0.023734803591668605
1789665876471520800,8.268520751953124,5.8560115090370175,4.326007927125692,-3.26616628074944
1789665876481473800,8.278473876953125,7.5536068690717215,4.932319623816013,-4.3974329949140545
1789665876491425800,8.28842578125,7.0592124095559114,5.242286905741691,-4.719696279311179
1789665876501378600,8.298378662109375,6.662782649707794,5.411440526354313,-4.940666596400738
1789665876511330600,8.30833056640625,6.903664120447635,4.726939674568176,-4.579000399158895
1789665876521282600,8.318282470703124,7.548958751004934,3.444816628503799,-4.027506626588106
1789665876531235600,8.328235595703125,7.964857765954733,1.7489637282222508,-3.2681551164790985
1789665876541187800,8.338187744140624,7.529189051651954,-0.02922784804999828,-1.9074504088699817
1789665876551140600,8.348140625,6.852863323014974,-1.3814718935668469,-0.5362827594354749
1789665876561092600,8.358092529296876,5.7174260451674455,-2.2941677529990674,0.6226666191637515
1789665876571044600,8.368044677734375,4.6584711184978485,-2.766230553719401,1.641583842216432
1789665876580997600,8.37799755859375,4.3827007052063935,-2.5845021136939526,2.3797487719118595
1789665876590950000,8.387949951171874,4.405652541726828,-1.8195681272774933,2.697011179281771
1789665876600902700,8.397902587890625,3.7744273530542847,-0.34561259580254555,2.6399408000603315
1789665876610854700,8.407854736328124,0.9595090485334395,1.0932938341230154,3.0878166695073244
1789665876620806700,8.417806640625,-2.1102444332778454,1.2653373309582472,1.3985580529242754
1789665876630759700,8.427759765625,-3.4139556262940167,0.8652589854747057,0.27751579565405843
1789665876640711400,8.43771142578125,-4.778456511315703,0.6650847881764174,0.2041217658802867
1789665876650664400,8.44766455078125,-4.797599018681049,0.05696048910617828,0.6569485357329249
1789665876660616700,8.45761669921875,-3.3142753548800945,-0.15875906784832478,1.4752090386673806
1789665876670568700,8.467568603515625,-1.6766507716834544,0.3820306476175785,1.9713646626368164
1789665876680521700,8.477521728515624,-0.26980712097287174,1.1493202572494745,2.259040033255517
1789665876690473500,8.487473388671875,1.0579080479651688,1.690723136177659,2.2908023682191967
1789665876700426500,8.497426513671876,1.9375012637406586,1.9015940840572119,2.1569217210397125
1789665876710378800,8.507378662109375,1.6708369708381592,1.7932459375411272,1.7990601767778396
1789665876720330800,8.517330810546875,-0.0011428864248096942,1.7606921599388121,0.9897060338765382
1789665876730283800,8.52728369140625,-1.63318572396636,1.5438514899998903,0.0152191964417696
1789665876740235500,8.537235595703125,-2.520747726663947,1.1202391241937875,-0.6284323430836201
1789665876750188500,8.5471884765625,-2.24328453797996,0.6305763693749904,-0.6932137350738048
1789665876760140500,8.557140625,-1.119522646487504,0.22583821538686752,-0.20098229881078003
1789665876770092800,8.5670927734375,-0.018149404674768447,-0.13974047912359236,0.828030786320567
1789665876780045800,8.5770458984375,0.3045221682623029,-0.2907014404416084,1.4119927040368319
1789665876789997600,8.58699755859375,-1.1184798594363032,-0.39021921477019783,1.1382643179669976
1789665876799950600,8.59695068359375,-4.207384470310807,-0.1323620593100786,0.20596213304996489
1789665876809902600,8.606902587890625,-6.937836439162492,0.45055999396443364,-0.46189475018829107
1789665876819854800,8.616854736328126,-6.168921274155378,0.6359452029317617,0.4620733216255903
1789665876829807900,8.626807861328125,-2.9806860820874572,0.27059096482694145,2.807759080415964
1789665876839759600,8.636759521484375,-0.34835488024801015,-0.18593407502174375,5.234383000749349
1789665876849712600,8.646712646484374,0.8241784948065877,-0.22975685013532637,7.355311325126886
1789665876859664600,8.65666455078125,0.7999789963126183,0.4319868109196424,8.433195408672093
1789665876869616600,8.66661669921875,0.12157353879213333,1.88451376991868,8.923153931567072
1789665876879569700,8.676569580078125,-0.8321914131313561,3.264355431935191,8.819756100934743
1789665876889521700,8.686521728515626,-1.1287272588148713,3.2108114732742306,7.929705204030871
1789665876899474700,8.696474609375,-0.4569555402204394,1.846743718972802,6.996030853977799
1789665876909426700,8.7064267578125,0.19027415005266665,0.45005555157363414,6.226333014160394
1789665876919378700,8.716378662109374,0.019378069686889647,-0.8007961579144001,5.186700043076277
1789665876929331500,8.72633154296875,-1.1036670518383382,-2.123547566965222,3.7853614195227623
1789665876939283700,8.73628369140625,-2.6513784321367737,-3.644975043711066,2.6988419018402694
1789665876949236700,8.74623681640625,-4.0017943854436275,-4.939653035444021,2.116789324876666
1789665876959188700,8.756188720703125,-4.467485897566378,-5.461891779696941,2.4149812672041353
1789665876969140700,8.766140625,-4.378031836612522,-4.886436993563175,4.300037911827862
1789665876979093500,8.776093505859375,-3.7774490389630198,-3.6982425235182044,6.713976830372214
1789665876989045500,8.78604541015625,-2.720879838386178,-2.6010762318760157,7.6685589438974855
1789665876998998500,8.79599853515625,-2.3911821662046013,-1.4526000242352486,6.780202575951814
1789665877008950800,8.80595068359375,-2.8437667978644368,-0.4990221193164587,4.998166014689207
1789665877018902300,8.81590234375,-3.877538183438778,-0.03970832553207874,3.197248811867833
1789665877028855300,8.825855224609375,-4.653978483253717,-0.12256079626381397,1.7434329821020365
1789665877038807300,8.835807373046874,-3.7926626824468372,-0.6911065336614847,0.8362567628741264
1789665877048760000,8.845760009765625,-1.99522046225965,-1.740261366328597,0.7360211956650018
1789665877058712300,8.85571240234375,-0.22127602203786373,-3.006013123306632,1.3241551383689045
1789665877068664300,8.865664306640625,2.0097744727909563,-4.28289242349863,1.70316059294641
1789665877078617300,8.875617431640626,4.5172202348113055,-4.930329326781631,1.8218074306368828
1789665877088569000,8.885569091796874,5.9089387971043585,-5.735634486553073,1.0747609830886125
1789665877098522000,8.895522216796875,6.674969931107759,-7.071269342574476,-0.6589499386832117
1789665877108474400,8.905474365234374,5.857828203070163,-8.976223842975497,-3.0972032142728567
1789665877118426400,8.91542626953125,0.6130500650346279,-11.168045904743671,-6.094249771791696
1789665877128379400,8.92537939453125,-4.016763114255666,-9.871334361356496,-6.572537146115303
1789665877138331100,8.9353310546875,-2.3327204787552356,-5.981610065561533,-3.9080516873851416
1789665877148284200,8.9452841796875,0.8089991919837891,-3.476428741341829,-2.233521268856525
1789665877158236200,8.955236083984374,3.783572782540321,-2.206390100824833,-0.4987541160300374
1789665877168188400,8.9651884765625,10.379991154980658,0.6675228289783001,1.003412487667799
1789665877178141400,8.975141357421874,1.2661331575110555,2.5973943284928795,1.0925777948081492
1789665877188093200,8.98509326171875,4.3888615659236905,2.1164801127970216,0.8323796291798353
1789665877198046200,8.995046142578126,3.4537995609045025,2.073649855852127,0.07556056015789508
1789665877207998200,9.004998291015625,5.520680653274059,1.9332003516763447,-0.0006587561696767807
1789665877217951200,9.014951171875,4.102399955008924,1.8043571141421795,-0.2597492528170347
1789665877227903500,9.024903564453124,2.3113168945901092,2.4576649552851912,0.07960194450318812
1789665877237855200,9.034855224609375,2.189119817072153,2.4482652587771416,-0.12124153035879134
1789665877247808300,9.044808349609376,3.3097219293594358,2.357214868542552,-0.9170487939447164
1789665877257760300,9.05476025390625,4.752084344957769,2.2629320722579953,-2.1157646580040455
1789665877267713300,9.06471337890625,5.741545756423473,2.423291561040282,-3.3084581930339336
1789665877277665300,9.074665283203124,6.232209797239303,2.8342934515982865,-4.272815850642323
1789665877287617300,9.0846171875,6.34120734757483,2.9979128189593554,-5.291743887349963
1789665877297570300,9.0945703125,6.34023762575984,3.1028929503470657,-6.228004162243009
1789665877307522300,9.104522216796875,6.247223826497793,3.407992333975434,-6.893969824907184
1789665877317475300,9.114475341796876,5.998415069890022,3.6714538853138685,-7.648063852879405
1789665877327427300,9.12442724609375,5.732828196960687,3.957051865136623,-8.17551360977888
1789665877337379300,9.13437939453125,5.367055441182852,4.203735300153494,-8.375764963966608
1789665877347332400,9.144332275390624,5.133342546898127,4.4528626211911435,-8.345494913387299
1789665877357284400,9.154284423828125,4.773066927231848,4.8173716406434774,-7.932194682759046
1789665877367237400,9.1642373046875,4.198758096262813,5.13755051998198,-7.3789119809448716
1789665877377189400,9.174189453125,4.195884878914058,5.149702730068564,-7.0648752576231955
1789665877387141000,9.18414111328125,4.102749499098956,4.95985177386403,-6.6971788403064005
1789665877397094100,9.19409423828125,3.125243313843012,4.4579269188433885,-5.847920557039976
1789665877407046400,9.20404638671875,0.4645075630351901,3.102722854477167,-4.702930145688355
1789665877416999400,9.21399951171875,-5.2873418529987335,0.47186990849673743,-3.298027692173421
1789665877426951200,9.223951171875,-16.37439991183877,-4.7225294569104905,1.775491085141897
1789665877436903200,9.233903076171876,-26.19760474079847,-12.17123510504961,17.31119093260765
1789665877446856200,9.243856201171875,-14.942945551484822,-17.644775236964225,26.931193740880488
1789665877456808400,9.253808349609375,-6.348827759450674,-18.522743481886387,26.352058804929253
1789665877466761500,9.263761474609375,-5.7977931288242335,-12.192413502156734,18.75612436773777
1789665877476713200,9.273713134765625,-6.6409367286026475,-3.810203599834442,6.380412984281778
1789665877486665200,9.283665283203124,-4.129504527294635,-0.4643219773352146,0.5181427071109413
1789665877496618200,9.2936181640625,-1.304625969773531,1.0706728369921445,-2.877008557730913
1789665877506570200,9.3035703125,1.530754108017683,1.226562486883998,-5.786585506111383
1789665877516523300,9.313523193359375,3.874184196835756,0.025374679753184318,-7.37636112741828
1789665877526475300,9.323475341796875,3.7127708150863645,-0.9907330388367176,-8.71634657986462
1789665877536427300,9.33342724609375,2.8450410555839536,-2.0620599558234214,-10.303089117085934
1789665877546380300,9.34338037109375,2.3655413828611374,-4.671423539051413,-11.720644715946912
1789665877556332300,9.353332275390626,0.29339944735392925,-8.707932971784471,-11.713815162187814
1789665877566285300,9.363285400390625,-2.915812627899647,-12.60354281848669,-6.7780667329668995
1789665877576237300,9.3732373046875,-2.2946514448627826,-10.650793132209778,2.069158389651775
1789665877586189300,9.383189208984374,1.8399382767416537,-2.630277191919088,3.614659984946251
1789665877596142300,9.393142333984375,5.952755726999044,2.518744570147991,-0.3413029159098863
1789665877606094300,9.40309423828125,8.642489316493272,4.382496707066894,-2.594846105314791
1789665877616047400,9.41304736328125,8.824469685453176,5.478477588316798,-3.427371280445158
1789665877625999000,9.4229990234375,7.7631006833791725,6.0202884635239835,-3.8229306871995328
1789665877635952000,9.4329521484375,6.97350045773983,6.293669351330399,-3.79617244413346
1789665877645904400,9.442904296875,7.175705284082889,5.575779440161585,-3.2227240293860433
1789665877655856400,9.4528564453125,8.072650616675615,4.146171584457159,-2.2444483210623263
1789665877665809400,9.462809326171875,7.876167090588807,2.293482108822465,-1.1857476614147424
1789665877675761200,9.47276123046875,7.200761399406194,0.2121487127304077,-0.036676410490274425
1789665877685713400,9.48271337890625,6.60064797283411,-1.8027561086863277,1.1698682474985718
1789665877695666400,9.49266650390625,5.938860472637415,-3.238350053063035,2.3261481146275997
1789665877705618400,9.502618408203125,5.284692799794674,-3.797646316078305,3.3805686127379535
1789665877715571200,9.5125712890625,5.1003240743935105,-3.6753134833514687,3.969457465462386
1789665877725523200,9.522523193359374,4.971425307279825,-2.5880641900897023,3.8784427310630676
1789665877735475200,9.53247509765625,3.3495652794480324,-0.42059564833343027,3.4591707325488326
1789665877745428200,9.54242822265625,1.454697288775444,1.430420341131091,2.6265631398320197
1789665877755380500,9.55238037109375,-0.38216333408653735,1.3885095371186733,1.4968360563248395
1789665877765333200,9.562333251953126,-2.0368150399297473,0.901053352433443,1.0229194444313645
1789665877775285200,9.57228515625,-4.775855973428487,0.6915636297792196,0.19218407532721757
1789665877785238300,9.58223828125,-7.583350849950313,0.2609264799028635,-0.7480816358149052
1789665877795190300,9.592190185546874,-7.448832489389181,-0.19656711271703242,-0.7847913640528917
1789665877805142300,9.602142333984375,-4.370467246577143,-0.1939110452502966,0.22298691760897635
1789665877815095300,9.61209521484375,-1.2758026108711957,0.3277373318940401,1.2434160065293312
1789665877825047300,9.62204736328125,0.974096376812458,1.4066700477093457,1.60536920401901
1789665877834999300,9.631999267578125,2.391656067326665,1.7777941013872622,1.8352911815881727
1789665877844952300,9.641952392578125,3.0515549772977826,1.3439794905185698,1.937291420382261
1789665877854904000,9.651904052734375,2.4013543083898723,1.0526777460962533,1.835691871343553
1789665877864857000,9.661857177734374,0.706100689175725,1.189711304348707,1.3763567425101995
1789665877874809300,9.671809326171875,-1.272396601819992,1.4617460382431744,0.4892220253139734
1789665877884762400,9.681762451171876,-3.1687928249731656,1.4890829579800366,-0.4231728053450584
1789665877894714400,9.69171435546875,-3.666629826158285,1.163157643944025,-0.8321747542575001
1789665877904666000,9.701666015625,-2.411585341155529,0.593528787484765,-0.4914747726768255
1789665877914619100,9.711619140625,-0.4979574126943946,0.054985389640927314,0.2568868491232395
1789665877924571400,9.7215712890625,0.7141914950422942,-0.33959903460144997,0.8462494568392633
1789665877934524400,9.7315244140625,0.473612660510838,-0.30859833166003225,0.8245920440435409
1789665877944476400,9.741476318359375,-1.861248045143485,0.07346621822714805,-0.06059592299908399
1789665877954428200,9.75142822265625,-5.355847818470001,0.4693792607247829,-1.210564122763276
1789665877964381200,9.761381103515625,-6.29764117757082,0.45587972768247126,-0.9140281309492886
1789665877974333200,9.771333251953125,-3.5570670431554317,-0.18025252225399016,1.458393512944877
1789665877984286200,9.7812861328125,-0.563101208256185,-1.0635562829852103,4.974558344608545
1789665877994238500,9.791238525390625,0.6289283099070191,-1.1837328144609927,7.4608479213535785
1789665878004190200,9.801190185546876,0.10238982263356447,-0.5479167908668517,9.123618636244535
1789665878014143200,9.811143310546875,-1.4789026324883103,0.9475234271854162,10.0990068064332
1789665878024094700,9.8210947265625,-2.433540275593102,2.0175643960148095,9.827409879434109
1789665878034047700,9.8310478515625,-1.9134744914650916,2.077545694246888,8.71785756894946
1789665878043999700,9.840999755859375,-1.2093757897615431,1.5086679484158754,7.321451141101122
1789665878053951700,9.85095166015625,-1.1744734032064676,0.42387423161268234,5.960277354675531
1789665878063904800,9.86090478515625,-1.7022373406216502,-0.962777694940567,5.078576352965832
1789665878073856800,9.870856689453126,-2.488487379050255,-2.4479443562597036,4.708235558620095
1789665878083809800,9.880809814453125,-3.7356525089800354,-3.7338860838294026,4.466526989406347
1789665878093761800,9.89076171875,-5.048054957973957,-4.511052944353223,4.544411024075746
1789665878103713800,9.9007138671875,-5.555712219166756,-4.303748749044537,5.417798955470324
1789665878113666800,9.910666748046875,-5.110259777474403,-3.351856020733714,6.63673518525958
1789665878123618800,9.920618896484376,-4.283928196287155,-2.3131693905889987,7.006587319305539
1789665878133571800,9.93057177734375,-3.23405089456439,-1.3592945485502481,6.31142245016396
1789665878143523600,9.940523681640625,-1.886829499515146,-0.6153320384919643,5.62278844409585
1789665878153475800,9.950475830078124,-1.574646002844721,-0.015110475370287894,4.68744937570095
1789665878163428900,9.960428955078125,-1.8212981659404932,0.13546353245675563,3.39799437931329
1789665878173380900,9.970380859375,-1.569246774149686,-0.48082244575917715,2.3804615963563323
1789665878183332600,9.98033251953125,-0.6413848367024213,-1.7275217117428778,1.9776222617268562
1789665878193285600,9.99028564453125,0.336053288285993,-3.4219676678359505,2.1553134090602395
1789665878203238000,10.00023779296875,2.0293927809745074,-5.199017672857642,2.321580076059699
1789665878213191000,10.01019091796875,4.078822972327471,-6.178137430790066,2.112335852599144
1789665878223143000,10.020142822265624,5.49240616042614,-7.405523509016633,0.9393582409083843
1789665878233094700,10.0300947265625,6.656147157216072,-8.764709336495399,-0.6216156488060951
1789665878243047700,10.040047607421876,6.190163968670368,-10.524113210189341,-3.0451936255723235
1789665878252999700,10.049999755859375,1.3536848919749258,-11.616399913096426,-5.902454111260175
1789665878262952700,10.05995263671875,-2.070756472498178,-9.114095605617761,-6.730214263945817
1789665878272905000,10.069905029296875,-1.0511092546705156,-5.1028264126032585,-3.835287772208452
1789665878282856700,10.079856689453125,0.35942148705497384,-3.1287475225716825,-1.7002508429795502
1789665878292809700,10.089809814453124,2.6234698499917983,-1.5018857409298418,-0.24380934088528156
1789665878302761700,10.09976171875,3.924953430086374,-0.09469780682623385,0.6307277605444193
1789665878312714800,10.10971484375,4.304868108463287,0.799669784232974,1.2757166861534117
1789665878322667000,10.1196669921875,4.61766213824749,1.59310681155622,1.228663843077421
1789665878332618800,10.12961865234375,4.854313716332614,2.464431965202093,1.0012854125112294
1789665878342571800,10.13957177734375,5.273502712738513,2.922673745840788,0.5841933883845806
1789665878352523800,10.149523681640625,5.394582330533861,2.9917314999759195,-0.1787432867348194
1789665878362476800,10.159476806640624,5.024817874771356,2.7532383856773377,-1.2457961796641348
1789665878372428800,10.1694287109375,4.759754733455181,2.000847654491663,-2.504641225993633
1789665878382380800,10.179380859375,4.8667786456301805,1.621717989012599,-3.5014901173621413
1789665878392333800,10.189333740234375,5.157009838211536,1.612636856934428,-4.457341812431812
1789665878402285800,10.199285888671875,5.574275465339422,1.817797025951743,-5.246586064240336
1789665878412238800,10.20923876953125,5.906913428756594,2.179793185800314,-5.830310666069388
1789665878422190600,10.219190673828125,6.216182207024097,2.676033565443754,-6.230092074432969
1789665878432142800,10.229142822265626,6.351522405362129,3.3313001394391057,-6.547951570913195
1789665878442095900,10.239095947265625,6.338607978731393,3.810485339385271,-7.063732517328858
1789665878452048000,10.2490478515625,6.3141375543415545,4.179636047163606,-7.704128854450583
1789665878462001000,10.2590009765625,6.133996091246605,4.485099587929248,-8.317881514796614
1789665878471952600,10.26895263671875,5.737609001496434,4.641189728829264,-8.690240663227438
1789665878481904600,10.278904541015624,5.179859967923164,4.684416876137257,-8.932730738207697
1789665878491857700,10.288857666015625,4.471719297352433,4.655563706618548,-8.97120046185553
1789665878501810000,10.298809814453126,4.066432569570839,4.745837851783633,-8.65743437216878
1789665878511763000,10.308762939453125,3.991601200470328,4.900113052216172,-8.062409208646416
1789665878521714700,10.318714599609375,3.714590431728959,4.686746780389547,-7.172884965965151
1789665878531666700,10.328666748046874,2.6774612601593137,3.929561800664663,-6.027670390468836
1789665878541619700,10.33861962890625,0.16486366833373903,2.4083342304050923,-4.94939000108242
1789665878551572000,10.348572021484374,-5.996936229509115,-0.37972353971898554,-3.3339564991667863
1789665878561525000,10.35852490234375,-20.160840358769892,-6.360128905665874,3.8224782672569155
1789665878571476700,10.368476806640626,-24.802757817351818,-14.195963985866307,20.28854436314106
1789665878581428700,10.3784287109375,-10.88152379581332,-19.791969636976717,28.348343681550023
1789665878591381800,10.3883818359375,-5.942420210945606,-19.34275988857746,25.937709942030907
1789665878601333800,10.398333740234374,-6.447124467551708,-12.41769291461706,16.52591149277687
1789665878611285800,10.40828564453125,-8.01719468691349,-3.3232693931967017,5.352844545000791
1789665878621238800,10.41823876953125,-5.439862318718433,0.5250321743637323,0.4594283600747585
1789665878631190800,10.428190673828125,-1.3522854004405438,1.6772960838496684,-2.056023890529573
1789665878641143800,10.438143798828126,1.7404022361040115,1.7085960619986056,-4.51517060880512
1789665878651095800,10.448095703125,3.150675861263275,0.5506161129534244,-6.414813266533613
1789665878661048800,10.458048828125,2.8343898977100848,-0.6398404568046331,-8.067562938147782
1789665878671000800,10.468000732421874,1.5361328784465789,-1.712250492852926,-10.04738183313608
1789665878680952800,10.477952880859375,1.0311819536030291,-4.568881448465586,-11.932455575025081
1789665878690905900,10.48790576171875,-2.1551370295800267,-9.24639979726076,-11.405575726968049
1789665878700857900,10.49785791015625,-3.2558889246240255,-11.94702186051607,-4.13747799039185
1789665878710809600,10.5078095703125,2.031409089232981,-7.867861619058251,3.3415821717396375
1789665878720762600,10.5177626953125,6.31047143304944,-0.8823720328390597,2.7278406173095107
1789665878730715000,10.52771484375,7.35571347618699,3.042302580305934,0.06861322523802518
1789665878740668000,10.53766796875,8.131193991059064,4.811653262996673,-1.6996093302056192
1789665878750620000,10.547619873046875,7.818451399201154,5.3894069737225765,-2.785628789411485
1789665878760571600,10.557571533203125,6.980522903722524,6.045238780385255,-3.2093872856900094
1789665878770524700,10.567524658203125,6.426030241596698,6.239461960324645,-3.2807769899040458
1789665878780477000,10.577476806640625,6.687853962600231,5.246231259453296,-2.850689290603995
1789665878790430000,10.587429931640624,7.542764572539925,3.3665345344275233,-2.2680177049592136
1789665878800382000,10.5973818359375,7.58154818444252,1.09335988509655,-1.4267390222698448
1789665878810334700,10.607334716796874,7.054524544000625,-1.289191084754467,-0.4409402249649167
1789665878820286700,10.61728662109375,6.504370203340053,-3.267294992518425,0.5223690926343202
1789665878830238700,10.62723876953125,5.875416466730833,-4.357609518569707,1.3896762428104876
1789665878840191700,10.637191650390625,5.169820219945907,-4.400765938729047,1.9057953351393342
1789665878850143700,10.647143798828125,4.8958641626000405,-3.2867046263873574,2.142970937098563
1789665878860095700,10.657095703125,4.233756344407797,-1.3711504060387611,1.7746555111005902
1789665878870048800,10.667048828125,3.314938202702999,0.37218612995147704,1.4776169765919447
1789665878880000800,10.677000732421876,2.1026643534123894,1.5419360117673873,1.090885019415617
1789665878889953800,10.686953857421875,0.1606482425957918,1.2143319508641957,0.6755038908600807
1789665878899905800,10.69690576171875,-1.593625282472372,0.8080120806425809,0.25877280900031324
1789665878909857800,10.70685791015625,-3.9760312908947464,0.5144429758101702,-0.5374430353865027
1789665878919810800,10.716810791015625,-6.587732961681485,0.18481413108110425,-1.3885352560818194
1789665878929762800,10.7267626953125,-6.673314565116167,-0.18643091862797737,-1.3253282738015055
1789665878939715800,10.7367158203125,-4.022565663054586,-0.25799627166986466,-0.4188265928342938
1789665878949667600,10.74666748046875,-1.235558863288164,0.23862054007053374,0.4947907653570175
1789665878959619800,10.756619873046875,0.5678834740966558,0.9876537775218486,1.2420531937435269
1789665878969572900,10.76657275390625,1.6214479398995636,1.4554717802792787,1.744741142091155
1789665878979524900,10.77652490234375,1.6710117428831754,1.29170277531445,1.9971736421540378
1789665878989478000,10.786477783203125,1.0583614908210932,1.3317641520678996,2.1491329668596384
1789665878999429600,10.7964296875,0.17206337057948112,1.6509861690729855,2.1919833898097276
1789665879009382000,10.8063818359375,-0.782723471737653,1.952204327353835,2.092341112318635
1789665879019335200,10.816335205078126,-1.6506116366721688,1.8869921427309513,2.266777934031188
1789665879029287400,10.826287353515625,-2.0320456335708497,1.6136691225916147,2.25577138684839
1789665879039240400,10.836240478515625,-1.7511119922973215,0.9221890794426202,1.891664518456161
1789665879049192200,10.846192138671874,-1.15845297338441,0.06728723733127116,1.4243094570353627
1789665879059144200,10.856144287109375,-0.854095348034054,-0.496751836296916,1.0365174694120884
1789665879069097200,10.86609716796875,-1.3397165723770856,-0.8216285180628299,0.6375944314435124
1789665879079049500,10.876049560546875,-2.825179294033348,-0.587062806341052,-0.141427117036283
1789665879089002500,10.88600244140625,-4.633684760026633,-0.1890560064345598,-0.8987468290567397
1789665879098954200,10.895954345703124,-4.8854234326064585,-0.16867665075063704,-0.7514176483698188
1789665879108906200,10.90590625,-3.271229993879795,-0.5726864904642105,0.6638289428964257
1789665879118859300,10.915859375,-1.1432871145650745,-0.9791098210602999,2.9208149662315845
1789665879128811300,10.925811279296875,0.29652970820367336,-0.8623293617635965,5.301151767164469
1789665879138764300,10.935764404296876,0.8640034324556589,-0.23874738132059573,7.067760457670688
1789665879148716300,10.94571630859375,0.19296119717955587,0.9502332706660032,8.917427955135702
1789665879158668300,10.955668212890625,-0.9563251578003168,2.117614669784903,10.320019209098815
1789665879168621300,10.965621337890624,-1.9670622892677783,2.5650521478146313,9.917610959362984
1789665879178573300,10.9755732421875,-2.0618793385595082,2.3201854068309067,7.804603491112589
1789665879188526300,10.9855263671875,-1.5009627808660269,1.1409767917960882,5.965363864159584
1789665879198478300,10.995478271484375,-1.2495704375058412,-0.5595172122895717,4.933365917998552
1789665879208430300,11.005430419921876,-1.620567065411806,-2.424662264871597,4.292931586953998
1789665879218383400,11.01538330078125,-2.6802693033173677,-4.207514818692207,3.5337919660300012
1789665879228335400,11.02533544921875,-4.429671715217829,-5.274585247278213,2.9333196430176494
1789665879238288100,11.0352880859375,-5.832064231738448,-5.0569589799195525,3.363939841759205
1789665879248240000,11.045240234375,-5.807631801271438,-3.6149861481606957,5.277436545056104
1789665879258192400,11.0551923828125,-4.728996022576093,-2.401688216519356,6.919179669487476
1789665879268145400,11.0651455078125,-3.543018644058704,-1.5764695650100706,6.969447967478633
1789665879278097400,11.075097412109375,-2.8944541980504987,-0.6020902796030044,6.079104809629917
1789665879288050200,11.08505029296875,-2.729682153522968,0.20527999600470065,5.08935961278677
1789665879298002200,11.095002197265625,-2.7027725192874668,0.5532686732888221,3.9337610059201715
1789665879307954400,11.104954345703124,-2.451701662966609,0.49377545083463187,2.581712775236368
1789665879317907500,11.114907470703125,-1.9045792373478412,-0.2652782453715801,1.5127727533861994
1789665879327859200,11.124859130859376,-1.0942582952409983,-1.7637357654184103,1.1099398484975098
1789665879337812200,11.134812255859375,0.06164718561768531,-3.7344255975335834,1.3081120583236217
1789665879347764200,11.14476416015625,2.1512661794960497,-5.456342913398147,1.5309212812781332
1789665879357716200,11.15471630859375,5.3434325735330575,-6.5189312281340355,1.262402154289186
1789665879367669200,11.164669189453125,7.590596583294868,-7.562303970268368,0.037920273071527476
1789665879377621200,11.174621337890626,8.207437857306003,-8.707569399169087,-1.4554896081969142
1789665879387574300,11.18457421875,5.30458057256937,-8.978426321455835,-3.38843656963408
1789665879397526300,11.1945263671875,-1.1288590685009956,-7.025404832500219,-4.16159302547276
1789665879407478300,11.204478271484374,-4.586930315375327,-4.892435357195138,-3.451139401784539
1789665879417431300,11.214431396484375,-1.8997955102026463,-3.4531641856104134,-2.041890735758841
1789665879427383300,11.22438330078125,1.7017372821450232,-2.637306652164459,-0.6456453436911106
1789665879437335300,11.234335205078125,4.555507587629556,-1.6761650339931249,0.31493045729100705
1789665879447288300,11.244288330078126,5.49990206913948,-0.834535930430889,1.0709244736656547
1789665879457240300,11.254240234375,7.026174063307047,0.8103162659317255,2.5540327411502597
1789665879467193300,11.264193359375,7.110701773774624,2.808982484731078,2.795399365058541
1789665879477145000,11.27414501953125,1.2368307829201222,1.8842168327987192,0.27200726136565206
1789665879487097300,11.284097412109375,3.141609634493291,1.7265058126986026,0.05697510215342044
1789665879497050400,11.29405029296875,3.5325104017868636,1.0395862093329429,-1.509843421936035
1789665879507002400,11.30400244140625,3.8338343585297463,0.3883049055814743,-2.413556348967552
1789665879516955400,11.313955322265626,4.060340097914636,0.32192718431055545,-2.999699702376127
1789665879526907100,11.3239072265625,4.433808084370195,0.496997920012474,-3.617016777205467
1789665879536859400,11.333859375,4.647478599840403,1.2584908260643481,-3.9276808092236517
1789665879546812400,11.3438125,5.217220269024372,2.0603537364274263,-4.429882143098116
1789665879556764400,11.353764404296875,5.666682530879974,2.788135511535406,-5.052837516075372
1789665879566717400,11.363717529296874,5.967892505854368,3.313582111918926,-5.639594617468118
1789665879576669200,11.373669189453125,6.141645144695043,3.7943542887955903,-6.153217509067058
1789665879586621200,11.38362109375,6.124319915884733,4.220374300265312,-6.656607175943255
1789665879596574200,11.39357421875,5.94664571968615,4.413053173372149,-7.396656311950087
1789665879606526500,11.4035263671875,5.689084916824102,4.550303004723787,-8.07579183731079
1789665879616479500,11.4134794921875,5.292400305432081,4.653810725471377,-8.618148071441054
1789665879626431200,11.42343115234375,4.624226611329615,4.720309442773461,-8.992914281013608
1789665879636383200,11.43338330078125,4.073548539055883,4.785383680230379,-9.162909028625489
1789665879646336300,11.443336181640625,4.079098866659403,4.798853987178206,-9.090608931568264
1789665879656288500,11.45328857421875,3.977744232292473,4.504516820582747,-8.303019461229443
1789665879666241300,11.4632412109375,2.6753520129203796,3.9048499687343834,-6.7558876343846315
1789665879676193300,11.473193359375,0.4931790923766792,2.844024572017789,-5.0779029837489125
1789665879686145300,11.483145263671876,-3.6046076697483658,0.6386100382268428,-3.67022960421592
1789665879696098300,11.493098388671875,-13.762239391368627,-4.092944436660408,-0.18732582164108752
1789665879706050300,11.50305029296875,-26.267480825579163,-11.135181746017933,14.242385545301437
1789665879716002300,11.513002197265624,-12.918276291900872,-16.166048253303764,27.228144889366625
1789665879725955300,11.522955322265625,-4.016158718621731,-16.885018360924718,27.288738766539094
1789665879735907300,11.5329072265625,-4.479714972281456,-11.007857680875063,20.78844151172638
1789665879745860400,11.5428603515625,-6.630503012871742,-2.6093343571335077,8.692896146172284
1789665879755812000,11.55281201171875,-5.994574761074781,1.0861913086414337,2.3908494271188974
1789665879765764400,11.562764404296875,-3.478703992797434,1.8529501723974942,-0.9794029587879777
1789665879775717400,11.57271728515625,-0.3937652168139815,1.4423872577786445,-3.79296517252475
1789665879785669400,11.58266943359375,2.3205064554788173,-0.24681670600771902,-6.061342358446121
1789665879795622400,11.592622314453125,3.5676772844970226,-2.8151977059841156,-8.101424291217327
1789665879805574100,11.60257421875,3.4644027879834174,-3.9493297464519737,-9.784465056198835
1789665879815526100,11.612526123046875,2.8982945068657395,-4.154923630711436,-10.739399636423586
1789665879825479200,11.622479248046876,2.4359024746797977,-6.202812437841295,-10.47909333424568
1789665879835431400,11.632431396484375,-0.4958696466349065,-10.404899970787763,-6.223531985265017
1789665879845383200,11.642383056640625,-3.7663586128890514,-12.070700847154855,2.5399805426612496
1789665879855336200,11.652336181640624,-2.4260066652178764,-6.269805076140165,6.6720005599081516
1789665879865288200,11.6622880859375,2.8707001052364705,1.2053723993390797,1.5016107233807443
1789665879875241200,11.6722412109375,7.820176907819509,4.017970736479759,-3.3218405294373627
1789665879885193500,11.682193359375,9.740554602801799,5.176169296711683,-4.58625460807085
1789665879895145200,11.692145263671875,8.976333148568868,5.955619299736619,-4.868327920898794
1789665879905098200,11.70209814453125,7.371563371747731,6.5854866440594195,-4.9445536669671535
1789665879915050200,11.71205029296875,6.419326944565773,6.880739756456017,-4.816581659309565
1789665879925003300,11.722003173828124,6.091922205626965,6.100217740285396,-4.381054983825981
1789665879934955300,11.731955322265625,6.274172623699903,4.365623898199201,-3.8429362411350008
1789665879944907300,11.7419072265625,6.804102506977319,2.3318927957594395,-2.937341445879638
1789665879954860300,11.7518603515625,6.833761147660017,0.19593699811995027,-1.4863976644188164
1789665879964812300,11.761812255859375,6.612237872862815,-1.9583482369363308,0.02180091291964054
1789665879974765300,11.771765380859375,6.307657544672489,-3.8348394439190625,1.4397534021437168
1789665879984717300,11.78171728515625,6.067741704094409,-5.144990314593911,3.0039222885072228
1789665879994669300,11.79166943359375,5.5644227643668644,-5.12981145016253,4.2043516784861685
1789665880004622300,11.801622314453125,4.75229623414278,-3.3372944114178416,4.87880021507442
1789665880014574300,11.81157421875,2.6522330031394956,-0.28256606478095053,5.294193618589639
1789665880024527400,11.82152734375,-0.6139221716940403,0.8833961151897907,3.179578130620718
1789665880034480400,11.83148046875,-3.930573023533821,0.7785574380993843,1.3475699162259698
1789665880044432100,11.84143212890625,-6.310937296995521,0.9429150566071272,0.6782856305330991
1789665880054385200,11.85138525390625,-7.201616554930806,0.8430483227103948,0.3952814665958285
1789665880064337200,11.861337158203124,-5.1708068928956985,0.6167360600709915,1.0737184882983564
1789665880074289400,11.871289306640625,-1.9446563961923122,0.6098281803786755,2.258124379715323
1789665880084242400,11.881242431640626,0.5372790769964456,0.9477841239482164,2.6662001536935565
1789665880094194200,11.891194091796875,2.4271447293370962,1.4526701668620108,2.481263565276563
1789665880104147200,11.901147216796875,4.012795964190364,1.6971154675632714,2.125060894137621
1789665880114099200,11.91109912109375,4.370913821300864,1.4654700272023677,1.2516840686589479
1789665880124051500,11.921051513671875,2.7064304572731257,1.6479647754251956,0.29799861171245573
1789665880134004500,11.93100439453125,-0.038491350957751275,1.5635288348942995,-0.742677146422863
1789665880143956200,11.940956298828125,-3.071277330377698,1.4953274053275585,-1.9842355423867701
1789665880153908200,11.950908203125,-4.719668222260474,0.925233269444108,-2.4703967188253997
1789665880163861200,11.960861328125,-3.6516622663900256,0.40127135466039177,-2.081945390510559
1789665880173813200,11.970813232421875,-1.2089521575219928,0.21901801397800444,-1.076315519054234
1789665880183766000,11.98076611328125,0.6075260409161448,0.029456396108865735,0.0074142217792570585
1789665880193718300,11.99071826171875,1.2224205647736788,-0.11800035648047923,0.6641155047528445
1789665880203670300,12.000670166015626,0.38789574025869367,-0.2589338447809219,0.9021990153372287
1789665880213623300,12.010623291015625,-2.1332728421658276,-0.2192120752453804,0.5867657230906188
1789665880223575300,12.0205751953125,-5.469010087269544,0.0795814862370491,0.3041463206872344
1789665880233528000,12.030528076171874,-6.789204797574877,-0.003913374051451683,1.3535871306888758
1789665880243480300,12.040480224609375,-4.878468791162968,-0.6931079366117715,3.3611505033016202
1789665880253432300,12.050432373046876,-1.9780708822771906,-1.656673567059636,5.354124647939205
1789665880263385300,12.06038525390625,-0.13372282626926899,-2.022854319116473,6.7258385330796235
1789665880273337000,12.070337158203126,0.006702127987146377,-1.345226860231161,7.496306188225746
1789665880283289000,12.0802890625,-1.278377429795265,-0.0018535189121961593,7.920165222269296
1789665880293242000,12.0902421875,-2.278969891606271,1.1823030739188194,7.99375185200572
1789665880303194400,12.1001943359375,-1.8558169600054621,1.6447259396344422,7.770472088930011
1789665880313147400,12.1101474609375,-0.8099439254879951,1.2580325609028338,7.2901955866158
1789665880323099100,12.12009912109375,0.022537118239700792,0.4018985466480255,6.733036335629224
1789665880333051100,12.130051025390625,-0.12295271819084883,-0.731408733433485,5.93929827953279
1789665880343004200,12.140004150390626,-1.110422955839336,-2.04869077116251,4.956152334824204
1789665880352956400,12.149956298828124,-2.2430717720121143,-3.402207320833206,4.162341213491559
1789665880362909400,12.159909423828125,-3.460402904692292,-4.413505593314767,3.7106717969805
1789665880372861200,12.169861083984374,-4.323940473201871,-4.647892441338301,4.12489031149745
1789665880382813200,12.179813232421875,-4.569316917273402,-4.00679818508029,5.955286706781387
1789665880392766200,12.18976611328125,-4.20807859005481,-3.178065387970209,7.721585600686073
1789665880402718200,12.19971826171875,-3.0893443174660202,-2.1481226207733153,8.170446974039077
1789665880412670200,12.209670166015625,-2.0020577609337864,-0.8913970508158207,7.160970656287669
1789665880422623200,12.219623291015624,-1.998863933328539,-0.053387891316413874,5.49427020073235
1789665880432575200,12.2295751953125,-2.9883477027565237,0.4360515761405229,3.434057626341283
1789665880442528300,12.2395283203125,-3.5692245139390226,0.20746844595968722,1.8268891178153455
1789665880452480300,12.249480224609375,-2.556701668098569,-0.5456272186249495,1.2881016820825635
1789665880462432300,12.259432373046875,-0.9191309339810162,-1.6683856321632862,1.2747417036414146
1789665880472385300,12.26938525390625,0.307270882448554,-3.3701585701435803,1.4497592478513717
1789665880482337300,12.279337158203125,1.7423814272224902,-5.035922037109732,1.6235408205255866
1789665880492289300,12.289289306640624,4.059270715117454,-6.319426892921328,1.668376572073996
1789665880502242300,12.2992421875,5.800105497419834,-6.988871045351028,0.8070897051006555
1789665880512194000,12.309194091796876,6.433411584019661,-7.5412074062258,-0.6350844944491982
1789665880522147000,12.31914697265625,5.52860443201065,-8.327551844939588,-2.886204840621352
1789665880532099300,12.329099365234375,2.066485955572128,-8.77699949374795,-5.665561417895555
1789665880542051300,12.33905126953125,-1.264013388878107,-7.169857142576575,-6.4905503523021935
1789665880552004400,12.34900439453125,-0.9294717837966978,-4.61829692901969,-4.906133043158054
1789665880561956000,12.3589560546875,1.819759265935421,-2.9575621038705107,-3.0906352340593934
1789665880571909000,12.3689091796875,3.4674364565908906,-1.8147575121253727,-1.2263769011840224
1789665880581861400,12.378861328125,4.709281268280744,-0.6817910083055496,0.10892185475081205
1789665880591813400,12.3888134765625,4.303710755121708,0.10593056398034095,1.22591512889117
1789665880601766400,12.398766357421875,3.9473663374245165,1.0123130024820566,2.3127087873399255
1789665880611718100,12.40871826171875,4.000459629708528,1.8083558283895254,2.668434488616884
1789665880621670100,12.418670166015625,4.200216770638526,2.5755413931250573,2.3092910878509283
1789665880631623200,12.428623046875,4.4267917758673425,3.064284695011377,1.516917598105967
1789665880641575400,12.438575439453125,4.219608576589822,3.2454110774904485,0.2358171730875969
1789665880651528200,12.448528076171876,4.01336178137958,2.935238043859601,-1.1773626949071883
1789665880661480200,12.458480224609374,4.08090240895003,2.2814941493868828,-2.2318255708545447
1789665880671432200,12.46843212890625,4.212800065618753,1.9507015215754508,-3.1052520806938406
1789665880681385200,12.47838525390625,4.424779267001152,1.882044749456644,-3.9516964755833146
1789665880691337500,12.48833740234375,4.761181259126961,1.9440239435076712,-4.817250060090422
1789665880701290200,12.498290283203126,5.084446121782064,2.0998037032842634,-5.682759805455803
1789665880711242200,12.5082421875,5.372212093293666,2.2888246384054423,-6.497779134511947
1789665880721194200,12.5181943359375,5.530118343704938,2.502081020116806,-7.234979310828447
1789665880731147300,12.528147216796874,5.737226139658689,2.7770991537362337,-7.880076372987031
1789665880741099000,12.53809912109375,5.80738630207777,3.2216175294488667,-8.300782495957613
1789665880751051300,12.54805126953125,5.4942544186413285,3.6197464944303035,-8.65012083428502
1789665880761004300,12.55800439453125,5.18333553507924,3.9205116482466456,-8.960024403324722
1789665880770956300,12.567956298828125,4.895981066977978,4.269588120767474,-9.046092913493514
1789665880780909300,12.577909423828125,4.2935958960816265,4.795315291658044,-8.950734596931934
1789665880790861000,12.587861083984375,3.862414264065027,5.186105584314465,-8.810703025907278
1789665880800813300,12.597813232421874,3.6595769850373268,5.096866627416015,-8.57747996096611
1789665880810766300,12.607766357421875,3.0668951697707176,4.676166349664331,-7.941525990206003
1789665880820718300,12.61771826171875,1.2145372641779482,3.877053030270338,-6.538254937285185
1789665880830671400,12.62767138671875,-2.5652199055969716,2.5040210482686756,-4.506699717579782
1789665880840623000,12.637623046875,-8.91403714365363,-0.1635118153333664,-1.4155056805938482
1789665880850575000,12.6475751953125,-20.199874730563163,-6.234684078398346,7.0011962739169595
1789665880860528000,12.657528076171875,-18.507652295738456,-13.530884458386897,21.723077984809873
1789665880870480400,12.66748046875,-7.608533222001791,-18.694619805461166,27.936639195680616
1789665880880432000,12.67743212890625,-5.196999318772554,-17.88453676376343,26.77363469647169
1789665880890385200,12.68738525390625,-7.16820703728199,-9.29371684423089,17.77727582796216
