time,seconds_elapsed,z,y,x
1789155064975880700,0.222880615234375,-2.99184513092041,-3.6766200065612793,1.1270549297332764
1789155064993010000,0.240010009765625,-1.467864990234375,-3.284381151199341,0.2100203037261963
1789155065010147300,0.257147216796875,0.07303047180175781,-2.430807590484619,-0.6184391975402832
1789155065027282000,0.274281982421875,2.213160514831543,-0.7555975914001465,-1.3430750370025635
1789155065044423700,0.291423583984375,3.744729995727539,-1.4723701477050781,-0.3223598003387451
1789155065061554200,0.30855419921875,4.853075981140137,-2.9669811725616455,2.872190475463867
1789155065078688300,0.325688232421875,7.171656608581543,-1.9084868431091309,3.5409438610076904
1789155065095826200,0.342826171875,7.211956024169922,-1.1410961151123047,5.6464433670043945
1789155065112956700,0.359956787109375,4.936279296875,-0.33954715728759766,5.979766845703125
1789155065130103000,0.37710302734375,2.38832950592041,-0.296450138092041,3.631697177886963
1789155065147232500,0.394232421875,1.1958637237548828,-1.965646743774414,1.6371362209320068
1789155065164370700,0.41137060546875,1.8288140296936035,-1.800041675567627,1.263737678527832
1789155065181506000,0.428506103515625,1.839383602142334,-3.1873364448547363,2.919513702392578
1789155065198640600,0.445640625,2.577423572540283,-2.436774253845215,4.9054059982299805
1789155065215755800,0.462755859375,2.228003978729248,-2.8411784172058105,5.780817985534668
1789155065232914700,0.479914794921875,2.469639301300049,-3.572516918182373,4.211233615875244
1789155065250049500,0.497049560546875,0.9530081748962402,-4.417433738708496,2.483596086502075
1789155065267156700,0.51415673828125,-0.4913511276245117,-4.637943267822266,2.3439886569976807
1789155065284330500,0.53133056640625,-1.205263614654541,-4.847062110900879,1.5494275093078613
1789155065301455000,0.548455078125,1.8479866981506348,-5.140526294708252,4.7381415367126465
1789155065318590200,0.565590087890625,4.929664611816406,-4.432001113891602,3.655081272125244
1789155065335724500,0.582724609375,4.737932205200195,-5.706272125244141,1.7257943153381348
1789155065352859400,0.599859375,3.573700428009033,-5.7894511222839355,1.0417348146438599
1789155065370010600,0.6170107421875,0.7356376647949219,-6.360095500946045,-0.05680346488952637
1789155065387109400,0.634109375,-1.6705985069274902,-6.776843547821045,0.023832082748413086
1789155065404254700,0.651254638671875,-1.1604728698730469,-7.907637596130371,-0.3675236701965332
1789155065421409300,0.6684091796875,-0.13273191452026367,-8.836052894592285,-0.5790753364562988
1789155065438538500,0.68553857421875,-0.28309011459350586,-9.57050609588623,-2.2069449424743652
1789155065455686100,0.70268603515625,-2.264890670776367,-9.37004280090332,-1.4223217964172363
1789155065472796200,0.719796142578125,-2.5060577392578125,-8.581101417541504,-2.6198275089263916
1789155065489968400,0.736968505859375,0.8713226318359375,-8.936413764953613,-0.24743032455444336
1789155065507066400,0.75406640625,4.084141731262207,-7.677389144897461,3.0831217765808105
1789155065524225000,0.77122509765625,5.941746234893799,-6.320206642150879,3.8520283699035645
1789155065541360000,0.788360107421875,5.249095916748047,-5.382747650146484,3.320801258087158
1789155065558497800,0.805497802734375,3.236685276031494,-3.021677017211914,0.5163488388061523
1789155065575608600,0.822608642578125,3.441840648651123,-0.885587751865387,1.3984956741333008
1789155065592747000,0.8397470703125,4.706514835357666,-0.23856377601623535,2.951314926147461
1789155065609908000,0.856907958984375,6.71406888961792,0.27871257066726685,3.678781509399414
1789155065627016400,0.874016357421875,5.652172565460205,0.7797626852989197,2.5954084396362305
1789155065644172300,0.89117236328125,5.423418998718262,1.6821496486663818,2.2017459869384766
1789155065661314300,0.908314208984375,1.4329125881195068,3.6188580989837646,4.739324569702148
1789155065678450000,0.925449951171875,-35.616973876953125,12.344804763793945,19.568742752075195
1789155065695582200,0.942582275390625,9.932841300964355,3.3253397941589355,-0.5564422607421875
1789155065712693200,0.959693359375,-0.02509021759033203,-2.7831597328186035,9.089900016784668
1789155065729859300,0.976859375,8.089082717895508,-0.43510115146636963,3.9278345108032227
1789155065746964500,0.993964599609375,6.595754623413086,-0.27725332975387573,-1.198430061340332
1789155065764133400,1.01113330078125,4.018277645111084,-1.8859995603561401,-1.0941238403320312
1789155065781262600,1.0282626953125,4.387394905090332,-2.027296781539917,-3.8483939170837402
1789155065798397400,1.0453974609375,7.300530433654785,-2.166247606277466,-1.4669151306152344
1789155065815536000,1.0625361328125,5.175075054168701,-1.6411051750183105,3.1400365829467773
1789155065832666600,1.07966650390625,1.3152766227722168,-0.19400042295455933,3.1200666427612305
1789155065849808600,1.09680859375,2.877030372619629,-2.6668646335601807,2.506549835205078
1789155065866918000,1.11391796875,3.695066213607788,-3.4719736576080322,-1.175704002380371
1789155065884085200,1.131085205078125,0.5485397577285767,-5.690023422241211,-4.2429656982421875
1789155065901213000,1.148212890625,0.06456160545349121,-7.118016242980957,-3.4374542236328125
1789155065918350300,1.165350341796875,3.078141450881958,-6.437251091003418,0.11977291107177734
1789155065935459300,1.182459228515625,0.16861820220947266,-8.09954833984375,-0.2012777328491211
1789155065952624000,1.1996240234375,-1.6913838386535645,-7.736607074737549,0.8829226493835449
1789155065969742000,1.2167421875,3.206312417984009,-5.319117546081543,0.30542850494384766
1789155065986873900,1.233873779296875,6.899611949920654,-4.8599042892456055,2.7027039527893066
1789155066004004000,1.251004150390625,3.012409210205078,-3.4331753253936768,1.8815221786499023
1789155066021146600,1.268146728515625,0.9466753005981445,-3.652066230773926,-1.4317588806152344
1789155066038283300,1.285283203125,1.2897443771362305,-4.064321517944336,-6.236020088195801
1789155066055435300,1.302435302734375,4.307735443115234,-2.569916248321533,-5.975222110748291
1789155066072553500,1.319553466796875,5.127911567687988,-3.197908401489258,-5.641665458679199
1789155066089695700,1.33669580078125,4.7948503494262695,-1.8892239332199097,-4.468743324279785
1789155066106830000,1.353830078125,5.053342819213867,0.08575963973999023,-3.1524658203125
1789155066123988500,1.370988525390625,4.332416534423828,2.2240211963653564,-1.5401253700256348
1789155066141117200,1.3881171875,0.4956393241882324,0.7843836545944214,0.14503192901611328
1789155066158229200,1.405229248046875,-3.6273627281188965,-0.9980415105819702,-1.650092601776123
1789155066175394300,1.422394287109375,0.9081730842590332,0.40424680709838867,0.8121356964111328
1789155066192525300,1.439525390625,2.150524377822876,-2.789865493774414,4.344428539276123
1789155066209661400,1.456661376953125,1.1724853515625,0.53661048412323,1.9405102729797363
1789155066226802200,1.47380224609375,-0.29470252990722656,-0.7792729139328003,1.0295467376708984
1789155066243927800,1.490927734375,-0.8222384452819824,0.5604315996170044,5.57673978805542
1789155066261052400,1.508052490234375,-3.694368839263916,-2.1776318550109863,4.521545886993408
1789155066278203600,1.52520361328125,-3.0066051483154297,-3.1288957595825195,-1.1712875366210938
1789155066295326500,1.542326416015625,2.9211113452911377,-4.2391815185546875,0.8243865966796875
1789155066312475400,1.559475341796875,4.300335884094238,-1.8340511322021484,0.9284439086914062
1789155066329617200,1.5766171875,4.03071403503418,-0.7203714847564697,-0.7035927772521973
1789155066346732500,1.593732666015625,0.2599172592163086,2.5759387016296387,-2.277336597442627
1789155066363888600,1.610888671875,-1.3691577911376953,3.473031759262085,-3.69789981842041
1789155066381021700,1.628021728515625,6.561697483062744,-1.1094207763671875,-3.9755258560180664
1789155066398156800,1.64515673828125,9.009492874145508,-4.982700347900391,-2.135190963745117
1789155066415291600,1.662291748046875,8.182337760925293,-7.4438934326171875,-2.0897679328918457
1789155066432432600,1.6794326171875,7.324506759643555,-8.959484100341797,-0.036473751068115234
1789155066449562000,1.69656201171875,7.042357921600342,-5.8039069175720215,3.219388484954834
1789155066475253000,1.7222529296875,4.224873065948486,-3.280000686645508,3.4403395652770996
1789155066492412000,1.739411865234375,4.915234088897705,-2.3864693641662598,1.913200855255127
1789155066509539000,1.7565390625,5.3353776931762695,1.2694458961486816,-0.292510986328125
1789155066526652700,1.773652587890625,5.733269691467285,3.0359983444213867,-1.1885616779327393
1789155066543799300,1.79079931640625,5.819547176361084,3.9947104454040527,-1.3783783912658691
1789155066560952300,1.807952392578125,3.600151300430298,3.0611724853515625,-1.3017324209213257
1789155066578061600,1.8250615234375,4.478251934051514,4.381375789642334,-1.2710599899291992
1789155066595220700,1.842220703125,3.4820475578308105,1.6186327934265137,-1.4664733409881592
1789155066612332800,1.859332763671875,0.8455811738967896,-2.9771947860717773,-3.410449266433716
1789155066629487600,1.876487548828125,0.8890697956085205,-2.6390275955200195,-0.6882172226905823
1789155066646625500,1.89362548828125,-0.06813704967498779,-3.811469078063965,2.8983848094940186
1789155066663750000,1.91075,-0.0752871036529541,-7.488515853881836,6.249587059020996
1789155066680880600,1.927880615234375,6.638711929321289,-8.298811912536621,0.6193953156471252
1789155066698033000,1.945032958984375,14.616338729858398,-8.462395668029785,-2.436192750930786
1789155066715171800,1.962171875,2.9251203536987305,-4.154396057128906,-0.6180881261825562
1789155066732307500,1.979307373046875,0.6471148729324341,-0.4014720916748047,0.531139612197876
1789155066749444000,1.996444091796875,1.3074684143066406,1.9715871810913086,-0.30173349380493164
1789155066766570200,2.0135703125,1.8997948169708252,1.7747759819030762,-0.3317940831184387
1789155066783727400,2.030727294921875,-1.9054659605026245,-0.629429817199707,0.8838562965393066
1789155066800823600,2.047823486328125,-7.681887626647949,-1.5000982284545898,1.6063807010650635
1789155066817964800,2.06496484375,-6.822937488555908,-1.321833610534668,1.174198865890503
1789155066835128800,2.08212890625,-0.12752008438110352,-1.7324714660644531,0.5521661639213562
1789155066852264000,2.099263916015625,3.890470504760742,-2.777261734008789,2.674168109893799
1789155066869393700,2.1163935546875,5.8854265213012695,-4.142221450805664,5.4937567710876465
1789155066886532900,2.133532958984375,1.4814434051513672,-4.918564796447754,6.776396751403809
1789155066903666700,2.150666748046875,-2.3886878490448,-4.380788803100586,6.441805839538574
1789155066920809200,2.167809326171875,-2.449319362640381,-3.355283737182617,4.977133750915527
1789155066937938400,2.1849384765625,-3.621675729751587,-3.9137983322143555,3.5327162742614746
1789155066955073800,2.20207373046875,-2.776691436767578,-4.210022926330566,4.178513050079346
1789155066972191700,2.219191650390625,-1.2765611410140991,-3.3839569091796875,4.393421173095703
1789155066989344500,2.236344482421875,-0.4614899158477783,-2.6306066513061523,1.82471764087677
1789155067006461700,2.253461669921875,0.7078509330749512,-3.3162460327148438,-2.0645079612731934
1789155067023625000,2.270625,2.2622880935668945,-5.054332733154297,-3.920475959777832
1789155067040738800,2.28773876953125,3.3968472480773926,-6.199777603149414,-5.058226108551025
1789155067057865700,2.30486572265625,5.194672107696533,-6.679386138916016,-5.999960899353027
1789155067075022300,2.322022216796875,5.405797958374023,-5.629014015197754,-5.830900192260742
1789155067092167700,2.339167724609375,3.9041056632995605,-2.8886423110961914,-5.109355926513672
1789155067109297000,2.356296875,3.307978391647339,-0.4604654312133789,-3.6081130504608154
1789155067126435800,2.373435791015625,3.4881715774536133,0.9574003219604492,-2.2700557708740234
1789155067143563300,2.390563232421875,4.614373207092285,1.503652572631836,-1.2828987836837769
1789155067160710400,2.40771044921875,5.6647515296936035,1.598076343536377,-1.5809907913208008
1789155067177840600,2.424840576171875,6.284777641296387,1.5909571647644043,-2.8410189151763916
1789155067194978000,2.44197802734375,6.495422840118408,1.453601360321045,-4.345592021942139
1789155067212113000,2.45911279296875,6.299561500549316,1.4976153373718262,-5.695593357086182
1789155067229227300,2.476227294921875,5.962123870849609,1.9320430755615234,-6.788507461547852
1789155067246385700,2.4933857421875,6.240253925323486,2.4362850189208984,-7.136349678039551
1789155067263514400,2.510514404296875,6.648311614990234,2.97943115234375,-7.087806701660156
1789155067280655600,2.527655517578125,6.084768772125244,3.7695255279541016,-6.942656517028809
1789155067297808100,2.54480810546875,5.132774353027344,4.804943084716797,-6.86100959777832
1789155067314929200,2.56192919921875,4.223430633544922,5.379056453704834,-6.5119805335998535
1789155067332061000,2.57906103515625,2.8375916481018066,4.775200843811035,-5.267278671264648
1789155067349201200,2.596201171875,-6.637609004974365,2.0819549560546875,-0.5344170331954956
1789155067366353000,2.613352783203125,-21.046438217163086,-5.101152420043945,8.387484550476074
1789155067383474400,2.630474365234375,-7.355208396911621,-14.015596389770508,11.535660743713379
1789155067400596000,2.647595947265625,1.2952415943145752,-14.513937950134277,6.142452239990234
1789155067417739500,2.664739501953125,-0.23587751388549805,-10.121261596679688,5.286177635192871
1789155067434853000,2.68185302734375,2.370917797088623,-0.4420051574707031,3.801931858062744
1789155067452023600,2.6990234375,3.0741024017333984,6.728756427764893,-0.3015580177307129
1789155067469157600,2.71615771484375,2.4204888343811035,3.739123821258545,-3.407937526702881
1789155067486282800,2.73328271484375,4.3106160163879395,-3.4184999465942383,-3.701521873474121
1789155067503424800,2.7504248046875,-1.1672930717468262,-11.60060977935791,-3.907102584838867
1789155067520559900,2.767559814453125,1.399897575378418,-10.980056762695312,-4.423040866851807
1789155067537695200,2.7846953125,9.11056900024414,-3.401134490966797,-5.26750373840332
1789155067554833400,2.80183349609375,5.986377239227295,0.7463631629943848,-5.301615238189697
1789155067571968300,2.81896826171875,4.095194339752197,3.1426949501037598,-4.0958380699157715
1789155067589102800,2.836102783203125,4.334357738494873,4.122099876403809,-3.183342933654785
1789155067606221300,2.85322119140625,4.886178493499756,2.1317434310913086,-3.551081895828247
1789155067623363000,2.870363037109375,4.876795768737793,0.08525562286376953,-3.4815897941589355
1789155067640501800,2.887501708984375,5.23671817779541,-1.0817060470581055,-3.111203193664551
1789155067657643800,2.904643798828125,4.614882469177246,-1.2271013259887695,-2.648494243621826
1789155067674811100,2.92181103515625,3.4663240909576416,-0.9607400894165039,-2.6165480613708496
1789155067691918600,2.938918701171875,2.6400880813598633,-0.32895755767822266,-2.0700490474700928
1789155067709055000,2.956054931640625,1.2717403173446655,0.3750791549682617,-1.1758301258087158
1789155067726192000,2.973192138671875,0.1221500039100647,0.9184598922729492,-0.8327490091323853
1789155067743328800,2.990328857421875,-0.3638410270214081,1.2159709930419922,-0.5188354849815369
1789155067760462300,3.00746240234375,-0.37716126441955566,1.1065540313720703,0.44245079159736633
1789155067777600800,3.024600830078125,-0.676188588142395,1.0499763488769531,0.895102858543396
1789155067794741800,3.04174169921875,-0.9450938701629639,0.757725715637207,0.8722847700119019
1789155067811871200,3.058871337890625,-1.2303177118301392,0.09352970123291016,1.0047321319580078
1789155067829006300,3.07600634765625,-0.9374638199806213,-0.22778892517089844,1.5158228874206543
1789155067846144500,3.09314453125,-0.24727509915828705,-0.5604534149169922,2.5841047763824463
1789155067863281200,3.11028125,-0.2598285675048828,-0.773524284362793,3.2040061950683594
1789155067880417500,3.12741748046875,-0.5706884860992432,-0.8686447143554688,3.75760555267334
1789155067897550000,3.144550048828125,-1.3469581604003906,-0.6678323745727539,4.534950256347656
1789155067914688300,3.161688232421875,-1.7558555603027344,-0.40739917755126953,4.443253517150879
1789155067931822800,3.17882275390625,-1.5317667722702026,0.3110666275024414,3.706925392150879
1789155067948958500,3.19595849609375,-0.9747130870819092,0.4676790237426758,3.9315667152404785
1789155067966096100,3.21309619140625,0.18859797716140747,0.08564186096191406,4.394158363342285
1789155067983231500,3.2302314453125,1.2395734786987305,-0.9279975891113281,5.13277006149292
1789155068000366300,3.247366455078125,2.522313117980957,-2.6013736724853516,6.101300239562988
1789155068017490000,3.264489990234375,3.688998222351074,-4.0116071701049805,6.978464603424072
1789155068034634800,3.281634765625,-0.8251047730445862,-3.5793333053588867,5.203106880187988
1789155068051773700,3.298773681640625,-5.093667030334473,-2.5646448135375977,3.6841206550598145
1789155068068910600,3.31591064453125,-6.295561790466309,-2.8036012649536133,2.129781723022461
1789155068086047200,3.333047119140625,-3.519322156906128,-3.9823408126831055,3.3885669708251953
1789155068103184100,3.35018408203125,-2.6991052627563477,-4.344220161437988,4.740076065063477
1789155068120317000,3.36731689453125,-2.931891679763794,-4.155460357666016,4.82103157043457
1789155068137430300,3.38443017578125,-2.5769991874694824,-3.568392753601074,3.490159273147583
1789155068154596400,3.401596435546875,-1.86824369430542,-3.020498275756836,0.9590405225753784
1789155068171723800,3.418723876953125,-0.44769859313964844,-3.5222244262695312,-0.7479023933410645
1789155068188855600,3.43585546875,1.06376314163208,-4.552908897399902,-2.0362730026245117
1789155068205998300,3.452998291015625,2.271602153778076,-5.578863143920898,-2.8065619468688965
1789155068223113000,3.470113037109375,3.7891287803649902,-6.5466766357421875,-3.764864921569824
1789155068240269000,3.48726904296875,3.126368999481201,-6.6119489669799805,-5.420170783996582
1789155068257383700,3.5043837890625,2.352851152420044,-5.338415145874023,-6.238133907318115
1789155068274542800,3.52154296875,2.457714080810547,-2.4756298065185547,-6.1590471267700195
1789155068291672000,3.538672119140625,1.3488949537277222,-0.08820438385009766,-6.234931945800781
1789155068308820700,3.55582080078125,2.690298318862915,1.840947151184082,-5.427483081817627
1789155068325950200,3.5729501953125,4.4568190574646,2.4705820083618164,-3.8503122329711914
1789155068343089700,3.590089599609375,5.206662178039551,2.7473831176757812,-3.36724853515625
1789155068360223000,3.607222900390625,6.068361282348633,2.528596878051758,-3.2325425148010254
1789155068377351400,3.624351318359375,6.043905258178711,2.401768684387207,-3.7367727756500244
1789155068394510000,3.641510009765625,5.366934299468994,2.6146960258483887,-5.166018486022949
1789155068411621400,3.658621337890625,5.054350852966309,3.1756210327148438,-6.30130672454834
1789155068428747300,3.675747314453125,5.507693290710449,3.8824820518493652,-6.690940856933594
1789155068445903000,3.692903076171875,5.829318046569824,4.723553657531738,-6.6587677001953125
1789155068463038700,3.710038818359375,5.27018928527832,5.972212791442871,-6.4361467361450195
1789155068480173600,3.727173583984375,4.695988655090332,6.883027076721191,-5.628929138183594
1789155068497308700,3.74430859375,2.9333078861236572,6.3100690841674805,-4.183072090148926
1789155068514447400,3.761447265625,-7.355563163757324,2.5311012268066406,0.35910606384277344
1789155068531585000,3.7785849609375,-28.155746459960938,-6.124747276306152,9.75809383392334
1789155068548717600,3.795717529296875,-4.824993133544922,-15.591653823852539,11.64965534210205
1789155068565853400,3.812853515625,0.7721056938171387,-15.584305763244629,5.834040641784668
1789155068582989300,3.8299892578125,-1.4320969581604004,-9.685218811035156,5.060331344604492
1789155068600140300,3.847140380859375,-0.657952070236206,1.4172792434692383,3.356154203414917
1789155068617254000,3.86425390625,2.572047472000122,8.151755332946777,0.12780117988586426
1789155068634406100,3.88140625,7.335544586181641,5.025351524353027,-1.7056857347488403
1789155068651536100,3.8985361328125,7.153598308563232,-0.137115478515625,-2.591214418411255
1789155068668671500,3.91567138671875,-4.967918872833252,-9.199769973754883,-1.634212613105774
1789155068685801200,3.93280126953125,-1.6350071430206299,-11.024868965148926,-4.73231315612793
1789155068702948900,3.949948974609375,6.759736061096191,-4.386142730712891,-6.204510688781738
1789155068720078600,3.96707861328125,1.5364525318145752,-0.3744688034057617,-7.016192436218262
1789155068737213400,3.98421337890625,1.8157744407653809,3.1700968742370605,-4.639985084533691
1789155068754351900,4.001351806640625,3.105159282684326,4.67159366607666,-3.5347046852111816
1789155068771463200,4.018463134765625,4.167720794677734,2.701493740081787,-3.7179250717163086
1789155068788622800,4.035622802734375,4.7450056076049805,0.41770362854003906,-3.9870352745056152
1789155068805758000,4.052758056640625,4.2460432052612305,-0.6549158096313477,-3.4920778274536133
1789155068822894600,4.06989453125,3.5750303268432617,-0.9970788955688477,-3.0407090187072754
1789155068840030200,4.0870302734375,3.0314526557922363,-0.8085613250732422,-2.9719715118408203
1789155068857149000,4.10414892578125,2.4550819396972656,0.03295612335205078,-2.574510097503662
1789155068874303700,4.1213037109375,2.7886252403259277,1.4889822006225586,-2.2816784381866455
1789155068891439400,4.138439453125,1.4786951541900635,1.8039031028747559,-1.741678237915039
1789155068908573700,4.15557373046875,0.2452220618724823,1.377634048461914,-1.749314546585083
1789155068925711000,4.172711181640625,-0.13313698768615723,1.0668506622314453,-0.9537618160247803
1789155068942839600,4.189839599609375,-0.18650709092617035,0.48392677307128906,-0.04791054129600525
1789155068959982800,4.20698291015625,-0.1061270534992218,0.11321067810058594,0.7868845462799072
1789155068977123300,4.224123291015625,0.01576852798461914,-0.38309764862060547,1.3834894895553589
1789155068994254800,4.2412548828125,0.012299954891204834,-1.1390151977539062,1.7236655950546265
1789155069011390000,4.258389892578125,-0.6015337705612183,-1.4367046356201172,2.50290584564209
1789155069028520400,4.2755205078125,-1.3719555139541626,-1.223170280456543,3.159306049346924
1789155069045661700,4.29266162109375,-2.376725673675537,-1.1796188354492188,3.704505205154419
1789155069062789000,4.3097890625,-3.8545260429382324,-1.2300119400024414,4.3165788650512695
1789155069079934000,4.326933837890625,-6.585914611816406,-0.3669595718383789,5.584935188293457
1789155069097082000,4.34408203125,-2.014059066772461,0.08565235137939453,4.39241361618042
1789155069114207200,4.361207275390625,-0.23053765296936035,0.06639480590820312,4.3695173263549805
1789155069131336400,4.37833642578125,2.1514132022857666,-1.2654657363891602,6.120466709136963
1789155069148461000,4.3954609375,3.525510549545288,-3.523649215698242,8.01196575164795
1789155069165613800,4.41261376953125,1.3314578533172607,-5.113874435424805,8.483060836791992
1789155069182744600,4.42974462890625,-2.9904866218566895,-3.735764503479004,5.587159633636475
1789155069199891200,4.44689111328125,-7.027019500732422,-3.1863956451416016,3.4378018379211426
1789155069216998000,4.463997802734375,-6.545005798339844,-3.4663257598876953,2.066082715988159
1789155069234133800,4.4811337890625,-3.3399085998535156,-4.344697952270508,3.0910682678222656
1789155069251271400,4.498271484375,-2.2072818279266357,-4.176358222961426,3.1263604164123535
1789155069268406300,4.51540625,-1.4683358669281006,-2.914370536804199,1.8303561210632324
1789155069285565400,4.5325654296875,-0.8730185031890869,-2.52683162689209,0.49624091386795044
1789155069302695000,4.54969482421875,0.18111354112625122,-3.4415531158447266,-0.8710941076278687
1789155069319842600,4.566842529296875,0.3543066382408142,-4.653453826904297,-2.676307201385498
1789155069336949800,4.58394970703125,1.0094139575958252,-5.868341445922852,-3.937746286392212
1789155069354108700,4.601108642578125,2.0512773990631104,-6.647945404052734,-5.026577472686768
1789155069371223000,4.61822314453125,1.5539871454238892,-6.270129203796387,-6.84607458114624
1789155069388381000,4.635380859375,0.6113044023513794,-4.947179794311523,-7.300759315490723
1789155069405517300,4.652517333984375,1.0010569095611572,-2.648606300354004,-6.909391403198242
1789155069422647800,4.669647705078125,2.038825035095215,-0.0753488540649414,-5.85761022567749
1789155069439772200,4.686772216796875,3.2375221252441406,1.8911628723144531,-5.076639175415039
1789155069456901400,4.7039013671875,4.551819801330566,2.6869072914123535,-3.9859650135040283
1789155069474062000,4.72106201171875,5.0638861656188965,2.8628106117248535,-3.3485448360443115
1789155069491195400,4.7381953125,4.867441654205322,2.7718114852905273,-3.3785009384155273
1789155069508332500,4.75533251953125,4.809152603149414,2.5000181198120117,-4.103054046630859
1789155069525469200,4.77246923828125,4.530123233795166,2.4590864181518555,-5.468095302581787
1789155069542601700,4.789601806640625,4.531679153442383,2.809511661529541,-6.940614700317383
1789155069559745300,4.806745361328125,5.398975372314453,3.4268221855163574,-7.460342884063721
1789155069576853200,4.823853271484375,5.679640769958496,4.222179889678955,-7.275135040283203
1789155069594013200,4.84101318359375,4.6303839683532715,5.53479528427124,-7.099912643432617
1789155069611148800,4.858148681640625,4.161988735198975,6.785109519958496,-6.265307426452637
1789155069628284700,4.87528466796875,3.463421583175659,6.647830963134766,-4.817872524261475
1789155069645418000,4.89241796875,-4.3652262687683105,3.9027786254882812,-1.6274187564849854
1789155069662531600,4.909531494140625,-27.236618041992188,-3.6120376586914062,7.255202293395996
1789155069679695600,4.926695556640625,-8.903284072875977,-14.562467575073242,12.409682273864746
1789155069696829400,4.943829345703125,1.5533238649368286,-16.293617248535156,7.041324615478516
1789155069713965600,4.960965576171875,-1.2910957336425781,-10.868639945983887,4.708429336547852
1789155069731096300,4.978096435546875,-0.5033965110778809,-1.0127010345458984,3.0719101428985596
1789155069748218000,4.995218017578125,-1.1076006889343262,5.053343772888184,0.14131546020507812
1789155069765360000,5.012360107421875,2.0020456314086914,1.6765480041503906,-2.0260467529296875
1789155069782508800,5.0295087890625,4.336901664733887,-4.2251787185668945,-3.6101555824279785
1789155069799644400,5.04664453125,-1.8290472030639648,-8.472855567932129,-5.921680927276611
1789155069816757200,5.06375732421875,3.9839391708374023,-2.6411361694335938,-7.117053508758545
1789155069833916000,5.080916015625,6.352179050445557,1.3406586647033691,-5.944584846496582
1789155069851029500,5.098029541015625,4.48961067199707,2.8267722129821777,-5.025795936584473
1789155069868164000,5.1151640625,4.183755397796631,2.8118348121643066,-4.466738700866699
1789155069885329400,5.132329345703125,4.055835723876953,0.19332122802734375,-4.965424537658691
1789155069902460400,5.14946044921875,4.1565656661987305,-1.8752212524414062,-4.775141716003418
1789155069919595800,5.166595703125,3.3492202758789062,-1.6355953216552734,-3.1652016639709473
1789155069936742000,5.183741943359375,2.4368691444396973,-0.25603294372558594,-2.1844229698181152
1789155069953867500,5.200867431640625,2.254359483718872,0.8850793838500977,-2.1301493644714355
1789155069970981000,5.217981201171875,2.085297107696533,1.4455738067626953,-1.552796721458435
1789155069988139500,5.235139404296875,2.3077661991119385,1.754110336303711,-1.5888012647628784
1789155070005246700,5.252246826171875,0.5884189009666443,0.9084005355834961,-1.4541997909545898
1789155070022391000,5.26939111328125,-0.4570169150829315,0.42598724365234375,-1.3050845861434937
1789155070039552800,5.286552734375,-0.108564093708992,0.07620716094970703,-0.5160431861877441
1789155070056680200,5.30368017578125,0.18116143345832825,0.0901937484741211,0.36352822184562683
1789155070073823700,5.32082373046875,-0.6875596046447754,0.3109455108642578,0.45430123805999756
1789155070090954500,5.33795458984375,0.4993831515312195,0.6492853164672852,1.244471788406372
1789155070108092700,5.3550927734375,0.707467257976532,0.7654647827148438,2.0972821712493896
1789155070125228300,5.372228271484375,-0.06447839736938477,0.20924949645996094,2.204040765762329
1789155070142364700,5.38936474609375,-1.8262369632720947,0.0014591217041015625,1.7501170635223389
1789155070159491800,5.406491943359375,-5.992081642150879,0.00018024444580078125,2.73093843460083
1789155070176636200,5.42363623046875,-4.092280387878418,-0.27034664154052734,1.9647166728973389
1789155070193772000,5.44077197265625,-1.5330969095230103,-0.04128074645996094,0.2143326997756958
1789155070210907100,5.4579072265625,-0.520757794380188,0.17054176330566406,0.5861115455627441
1789155070228044800,5.475044921875,0.6025635004043579,-0.4297904968261719,2.8603734970092773
1789155070245180000,5.492179931640625,1.4228088855743408,-0.9453125,4.271803855895996
1789155070262294800,5.509294677734375,0.3606696128845215,-2.321152687072754,5.604001998901367
1789155070279451400,5.526451416015625,-0.6713131666183472,-4.269815444946289,8.45701789855957
1789155070296589000,5.543589111328125,-0.5616559982299805,-5.846582412719727,10.304859161376953
1789155070313724000,5.560723876953125,-4.856988430023193,-4.029108047485352,8.546607971191406
1789155070330859000,5.57785888671875,-3.8695390224456787,-3.857193946838379,6.28770637512207
1789155070347972000,5.59497216796875,-2.0526416301727295,-4.7768754959106445,5.344366073608398
1789155070365131300,5.61213134765625,-2.9035539627075195,-4.920781135559082,4.253954887390137
1789155070382267600,5.629267578125,-3.2011008262634277,-3.770862579345703,1.8670670986175537
1789155070399403300,5.6464033203125,-1.9925079345703125,-2.714289665222168,0.33519893884658813
1789155070416539600,5.66353955078125,-0.4489869475364685,-3.312455177307129,-1.1539390087127686
1789155070433675800,5.68067578125,-0.07010412216186523,-4.5175676345825195,-2.8452260494232178
1789155070450810000,5.69781005859375,0.8260389566421509,-5.421113967895508,-3.6936428546905518
1789155070467948800,5.71494873046875,1.7525005340576172,-6.181818008422852,-4.749544620513916
1789155070485082400,5.732082275390625,0.9915286302566528,-6.380500793457031,-6.480331897735596
1789155070502220000,5.749219970703125,1.0089874267578125,-5.485241889953613,-7.734108924865723
1789155070519355000,5.76635498046875,1.7989225387573242,-3.238229751586914,-7.422431945800781
1789155070536474600,5.783474609375,3.1949496269226074,-0.26424503326416016,-6.727755546569824
1789155070553603600,5.800603515625,4.71978759765625,2.0561790466308594,-5.515924453735352
1789155070570762500,5.817762451171875,5.275945663452148,3.1375174522399902,-4.270292282104492
1789155070587899400,5.8348994140625,4.899477958679199,3.371819496154785,-3.5206286907196045
1789155070605034800,5.85203466796875,4.76961612701416,2.954787254333496,-3.1403896808624268
1789155070622170000,5.869170166015625,5.133481025695801,2.3052620887756348,-3.4471592903137207
1789155070639306800,5.886306640625,4.297682285308838,1.7931890487670898,-4.777704238891602
1789155070656444000,5.90344384765625,4.481815338134766,2.258357048034668,-6.780420780181885
1789155070673577000,5.920576904296875,5.382933616638184,3.3939571380615234,-7.559444427490234
1789155070690715600,5.937715576171875,5.428028106689453,4.710836410522461,-7.623689651489258
1789155070707852300,5.954852294921875,4.632349014282227,6.268486976623535,-7.243790149688721
1789155070724987400,5.9719873046875,3.558255195617676,7.671779632568359,-6.0506391525268555
1789155070742122000,5.9891220703125,-0.5869951248168945,7.980353832244873,-3.2183265686035156
1789155070759259100,6.006259033203125,-11.280030250549316,4.0523223876953125,4.610211372375488
1789155070776394500,6.02339453125,-17.999176025390625,-4.957365036010742,9.549687385559082
1789155070793530000,6.040530029296875,-2.296833038330078,-12.916128158569336,9.257072448730469
1789155070810667000,6.0576669921875,-0.9628291130065918,-14.220978736877441,6.624893665313721
1789155070827803100,6.07480322265625,-1.5459678173065186,-8.98736572265625,5.914360046386719
1789155070844938800,6.091938720703125,-2.8871419429779053,0.6137056350708008,1.7394957542419434
1789155070862077400,6.109077392578125,-1.3554942607879639,5.388842582702637,-2.793938398361206
1789155070879210200,6.126210205078125,3.7971200942993164,1.1504182815551758,-5.199333190917969
1789155070896346000,6.14334619140625,6.750802516937256,-5.702507019042969,-3.868673324584961
1789155070913481700,6.160481689453125,-4.0364508628845215,-11.701431274414062,-3.134195327758789
1789155070930614300,6.1776142578125,3.142409324645996,-6.961292266845703,-4.879655838012695
1789155070947737000,6.194737060546875,6.706352710723877,0.09587860107421875,-6.079239845275879
1789155070964866600,6.211866455078125,3.4900143146514893,2.4556570053100586,-5.406123161315918
1789155070982027800,6.22902783203125,3.0204529762268066,3.96575927734375,-4.098373889923096
1789155070999165200,6.246165283203125,3.5882129669189453,2.727499008178711,-3.6486034393310547
1789155071016298000,6.263298095703125,4.546457290649414,0.2500724792480469,-3.9135403633117676
1789155071033434000,6.28043408203125,5.058913230895996,-1.1092596054077148,-3.285891056060791
1789155071050571500,6.297571533203125,4.339633464813232,-1.2146472930908203,-2.5301289558410645
1789155071067707100,6.31470703125,3.5762152671813965,-0.9307622909545898,-2.6024169921875
1789155071084842000,6.331842041015625,3.0931379795074463,-0.46855926513671875,-2.2672030925750732
1789155071101978400,6.348978271484375,2.9445838928222656,0.5979900360107422,-1.7718424797058105
1789155071119109600,6.366109619140625,1.4760732650756836,0.9213781356811523,-1.45344078540802
1789155071136255200,6.383255126953125,-0.009662985801696777,1.2039766311645508,-1.174574851989746
1789155071153385200,6.40038525390625,0.29374486207962036,1.4422540664672852,-0.6114411354064941
1789155071170522000,6.417522216796875,-0.05804918706417084,0.9721546173095703,0.09308704733848572
1789155071187658500,6.434658447265625,-0.7026251554489136,0.48679447174072266,0.7106037139892578
1789155071204795400,6.45179541015625,-0.4979133903980255,0.5134525299072266,1.5991578102111816
1789155071221930000,6.468929931640625,-0.8042226433753967,-0.055708885192871094,1.8047239780426025
1789155071239065900,6.48606591796875,-4.251652717590332,-0.7683887481689453,2.6570115089416504
1789155071256179700,6.5031796875,-6.481328964233398,-0.4847555160522461,3.8241922855377197
1789155071273338000,6.520338134765625,-2.568885326385498,-0.050983428955078125,2.9313220977783203
1789155071290474200,6.53747412109375,-1.1188552379608154,0.2679119110107422,2.286539316177368
1789155071307610400,6.5546103515625,-1.931660532951355,0.9014472961425781,2.0786709785461426
1789155071324747000,6.5717470703125,-1.226025104522705,0.2727231979370117,2.6792919635772705
1789155071341881600,6.588881591796875,0.0525822639465332,-0.05284595489501953,3.415830612182617
1789155071359017000,6.606016845703125,0.806012749671936,-0.4821453094482422,4.317169666290283
1789155071376161000,6.6231611328125,0.6976410150527954,-1.891892433166504,5.845599174499512
1789155071393290800,6.640290771484375,0.9967267513275146,-4.244139671325684,8.237310409545898
1789155071410425600,6.657425537109375,-0.6827874183654785,-4.781878471374512,7.586515426635742
1789155071427559000,6.674558837890625,-5.4032368659973145,-3.05092716217041,4.350863456726074
1789155071444695300,6.6916953125,-4.80866813659668,-3.1455154418945312,3.874051809310913
1789155071461838600,6.708838623046875,-2.1409316062927246,-4.6450042724609375,4.491212844848633
1789155071478969900,6.725969970703125,-3.02221417427063,-5.097046852111816,4.578726768493652
1789155071496106500,6.7431064453125,-3.694577932357788,-3.914584159851074,2.9756641387939453
1789155071513241600,6.76024169921875,-3.072397470474243,-2.9987897872924805,0.5768697261810303
1789155071530379000,6.77737890625,-1.2519816160202026,-3.839787483215332,-1.3034493923187256
1789155071547514600,6.7945146484375,0.619243860244751,-5.1986284255981445,-2.557948350906372
1789155071564649500,6.8116494140625,1.915879726409912,-6.6919660568237305,-3.441985607147217
1789155071581785000,6.82878515625,2.4745965003967285,-7.6519012451171875,-4.683606147766113
1789155071598920700,6.845920654296875,1.481475591659546,-7.593418121337891,-6.3162994384765625
1789155071616034300,6.863034423828125,1.0802834033966064,-5.851433753967285,-7.213921546936035
1789155071633193700,6.88019384765625,2.3015522956848145,-3.062288284301758,-6.471485137939453
1789155071650330400,6.897330322265625,3.571333169937134,-0.14496898651123047,-5.75062894821167
1789155071667466200,6.91446630859375,3.5445117950439453,2.285041332244873,-5.475924968719482
1789155071684602000,6.93160205078125,3.427332639694214,3.580784797668457,-4.30706262588501
1789155071701736700,6.94873681640625,3.73413348197937,3.949820041656494,-3.536895275115967
1789155071718867500,6.965867431640625,4.276790618896484,3.5509090423583984,-3.140847682952881
1789155071735996700,6.98299658203125,4.7379302978515625,2.9016852378845215,-3.7083890438079834
1789155071753141500,7.0001416015625,4.770566940307617,2.7671737670898438,-5.745228290557861
1789155071770262300,7.01726220703125,5.13937520980835,3.1696295738220215,-7.55914831161499
1789155071787418000,7.034418212890625,5.303586959838867,3.8169398307800293,-8.116802215576172
1789155071804554200,7.05155419921875,5.305446624755859,4.73109245300293,-7.991597652435303
1789155071821689300,7.068689453125,4.34954309463501,5.839448928833008,-7.809458255767822
1789155071838819000,7.085819091796875,3.479356288909912,6.768787384033203,-7.307299613952637
1789155071855966200,7.10296630859375,1.5655810832977295,6.457538604736328,-5.542874336242676
1789155071873098500,7.120098388671875,-6.737266540527344,3.0046558380126953,-0.7284736633300781
1789155071890233000,7.137233154296875,-25.063207626342773,-5.2465410232543945,7.747491836547852
1789155071907369700,7.15436962890625,-8.933158874511719,-15.530241012573242,11.505986213684082
1789155071924506000,7.171506103515625,3.02592134475708,-15.801302909851074,7.078800201416016
1789155071941641700,7.188641845703125,-0.3871269226074219,-9.250139236450195,5.309093475341797
1789155071958753300,7.205753173828125,0.26200437545776367,0.20460796356201172,3.3285515308380127
1789155071975913200,7.222913330078125,1.8023247718811035,5.762073993682861,-0.17322993278503418
1789155071993049900,7.2400498046875,0.12996864318847656,1.8259682655334473,-3.6773648262023926
1789155072010185200,7.257185302734375,-1.4019584655761719,-5.208861351013184,-5.946565628051758
1789155072027298800,7.274298828125,-4.779494285583496,-11.294317245483398,-7.968684196472168
1789155072044457700,7.291457763671875,4.935534954071045,-4.398276329040527,-6.839174270629883
1789155072061592600,7.308592529296875,7.3701372146606445,0.9464120864868164,-4.927286624908447
1789155072078728700,7.325728759765625,4.927425384521484,2.981865882873535,-4.262177467346191
1789155072095865000,7.342864990234375,4.446026802062988,3.425691604614258,-4.181329727172852
1789155072113000400,7.36000048828125,4.76978063583374,1.0442214012145996,-4.6023664474487305
1789155072130135800,7.3771357421875,4.332259178161621,-0.8211908340454102,-3.7323379516601562
1789155072147273200,7.394273193359375,3.4178946018218994,-1.2710342407226562,-2.9006452560424805
1789155072164386000,7.411385986328125,2.620621681213379,-0.28696632385253906,-1.72966730594635
1789155072181544200,7.428544189453125,2.28182315826416,0.7083749771118164,-1.2616451978683472
1789155072198681000,7.44568115234375,2.043567180633545,1.235386848449707,-1.2152869701385498
1789155072215811600,7.4628115234375,1.9627478122711182,1.5800666809082031,-1.2149819135665894
1789155072232952800,7.479952880859375,3.0686235427856445,1.7156267166137695,-1.5681443214416504
1789155072250094000,7.497093994140625,0.508201539516449,0.5494575500488281,-1.1796035766601562
1789155072267220000,7.514219970703125,-0.6747514605522156,-0.09416770935058594,-1.10842764377594
1789155072284366800,7.531366943359375,-0.21204730868339539,-0.5729360580444336,-0.4023936092853546
1789155072301495800,7.548495849609375,-0.7540702223777771,-0.40367984771728516,0.8605129718780518
1789155072318632400,7.565632568359375,-1.278336524963379,-0.02680492401123047,1.1782994270324707
1789155072335745800,7.582745849609375,-2.055079698562622,-0.09118175506591797,1.3976576328277588
1789155072352902700,7.599902587890625,-6.806607246398926,-0.12687969207763672,2.845149517059326
1789155072370043000,7.61704296875,-4.984807014465332,0.1826181411743164,2.7010955810546875
1789155072387167500,7.63416748046875,-1.2734640836715698,0.2603578567504883,2.4057247638702393
1789155072404313000,7.65131298828125,-0.6180987358093262,0.41338634490966797,2.103111505508423
1789155072421448700,7.66844873046875,-1.4657995700836182,0.6629018783569336,1.7355611324310303
1789155072438583600,7.68558349609375,-0.9774773120880127,0.33218860626220703,2.7976088523864746
1789155072455719400,7.702719482421875,0.13439488410949707,0.23162460327148438,3.7269585132598877
1789155072472856300,7.719856201171875,1.0790060758590698,-0.21868896484375,4.421313285827637
1789155072489991700,7.73699169921875,0.576475977897644,-2.3804187774658203,6.231902122497559
1789155072507105500,7.75410546875,0.06910228729248047,-5.155860900878906,8.642129898071289
1789155072524265500,7.771265380859375,-2.5395989418029785,-5.183195114135742,7.300498962402344
1789155072541400800,7.78840087890625,-7.032645225524902,-2.5054197311401367,4.057741641998291
1789155072558517000,7.80551708984375,-4.690309047698975,-2.0805301666259766,3.3137412071228027
1789155072575667500,7.82266748046875,-3.4019739627838135,-3.1894607543945312,4.147974014282227
1789155072592807400,7.839807373046875,-3.284414768218994,-3.825895309448242,4.603923797607422
1789155072609944300,7.8569443359375,-2.647681474685669,-3.4441680908203125,3.917569637298584
1789155072627057000,7.874056884765625,-1.9540389776229858,-3.0577259063720703,2.254199504852295
1789155072644211200,7.891211181640625,-1.6967333555221558,-3.6230392456054688,-0.037801384925842285
1789155072661351400,7.908351318359375,-1.1739367246627808,-5.222779273986816,-2.24296498298645
1789155072678494500,7.925494384765625,-0.019915759563446045,-6.951543807983398,-3.6987111568450928
1789155072695624200,7.942624267578125,1.0515966415405273,-8.017847061157227,-4.886983394622803
1789155072712753400,7.95975341796875,1.1762795448303223,-7.762438774108887,-6.1920318603515625
1789155072729902300,7.97690234375,0.20585191249847412,-5.919035911560059,-7.29257869720459
1789155072747004200,7.994004150390625,0.28442978858947754,-3.11618709564209,-7.152792453765869
1789155072764174600,8.011174560546875,1.5573081970214844,-0.17450332641601562,-6.406715393066406
1789155072781305000,8.02830517578125,3.3824448585510254,1.996659278869629,-5.649759292602539
1789155072798439700,8.045439697265625,4.4049577713012695,3.2434744834899902,-4.695300102233887
1789155072815576600,8.06257666015625,4.390485763549805,3.649587631225586,-3.900470733642578
1789155072832707800,8.079707763671875,4.566135883331299,3.475111961364746,-3.6551480293273926
1789155072849854500,8.0968544921875,4.180201530456543,3.0442748069763184,-4.008676528930664
1789155072866954200,8.113954345703124,4.0435333251953125,2.6008706092834473,-5.18690299987793
1789155072884125000,8.131125,3.8640382289886475,2.551784038543701,-6.410238265991211
1789155072901257000,8.148257080078125,4.310981750488281,2.9690628051757812,-7.3536200523376465
1789155072918391800,8.165391845703125,4.811450004577637,3.8894944190979004,-7.628588676452637
1789155072935500000,8.1825,4.491764545440674,5.077291488647461,-7.525899887084961
1789155072952683000,8.19968310546875,3.855685234069824,6.204779624938965,-6.967345237731934
1789155072969806300,8.216806396484374,3.3011207580566406,6.678814888000488,-6.197481155395508
1789155072986912300,8.233912353515626,0.9722901582717896,5.906299591064453,-4.118607521057129
1789155073004072000,8.251072021484376,-10.99176025390625,2.4477648735046387,1.048288106918335
1789155073021208800,8.268208740234375,-29.219600677490234,-7.023591995239258,10.325813293457031
1789155073038343400,8.285343505859375,-2.962284564971924,-16.385690689086914,11.565979957580566
1789155073055474400,8.302474365234374,0.595550537109375,-16.20071029663086,4.797787666320801
1789155073072616000,8.319615966796874,-1.9689853191375732,-9.67812728881836,4.410107612609863
1789155073089756700,8.336756591796876,-1.9087133407592773,2.2258753776550293,2.0304579734802246
1789155073106863600,8.353863525390626,-0.763784646987915,7.127995491027832,-1.6453030109405518
1789155073124024600,8.371024658203124,4.880668640136719,1.2911405563354492,-2.88493013381958
1789155073141159400,8.388159423828125,4.579171180725098,-5.155496597290039,-4.418873310089111
1789155073158291200,8.405291259765624,-3.709172010421753,-9.57214069366455,-4.247046947479248
1789155073175437800,8.422437744140625,2.779780864715576,-3.8238182067871094,-6.951994895935059
1789155073192561700,8.439561767578125,3.2605862617492676,1.4934630393981934,-6.216050624847412
1789155073209685000,8.45668505859375,1.7456766366958618,3.162822723388672,-4.808900356292725
1789155073226822100,8.473822265625,2.5407419204711914,3.303407669067383,-4.045212745666504
1789155073243969300,8.49096923828125,3.840280294418335,0.35973167419433594,-4.859925270080566
1789155073261103400,8.508103271484375,4.664283275604248,-1.8360099792480469,-4.954430103302002
1789155073278247700,8.52524755859375,3.6513500213623047,-1.6012458801269531,-3.35176420211792
1789155073295384800,8.542384765625,2.6597466468811035,-0.34897708892822266,-2.7172746658325195
1789155073312517600,8.559517578125,2.3156087398529053,0.6107950210571289,-2.7549209594726562
1789155073329656600,8.576656494140625,2.1241486072540283,1.0098180770874023,-2.378307580947876
1789155073346785500,8.59378564453125,1.7263000011444092,1.2383127212524414,-2.0806005001068115
1789155073363927000,8.610927001953126,1.8880305290222168,1.2053604125976562,-2.5068132877349854
1789155073381051400,8.628051513671876,1.7357866764068604,0.6677522659301758,-2.113008737564087
1789155073398199300,8.64519921875,-0.054222941398620605,0.214691162109375,-1.2637076377868652
1789155073415335400,8.66233544921875,-0.49255841970443726,0.1098480224609375,-0.9297966361045837
1789155073432471300,8.67947119140625,-0.21784359216690063,0.1976165771484375,0.04598402976989746
1789155073449602600,8.6966025390625,0.0060386061668396,0.4841747283935547,1.4169838428497314
1789155073466744600,8.71374462890625,-0.1611647605895996,-0.04749774932861328,1.8577425479888916
1789155073483885000,8.730885009765625,-1.065016269683838,-0.9083433151245117,2.2843058109283447
1789155073501015300,8.748015380859375,-3.4795727729797363,-1.3605546951293945,2.8902554512023926
1789155073518151000,8.76515087890625,-8.429520606994629,-1.050668716430664,4.959532260894775
1789155073535288000,8.7822880859375,-4.443679332733154,-0.7854976654052734,4.754105091094971
1789155073552421000,8.799421142578124,-2.2659358978271484,-0.4787158966064453,3.2303974628448486
1789155073569561600,8.8165615234375,-0.8954159617424011,-0.07810592651367188,3.2369327545166016
1789155073586690000,8.83368994140625,0.41347968578338623,0.17171001434326172,4.220912456512451
1789155073603836200,8.850836181640625,1.879460096359253,0.024695396423339844,5.4665679931640625
1789155073620967200,8.86796728515625,1.6799468994140625,-1.5229301452636719,6.36883544921875
1789155073638083300,8.885083251953125,-0.6103956699371338,-4.569225311279297,8.125415802001953
1789155073655238400,8.90223828125,-3.1563167572021484,-5.499275207519531,7.0546345710754395
1789155073672353500,8.919353515625,-6.563952445983887,-4.122906684875488,4.472087860107422
1789155073689511400,8.936511474609375,-7.8986992835998535,-2.757479667663574,3.722034215927124
1789155073706646500,8.953646484375,-4.678459167480469,-3.28505802154541,3.4125843048095703
1789155073723784000,8.970783935546875,-3.2771167755126953,-3.7743396759033203,4.015883922576904
1789155073740910000,8.98791015625,-2.1186742782592773,-3.3350839614868164,4.154762268066406
1789155073758055200,9.00505517578125,-1.2108616828918457,-2.314168930053711,2.400839328765869
1789155073775191800,9.02219189453125,-1.426605224609375,-2.7629404067993164,0.02317291498184204
1789155073792326700,9.03932666015625,-0.8128600120544434,-4.727716445922852,-1.8522220849990845
1789155073809463800,9.0564638671875,0.5667425394058228,-6.860069274902344,-3.304316759109497
1789155073826600200,9.07360009765625,1.983726978302002,-8.66492748260498,-4.7435302734375
1789155073843738000,9.090738037109375,0.7097769379615784,-8.631366729736328,-6.488772392272949
1789155073860877300,9.107877197265625,-1.0667140483856201,-6.361120223999023,-7.52232551574707
1789155073878007300,9.12500732421875,0.055611610412597656,-3.166423797607422,-6.697497844696045
1789155073895143700,9.142143798828124,1.8786145448684692,-0.06191825866699219,-5.32712459564209
1789155073912281000,9.159281005859375,1.9849522113800049,2.2564826011657715,-4.778505802154541
1789155073929415000,9.176414794921875,2.0952610969543457,3.2871718406677246,-3.456484317779541
1789155073946550500,9.193550537109376,2.8464980125427246,3.2814278602600098,-3.2798147201538086
1789155073963686700,9.210686767578125,3.978020668029785,3.0320963859558105,-3.9851479530334473
1789155073980824300,9.22782421875,4.635252952575684,2.935908794403076,-5.2449116706848145
1789155073997960000,9.2449599609375,4.846414566040039,3.0998315811157227,-6.724917888641357
1789155074015094300,9.26209423828125,4.471795558929443,3.3973922729492188,-7.997389793395996
1789155074032232000,9.27923193359375,4.8260393142700195,3.9123048782348633,-8.218877792358398
1789155074049367000,9.296366943359375,4.691211223602295,4.723489284515381,-8.051497459411621
1789155074066502400,9.31350244140625,3.5787110328674316,5.807993412017822,-7.7755537033081055
1789155074083630600,9.330630615234375,2.5765624046325684,6.7700300216674805,-7.682427406311035
1789155074100775000,9.34777490234375,1.6205809116363525,6.945986747741699,-6.525877952575684
1789155074117912000,9.364912109375,-5.679376602172852,4.774227619171143,-3.583038806915283
1789155074135024000,9.382024169921875,-17.73496437072754,-2.1518850326538086,5.083330154418945
1789155074152183800,9.399183837890625,-15.57946491241455,-13.014142036437988,12.220074653625488
1789155074169317000,9.416317138671875,2.640170097351074,-16.870548248291016,9.47386646270752
1789155074186455800,9.433455810546874,0.26296257972717285,-12.280467987060547,4.9327802658081055
1789155074203590100,9.450590087890625,-1.351562261581421,-2.433349609375,2.480792999267578
1789155074220727000,9.46772705078125,-4.302145957946777,5.021180629730225,-1.3451228141784668
1789155074237862100,9.484862060546876,-7.743369102478027,3.4013519287109375,-3.1680445671081543
1789155074255000000,9.502,2.098184108734131,-2.956563949584961,-1.8453259468078613
1789155074272135400,9.519135498046875,3.037008047103882,-7.473621368408203,-4.061606407165527
1789155074289270500,9.5362705078125,4.761620044708252,-4.975831985473633,-5.971213340759277
1789155074306407200,9.5534072265625,8.298636436462402,-0.3299894332885742,-3.858314275741577
1789155074323520000,9.57052001953125,4.955151557922363,1.8476567268371582,-3.899362087249756
1789155074340676900,9.5876767578125,3.7896037101745605,2.709554672241211,-3.8786768913269043
1789155074357816600,9.604816650390624,4.007519245147705,1.3607492446899414,-4.21750545501709
1789155074374951000,9.621950927734375,4.321733474731445,-0.9007968902587891,-4.452049255371094
1789155074392087300,9.63908740234375,4.208097457885742,-1.8909130096435547,-3.8451461791992188
1789155074409223200,9.65622314453125,3.529947280883789,-1.2999162673950195,-2.8087267875671387
1789155074426358500,9.673358642578124,2.3798320293426514,-0.13019371032714844,-2.1520192623138428
1789155074443494000,9.690493896484375,2.0181844234466553,0.6475610733032227,-2.183826446533203
1789155074460623600,9.70762353515625,2.3903794288635254,1.315901756286621,-2.0284440517425537
1789155074477771800,9.724771728515625,0.9930292367935181,1.1602373123168945,-2.1597442626953125
1789155074494902500,9.741902587890625,-0.4547484517097473,0.9574756622314453,-1.924317479133606
1789155074512041500,9.75904150390625,-0.43718260526657104,0.9855127334594727,-2.1259756088256836
1789155074529151700,9.77615185546875,-0.1048172265291214,0.6158027648925781,-1.2834525108337402
1789155074546335500,9.79333544921875,-0.9097118377685547,0.4167823791503906,-0.39806851744651794
1789155074563447000,9.810447021484375,-1.3682750463485718,0.5253534317016602,-0.3200685679912567
1789155074580582100,9.82758203125,-0.17902863025665283,0.7335519790649414,0.5876380205154419
1789155074597718800,9.84471875,0.1354154348373413,0.09760093688964844,1.205193281173706
1789155074614854400,9.8618544921875,-1.0592117309570312,-0.38427257537841797,1.4987256526947021
1789155074631986200,9.878986083984374,-4.038971900939941,-0.4600200653076172,2.5294172763824463
1789155074649132000,9.896132080078125,-4.598329067230225,-0.36060237884521484,3.328547954559326
1789155074666261200,9.91326123046875,-2.5407233238220215,-0.7333660125732422,2.4859678745269775
1789155074683401000,9.93040087890625,-2.1066741943359375,-0.07377243041992188,2.1244282722473145
1789155074700534800,9.94753466796875,-2.0590901374816895,0.15703296661376953,2.30753755569458
1789155074717670000,9.964669921875,-1.1417433023452759,-0.03260517120361328,2.7955291271209717
1789155074734805800,9.9818056640625,0.06879532337188721,-0.04110908508300781,2.8396177291870117
1789155074751944000,9.99894384765625,1.2171666622161865,-1.2650184631347656,3.6431798934936523
1789155074769079300,10.016079345703124,0.5179309844970703,-3.613588333129883,6.268637657165527
1789155074786215400,10.03321533203125,-0.6843739151954651,-5.409768104553223,7.7507219314575195
1789155074803350000,10.05035009765625,-3.9126338958740234,-3.5978527069091797,5.61583948135376
1789155074820486400,10.067486328125,-6.298041820526123,-2.6975135803222656,4.155027866363525
1789155074837623800,10.084623779296875,-4.130472660064697,-3.712179183959961,4.267856597900391
1789155074854758000,10.1017578125,-2.386641502380371,-4.281005859375,4.636528968811035
1789155074871896000,10.11889599609375,-1.9740848541259766,-4.042719841003418,3.729001998901367
1789155074889029400,10.136029296875,-1.8600101470947266,-2.593411445617676,1.4478626251220703
1789155074906166800,10.153166748046875,-1.6257944107055664,-2.122340202331543,-0.4448608160018921
1789155074923280000,10.17027978515625,-1.1004559993743896,-3.0873775482177734,-2.314880132675171
1789155074940432100,10.18743212890625,-0.5384538173675537,-4.375248908996582,-3.6972413063049316
1789155074957554700,10.2045546875,0.5707657337188721,-5.611419677734375,-4.444277763366699
1789155074974712000,10.221712158203125,1.2722630500793457,-6.184972763061523,-5.698794364929199
1789155074991845400,10.238845458984375,0.6469482779502869,-6.0013885498046875,-7.2336273193359375
1789155075008981500,10.2559814453125,0.8604817390441895,-4.772629737854004,-7.579712390899658
1789155075026098200,10.27309814453125,2.193044900894165,-2.7215232849121094,-6.9205641746521
1789155075043250400,10.29025048828125,2.8213143348693848,0.0090789794921875,-5.94460391998291
1789155075060391000,10.307390869140624,3.535215377807617,1.724843978881836,-4.88566780090332
1789155075077527000,10.324527099609375,3.6005051136016846,2.3707408905029297,-3.873880386352539
1789155075094663200,10.3416630859375,3.6593563556671143,2.5624260902404785,-3.2594058513641357
1789155075111798800,10.358798828125,3.7021901607513428,2.436522960662842,-3.9198904037475586
1789155075128934000,10.375933837890624,3.7231292724609375,2.4057703018188477,-5.543239593505859
1789155075146069500,10.393069580078125,3.797076463699341,2.574509620666504,-7.130408763885498
1789155075163207400,10.41020751953125,3.9951283931732178,3.127169132232666,-7.946829795837402
1789155075180341500,10.427341552734376,4.389383316040039,4.032901287078857,-8.133562088012695
1789155075197455600,10.44445556640625,3.9970340728759766,5.099043846130371,-7.760122299194336
1789155075214614500,10.461614501953125,3.278036117553711,6.297540664672852,-7.228828430175781
1789155075231751000,10.4787509765625,2.773322582244873,6.389845848083496,-6.379911422729492
1789155075248895200,10.495895263671875,-1.1251225471496582,5.308549404144287,-4.871325492858887
1789155075266009600,10.513009521484374,-15.801631927490234,0.6840343475341797,1.7164196968078613
1789155075283162600,10.53016259765625,-27.51968765258789,-10.751884460449219,12.756224632263184
1789155075300292900,10.54729296875,3.6053147315979004,-16.59394073486328,8.063594818115234
1789155075317406500,10.564406494140625,0.09788060188293457,-13.140961647033691,1.2796311378479004
1789155075334566000,10.58156591796875,-0.9657814502716064,-4.800630569458008,1.703052282333374
1789155075351682600,10.5986826171875,-2.1021175384521484,4.404474258422852,-0.8021337985992432
1789155075368837600,10.615837646484374,-2.6320440769195557,3.347940444946289,-3.3485984802246094
1789155075385974500,10.632974609375,2.5887625217437744,-2.663447380065918,-4.082045078277588
1789155075403111000,10.65011083984375,2.5961146354675293,-8.24561595916748,-4.842489719390869
1789155075420239400,10.6672392578125,9.237872123718262,-5.963788986206055,-4.547730922698975
1789155075437387500,10.684387451171874,7.606472015380859,-0.788823127746582,-3.9912850856781006
1789155075454511900,10.701511962890624,4.607359886169434,1.2788004875183105,-3.9950404167175293
1789155075471669800,10.718669677734376,4.060225009918213,2.0592851638793945,-3.8926377296447754
1789155075488790500,10.73579052734375,4.273743629455566,0.6975440979003906,-3.853546619415283
1789155075505926700,10.7529267578125,4.327812194824219,-0.6006946563720703,-3.418741226196289
1789155075523063600,10.7700634765625,3.4807932376861572,-0.7801427841186523,-2.9213876724243164
1789155075540197400,10.787197265625,2.665681838989258,-0.07452964782714844,-2.2546846866607666
1789155075557305900,10.804305908203125,2.393141269683838,0.4793882369995117,-2.2308168411254883
1789155075574474500,10.821474609375,1.6672000885009766,0.4553537368774414,-2.4190497398376465
1789155075591605800,10.838605712890624,0.8086310625076294,0.6400651931762695,-2.4694299697875977
1789155075608743000,10.855742919921875,0.3518896698951721,0.9347753524780273,-2.482583999633789
1789155075625878500,10.87287841796875,-0.12641243636608124,0.9130496978759766,-2.532078742980957
1789155075643008300,10.89000830078125,-0.26113978028297424,0.9109382629394531,-1.672922134399414
1789155075660155600,10.90715576171875,-0.9264972805976868,0.7867250442504883,-0.9259970784187317
1789155075677286100,10.9242861328125,-1.838853120803833,0.8668680191040039,-0.48445001244544983
1789155075694420500,10.94142041015625,-1.4706873893737793,0.7286405563354492,0.38045692443847656
1789155075711557000,10.95855712890625,-1.3471710681915283,0.17752742767333984,1.5962846279144287
1789155075728693800,10.97569384765625,-3.7448923587799072,-0.5943708419799805,2.9754676818847656
1789155075745812200,10.992812255859375,-3.487257242202759,-0.6437263488769531,3.3581039905548096
1789155075762942500,11.0099423828125,-1.9214789867401123,-0.3999614715576172,3.2462103366851807
1789155075780102000,11.027101806640625,-1.324946641921997,-0.33037471771240234,2.3787360191345215
1789155075797233700,11.044233642578124,-1.8930952548980713,0.7342510223388672,2.361896514892578
1789155075814379500,11.061379638671875,-2.0113606452941895,0.9218521118164062,2.37520432472229
1789155075831503600,11.078503662109375,-1.071134328842163,0.25659751892089844,3.5779361724853516
1789155075848627000,11.095626953125,-0.6891882419586182,-0.07351970672607422,4.047568321228027
1789155075865782000,11.112781982421875,-0.6696822643280029,-1.5224361419677734,4.421767234802246
1789155075882917400,11.12991748046875,0.12229561805725098,-3.948915481567383,6.306986331939697
1789155075900054300,11.14705419921875,0.16483557224273682,-5.700164794921875,7.469875335693359
1789155075917190000,11.16418994140625,-3.159287929534912,-3.7412338256835938,5.823000907897949
1789155075934302700,11.181302734375,-6.722914695739746,-2.054457664489746,4.3741865158081055
1789155075951462000,11.1984619140625,-5.629108905792236,-2.6551952362060547,4.255850315093994
1789155075968597200,11.21559716796875,-3.275785446166992,-3.699946403503418,5.097424507141113
1789155075985733400,11.2327333984375,-2.154402732849121,-3.4812707901000977,4.5173187255859375
1789155076002873900,11.249873779296875,-1.5990939140319824,-2.9548444747924805,2.5980117321014404
1789155076019997200,11.2669970703125,-1.547205924987793,-3.029238700866699,0.6550743579864502
1789155076037141200,11.284141357421875,-1.1027508974075317,-4.362441062927246,-1.2658714056015015
1789155076054277600,11.301277587890626,-0.4141722619533539,-6.2810821533203125,-3.074176549911499
1789155076071391500,11.3183916015625,0.23456624150276184,-7.804450988769531,-4.544189453125
1789155076088550700,11.335550537109375,0.9147637486457825,-8.029683113098145,-5.748302936553955
1789155076105684700,11.352684814453125,0.5894818902015686,-6.4823408126831055,-6.836915016174316
1789155076122815200,11.369815185546875,0.4463024139404297,-3.8964147567749023,-6.929436683654785
1789155076139938800,11.386938720703125,1.461721420288086,-1.11004638671875,-5.84626579284668
1789155076157071000,11.404071044921874,2.7036964893341064,1.1141366958618164,-4.795070648193359
1789155076174229000,11.42122900390625,2.9814670085906982,2.548027992248535,-4.248583793640137
1789155076191365600,11.43836572265625,3.3751018047332764,3.168738842010498,-3.254073143005371
1789155076208504800,11.4555048828125,3.9792206287384033,2.8885135650634766,-2.6522367000579834
1789155076225634300,11.47263427734375,4.1224188804626465,2.264674186706543,-3.5456297397613525
1789155076242766600,11.4897666015625,4.068065166473389,1.9472689628601074,-5.526148796081543
1789155076259915300,11.506915283203124,4.046440124511719,2.129599094390869,-7.246088981628418
1789155076277065200,11.524065185546876,4.586062908172607,2.6404733657836914,-8.113618850708008
1789155076294181000,11.54118115234375,5.091125965118408,3.4892196655273438,-8.21362590789795
1789155076311317200,11.558317138671875,4.337494373321533,4.62260627746582,-7.984981060028076
1789155076328453000,11.575453125,3.373734712600708,5.950597286224365,-7.566679954528809
1789155076345589200,11.59258935546875,3.014420747756958,7.119861125946045,-6.975228309631348
1789155076362696400,11.609696533203126,2.0107674598693848,7.169253826141357,-5.271730422973633
1789155076379861200,11.626861328125,-5.427787780761719,5.643660545349121,-1.9888955354690552
1789155076396974300,11.643974365234374,-21.976377487182617,-1.239954948425293,5.9097089767456055
1789155076414110000,11.66110986328125,-13.123849868774414,-13.975196838378906,12.141688346862793
1789155076431268400,11.678268310546875,2.3413503170013428,-18.39426612854004,7.163324356079102
1789155076448403200,11.6954033203125,-1.3356192111968994,-14.717582702636719,3.7078793048858643
1789155076465519600,11.71251953125,-1.922579050064087,-3.264906883239746,3.2463765144348145
1789155076482672400,11.72967236328125,-1.4224963188171387,6.13382625579834,-0.30880045890808105
1789155076499818000,11.74681787109375,0.18924808502197266,4.832117557525635,-2.3017475605010986
1789155076516932900,11.763932861328126,2.338380813598633,-0.774083137512207,-2.8726534843444824
1789155076534064000,11.781064208984375,-2.541630506515503,-9.306074142456055,-4.43730354309082
1789155076551195100,11.798195068359375,4.683813571929932,-5.1298370361328125,-5.92705774307251
1789155076568360000,11.81535986328125,7.295731544494629,0.9055566787719727,-5.3968305587768555
1789155076585493000,11.832492919921876,2.8120265007019043,2.4756274223327637,-4.755446910858154
1789155076602623200,11.849623291015625,2.241894245147705,3.1212730407714844,-3.7600955963134766
1789155076619770000,11.86677001953125,2.879075765609741,0.6586322784423828,-4.166527271270752
1789155076636880100,11.883880126953125,4.033524513244629,-1.7063779830932617,-4.705404281616211
1789155076654036000,11.901035888671874,3.883443832397461,-1.748366355895996,-3.7667133808135986
1789155076671150600,11.918150634765626,2.6769378185272217,-0.30782604217529297,-2.585906505584717
1789155076688308000,11.935307861328125,1.9001696109771729,0.9229564666748047,-2.5321478843688965
1789155076705445000,11.952445068359374,1.3811192512512207,1.32440185546875,-2.205366849899292
1789155076722575000,11.9695751953125,1.6428282260894775,1.5786066055297852,-2.132795572280884
1789155076739723000,11.986722900390625,1.0650638341903687,1.407557487487793,-1.7389435768127441
1789155076756829400,12.003829345703124,-0.6525618433952332,0.6742887496948242,-1.8426134586334229
1789155076773988600,12.020988525390624,-0.5774275064468384,0.3641023635864258,-1.6256394386291504
1789155076791125800,12.038125732421875,-0.4930689334869385,0.19069194793701172,-0.43721210956573486
1789155076808261400,12.055261474609376,-0.6917111873626709,0.3921213150024414,0.4302924573421478
1789155076825396500,12.072396484375,0.36572206020355225,0.6345558166503906,1.3107023239135742
1789155076842529000,12.089529052734376,-0.02046382427215576,0.14018917083740234,1.7424615621566772
1789155076859685600,12.106685546875,-4.247160911560059,-0.2369537353515625,2.875208854675293
1789155076876799200,12.12379931640625,-6.7175984382629395,-0.12302589416503906,3.7381558418273926
1789155076893940000,12.14093994140625,-3.461857795715332,0.17845439910888672,2.9306368827819824
1789155076911078400,12.158078369140625,-0.988430917263031,0.2142343521118164,1.5540025234222412
1789155076928194600,12.175194580078125,-1.354376196861267,0.3510780334472656,1.010488510131836
1789155076945348400,12.192348388671874,-3.0183658599853516,0.24346637725830078,1.6370978355407715
1789155076962467600,12.209467529296875,-1.55064857006073,-0.30079174041748047,2.762761116027832
1789155076979620400,12.226620361328125,0.5844305753707886,-0.23496627807617188,3.3575077056884766
1789155076996733200,12.243733154296875,2.356203079223633,-1.1782426834106445,4.569764614105225
1789155077013893400,12.260893310546875,0.7713168859481812,-3.845456123352051,8.239805221557617
1789155077031028700,12.27802880859375,-1.9379324913024902,-5.808293342590332,10.369736671447754
1789155077048141600,12.2951416015625,-4.459782600402832,-3.620523452758789,6.107008934020996
1789155077065301000,12.312301025390624,-5.688643932342529,-3.3053359985351562,3.7817578315734863
1789155077082436600,12.3294365234375,-2.2859349250793457,-4.204414367675781,4.413510322570801
1789155077099571500,12.346571533203125,-1.624976634979248,-4.693703651428223,3.8055224418640137
1789155077116708000,12.3637080078125,-2.3654744625091553,-4.251962661743164,1.894270420074463
1789155077133846000,12.380845947265625,-2.308704137802124,-3.5735511779785156,0.13360077142715454
1789155077150957600,12.39795751953125,-1.7512733936309814,-3.607515335083008,-1.3453891277313232
1789155077168116500,12.415116455078126,-2.3475401401519775,-4.30726432800293,-3.2952303886413574
1789155077185253600,12.432253662109375,-2.5668749809265137,-5.135585784912109,-4.734279155731201
1789155077202389000,12.449388916015625,-0.9514461159706116,-5.682497024536133,-5.568100452423096
1789155077219523600,12.466523681640625,0.4423585534095764,-5.689380645751953,-6.636199951171875
1789155077236636700,12.48363671875,1.0656129121780396,-4.732522010803223,-7.324467182159424
1789155077253796400,12.50079638671875,1.1197950839996338,-3.043010711669922,-7.101972579956055
1789155077270933800,12.517933837890626,2.2042150497436523,-1.005620002746582,-6.2469282150268555
1789155077288068900,12.53506884765625,3.3160431385040283,0.9860601425170898,-4.919696807861328
1789155077305204500,12.55220458984375,4.092036247253418,2.402613639831543,-3.7980403900146484
1789155077322356500,12.5693564453125,3.7854669094085693,3.026944160461426,-2.828165054321289
1789155077339483400,12.5864833984375,4.32127571105957,2.9886741638183594,-2.4756412506103516
1789155077356610300,12.6036103515625,3.2308592796325684,2.321880340576172,-3.4305851459503174
1789155077373751300,12.620751220703125,2.804900646209717,1.9667558670043945,-5.12847375869751
1789155077390883600,12.637883544921875,4.378231525421143,2.358358860015869,-7.064296722412109
1789155077408020000,12.65502001953125,4.266313076019287,2.7630767822265625,-7.361377716064453
1789155077425156600,12.672156494140625,5.322281360626221,3.750454902648926,-7.171314239501953
1789155077442293500,12.68929345703125,5.121704578399658,5.040458679199219,-6.899385929107666
1789155077459404000,12.706404052734374,4.282315254211426,6.258476257324219,-6.6099395751953125
1789155077476564700,12.723564697265624,3.8159799575805664,6.916929244995117,-6.077288627624512
1789155077493700900,12.740700927734375,1.728074312210083,6.516911506652832,-4.267715930938721
1789155077510835500,12.75783544921875,-11.196316719055176,2.577859401702881,1.0554637908935547
1789155077527974100,12.77497412109375,-32.86993408203125,-7.448515892028809,10.573606491088867
1789155077545106200,12.792106201171874,-2.2412643432617188,-16.96609878540039,10.08684253692627
1789155077562220300,12.80922021484375,-0.8806569576263428,-16.56916046142578,4.939539432525635
1789155077579381000,12.826381103515626,-1.5603125095367432,-9.283950805664062,4.165179252624512
1789155077596515600,12.843515625,-1.1783480644226074,3.1441268920898438,0.32160520553588867
1789155077613653200,12.8606533203125,-0.7603392601013184,7.478097915649414,-3.118217945098877
1789155077630787300,12.877787353515625,5.701430320739746,1.7288899421691895,-3.300450563430786
1789155077647901200,12.894901123046875,1.3229793310165405,-5.800069808959961,-5.326709270477295
1789155077665059600,12.9120595703125,-1.5051538944244385,-9.462963104248047,-5.180276870727539
1789155077682199000,12.929198974609376,7.5447611808776855,-4.245342254638672,-6.470332145690918
1789155077699331800,12.946331787109376,5.206401824951172,-0.02418804168701172,-6.410848617553711
1789155077716444000,12.96344384765625,2.3400707244873047,1.8764605522155762,-4.841235160827637
1789155077733604600,12.9806044921875,2.4306774139404297,2.7008543014526367,-3.8178558349609375
1789155077750740200,12.997740234375,3.316953182220459,0.6114978790283203,-3.93160343170166
1789155077767871000,13.01487109375,4.255281925201416,-0.8322086334228516,-3.506175994873047
1789155077785017900,13.032017822265624,3.7922801971435547,-1.178964614868164,-2.8916351795196533
1789155077802146800,13.049146728515625,2.8134093284606934,-0.6993093490600586,-2.53419828414917
1789155077819254800,13.0662548828125,2.039607524871826,0.11676311492919922,-2.1935153007507324
1789155077836431400,13.083431396484375,1.953918695449829,0.9204444885253906,-1.8576555252075195
1789155077853556700,13.100556640625,1.2349191904067993,1.3365812301635742,-1.594583511352539
1789155077870691600,13.117691650390626,0.03966837376356125,1.392777442932129,-1.5495485067367554
1789155077887828200,13.134828125,-0.2959785759449005,1.5866432189941406,-1.5215728282928467
1789155077904964000,13.151964111328125,-0.46439218521118164,0.9746742248535156,-0.3590887486934662
1789155077922100000,13.169099853515625,-0.8457731008529663,0.5188446044921875,0.42293792963027954
1789155077939212500,13.186212646484375,-0.4718204140663147,0.3249692916870117,1.2708942890167236
1789155077956372700,13.203372802734375,-0.7133920788764954,-0.2078876495361328,1.8234233856201172
1789155077973507000,13.220507080078125,-2.18247652053833,-0.7948884963989258,2.2990365028381348
1789155077990644000,13.23764404296875,-7.555482864379883,-0.8043088912963867,3.686276912689209
1789155078007781600,13.25478173828125,-5.806962966918945,-0.566838264465332,3.7192068099975586
1789155078024915000,13.2719150390625,-2.7467401027679443,-0.9849748611450195,2.837498664855957
1789155078042051600,13.289051513671875,-2.443988561630249,-0.4683666229248047,2.4012067317962646
1789155078059181300,13.306181396484375,-1.9329824447631836,0.37262535095214844,3.008134126663208
1789155078076328400,13.323328369140626,-1.5270748138427734,0.5357208251953125,3.8510422706604004
1789155078093459700,13.340459716796875,-0.5952819585800171,0.5179691314697266,4.562431812286377
1789155078110615600,13.357615478515624,0.4837840795516968,-0.5622386932373047,5.213767051696777
1789155078127733000,13.37473291015625,2.0923941135406494,-3.4060001373291016,7.090991020202637
1789155078144865500,13.391865478515625,1.6868319511413574,-6.744968414306641,10.284198760986328
1789155078162005200,13.409005126953126,-4.603821754455566,-6.617639541625977,9.283761024475098
1789155078179139600,13.4261396484375,-5.984899520874023,-3.4660511016845703,5.726655960083008
1789155078196276000,13.44327587890625,-7.7448859214782715,-3.375213623046875,3.774468421936035
1789155078213407500,13.460407470703124,-5.205272674560547,-4.451648712158203,3.523853302001953
1789155078230550500,13.477550537109375,-2.957850933074951,-5.081305503845215,3.6331748962402344
1789155078247683800,13.494683837890625,-2.2267098426818848,-4.021383285522461,2.750319480895996
1789155078264819000,13.51181884765625,-2.108401298522949,-3.200796127319336,1.6226437091827393
1789155078281972000,13.528971923828125,-1.2117154598236084,-3.5999040603637695,0.3774164915084839
1789155078299090200,13.546090087890626,-0.80315101146698,-4.360572814941406,-1.1982802152633667
1789155078316227000,13.56322705078125,-0.2655853033065796,-4.785655975341797,-2.3038828372955322
1789155078333363200,13.58036328125,0.058690935373306274,-5.169800758361816,-3.4515135288238525
1789155078350498600,13.59749853515625,-0.926862895488739,-4.8403167724609375,-5.447175979614258
1789155078367635200,13.61463525390625,-1.2823143005371094,-4.080376625061035,-6.569993019104004
1789155078384772400,13.6317724609375,0.9676217436790466,-2.815333366394043,-6.562560081481934
1789155078401908000,13.648907958984376,3.4560065269470215,-0.89361572265625,-6.274259567260742
1789155078419036400,13.666036376953125,4.5630693435668945,1.6073551177978516,-5.424787521362305
1789155078436157400,13.683157470703126,3.586533784866333,3.105142593383789,-4.255105972290039
1789155078453320700,13.70032080078125,2.55867338180542,3.6516036987304688,-3.3241801261901855
1789155078470449400,13.717449462890626,1.282902479171753,3.682802200317383,-2.8954691886901855
1789155078487587800,13.734587890625,1.6751940250396729,3.231348991394043,-2.5107476711273193
1789155078504699400,13.751699462890626,2.1764588356018066,2.6257410049438477,-2.519044876098633
1789155078521858600,13.768858642578126,2.3769359588623047,2.847257614135742,-4.457949638366699
1789155078538995000,13.785994873046874,2.83709716796875,3.722316265106201,-5.9100141525268555
1789155078556131600,13.803131591796875,3.2604594230651855,4.977245330810547,-6.257112503051758
1789155078573267200,13.82026708984375,2.782090425491333,6.302143096923828,-5.770124435424805
1789155078590402300,13.83740234375,1.9260485172271729,7.637916088104248,-4.413730144500732
1789155078607532800,13.85453271484375,0.7193354964256287,8.142678260803223,-2.097503185272217
1789155078624680200,13.87168017578125,-5.6179351806640625,6.408052444458008,2.359053611755371
1789155078641810400,13.888810546875,-15.036561965942383,0.7057867050170898,8.658470153808594
1789155078658947300,13.905947265625,-13.707229614257812,-8.4278564453125,10.950270652770996
1789155078676081700,13.92308154296875,-4.366186141967773,-13.446455001831055,9.771476745605469
1789155078693219300,13.94021923828125,-3.8330721855163574,-11.29754638671875,8.199610710144043
1789155078710353400,13.957353515625,-3.974529981613159,-5.822675704956055,5.63569450378418
1789155078727490600,13.974490478515625,-4.44599723815918,-1.1572656631469727,-0.36471641063690186
1789155078744626200,13.991626220703125,-5.61167573928833,-1.2044439315795898,-5.051323890686035
1789155078761762000,14.008761962890626,0.8646323680877686,-3.2711305618286133,-6.220026016235352
1789155078778899700,14.025899658203125,-1.9253052473068237,-2.6367645263671875,-8.49026870727539
1789155078796036000,14.0430361328125,3.9920599460601807,1.8122706413269043,-6.489045143127441
1789155078813170000,14.060169921875,7.82621431350708,3.8000946044921875,-4.153224945068359
1789155078830305800,14.077305908203124,4.5911126136779785,3.4518074989318848,-3.8321566581726074
1789155078847443000,14.09444287109375,3.753523349761963,1.1140260696411133,-4.3307576179504395
1789155078864579000,14.1115791015625,3.571786880493164,-2.1663970947265625,-5.215877532958984
1789155078881714200,14.128714111328126,2.929292678833008,-3.8862571716308594,-4.573485374450684
1789155078898829000,14.1458291015625,1.7872538566589355,-2.652956008911133,-2.4033732414245605
1789155078915987000,14.162987060546875,1.0637364387512207,-0.2210836410522461,-0.8574444055557251
1789155078933105400,14.18010546875,1.0139254331588745,1.6597471237182617,-0.6350454688072205
1789155078950257000,14.1972568359375,0.9991815686225891,2.10548734664917,-0.3980375826358795
1789155078967389400,14.214389404296876,1.125972867012024,1.3239679336547852,-0.11385354399681091
1789155078984536600,14.23153662109375,-1.3526577949523926,0.27614688873291016,0.31355294585227966
1789155079001661700,14.24866162109375,-2.3974738121032715,-0.5186834335327148,0.21185463666915894
1789155079018783000,14.265782958984374,-2.3296804428100586,-0.7049713134765625,0.916636049747467
1789155079035915000,14.2829150390625,-1.6071443557739258,-0.3662595748901367,2.051927089691162
1789155079053069300,14.3000693359375,-1.6215928792953491,0.3024005889892578,2.209778070449829
1789155079070215400,14.31721533203125,-1.0054017305374146,0.39544010162353516,2.19024658203125
1789155079087346400,14.334346435546875,0.26091229915618896,0.5310268402099609,3.630404472351074
1789155079104483600,14.351483642578126,-0.7459168434143066,0.22127056121826172,3.5861456394195557
1789155079121617700,14.36861767578125,-4.051451683044434,0.2561817169189453,3.497715473175049
1789155079138764000,14.385763916015625,-4.989377498626709,0.6546831130981445,2.688969850540161
1789155079155892500,14.402892578125,-4.052061080932617,0.0037050247192382812,1.3842291831970215
1789155079173025500,14.420025634765626,-3.4123635292053223,-0.6343269348144531,-0.5029380321502686
1789155079190162700,14.43716259765625,-3.10184383392334,-0.5351743698120117,-0.5300214290618896
1789155079207298000,14.454298095703125,-1.5171900987625122,-0.9058151245117188,2.2170217037200928
1789155079224434200,14.47143408203125,0.04584097862243652,-1.145878791809082,4.629639625549316
1789155079241570300,14.4885703125,0.07673954963684082,-1.9796676635742188,6.8027753829956055
1789155079258701600,14.50570166015625,-0.6788548231124878,-3.97421932220459,9.762508392333984
1789155079275847000,14.522846923828125,-1.0799214839935303,-6.052764892578125,11.678240776062012
1789155079292977200,14.53997705078125,-5.917312145233154,-3.687924385070801,7.808469295501709
1789155079310114300,14.5571142578125,-5.095925331115723,-2.5722475051879883,5.078028678894043
1789155079327231000,14.57423095703125,-2.986311912536621,-3.0100812911987305,4.24246883392334
1789155079344362500,14.591362548828124,-4.208973407745361,-3.7179737091064453,3.825169563293457
1789155079361522400,14.6085224609375,-3.426150321960449,-3.665151596069336,3.8163890838623047
1789155079378656500,14.625656494140625,-1.819826364517212,-2.8268890380859375,2.9759132862091064
1789155079395789600,14.64278955078125,-1.185394287109375,-3.552823066711426,1.2064406871795654
1789155079412935400,14.659935302734375,-0.650589108467102,-5.6784210205078125,-0.8755733966827393
1789155079430061300,14.677061279296876,0.6768516302108765,-7.89681339263916,-2.428814649581909
1789155079447206000,14.694205810546874,2.2376904487609863,-9.528878211975098,-3.8156356811523438
1789155079464316000,14.71131591796875,1.2602310180664062,-9.184828758239746,-5.171631336212158
1789155079481475600,14.7284755859375,-0.8820083141326904,-6.6918487548828125,-6.616072177886963
1789155079498610000,14.74560986328125,-0.6433472633361816,-3.570526123046875,-7.055448055267334
1789155079515746000,14.76274609375,1.724218726158142,-0.6160812377929688,-5.941761016845703
1789155079532881700,14.779881591796874,3.527188777923584,1.9538311958312988,-5.4025187492370605
1789155079550017500,14.797017578125,3.7220497131347656,3.9689865112304688,-4.958250045776367
1789155079567167700,14.814167724609375,3.2043662071228027,4.847392559051514,-4.59027099609375
1789155079584294400,14.83129443359375,3.430522918701172,4.689957618713379,-4.61639404296875
1789155079601396500,14.848396484375,3.832058906555176,4.036761283874512,-4.391472816467285
1789155079618538500,14.86553857421875,5.77741813659668,3.6735634803771973,-5.487178802490234
1789155079635681300,14.882681396484376,4.214354515075684,3.814603805541992,-7.763993263244629
1789155079652828200,14.899828125,2.266075611114502,4.28704309463501,-4.181609630584717
1789155079669974500,14.916974609375,1.8163410425186157,4.564636707305908,-4.766523838043213
1789155079687082200,14.934082275390624,4.340216159820557,5.0467329025268555,-6.448988914489746
1789155079704241400,14.951241455078126,4.580118179321289,6.336997032165527,-6.77552604675293
1789155079721354500,14.9683544921875,2.984405517578125,7.480785369873047,-5.3480305671691895
1789155079738513700,14.985513671875,-1.3543517589569092,6.832520961761475,-2.022663116455078
1789155079755625700,15.002625732421874,-14.674038887023926,1.6445040702819824,5.088024616241455
1789155079772785700,15.01978564453125,-26.667375564575195,-11.08686351776123,13.081284523010254
1789155079789916700,15.036916748046876,4.314287185668945,-19.132266998291016,10.369939804077148
1789155079807039500,15.05403955078125,-0.6796269416809082,-15.243459701538086,4.802648544311523
1789155079824187400,15.0711875,-4.25424861907959,-4.394160270690918,2.7692885398864746
1789155079841306400,15.088306396484375,-5.759603500366211,5.258737087249756,-1.40494704246521
1789155079858467000,15.105467041015626,-2.632384777069092,7.900151252746582,-2.9555160999298096
1789155079875607000,15.12260693359375,7.287666320800781,-0.467529296875,-1.3641512393951416
1789155079892732200,15.139732177734375,4.99864387512207,-7.841815948486328,-2.8995747566223145
1789155079909879300,15.15687939453125,2.844123601913452,-8.248517036437988,-3.5911571979522705
1789155079926985200,15.173985107421874,7.237287998199463,-0.5052909851074219,-5.3334150314331055
1789155079944139000,15.191138916015625,4.600703239440918,2.6316657066345215,-4.985564231872559
1789155079961287200,15.208287109375,2.66923189163208,3.70420503616333,-3.7131800651550293
1789155079978417400,15.22541748046875,2.761563301086426,2.1591238975524902,-3.5702667236328125
1789155079995552800,15.242552734375,3.5761404037475586,-1.5465354919433594,-4.314304828643799
1789155080012684000,15.25968408203125,4.394452095031738,-3.3424224853515625,-3.8591277599334717
1789155080029830700,15.27683056640625,3.5493369102478027,-2.437037467956543,-1.8799588680267334
1789155080046932200,15.29393212890625,2.4600672721862793,-0.7610530853271484,-1.6636192798614502
1789155080064102700,15.3111025390625,2.168496608734131,0.7251501083374023,-1.534421682357788
1789155080081233000,15.32823291015625,2.0707483291625977,1.4011907577514648,-1.0048428773880005
1789155080098368800,15.34536865234375,1.408015251159668,1.4528999328613281,0.6268317103385925
1789155080115481600,15.362481689453125,0.20067554712295532,1.7302837371826172,-1.165395736694336
1789155080132636700,15.37963671875,0.3990970551967621,1.322129249572754,-0.9062404632568359
1789155080149781800,15.39678173828125,0.16558128595352173,0.5602493286132812,-0.02342572808265686
1789155080166885400,15.413885498046875,0.05656915903091431,0.04734039306640625,0.4100891351699829
1789155080184048600,15.431048583984374,1.1498384475708008,0.4962587356567383,1.5889551639556885
1789155080201191700,15.448191650390624,0.9728573560714722,0.2091226577758789,1.454641342163086
1789155080218316000,15.46531591796875,-4.259788513183594,0.2283010482788086,2.181076765060425
1789155080235441700,15.482441650390625,-7.532946586608887,1.1519174575805664,2.6557674407958984
1789155080252587300,15.499587158203125,-3.693230152130127,1.214015007019043,1.3585824966430664
1789155080269734700,15.516734619140625,-1.5961486101150513,0.41497135162353516,0.094016432762146
1789155080286841300,15.53384130859375,-1.466524362564087,-0.34728145599365234,-0.6693180799484253
1789155080304001000,15.5510009765625,-2.4785561561584473,-1.0181360244750977,0.4930598735809326
1789155080321136600,15.56813671875,-3.143918037414551,-1.2708444595336914,3.6021666526794434
1789155080338274000,15.585274169921876,-0.3069307804107666,-0.6986627578735352,4.66732931137085
1789155080355408100,15.602408203125,0.9201992750167847,-1.2082901000976562,6.454893112182617
1789155080372543700,15.619543701171875,-0.456656813621521,-3.711019515991211,9.846043586730957
1789155080389681000,15.636680908203125,-1.9131102561950684,-5.921860694885254,12.325501441955566
1789155080406796000,15.653796142578125,-4.686601161956787,-3.9343252182006836,9.730741500854492
1789155080423948000,15.670947998046875,-4.31733512878418,-2.329453468322754,6.721168041229248
1789155080441094000,15.688093994140624,-2.165066719055176,-2.657485008239746,5.610389232635498
1789155080458219800,15.7052197265625,-2.658416748046875,-2.898456573486328,3.6487393379211426
1789155080475365000,15.722365234375,-2.848740577697754,-3.1674633026123047,2.179975986480713
1789155080492496600,15.73949658203125,-1.929502010345459,-4.239130020141602,0.9246639013290405
1789155080509655300,15.7566552734375,-1.726599097251892,-6.529706001281738,-1.544299602508545
1789155080526767900,15.773767822265626,-1.4097448587417603,-8.84235954284668,-4.244724750518799
1789155080543900700,15.790900634765626,0.17006999254226685,-10.448205947875977,-5.552247047424316
1789155080561045800,15.808045654296874,1.3230171203613281,-10.056039810180664,-6.624223709106445
1789155080578177300,15.82517724609375,0.3510400056838989,-7.511519432067871,-8.388258934020996
1789155080595312600,15.842312744140624,-0.8214058876037598,-4.101839065551758,-9.294782638549805
1789155080612444000,15.85944384765625,0.374164342880249,-0.5909967422485352,-7.52120304107666
1789155080629589000,15.876589111328125,3.125013828277588,1.9125070571899414,-5.689924716949463
1789155080646690800,15.89369091796875,4.792142868041992,3.7164196968078613,-4.794140815734863
1789155080663861500,15.910861572265626,4.401076316833496,4.673213958740234,-4.12054443359375
1789155080680992300,15.9279921875,7.066309452056885,5.133565902709961,-4.66043758392334
1789155080698128400,15.94512841796875,1.1572612524032593,5.20196533203125,-2.900139570236206
1789155080715264500,15.962264404296874,0.42232823371887207,4.248723030090332,-0.24045681953430176
1789155080732394800,15.979394775390626,0.8774435520172119,3.121509075164795,-1.6390975713729858
1789155080749542000,15.9965419921875,4.783114910125732,2.1549830436706543,-5.462678909301758
1789155080766666800,16.013666748046877,6.808133125305176,2.7704544067382812,-8.191656112670898
1789155080783813000,16.030813232421874,5.160638332366943,4.665372371673584,-8.378395080566406
1789155080800943000,16.047943115234375,3.8174777030944824,6.55503511428833,-7.1460771560668945
1789155080818065200,16.065065185546874,3.4113218784332275,7.950495719909668,-5.675492763519287
1789155080835216000,16.0822158203125,1.9338542222976685,8.467161178588867,-3.8318915367126465
1789155080852351200,16.099351318359375,-9.912459373474121,6.938295364379883,0.9176795482635498
1789155080869487900,16.11648779296875,-31.457660675048828,-3.1043529510498047,9.475533485412598
1789155080886623000,16.133623046875,-6.976594924926758,-17.65419578552246,8.480146408081055
1789155080903763200,16.15076318359375,1.4697264432907104,-20.85005760192871,5.2197980880737305
1789155080920896300,16.167896240234374,-0.4074411392211914,-12.886022567749023,4.988585472106934
1789155080938031400,16.18503125,-1.5826849937438965,2.254795551300049,1.410367727279663
1789155080955167500,16.20216748046875,-0.017521142959594727,10.172723770141602,-1.5853456258773804
1789155080972302800,16.219302734375,3.7978203296661377,6.622943878173828,-2.340818166732788
1789155080989440000,16.23643994140625,7.728360176086426,-0.8794279098510742,-1.1993879079818726
1789155081006569500,16.253569580078125,-5.502098560333252,-10.331830978393555,-1.2771844863891602
1789155081023718000,16.2707177734375,0.14657926559448242,-10.440581321716309,-4.91857385635376
1789155081040847000,16.28784716796875,3.8722314834594727,-3.3501501083374023,-8.235944747924805
1789155081057979000,16.304978759765625,2.198460578918457,0.4985189437866211,-6.464535713195801
1789155081075125500,16.32212548828125,3.2068986892700195,3.108098030090332,-4.119750022888184
1789155081092258300,16.33925830078125,4.056265830993652,3.766727924346924,-3.4580020904541016
1789155081109391400,16.356391357421874,5.063405990600586,1.5751228332519531,-3.8027243614196777
1789155081126528000,16.373528076171876,5.439523696899414,-0.6135692596435547,-3.5295755863189697
1789155081143658000,16.390657958984374,4.6921868324279785,-1.5789146423339844,-3.1062138080596924
1789155081160805400,16.407805419921875,3.634039878845215,-1.5171880722045898,-2.8166089057922363
1789155081177936100,16.42493603515625,3.1779239177703857,-0.959259033203125,-2.815291404724121
1789155081195071000,16.442071044921875,3.401866912841797,0.031129837036132812,-2.233532190322876
1789155081212209000,16.459208984375,2.88431978225708,0.8672685623168945,-1.6657568216323853
1789155081229343000,16.476343017578124,0.7074635028839111,0.993077278137207,-1.3443195819854736
1789155081246480400,16.49348046875,0.13581065833568573,1.203190803527832,-1.6816083192825317
1789155081263616000,16.510615966796873,-0.07219968736171722,0.8670969009399414,-0.5582732558250427
1789155081280751000,16.527751220703124,-0.42446792125701904,0.5709238052368164,0.4163649380207062
1789155081297886200,16.54488623046875,-0.2796471118927002,-0.0031299591064453125,1.1581854820251465
1789155081315024000,16.56202392578125,-0.9132901430130005,-0.924708366394043,2.017611026763916
1789155081332158500,16.579158447265623,-1.5430206060409546,-1.6034584045410156,2.7400360107421875
1789155081349289700,16.596289794921876,-5.578531742095947,-1.7971172332763672,4.1953206062316895
1789155081366436000,16.61343603515625,-8.08046817779541,-0.24765491485595703,6.237155437469482
1789155081383567000,16.630567138671875,-2.1906235218048096,0.3558006286621094,4.3229780197143555
1789155081400697000,16.647697021484376,-1.7071317434310913,0.05831336975097656,3.0541038513183594
1789155081417845500,16.664845458984374,-1.9074641466140747,-0.20045948028564453,3.0456252098083496
1789155081434946600,16.681946533203124,-1.1797254085540771,-0.4209556579589844,3.8968963623046875
1789155081452116500,16.699116455078126,-0.18044281005859375,-0.1719951629638672,4.51344108581543
1789155081469246500,16.71624658203125,-0.2474675178527832,-0.5790309906005859,5.45357084274292
1789155081486361000,16.733361083984374,0.16653072834014893,-2.0767602920532227,6.797638893127441
1789155081503519500,16.75051953125,0.762092113494873,-4.635297775268555,8.759699821472168
1789155081520654300,16.767654296875,-1.995556354522705,-5.353581428527832,8.746402740478516
1789155081537791200,16.784791259765626,-5.606361389160156,-3.4869747161865234,5.894883632659912
1789155081554926300,16.80192626953125,-4.955850601196289,-3.4376115798950195,5.0890326499938965
1789155081572064300,16.819064208984376,-3.326413631439209,-4.5222368240356445,4.456954002380371
1789155081589200000,16.836199951171874,-2.923489570617676,-4.7453813552856445,2.955930709838867
1789155081606335000,16.8533349609375,-2.541184902191162,-4.026522636413574,1.463524580001831
1789155081623449600,16.87044970703125,-1.8645544052124023,-3.7773571014404297,0.011410951614379883
1789155081640606000,16.88760595703125,-1.468325138092041,-4.538946151733398,-1.6698119640350342
1789155081657725200,16.90472509765625,-2.025662660598755,-5.79102897644043,-3.6415765285491943
1789155081674869000,16.921868896484376,-1.5371387004852295,-6.42435359954834,-4.917016983032227
1789155081692007700,16.939007568359376,-0.617188572883606,-6.146465301513672,-5.818132400512695
1789155081709150000,16.95614990234375,-0.5124167203903198,-4.8420305252075195,-6.97640323638916
1789155081726287400,16.973287353515627,-0.11200082302093506,-3.0560264587402344,-7.583138465881348
1789155081743422500,16.99042236328125,0.9716964364051819,-0.8513040542602539,-6.835298538208008
1789155081760553700,17.0075537109375,2.9154787063598633,1.221710205078125,-5.838311672210693
1789155081777698800,17.02469873046875,4.385922431945801,2.8626856803894043,-4.7401556968688965
1789155081794831000,17.0418310546875,4.745244979858398,3.593960762023926,-3.560128688812256
1789155081811959600,17.05895947265625,4.613037109375,3.737311363220215,-3.063779592514038
1789155081829101800,17.076101806640626,4.064394950866699,3.280792236328125,-2.74247407913208
1789155081846239000,17.093239013671877,3.592400312423706,2.6637473106384277,-2.875885009765625
1789155081863374300,17.110374267578123,3.5625576972961426,2.118250846862793,-3.841416358947754
1789155081880510500,17.127510498046874,3.425044059753418,1.8347735404968262,-5.103997707366943
1789155081897645800,17.144645751953124,4.294095039367676,2.3582205772399902,-6.40859317779541
1789155081914781700,17.16178173828125,4.82212495803833,3.812936305999756,-6.706391334533691
1789155081931917600,17.17891748046875,4.309775352478027,5.342277526855469,-6.208719730377197
1789155081949053700,17.1960537109375,3.665966749191284,6.441723823547363,-5.779304504394531
1789155081966189300,17.213189208984375,2.9775357246398926,6.718853950500488,-4.6583967208862305
1789155081983325700,17.23032568359375,0.6241990327835083,5.100028991699219,-2.4450621604919434
1789155082000461800,17.2474619140625,-10.929329872131348,0.1368265151977539,2.73423171043396
1789155082017598200,17.26459814453125,-30.099456787109375,-9.250757217407227,12.509324073791504
1789155082034733600,17.281733642578125,-2.544844150543213,-16.9160213470459,11.384855270385742
1789155082051870200,17.2988701171875,-3.8526580333709717,-16.01955795288086,3.9985783100128174
1789155082069005800,17.316005859375,-2.255557060241699,-7.8946075439453125,4.931253910064697
1789155082086124000,17.3331240234375,-0.42443060874938965,3.00246524810791,1.70747709274292
1789155082103279400,17.350279296875,2.2892398834228516,5.995180130004883,-2.6042802333831787
1789155082120415000,17.3674150390625,5.540188789367676,1.9005012512207031,-3.604292869567871
1789155082137549300,17.38454931640625,-2.4546804428100586,-4.664972305297852,-5.8849263191223145
1789155082154683400,17.401683349609375,-4.872194290161133,-5.300619125366211,-6.710027694702148
1789155082171822800,17.41882275390625,4.944187164306641,-0.9362030029296875,-5.8291754722595215
1789155082188952000,17.4359521484375,4.236488342285156,1.9473762512207031,-5.704352378845215
1789155082206098400,17.453098388671876,2.0683701038360596,2.397340774536133,-4.345889091491699
1789155082223207000,17.47020703125,2.5662808418273926,0.7582864761352539,-4.234175682067871
1789155082240365800,17.48736572265625,3.743976593017578,-1.514815330505371,-4.897640228271484
1789155082257478400,17.504478515625,3.0878171920776367,-1.6740083694458008,-3.822524070739746
1789155082274638600,17.521638671875,2.3152518272399902,-0.11844444274902344,-2.3049941062927246
1789155082291774000,17.53877392578125,2.0375568866729736,1.370722770690918,-2.003671169281006
1789155082308909300,17.555909423828126,1.7715955972671509,1.953049659729004,-1.651991844177246
1789155082326044700,17.573044677734377,1.5652061700820923,1.9299993515014648,-1.4928984642028809
1789155082343183000,17.59018310546875,1.6151350736618042,1.6361398696899414,-1.6618081331253052
1789155082360316200,17.607316162109374,1.4089622497558594,1.0623254776000977,-1.7520557641983032
1789155082377453600,17.62445361328125,0.7393021583557129,0.17472362518310547,-1.3782868385314941
1789155082394589700,17.641589599609375,2.4731600284576416,-0.7150163650512695,-0.17835819721221924
1789155082411725000,17.65872509765625,0.9198645353317261,-0.7630214691162109,1.6007893085479736
1789155082428862000,17.675862060546876,-0.33764052391052246,-0.6202735900878906,2.209345817565918
1789155082445997000,17.6929970703125,-0.8476394414901733,-0.9507865905761719,2.643341064453125
1789155082463133000,17.7101328125,-2.6865506172180176,-1.3734016418457031,3.490777015686035
1789155082480268800,17.727268798828124,-11.895407676696777,-1.096989631652832,6.068967342376709
1789155082497397800,17.744397705078125,-9.552287101745605,-0.2757701873779297,5.827971935272217
1789155082514531800,17.76153173828125,-2.4770255088806152,-0.3065481185913086,3.189342975616455
1789155082531682800,17.778682861328125,-1.0656671524047852,-0.34017372131347656,2.2678167819976807
1789155082548807000,17.795806884765625,-1.005810260772705,-0.31644535064697266,1.5240823030471802
1789155082565950500,17.812950439453125,-1.0600626468658447,-0.5165128707885742,2.5006418228149414
1789155082583080700,17.830080810546875,-0.05587506294250488,-0.14488601684570312,4.14741849899292
1789155082600225300,17.847225341796875,0.7927693128585815,-0.33373355865478516,5.1157941818237305
1789155082617356300,17.864356201171876,-0.31472814083099365,-2.102829933166504,7.25081729888916
1789155082634492400,17.881492431640623,-0.6690243482589722,-4.410243034362793,8.653556823730469
1789155082651628800,17.89862890625,-3.387134313583374,-3.878084182739258,5.995061874389648
1789155082668765200,17.91576513671875,-5.532537460327148,-2.975627899169922,4.544656753540039
1789155082685900300,17.932900390625,-3.121980905532837,-3.79379940032959,4.0415239334106445
1789155082703038000,17.950037841796874,-3.2866463661193848,-5.051923751831055,4.322209358215332
1789155082720172500,17.967172607421876,-3.7145097255706787,-5.262001991271973,3.7373156547546387
1789155082737308400,17.984308349609375,-3.328864097595215,-4.223759651184082,1.9883145093917847
1789155082754440000,18.00143994140625,-2.0519559383392334,-3.522061347961426,0.4341186285018921
1789155082771589600,18.018589599609374,-0.48016053438186646,-4.041952133178711,-1.0745131969451904
1789155082788717300,18.03571728515625,-0.3532875180244446,-4.845688819885254,-2.5861823558807373
1789155082805823700,18.05282373046875,-0.018901169300079346,-5.452940940856934,-3.5308854579925537
1789155082822965800,18.0699658203125,0.1961214542388916,-5.912330627441406,-4.475915908813477
1789155082840124000,18.0871240234375,-0.4362194538116455,-6.061847686767578,-5.927319526672363
1789155082857237200,18.1042373046875,-0.03611457347869873,-5.234262466430664,-7.214543342590332
1789155082874396000,18.12139599609375,1.9165217876434326,-3.5714635848999023,-7.235204219818115
1789155082891532000,18.138531982421874,3.6536097526550293,-1.5202102661132812,-6.778916358947754
1789155082908650500,18.155650390625,3.849581718444824,0.7834739685058594,-6.332651615142822
1789155082925804500,18.172804443359375,3.8494443893432617,2.283942222595215,-5.715353012084961
1789155082942941400,18.18994140625,3.8809924125671387,2.854555130004883,-5.317296028137207
1789155082960050400,18.207050537109374,3.481851100921631,3.130709171295166,-5.0738444328308105
1789155082977212200,18.224212158203127,3.130896806716919,2.77842378616333,-5.103331565856934
1789155082994354000,18.24135400390625,3.615506172180176,2.7079086303710938,-5.235229015350342
1789155083011483400,18.2584833984375,4.248128890991211,2.4979047775268555,-6.428317070007324
1789155083028619800,18.275619873046875,4.553140640258789,3.3682961463928223,-7.4579010009765625
1789155083045757200,18.292757080078125,4.580638885498047,4.285735607147217,-7.705662727355957
1789155083062890800,18.309890869140624,4.4418840408325195,4.223328590393066,-8.255498886108398
1789155083080006100,18.327006103515625,3.202908754348755,3.794455051422119,-7.233841896057129
1789155083097164500,18.34416455078125,1.8988953828811646,3.658054828643799,-5.592746734619141
1789155083114299600,18.361299560546875,-1.1092102527618408,4.195702075958252,-3.1308720111846924
1789155083131435500,18.378435546875,-16.901073455810547,4.63388729095459,3.922435760498047
1789155083148552000,18.395552001953124,-26.65148162841797,-6.226720809936523,12.122259140014648
1789155083165708000,18.4127080078125,-3.717349052429199,-15.197872161865234,11.766611099243164
1789155083182837800,18.429837646484376,2.315474510192871,-13.332252502441406,4.314453125
1789155083199964400,18.44696435546875,2.094320297241211,-5.166914939880371,0.9161617755889893
1789155083217116200,18.4641162109375,-0.18037128448486328,4.492518424987793,-2.124309539794922
1789155083234250800,18.481250732421874,-3.857877731323242,6.2833147048950195,-3.9954893589019775
1789155083251364900,18.49836474609375,1.091545820236206,-0.08777618408203125,-2.7476038932800293
1789155083268523500,18.5155234375,2.253175973892212,-6.405523300170898,-3.737891674041748
1789155083285659400,18.532659423828125,-1.4609413146972656,-7.083860397338867,-3.825011968612671
1789155083302766300,18.549766357421873,3.538602352142334,-0.21238136291503906,-3.1619927883148193
1789155083319936500,18.5669365234375,4.799632549285889,3.5888352394104004,-2.031623363494873
1789155083337070300,18.5840703125,4.189079284667969,3.360703945159912,-1.1855015754699707
1789155083354203600,18.60120361328125,3.586310625076294,0.8002538681030273,-3.000333547592163
1789155083371317500,18.6183173828125,3.6909656524658203,-1.7530155181884766,-3.477468729019165
1789155083388475000,18.635474853515625,3.772812843322754,-2.7279844284057617,-3.1123151779174805
1789155083405606000,18.65260595703125,3.4617292881011963,-2.296253204345703,-1.1283378601074219
1789155083422746000,18.66974609375,3.2612218856811523,-1.1283073425292969,0.2633354365825653
1789155083439865600,18.686865478515625,2.064391851425171,-0.25217437744140625,0.4694952964782715
1789155083456998700,18.70399853515625,2.775961399078369,0.4578227996826172,1.093766450881958
1789155083474154000,18.721154052734374,3.431889533996582,1.043299674987793,1.337717056274414
1789155083491291100,18.738291015625,3.543092727661133,1.1049623489379883,1.0316071510314941
1789155083508427000,18.755427001953127,2.0612971782684326,0.8161697387695312,0.3372424840927124
1789155083525564700,18.772564697265626,0.15145063400268555,0.6414852142333984,0.0383915901184082
1789155083542693000,18.789693115234375,-1.167750597000122,1.386958122253418,-0.2599133253097534
1789155083559839700,18.80683984375,-2.0925984382629395,2.940913677215576,-0.2778247594833374
1789155083576947500,18.823947509765624,-3.585216760635376,2.7248167991638184,-0.04089987277984619
1789155083594106400,18.8411064453125,-4.4350385665893555,1.612992286682129,-0.34123921394348145
1789155083611242500,18.858242431640626,-3.3804056644439697,1.4986934661865234,-0.0004107952117919922
1789155083628378600,18.875378662109377,-2.7670369148254395,2.1433825492858887,0.4499659538269043
1789155083645516300,18.892516357421876,-2.745636224746704,1.4789209365844727,-0.01645505428314209
1789155083662658600,18.909658447265624,-3.189362049102783,0.7225847244262695,-0.5067398548126221
1789155083679792000,18.926792236328126,-3.177077054977417,0.4552898406982422,-0.8472981452941895
1789155083696899000,18.943899169921874,-3.036314010620117,0.22136306762695312,-0.3126554489135742
1789155083714058800,18.961058837890626,-2.7881486415863037,-0.6230039596557617,0.969833493232727
1789155083731188200,18.978188232421875,-2.701408624649048,-1.0935335159301758,2.8881852626800537
1789155083748315100,18.995315185546875,-0.9461270570755005,-0.846766471862793,4.703261375427246
1789155083765461200,19.012461181640624,0.9518699049949646,-1.490757942199707,5.142413139343262
1789155083782602800,19.029602783203124,1.1597657203674316,-2.900965690612793,5.884818077087402
1789155083799742700,19.04674267578125,-1.50706148147583,-4.768609046936035,4.99398946762085
1789155083816850400,19.063850341796876,-7.387136459350586,-4.5267333984375,4.054481506347656
1789155083834010400,19.08101025390625,-12.210262298583984,-4.765401840209961,3.00319242477417
1789155083851125000,19.098125,-10.568780899047852,-5.8454999923706055,1.5848537683486938
1789155083868282400,19.115282470703125,-7.42356538772583,-6.786861419677734,0.5538605451583862
1789155083885418200,19.132418212890624,-4.322532653808594,-7.655645370483398,-1.3050509691238403
1789155083902551800,19.1495517578125,-1.517049789428711,-7.754487037658691,-2.6831016540527344
1789155083919694300,19.1666943359375,3.317305326461792,-8.273272514343262,-1.7952831983566284
1789155083936825600,19.18382568359375,1.6661078929901123,-7.014490127563477,-2.744605302810669
1789155083953959000,19.200958984375,2.1986851692199707,-5.707515716552734,-2.930095672607422
1789155083971074800,19.21807470703125,6.256255149841309,-5.815420150756836,-3.0842185020446777
1789155083988235000,19.235235107421875,10.314323425292969,-4.844732284545898,-1.5143812894821167
1789155084005370400,19.252370361328126,10.83536148071289,-2.635960578918457,-1.7161628007888794
1789155084022505700,19.269505615234376,10.737411499023438,-0.44680023193359375,-1.501414179801941
1789155084039617800,19.28661767578125,7.128176212310791,1.1710939407348633,-1.1734330654144287
1789155084056754200,19.303754150390624,4.920769691467285,2.039522647857666,-0.4241609573364258
1789155084073913600,19.32091357421875,3.095916748046875,2.1886582374572754,0.6671684384346008
1789155084091037400,19.338037353515624,1.2049975395202637,3.0706467628479004,1.3058667182922363
1789155084108185600,19.355185546875,1.1945772171020508,3.628408908843994,1.1474703550338745
1789155084125322000,19.372322021484376,1.9675886631011963,3.53065824508667,-0.24062013626098633
1789155084142457300,19.389457275390626,3.799440860748291,3.59574556350708,-3.095656156539917
1789155084159587800,19.406587890625,6.327521324157715,4.013378143310547,-5.212121963500977
1789155084176735000,19.42373486328125,9.094183921813965,2.2790703773498535,-6.889446258544922
1789155084193860900,19.44086083984375,9.669240951538086,2.526409149169922,-7.418826580047607
1789155084211006200,19.458006103515626,7.318152904510498,4.128544807434082,-6.335305690765381
1789155084228138200,19.47513818359375,4.666048049926758,4.647784233093262,-5.162172794342041
1789155084245274600,19.492274658203126,2.2525932788848877,3.5319299697875977,-3.3459312915802
1789155084262390000,19.50939013671875,-7.992697238922119,1.3850932121276855,0.2750304937362671
1789155084279545600,19.526545654296875,-20.190120697021484,-4.6792497634887695,5.843746662139893
1789155084296681700,19.543681640625,-20.029420852661133,-12.249733924865723,9.019742965698242
1789155084313816800,19.56081689453125,-2.455639600753784,-9.117185592651367,5.376962184906006
1789155084330952700,19.57795263671875,1.3037030696868896,-6.853750228881836,4.107541084289551
1789155084348066000,19.595066162109376,0.9863083362579346,-0.8032913208007812,3.925638437271118
1789155084365226000,19.61222607421875,1.1245710849761963,3.562588691711426,-1.159358263015747
1789155084382360300,19.6293603515625,1.7749232053756714,1.838904857635498,-5.469341278076172
1789155084399497000,19.6464970703125,6.427401542663574,-2.7435922622680664,-6.90128231048584
1789155084416631800,19.6636318359375,-0.4998900890350342,-7.3418989181518555,-3.4205245971679688
1789155084433769700,19.680769775390626,-8.924077033996582,-5.962592124938965,0.015507340431213379
1789155084450880800,19.697880859375,3.5868067741394043,-0.3593893051147461,-3.4594483375549316
1789155084468041000,19.715041015625,7.325128555297852,2.2590508460998535,-3.5076444149017334
1789155084485201000,19.732200927734375,2.957998275756836,2.0673627853393555,-2.467341899871826
1789155084502312000,19.74931201171875,2.1030497550964355,0.5721206665039062,-1.2294384241104126
1789155084519448300,19.7664482421875,2.653272867202759,-0.2899456024169922,-0.4995298981666565
1789155084536584700,19.783584716796874,3.304790496826172,-0.08807754516601562,-0.3176470100879669
1789155084553721300,19.800721435546876,4.445491790771484,0.23653697967529297,-0.264407217502594
1789155084570855400,19.81785546875,3.703775644302368,-0.012021064758300781,-0.4467882215976715
1789155084587989000,19.834989013671876,1.2128230333328247,-0.5575485229492188,-1.0593522787094116
1789155084605133600,19.852133544921877,1.02364182472229,0.052066802978515625,-0.9887279272079468
1789155084622265600,19.869265625,0.5494072437286377,0.4811058044433594,-0.8195850849151611
1789155084639394000,19.88639404296875,-0.3267744183540344,0.6010961532592773,-0.143210768699646
1789155084656542500,19.90354248046875,-0.4420499801635742,0.922978401184082,0.9342517256736755
1789155084673671400,19.92067138671875,0.14503052830696106,1.1241817474365234,1.8361294269561768
1789155084690808000,19.93780810546875,0.8305429220199585,1.4864234924316406,2.8502416610717773
1789155084707945000,19.954945068359375,-0.028153300285339355,1.2802534103393555,3.503427028656006
1789155084725075200,19.9720751953125,-0.7359878420829773,0.9300003051757812,4.232933044433594
1789155084742223600,19.9892236328125,-2.1400113105773926,-0.009424209594726562,4.120286464691162
1789155084759351800,20.006351806640627,-3.8333091735839844,-0.4099159240722656,3.962200880050659
1789155084776488000,20.023488037109374,-4.773867607116699,-0.5643253326416016,3.23799991607666
1789155084793623600,20.04062353515625,-6.773286819458008,-1.2045269012451172,2.5501933097839355
1789155084810759700,20.057759765625,-14.391990661621094,-2.6083030700683594,0.8738731145858765
1789155084827895300,20.074895263671873,-9.15477180480957,-1.1180009841918945,1.9988696575164795
1789155084845035300,20.09203515625,-4.38424015045166,0.09910011291503906,1.7720446586608887
1789155084862161700,20.10916162109375,-2.479735851287842,-0.2662839889526367,2.0671377182006836
1789155084879325000,20.126324951171874,-1.154527187347412,-1.3826494216918945,3.0105409622192383
1789155084896440300,20.1434404296875,1.489715337753296,-2.132662773132324,4.087400436401367
1789155084913575700,20.16057568359375,3.2236504554748535,-3.0109424591064453,4.1690897941589355
1789155084930700500,20.177700439453126,1.7973809242248535,-4.043635368347168,4.053625583648682
1789155084947818000,20.19481787109375,-0.9414650201797485,-4.166262626647949,3.54794979095459
1789155084964960000,20.2119599609375,-10.878936767578125,-4.1759490966796875,2.7566182613372803
1789155084982117600,20.22911767578125,-11.763875961303711,-4.231849670410156,2.4596521854400635
1789155084999257900,20.2462578125,-8.264348030090332,-4.1292829513549805,0.32804036140441895
1789155085016391200,20.26339111328125,-5.275753498077393,-4.723782539367676,1.0934921503067017
1789155085033527600,20.280527587890624,-3.5261917114257812,-4.523792266845703,2.7218194007873535
1789155085050663700,20.29766357421875,-2.6145782470703125,-4.230452537536621,2.3154733180999756
1789155085067800600,20.314800537109374,-2.2461068630218506,-4.720705032348633,-0.2408369779586792
1789155085084935400,20.331935302734376,-1.209089756011963,-5.009640693664551,-1.2929778099060059
1789155085102050300,20.34905029296875,0.6212468147277832,-4.927501678466797,-0.21111160516738892
1789155085119202300,20.366202392578124,1.7606121301651,-4.67603874206543,-1.0953147411346436
1789155085136327400,20.383327392578124,2.771308422088623,-3.5400476455688477,-1.4619505405426025
1789155085153479400,20.4004794921875,4.002031326293945,-2.351621627807617,-2.0013790130615234
1789155085170615000,20.417614990234377,4.72650146484375,-1.1903419494628906,-2.2197396755218506
1789155085187751700,20.434751708984376,4.535569667816162,0.1686267852783203,-1.795141339302063
1789155085204886000,20.451885986328126,4.1745285987854,0.698094367980957,-1.472772240638733
1789155085222029300,20.469029296875,3.1305899620056152,2.210452079772949,-1.2764184474945068
1789155085239158300,20.486158203125,1.9326493740081787,3.7607946395874023,-1.51869535446167
1789155085256294400,20.50329443359375,2.1132161617279053,4.705231189727783,-1.9711955785751343
1789155085273410300,20.520410400390624,2.678389072418213,5.600576877593994,-2.1608126163482666
1789155085290566400,20.53756640625,3.838449478149414,5.40843391418457,-2.8653929233551025
1789155085307703600,20.55470361328125,4.700588226318359,4.908814430236816,-3.191108226776123
1789155085324839400,20.57183935546875,5.63672399520874,4.478092193603516,-3.4338138103485107
1789155085341968600,20.58896875,5.9980268478393555,4.284392833709717,-3.762409210205078
1789155085359116300,20.6061162109375,4.713937759399414,4.601554870605469,-4.0797953605651855
1789155085376246500,20.62324658203125,2.1512367725372314,4.506869792938232,-4.171078681945801
1789155085393384400,20.640384521484375,-1.127361536026001,4.010186195373535,-3.741661548614502
1789155085410519600,20.65751953125,-17.525312423706055,3.661327362060547,-1.0122284889221191
1789155085427655000,20.674655029296876,-23.369726181030273,-5.295865058898926,4.807453632354736
1789155085444789500,20.69178955078125,-10.643206596374512,-9.794779777526855,5.001859664916992
1789155085461927000,20.708927001953125,-2.2837066650390625,-5.236152648925781,4.308746337890625
1789155085479061500,20.7260615234375,-1.2964798212051392,-3.142289161682129,3.6047592163085938
1789155085496198000,20.743197998046874,-2.772756814956665,-0.6650400161743164,-1.9217956066131592
1789155085513334500,20.76033447265625,-5.254303932189941,-0.9065008163452148,-8.517207145690918
1789155085530471200,20.77747119140625,-0.6702958345413208,-3.674741744995117,-4.388146877288818
1789155085547612700,20.79461279296875,-2.6449108123779297,-5.985682487487793,3.7097291946411133
1789155085564742700,20.81174267578125,5.232666015625,-1.948716163635254,0.834074854850769
1789155085581878800,20.828878662109375,9.167250633239746,0.654963493347168,-2.2665114402770996
1789155085599012900,20.846012939453125,4.1426591873168945,1.5596857070922852,-3.158689022064209
1789155085616149500,20.8631494140625,2.3179473876953125,0.6199417114257812,-3.570788621902466
1789155085633285400,20.880285400390626,3.0914788246154785,-1.2518739700317383,-2.9832684993743896
1789155085650421800,20.897421875,2.975682258605957,-1.8652400970458984,-1.781042218208313
1789155085667561000,20.91456103515625,2.222726345062256,-1.082895278930664,-0.5436254143714905
1789155085684694500,20.931694580078126,1.4352449178695679,-0.7319221496582031,-0.6571695804595947
1789155085701831400,20.94883154296875,0.6891108751296997,-0.6935806274414062,-0.6990116834640503
1789155085718960400,20.96596044921875,0.2620707154273987,-1.017831802368164,-0.7418181896209717
1789155085736107300,20.983107177734375,-0.3049846291542053,-1.5892400741577148,-0.9077439308166504
1789155085753244700,21.00024462890625,-0.9583605527877808,-1.365159034729004,-0.7937228679656982
1789155085770367700,21.01736767578125,-1.071618914604187,-0.9668283462524414,-0.41268014907836914
1789155085787485000,21.03448486328125,-1.4180951118469238,-0.5312719345092773,-0.33843994140625
1789155085804645400,21.051645263671876,-1.872130036354065,-1.5531072616577148,-0.5827898979187012
1789155085821782500,21.068782470703123,-2.5174450874328613,-3.6688461303710938,-1.0649285316467285
1789155085838918000,21.08591796875,-1.486405611038208,-1.4552593231201172,1.4976096153259277
1789155085856053800,21.1030537109375,0.0637047290802002,1.2212624549865723,4.697142124176025
1789155085873190700,21.120190673828127,-1.1213922500610352,1.1612534523010254,5.359790802001953
1789155085890324500,21.137324462890625,-4.6001996994018555,-0.16036033630371094,5.243505477905273
1789155085907438000,21.15443798828125,-5.206862926483154,-0.4086189270019531,5.011730194091797
1789155085924598300,21.171598388671875,-5.268464088439941,0.37039756774902344,4.185008525848389
1789155085941732900,21.18873291015625,-2.716708183288574,0.37688732147216797,3.5879199504852295
1789155085958846000,21.205845947265626,-0.7600455284118652,-0.4072237014770508,2.6584630012512207
1789155085976005000,21.223005126953126,-0.12286043167114258,-1.5166969299316406,2.1843361854553223
1789155085993115100,21.240115234375,-1.1425981521606445,-2.036975860595703,2.7503881454467773
1789155086010249200,21.257249267578125,0.697821855545044,-2.7068653106689453,5.014026641845703
1789155086027395800,21.274395751953126,-0.24572968482971191,-2.599397659301758,6.608423709869385
1789155086044543700,21.291543701171875,-0.20949530601501465,-1.9078712463378906,7.192049026489258
1789155086061689000,21.308689208984376,-2.8182992935180664,-2.1519041061401367,5.9643683433532715
1789155086078821000,21.325821044921874,-1.3567229509353638,-3.937234878540039,5.185209274291992
1789155086095946800,21.34294677734375,2.8846054077148438,-4.069903373718262,4.41066837310791
1789155086113092900,21.3600927734375,-2.6228039264678955,-5.419089317321777,-2.8571505546569824
1789155086130228000,21.37722802734375,-0.4627952575683594,-4.428984642028809,-0.7640455365180969
1789155086147342300,21.39434228515625,3.523728609085083,-4.9189252853393555,-0.46479499340057373
1789155086164496400,21.411496337890625,2.4227123260498047,-4.922951698303223,-0.7023574113845825
1789155086181641200,21.42864111328125,0.31127047538757324,-4.05055046081543,-1.5538394451141357
1789155086198772000,21.44577197265625,-1.5168870687484741,-3.4724063873291016,-1.940433144569397
1789155086215908600,21.46290869140625,-1.8426494598388672,-2.250369071960449,-1.389737844467163
1789155086233044500,21.48004443359375,-1.0261248350143433,-1.4744482040405273,-1.3655375242233276
1789155086250203400,21.497203369140625,0.013983011245727539,-0.7398967742919922,-0.20933757722377777
1789155086267318300,21.514318359375,0.7336239814758301,0.5960454940795898,0.7946993112564087
1789155086284450800,21.531450927734376,1.8640825748443604,1.5634779930114746,2.2838263511657715
1789155086301587200,21.548587158203127,1.8793706893920898,1.5159568786621094,2.117830991744995
1789155086318723800,21.565723876953125,1.901740550994873,2.4057350158691406,2.230656147003174
1789155086335837200,21.582837158203127,0.8464999198913574,3.0980606079101562,1.9152487516403198
1789155086352990000,21.599989990234373,0.3251523971557617,2.702601432800293,1.4429917335510254
1789155086370138400,21.617138427734375,0.9358463287353516,2.8517775535583496,1.5634629726409912
1789155086387267800,21.634267822265624,2.6103153228759766,2.397407054901123,6.110464096069336
1789155086404404700,21.65140478515625,4.2705888748168945,-0.05910301208496094,9.174294471740723
1789155086421539000,21.6685390625,3.992356300354004,-1.4191908836364746,5.761709213256836
1789155086438674200,21.685674072265623,3.246689796447754,-2.978229522705078,1.930274248123169
1789155086455812400,21.702812255859374,2.4540281295776367,-3.95314359664917,-1.3071210384368896
1789155086472947700,21.71994775390625,1.8198966979980469,-3.1350882053375244,-3.1438066959381104
1789155086490083800,21.737083740234375,1.4871625900268555,-2.533496618270874,-4.599106311798096
1789155086507220000,21.754219970703126,0.035323143005371094,-1.7010886669158936,-5.468110084533691
1789155086524355300,21.771355224609376,-1.1033296585083008,-1.7694849967956543,-6.058228492736816
1789155086541492200,21.7884921875,-2.774104595184326,-2.9330101013183594,-5.922763347625732
1789155086558629000,21.805629150390626,-3.8150572776794434,-4.227662086486816,-5.847100257873535
1789155086575734500,21.822734619140626,-3.7120466232299805,-3.29178786277771,-5.023017883300781
1789155086592876300,21.839876220703125,5.589297294616699,-9.189773559570312,1.5709333419799805
1789155086610036200,21.8570361328125,-5.63845682144165,-2.296039342880249,-1.967474102973938
1789155086627171800,21.874171875,-6.144533157348633,-5.964919090270996,-2.2501370906829834
1789155086644306200,21.89130615234375,-6.7267656326293945,-6.967585563659668,-1.7577013969421387
1789155086661449500,21.908449462890626,-7.0857038497924805,-7.061288833618164,-1.1821893453598022
1789155086678556700,21.925556640625,-7.438640117645264,-7.308236122131348,-0.7621217370033264
