time,seconds_elapsed,z,y,x
1789911239471639800,0.055639892578125,-0.2860702735096216,-0.09896306305527687,0.2857112674714997
1789911239481648600,0.065648681640625,0.010223872372508049,-0.12431260836720466,0.522756155723147
1789911239491657700,0.07565771484375,0.18434242191612718,-0.08512742992639541,0.5099919512180611
1789911239501666800,0.085666748046875,0.25108839197754856,0.03249123376011848,0.4265083064433187
1789911239511676000,0.095676025390625,0.20074352161884307,0.07946867351233959,0.3342875572551042
1789911239521685000,0.10568505859375,0.0874111569494009,0.09201835848391056,0.2559735336706042
1789911239531693800,0.11569384765625,-0.09139408910572529,0.08727671691477298,0.16710249676909297
1789911239541702700,0.12570263671875,-0.24936405240297316,0.08047112855315208,0.09455890981219708
1789911239551711700,0.135711669921875,-0.3234370043516159,0.02716565482318401,-0.004192519786395133
1789911239561720800,0.145720947265625,-0.28728783260583873,-0.044126141974329944,-0.07961794578991829
1789911239571730000,0.15572998046875,-0.09850479789376258,-0.08101941008567809,-0.11402958968598395
1789911239581738800,0.16573876953125,0.12909575099051,-0.10617314056456088,-0.07255666563417762
1789911239591747800,0.175747802734375,0.2671522225499153,-0.16687632333040237,-0.0016090791644528507
1789911239601757000,0.1857568359375,0.33866204601228234,-0.21477380053699016,0.008566497086919844
1789911239611765800,0.195765869140625,0.32889877688884733,-0.24487258620262145,-0.03182604784965515
1789911239621774600,0.205774658203125,0.22772622109055518,-0.22433657865226267,-0.01773315202407539
1789911239631783700,0.21578369140625,0.1263946753382683,-0.12879939839243887,0.02254384024143219
1789911239641792800,0.225792724609375,0.028030747219920157,-0.03621346915364265,0.11166001101043074
1789911239651801900,0.2358017578125,-0.01655073730647564,-0.01044248355925083,0.10496935426536946
1789911239661811000,0.24581103515625,-0.001449029764533043,-0.028941432324051854,-0.0037135771630331872
1789911239671819800,0.25581982421875,-0.06409282520413398,-0.1281061554312706,-0.08950206481404602
1789911239681828900,0.265828857421875,-0.17164777551591395,-0.22961831844747066,-0.1710102447973564
1789911239691837700,0.275837646484375,-0.2247790617227554,-0.24071488200128077,-0.21292393488660452
1789911239701846800,0.2858466796875,-0.1937497172087431,-0.19563713839054106,-0.22029216209966687
1789911239711855900,0.29585595703125,-0.052693479311466215,-0.15040274291336536,-0.1858316010279581
1789911239721864700,0.30586474609375,0.0692114833921194,-0.1357826814085245,-0.13104556988403201
1789911239731873800,0.315873779296875,0.1272428166002035,-0.10629179850816727,-0.10753050999026745
1789911239741883000,0.3258828125,0.0760743548989296,0.03152969525158405,-0.021834815189242362
1789911239751892000,0.33589208984375,-0.010150807136297225,0.17486030782163142,0.04660221323166042
1789911239761900500,0.345900634765625,-0.03634147944748401,0.2309188796520233,0.08285301872100681
1789911239771909600,0.35590966796875,-0.08201777347326278,0.18232640591859817,0.07613298975098878
1789911239781918700,0.365918701171875,-0.07737433158159256,0.11151625515818596,0.03360138695910573
1789911239791927800,0.375927734375,-0.05186579631567001,0.05990647943019867,-0.005776902901008725
1789911239801937000,0.38593701171875,-0.03203822929561138,0.03466974684298038,0.0416435679109767
1789911239811945700,0.39594580078125,0.12271686360836029,0.011477087303996086,0.08089720847811549
1789911239821954800,0.405954833984375,0.26677579045295713,-0.028611761978268622,0.0960516325879842
1789911239831964000,0.4159638671875,0.3450701594889164,-0.06504793397188187,0.030480843785777686
1789911239841972700,0.42597265625,0.2516483639478683,-0.1071270802885294,-0.04153532176353037
1789911239851981800,0.43598193359375,0.07848375412821769,-0.12578501900732517,-0.10526351490635424
1789911239861990700,0.44599072265625,-0.05462064798176288,-0.10529869581758976,-0.18750362589340655
1789911239871999700,0.455999755859375,-0.07310965987443924,-0.10968494807779788,-0.2150211994268
1789911239882008800,0.4660087890625,-0.010522563058137892,-0.11994213819801806,-0.14979838381204752
1789911239892018000,0.476017822265625,0.09452537286877631,-0.12329670932292937,-0.07632646649647504
1789911239902027000,0.486027099609375,0.21183365543186664,-0.09916472310721873,-0.0073247533975169055
1789911239912035600,0.49603564453125,0.24527415274083614,-0.010545943933725356,0.08853672691322863
1789911239922044700,0.506044677734375,0.21419453934431074,0.03961012585461139,0.17233959370497612
1789911239932053800,0.5160537109375,0.1695902584642172,0.09129179777503013,0.15073336310721933
1789911239942062800,0.526062744140625,0.07206336569190025,0.05395078589618206,0.08627415227610617
1789911239952071700,0.53607177734375,-0.0324514862716198,-0.0034621231526136397,0.042000637720339
1789911239962080800,0.546080810546875,-0.07607318585515022,-0.04602876072525978,-0.017285262126103044
1789911239972089900,0.55608984375,0.00016483517289161682,-0.08040390853583812,-0.06739698131605983
1789911239982099000,0.566098876953125,0.13505904330909252,-0.13007716324329374,-0.07986015704795718
1789911239992107800,0.576107666015625,0.2433884851247072,-0.19653087235987185,-0.03146517864800989
1789911240002116600,0.58611669921875,0.36791970467865465,-0.2371276711642742,-0.01309003892596811
1789911240012125700,0.596125732421875,0.3979951094686985,-0.24195231484174726,-0.007433912860415876
1789911240022134800,0.606134765625,0.3178402072578668,-0.1875882719695568,0.003554368013329804
1789911240032144000,0.616143798828125,0.2041191355317831,-0.1387327633857727,-0.0213132390005514
1789911240042153000,0.626153076171875,0.15977847402393816,-0.10500468130707741,-0.03100015495214611
1789911240052162000,0.636162109375,0.1305553021490574,-0.0756119980841875,0.0036788346432149407
1789911240062171000,0.6461708984375,0.1521393574476242,-0.07241992404460906,0.05167235610280185
1789911240072179700,0.6561796875,0.17099428004324435,-0.06309212372899055,0.14338186783324927
1789911240082188800,0.666188720703125,0.22347031721174715,-0.03699497492015361,0.1932853511000052
1789911240092198000,0.676197998046875,0.25112755494415756,-0.018852584508061408,0.1728301902335137
1789911240102207000,0.68620703125,0.1821633243113756,0.00457096117734909,0.13990984434112905
1789911240112216000,0.696216064453125,0.07247720718979835,0.04865852470695972,0.0967564563890919
1789911240122225000,0.706224853515625,0.001474164205789566,0.08935644579827785,0.08484163525495678
1789911240132234000,0.71623388671875,-0.058200260034203526,0.1132569613456726,0.08398249767497182
1789911240142242800,0.726242919921875,-0.0841910258591175,0.09446867424547671,0.09367029040940106
1789911240152252000,0.736251953125,-0.08610708861351013,0.05926701248288154,0.10037640045192092
1789911240162261000,0.746260986328125,-0.026009470525383948,0.040402737537026404,0.10830105597134679
1789911240172269800,0.756269775390625,0.03382335914671421,0.03167407215833664,0.11741988971140235
1789911240182279000,0.76627880859375,0.07742226237654685,0.009196282890439033,0.1029017907436937
1789911240192288000,0.7762880859375,0.06692541828155517,0.017073884397745133,0.07203220336865633
1789911240202297000,0.786297119140625,0.00043429976403713225,0.03191197256743908,0.01588273838441819
1789911240212306000,0.796305908203125,-0.0440063149869442,0.0260813667178154,0.022094671701826153
1789911240222314800,0.806314697265625,-0.04760521626174449,0.01452770704627037,0.010591792369447649
1789911240232323800,0.81632373046875,-0.031653613892197605,-0.019440029007196425,-0.008235767295211553
1789911240242333000,0.8263330078125,0.03720540280044079,-0.05483049134016037,0.02008362414035946
1789911240252342000,0.836342041015625,0.11650807209610939,-0.059414896520972246,0.08279109593331814
1789911240262350800,0.846350830078125,0.14370061492621897,-0.06483341443836689,0.13003193586207926
1789911240272360000,0.85635986328125,0.11812193703353405,-0.054063598620891565,0.135592236870341
1789911240282369000,0.866369140625,0.0971925462514162,-0.027670097213983533,0.11522431589588522
1789911240292377900,0.8763779296875,0.022203648501634598,-0.0008019640326499939,0.10163831014651804
1789911240302387000,0.886386962890625,-0.019997662889957427,0.007709259203076363,0.10470986307896674
1789911240312395800,0.896395751953125,-0.033625206226110455,-0.0012204817056655883,0.12607088674400002
1789911240322404900,0.90640478515625,-0.026857611787319182,-0.019689619854092597,0.10205105566587298
1789911240332414000,0.9164140625,0.03579495148062706,-0.06566168195605278,0.08574757111873477
1789911240342423000,0.926423095703125,0.0686409900277853,-0.10797931320369243,0.09507215656396001
1789911240352432000,0.93643212890625,0.09091244306862353,-0.1248860243409872,0.07885730014834552
1789911240362440700,0.946440673828125,0.056738955309987064,-0.13309972593486308,0.09854487417582422
1789911240372449800,0.95644970703125,-0.03433656936585903,-0.1325017600417137,0.09966565836668013
1789911240382459000,0.966458984375,-0.10572305870950222,-0.11409867286682128,0.07499054171759635
1789911240392468000,0.976468017578125,-0.19117314471900462,-0.09487257887125014,0.018940116661041975
1789911240402476800,0.986476806640625,-0.21067805565595626,-0.06207797825038433,-0.03380195103250444
1789911240412486000,0.99648583984375,-0.2659177123188972,-0.05616320124864578,-0.024218787716329095
1789911240422495000,1.006494873046875,-0.3233656926810741,-0.0438449869453907,-0.011260229682922363
1789911240432504000,1.016504150390625,-0.3562485561072826,-0.06326748029589653,-0.016229177201911808
1789911240442513000,1.026512939453125,-0.36703590758144855,-0.10939502522051334,-0.050916313571110365
1789911240452521700,1.036521728515625,-0.3622480887830257,-0.15786708744466305,-0.059687064525857564
1789911240462530800,1.04653076171875,-0.2943266452014446,-0.14722352835536,-0.08025573223680257
1789911240472540000,1.056539794921875,-0.1362888773649931,-0.10240998863875865,-0.1034175582461059
1789911240482549000,1.066549072265625,0.005747603741288185,-0.10618716908991337,-0.07834156917855144
1789911240492558800,1.076558837890625,0.09332885656058788,-0.12163900524377823,-0.019127455926686524
1789911240502567000,1.08656689453125,0.07698504000306129,-0.13225918345749377,-0.0006227350082248449
1789911240512576800,1.09657666015625,-0.0015104045629501341,-0.12201952899396419,-0.0527467438686639
1789911240522585900,1.1065859375,-0.17204817301034928,-0.12895429669320582,-0.13290018477477133
1789911240532594000,1.116593994140625,-0.3292091580122709,-0.16990531576275825,-0.16293533061966298
1789911240542604000,1.12660400390625,-0.3919651816546917,-0.19000994615852831,-0.17844803011529148
1789911240552613000,1.136613037109375,-0.3662485565960407,-0.15243337195813655,-0.16429470933936535
1789911240562622000,1.1466220703125,-0.22579145363569258,-0.13158406067490577,-0.12252762464657425
1789911240572630800,1.156630859375,-0.04979015908539295,-0.1198445230424404,-0.049925329772382974
1789911240582639900,1.166639892578125,0.03922551045119762,-0.13207622810602188,0.024025895492732523
1789911240592649000,1.17664892578125,0.057060442349314684,-0.12578618805110453,0.048087300690263506
1789911240602657800,1.18665771484375,0.0789542942494154,-0.06635258682966232,0.0053626230116933585
1789911240612667000,1.1966669921875,0.13704057251513002,-0.018544541472196578,0.04006079223155975
1789911240622676000,1.206676025390625,0.1963414872676134,-0.01941372552216053,0.08680917246825992
1789911240632685000,1.21668505859375,0.21350246542692183,-0.03652735740840435,0.11012465466931462
1789911240642694000,1.22669384765625,0.165075411388278,-0.05326747980713844,0.06339307943694293
1789911240652702700,1.23670263671875,0.12200257785916328,-0.06876607771217823,-0.00006144786365330219
1789911240662711800,1.2467119140625,0.06953297043144703,-0.10604805288016796,-0.06870733326226472
1789911240672721000,1.256720947265625,-0.006804419317841529,-0.13497954833209513,-0.09026735009811818
1789911240682730000,1.26672998046875,-0.033682489371299744,-0.17688859877884386,-0.08699475816823542
1789911240692739000,1.276739013671875,-0.04407938022315502,-0.16784546062350272,-0.07022862454541028
1789911240702748000,1.286747802734375,-0.043781274059414864,-0.11976853519678116,-0.024777152251452206
1789911240712757000,1.296757080078125,-0.0725140320688486,-0.05645312410593033,0.027644378250837324
1789911240722765800,1.306765869140625,-0.06412789651751517,-0.026094226199388504,0.046505073000118136
1789911240732775000,1.31677490234375,-0.03539981468319893,-0.008214286115765572,0.04654715857617557
1789911240742784000,1.326783935546875,-0.01744330223202705,0.01102291379570961,0.09163286629766225
1789911240752792800,1.336792724609375,0.016180734950304032,0.02174947499334812,0.11040325241498648
1789911240762802000,1.346802001953125,0.031275428229570384,0.017600538620352744,0.11171075481697916
1789911240772811000,1.35681103515625,-0.021147417446970938,0.02571487149298191,0.12310199046842753
1789911240782820000,1.366820068359375,-0.06675532241165638,0.03480594044327736,0.09939239438325166
1789911240792828700,1.37682861328125,-0.10661094745993614,0.027262100934982297,0.01850048313476145
1789911240802837800,1.386837646484375,-0.133556822052598,-0.003525836038589477,-0.03668393620960414
1789911240812846800,1.396846923828125,-0.10462357303500175,-0.014894202271103859,-0.04582995021753013
1789911240822856000,1.40685595703125,-0.02566518713235855,-0.042910920965671534,-0.055320941738225514
1789911240832865000,1.416864990234375,0.03925415202379227,-0.07809680063724517,-0.02793287633601576
1789911240842873900,1.426873779296875,0.06452069522738456,-0.08290040152668952,0.019133483808673916
1789911240852883000,1.436883056640625,0.1048480294406414,-0.04499123437106609,0.03495006162170321
1789911240862892000,1.44689208984375,0.09310732276439666,-0.016176058775186537,0.06937558791264892
1789911240872900900,1.45690087890625,0.049965515652298925,0.03398877884149551,0.08387015987429768
1789911240882910000,1.466909912109375,-0.03170329825282096,0.07927402772307396,0.0653344227630645
1789911240892918800,1.476918701171875,-0.0915413886219263,0.10156476998627186,0.024271321621164677
1789911240902928000,1.486927978515625,-0.060548284465074535,0.06020458559393883,-0.040602826686389745
1789911240912937000,1.49693701171875,-0.04082183973193168,0.019546411991119384,-0.04356434337310493
1789911240922946000,1.506946044921875,0.055260114929080006,-0.026934184154868125,-0.04724767152834684
1789911240932955000,1.516954833984375,0.1764993072003126,-0.08456804247796534,-0.026726861547119913
1789911240942963700,1.526963623046875,0.2109726546883583,-0.11948854921162128,0.011400551469065249
1789911240952972800,1.536972900390625,0.1715332092255354,-0.13265607382059097,0.05193403924629092
1789911240962982000,1.54698193359375,0.1717453906714916,-0.1126075575262308,0.03517462762519717
1789911240972991000,1.556990966796875,0.13857669604122638,-0.06639817953705787,0.03671696169637143
1789911240982999800,1.566999755859375,0.020623101311922073,-0.02111760683059692,0.08233034655377268
1789911240993009000,1.5770087890625,-0.0555915388405323,0.002957096239924431,0.09929824982639401
1789911241003018000,1.58701806640625,-0.10223580111563205,0.023231237983703613,0.09142291334141045
1789911241013027000,1.597027099609375,-0.08921849863231182,0.028642157116532323,0.05161141969580203
1789911241023036000,1.607035888671875,-0.06594634411633014,-0.0008382043898105621,0.021394122217036782
1789911241033044700,1.617044677734375,-0.003723404437303543,-0.058414779567718504,0.006927132382057607
1789911241043054300,1.627054443359375,0.050875616234540934,-0.15894669937491415,0.005222045497223734
1789911241053063400,1.6370634765625,0.0657780018121004,-0.21905834598839283,0.017342216477729377
1789911241063072500,1.647072509765625,0.052989247387647626,-0.2433241877168417,0.041825609946995974
1789911241073081600,1.65708154296875,-0.02061784061491489,-0.22383272078335284,0.051933016332983965
1789911241083090400,1.66709033203125,-0.0893587838858366,-0.1484054316163063,0.005748188263177871
1789911241093099300,1.677099365234375,-0.1314180564582348,-0.10511106429100037,-0.04768416324947029
1789911241103108400,1.6871083984375,-0.1377004977285862,-0.09121171827614306,-0.08109064869098365
1789911241113117400,1.697117431640625,-0.03265782249867916,-0.09350947382450103,-0.07740121958851814
1789911241123126500,1.70712646484375,0.08107084801197051,-0.0854763894945383,-0.046435368764773007
1789911241133135400,1.71713525390625,0.16304244425594805,-0.09027940586209296,-0.004854344695992768
1789911241143144400,1.72714453125,0.17010989842414856,-0.059841597500443454,0.01831354572791606
1789911241153153500,1.737153564453125,0.15583587387800216,-0.04808393968939781,0.025744462913647292
1789911241163162400,1.747162353515625,0.15891805780231952,-0.04098901299238205,-0.0029677272317931054
1789911241173171500,1.75717138671875,0.16931261056661606,-0.06454758323431015,-0.029503925045020876
1789911241183180300,1.76718017578125,0.1862818655461073,-0.09610942718982696,-0.04798175795655697
1789911241193189400,1.777189453125,0.14053835150301455,-0.14421031801402567,-0.06469616139214486
1789911241203198500,1.787198486328125,0.10710662202239037,-0.15425766477584837,-0.09823986334726213
1789911241213207600,1.79720751953125,0.05763794997632503,-0.13189853345155717,-0.08534644297193736
1789911241223216400,1.80721630859375,0.012387772408127783,-0.0737251614242792,-0.009521203995868564
1789911241233225500,1.8172255859375,0.012418167546391487,-0.0014700725525617598,0.0608997647838667
1789911241243234300,1.827234375,0.012400047367811202,0.011992635610699652,0.10843998951800167
1789911241253243400,1.837243408203125,-0.018856676161289214,-0.0073942019045352934,0.0975516618873924
1789911241263252500,1.84725244140625,-0.03639116380810738,-0.05249591091275215,0.04258249272890389
1789911241273261300,1.85726123046875,-0.03258417274057865,-0.09547112928628922,0.01915185971558094
1789911241283270400,1.8672705078125,-0.003161094379425049,-0.1412941383063793,-0.019637159014493227
1789911241293279500,1.877279541015625,0.021228665989637373,-0.17860943122208117,-0.04636427628993988
1789911241303288600,1.88728857421875,0.0017518121033906935,-0.2000222216069698,-0.05852715390101075
1789911241313297400,1.89729736328125,-0.05637830530405044,-0.21884441097676752,-0.09732092187143862
1789911241323306200,1.90730615234375,-0.11433832684159279,-0.2616892809689045,-0.10171608809046447
1789911241333315300,1.9173154296875,-0.10416296978592872,-0.2797872477173805,-0.12008563832193613
1789911241343324400,1.927324462890625,-0.05740589478611946,-0.2297936750143766,-0.11612513719312846
1789911241353333500,1.93733349609375,0.006907879692316055,-0.14943243657648564,-0.03948043506033718
1789911241363342600,1.947342529296875,0.06016600714921951,-0.09623626843988894,0.05599558959677815
1789911241373351400,1.957351318359375,0.0859732331007719,-0.046184243547916407,0.13020312771052123
1789911241383360500,1.967360595703125,0.073259297478199,-0.0679828183799982,0.1746082327567041
1789911241393369300,1.977369384765625,0.02633621826171875,-0.04505319369137287,0.06125811323486268
1789911241403378400,1.98737841796875,-0.00127834937274456,-0.035392215898633,-0.04328231156133115
1789911241413387300,1.99738720703125,-0.011593407160043716,-0.0999637645304203,-0.0747985628094524
1789911241423396400,2.007396240234375,0.022146365356445312,-0.12660744130611418,-0.06001059739179909
1789911241433405400,2.017405517578125,0.06567921761274337,-0.1429886672645807,-0.016467004545778034
1789911241443414500,2.02741455078125,0.09442483510375023,-0.19185294367671013,0.13102832648828625
1789911241453423600,2.037423583984375,0.14518880765736103,-0.136022335383296,0.11825506189391016
1789911241463432200,2.04743212890625,0.19094693474769592,-0.11450140844881534,0.050915144527330994
1789911241473441300,2.057441162109375,0.24841595789790152,-0.1947206080675125,0.11503525959718972
1789911241483450400,2.067450439453125,0.29542729991972444,-0.22693594749569893,0.18765490746498106
1789911241493459500,2.07745947265625,0.2640542565345764,-0.13909633600115776,0.1675536015374586
1789911241503468500,2.087468505859375,0.18491934502124785,0.006367781466245651,0.08762056191638111
1789911241513477400,2.097477294921875,-0.010785597908496857,-0.04080021242201328,0.02391103694140911
1789911241523486500,2.107486572265625,-0.14354863923490047,-0.039085225197672845,0.00376841262280941
1789911241533495600,2.11749560546875,-0.1585784505844116,-0.07256546999514102,-0.004738792024925351
1789911241543504400,2.12750439453125,-0.18724106596708295,-0.07941957367360591,-0.0342675227176398
1789911241553513200,2.13751318359375,-0.20611177065372466,-0.019714169773459432,-0.03913746684156358
1789911241563522300,2.147522216796875,-0.16760346856117248,0.027736732709407803,-0.05557824096754193
1789911241573531400,2.157531494140625,-0.07832768678367137,0.07784078004956245,-0.05821823408231139
1789911241583540500,2.16754052734375,0.011090133813023567,0.07226794835329055,-0.03596241700202226
1789911241593549600,2.177549560546875,0.06355097341239452,0.05328092381060123,-0.0147905227009207
1789911241603558400,2.187558349609375,0.09025251785516739,0.033110242441296574,0.012711086078360675
1789911241613567200,2.197567138671875,0.11099018545746803,0.03277706496417522,0.11248064321093261
1789911241623576300,2.207576416015625,0.13778466888070107,0.055666357642412186,0.18838117591291664
1789911241633585400,2.21758544921875,0.1700771651983261,0.10668401269614695,0.16045841911211609
1789911241643594500,2.227594482421875,0.15853344239890574,0.1470288825660944,0.08243935988619923
1789911241653603300,2.237603271484375,0.12460253122448921,0.09839373873472212,0.08751074486635625
1789911241663612400,2.2476123046875,0.07846738751530646,0.06512801347076892,0.1526476722959429
1789911241673621500,2.25762158203125,0.11560907742977142,0.07280863110125065,0.1865761723175645
1789911241683630600,2.267630615234375,0.12127309454083442,0.0764531250834465,0.17928221591711044
1789911241693639400,2.277639404296875,0.08904314206540584,0.009435936865210532,0.20204035649634897
1789911241703648300,2.287648193359375,0.09249941999912262,-0.04960603469014167,0.21736739722676574
1789911241713657300,2.2976572265625,0.11443418843150138,-0.09984101493358612,0.18962138523235916
1789911241723666400,2.30766650390625,0.1820727234184742,-0.09229425281584262,0.11196911349222063
1789911241733675500,2.317675537109375,0.19324527481794357,-0.10285013362169265,0.020596797826886174
1789911241743684400,2.327684326171875,0.14401801031231878,-0.1137058741569519,-0.0128570704203099
1789911241753693400,2.337693359375,0.03328618353009224,-0.11254793629348277,0.009898074484243988
1789911241763702300,2.347702392578125,-0.04374094204902649,-0.09903671281337738,0.020129837902262807
1789911241773711400,2.35771142578125,-0.0900251388400793,-0.06827098767161369,0.00005655249282717705
1789911241783720400,2.367720458984375,-0.1202022504389286,-0.04078676841855049,0.059997007257863874
1789911241793729300,2.377729248046875,-0.10551204630732536,-0.01355564714372158,0.10198993659578263
1789911241803738400,2.38773828125,-0.02823065370619297,0.004095744881033897,0.11230009901225566
1789911241813747500,2.39774755859375,0.06856032600700855,-0.005340776506066322,0.07816007513180374
1789911241823756500,2.407756591796875,0.14328385081887243,-0.03162204971015453,0.017850640923902393
1789911241833765600,2.417765625,0.12432429880499839,-0.09274258110523223,0.0005577069479972123
1789911241843775500,2.427775390625,0.06808218710124492,-0.1628665031671524,-0.014518208565562962
1789911241853784300,2.437784423828125,0.004770867663621902,-0.18499474834501742,-0.07774784106910228
1789911241863793400,2.44779345703125,-0.01187865384221077,-0.21930618326961993,-0.1137558507785201
1789911241873802500,2.457802490234375,0.04628127418160438,-0.2552361593067646,-0.10794380349889397
1789911241883811600,2.4678115234375,0.09079612321257591,-0.29202772060930726,-0.11652129690386354
1789911241893820400,2.4778203125,0.12702829706668853,-0.26312662029564376,-0.04681581944972277
1789911241903829200,2.487829345703125,0.1097322943508625,-0.17275602901875972,0.08539521401710808
1789911241913838300,2.49783837890625,0.0745101743221283,-0.031039865908026692,0.17395561406686902
1789911241923847400,2.507847412109375,-0.010094108512997626,0.060550622552633285,0.14712510948218405
1789911241933856500,2.5178564453125,-0.11108780061304568,0.09254442818462848,0.11138853712528943
1789911241943865300,2.527865234375,-0.16881342887282372,0.10443594150841236,0.10485621274709701
1789911241953874400,2.53787451171875,-0.2020394066482782,0.07071195108294487,0.09113689947426319
1789911241963883500,2.547883544921875,-0.24618425332307814,-0.0036930092990398403,0.03976115169785917
1789911241973892400,2.557892333984375,-0.26198621808886524,-0.06685936730802058,-0.02719758433140814
1789911241983901400,2.5679013671875,-0.25244331371784207,-0.120263040715456,-0.08953063332140446
1789911241993910300,2.57791015625,-0.19344927295744418,-0.13002163366377353,-0.06169014797657728
1789911242003919400,2.58791943359375,-0.06814180833399296,-0.07016951476931571,0.01282945176102221
1789911242013928400,2.597928466796875,0.045448330488801,0.008256956213712691,0.11171265451312064
1789911242023937500,2.6079375,0.08950082270503043,0.012304185777902602,0.14887239154092965
1789911242033946600,2.617946533203125,0.07018821946978569,-0.004927519530057906,0.1177862022731453
1789911242043955200,2.627955078125,0.021819033098220825,-0.012166823133826256,0.09499708203375339
1789911242053964000,2.637964111328125,-0.013690087178349495,-0.0011328034222126005,0.0666183981589973
1789911242063973000,2.64797314453125,-0.017177929294109343,-0.008860767325758934,0.06600333500057458
1789911242073982200,2.657982177734375,-0.02348141335248947,-0.020708441507816314,0.07359824710898101
1789911242083991000,2.667990966796875,-0.015986089161038396,-0.03904372414350509,0.07231069151647389
1789911242094000000,2.678000244140625,-0.0002951835542917251,-0.055775663235783576,-0.00574183158762753
1789911242104009200,2.68800927734375,-0.04014379433989525,-0.13104279340505598,-0.09363806864023208
1789911242114018300,2.698018310546875,-0.023543957194685935,-0.1590185955673456,-0.15009674570411444
1789911242124027100,2.708027099609375,-0.0011842413485050201,-0.14662497794032095,-0.10198599107302725
1789911242134036000,2.718035888671875,0.05901566807031631,-0.1513110899299383,-0.03423486255705356
1789911242144045000,2.728045166015625,0.10077040473818778,-0.11313771888017654,0.0319094152841717
1789911242154054100,2.73805419921875,0.10845686758756637,-0.08556406777799129,0.065185223550722
1789911242164063200,2.748063232421875,0.046969256445765495,-0.020986673927307128,0.06520999266579747
1789911242174072300,2.758072265625,0.03872457519173622,0.03644961599707603,0.014813465185090899
1789911242184081200,2.7680810546875,-0.006738368344306946,-0.008916881427168845,-0.030995076918229458
1789911242194090200,2.77809033203125,-0.0066261401414871215,-0.07853928370773791,-0.09544818680211901
1789911242204099000,2.78809912109375,0.0785311004012823,-0.18558628449738024,-0.1445316589228809
1789911242214108200,2.798108154296875,0.12231471254825592,-0.17811784831285477,-0.27632432084716857
1789911242224117000,2.808116943359375,0.06324176133275032,-0.2044634189248085,-0.3195808403801173
1789911242234126000,2.8181259765625,-0.02839315079152584,-0.27626024263501164,-0.1693243010044098
1789911242244135200,2.82813525390625,-0.04562134896814823,-0.22796529054343698,-0.01271766194961965
1789911242254144300,2.838144287109375,-0.02480593995451927,-0.11410393356382846,0.026948431875929234
1789911242264153300,2.8481533203125,-0.08046411429047584,-0.01686521008312702,0.03389898166619241
1789911242274162200,2.858162109375,-0.116751233202219,0.08346271158456801,0.052134237993508574
1789911242284171000,2.8681708984375,-0.14355916062891483,0.16190262657105922,0.1341590987946838
1789911242294180000,2.87818017578125,-0.08512684540450573,0.22504443466067311,0.17607209476418792
1789911242304189200,2.888189208984375,-0.027466099074482917,0.2258031440734863,0.21662746557965873
1789911242314198300,2.8981982421875,-0.03858955063521862,0.17581717015504836,0.18739289552792907
1789911242324207000,2.90820703125,-0.0719131435662508,0.08998363778591155,0.09938369962014257
1789911242334216200,2.91821630859375,-0.057739656785130496,-0.032197219249606134,-0.01177745849005878
1789911242344225300,2.928225341796875,-0.014125555986166,-0.13790683395564554,-0.09457271914184093
1789911242354234000,2.938234130859375,0.008238836035132409,-0.2044721867531538,-0.1039224390283227
1789911242364243200,2.9482431640625,0.03172609460651874,-0.21295126128494737,-0.07391096631996333
1789911242374252000,2.958251953125,0.0033037177205085754,-0.18834873494803905,-0.05057400293946266
1789911242384261000,2.96826123046875,-0.021724340552091596,-0.12528116113841534,-0.011630670430511235
1789911242394270200,2.978270263671875,-0.013275661158561707,-0.027498832300305365,0.03391987832374871
1789911242404279300,2.988279296875,0.006758826610445976,0.039682022047042846,0.06871511470992117
1789911242414288100,2.9982880859375,0.013019056048989295,0.09935293915569782,0.13627839250359683
1789911242424297200,3.008297119140625,0.003355740168690681,0.12578443448543547,0.17137473072819412
1789911242434306000,3.01830615234375,0.007386603119969367,0.13021160327792167,0.1663655973292887
1789911242444315100,3.028315185546875,0.026926585370302198,0.06564414629936217,0.13506477893013508
1789911242454324200,3.03832421875,-0.008050035464763641,-0.05777414357662201,0.05125376536455005
1789911242464333000,3.0483330078125,0.007781155395507812,-0.18201485575139523,-0.0982618925159797
1789911242474342100,3.058342041015625,0.11000701963901519,-0.27010522713661195,-0.17649371770974248
1789911242484351200,3.068351318359375,0.15229367122650145,-0.32759529307484625,-0.16069840188045054
1789911242494360300,3.0783603515625,0.11581132200360297,-0.2880921347260475,-0.09105338590927421
1789911242504369200,3.088369140625,0.024659809482097624,-0.16949556591808795,-0.0867084155075252
1789911242514378000,3.0983779296875,-0.16395254483819008,-0.07460077521502971,-0.09328611339740454
1789911242524387000,3.108386962890625,-0.29046470907628535,0.04437865543067455,-0.023983261927403507
1789911242534396200,3.118396240234375,-0.24105039756596086,0.15486498301923274,0.03748652129676193
1789911242544405200,3.1284052734375,-0.16896306647658346,0.20552666424214838,0.13570073874611407
1789911242554414300,3.138414306640625,-0.12525368860960007,0.203705294033885,0.17609054373633115
1789911242564423200,3.148423095703125,-0.04277063571214676,0.1562140595406294,0.14604297680128364
1789911242574432300,3.158432373046875,0.05349661238789558,0.09432312829494476,0.07795534633994101
1789911242584441000,3.168441162109375,0.23071546603441237,0.0189835174113512,-0.031207185298949478
1789911242594450200,3.1784501953125,0.360328518897295,-0.09415127885937691,-0.07694273523129522
1789911242604459000,3.188458984375,0.4342138393193483,-0.14054302767813204,-0.07550064666420221
1789911242614468000,3.198468017578125,0.35438685388863084,-0.13173311375677585,-0.026897176612727343
1789911242624477200,3.208477294921875,0.22204174571335314,-0.09431494498848915,-0.049560916906781494
1789911242634486300,3.218486328125,0.11208850208818912,-0.03220774064362049,-0.06416979943048208
1789911242644495400,3.228495361328125,0.0576741903334856,0.006056231299042702,-0.0616099588798359
1789911242654504000,3.23850390625,0.04244447249770164,0.01568272230029106,-0.010628507650643586
1789911242664513000,3.248512939453125,0.03919979148805141,0.001110007068514824,0.0656132031718269
1789911242674522000,3.258522216796875,0.018560323563218115,-0.03437164067924022,0.07359795484803616
1789911242684531200,3.26853125,-0.06753507461249827,-0.03404138581156731,0.05086692147143185
1789911242694540300,3.278540283203125,-0.14028057734966276,-0.04312251788973808,0.042992863628081975
1789911242704549000,3.288549072265625,-0.1521609847575426,-0.06126549282371997,0.006858122266456484
1789911242714558200,3.29855810546875,-0.14411913259923456,-0.1000765772551298,-0.005909370174258947
1789911242724567300,3.3085673828125,-0.1109650510162115,-0.11416472384035586,-0.017638057619147003
1789911242734576000,3.318576171875,-0.019428338569402695,-0.1040548332363367,-0.010693827971816063
1789911242744585000,3.3285849609375,0.08293722640573978,-0.11580430774092673,-0.0036031025258824226
1789911242754594000,3.338593994140625,0.09118366122543811,-0.11269698937535286,-0.013012260982021689
1789911242764603100,3.34860302734375,0.06285363879799842,-0.0999637645304203,-0.036520818069763476
1789911242774612200,3.3586123046875,0.00523497804403305,-0.08582125740945339,-0.05177088457383215
1789911242784621300,3.368621337890625,-0.0373398428350687,-0.06751812347769737,-0.04359736885987222
1789911242794630100,3.378630126953125,-0.07473053907454014,-0.07405716985762119,-0.0034224121967330575
1789911242804639000,3.388638916015625,-0.05297931051552295,-0.03933949221968651,0.015937573844194412
1789911242814648000,3.39864794921875,0.015344284126162528,-0.030541853258013722,0.0376814593469724
1789911242824657200,3.4086572265625,0.07296879009902477,-0.05178571681678295,0.09001585955508053
1789911242834666200,3.418666259765625,0.07708791585564613,-0.06473404571712017,0.11399707565587014
1789911242844675000,3.428675048828125,0.0525941105902195,-0.046512160328030586,0.14159805315639823
1789911242854684200,3.43868408203125,0.03344634252786636,-0.017049334478378295,0.11030355490017682
1789911242864693200,3.448693359375,0.04061258089542389,-0.013032500052452087,0.04897507984284311
1789911242874702300,3.458702392578125,0.053687166523933405,-0.02218961997628212,-0.007589322617836296
1789911242884711200,3.468711181640625,0.05091419467926025,-0.04678980822563171,-0.05893737866971641
1789911242894720000,3.478719970703125,0.06174070912003517,-0.06560556785464286,-0.046132696023769675
1789911242904729000,3.48872900390625,0.05219955831468105,-0.08341361174583435,0.010467691065743565
1789911242914738200,3.49873828125,0.01114274078309536,-0.07896832277476787,0.055601219984330236
1789911242924747300,3.508747314453125,-0.10664192712008952,-0.05321779544651508,0.07819116438981145
1789911242934756000,3.518756103515625,-0.17285130608677862,-0.03726502403318882,0.04556786521524191
1789911242944765200,3.52876513671875,-0.24592238751649856,-0.010225041416287422,0.018496245351061223
1789911242954774000,3.53877392578125,-0.29939737259447574,0.0007423427999019623,0.04085767823029309
1789911242964783000,3.548783203125,-0.27920447939336296,-0.005989595803618431,0.03369834452755749
1789911242974792200,3.558792236328125,-0.2338514259725809,-0.021480010402202605,0.026439203712157903
1789911242984801000,3.568801025390625,-0.16389526169300078,-0.03298457023501396,0.031182854575291276
1789911242994810000,3.57881005859375,-0.1414087045967579,-0.03137655051648617,0.0627453926505521
1789911243004819200,3.588819091796875,-0.14742109675407408,-0.017150456765294073,0.027096936968527732
1789911243014828300,3.598828369140625,-0.036168460968136786,-0.021403438034653662,-0.019840901425667107
1789911243024837400,3.60883740234375,0.100590956518054,-0.054339492952823636,-0.026450455758534372
1789911243034846000,3.618845947265625,0.26813421932458875,-0.09027005351185798,-0.028912535023130476
1789911243044855800,3.628855712890625,0.36231706236600875,-0.11998539281785488,-0.008623195710219442
1789911243054865000,3.638864990234375,0.326629662913084,-0.13884849871993063,0.00549238687120378
1789911243064874000,3.6488740234375,0.2533738725662231,-0.1175356615781784,-0.03682908030133694
1789911243074883000,3.658883056640625,0.1380710846066475,-0.07497077757120132,-0.04235401773527264
1789911243084892000,3.668891845703125,0.012245149067044258,-0.03216448602378368,-0.03668561671003699
1789911243094900700,3.678900634765625,-0.12524550530314446,-0.011174889487028121,-0.05149393079597503
1789911243104909800,3.688909912109375,-0.17958266016840935,0.01988894181847572,-0.01792819967214018
1789911243114919000,3.6989189453125,-0.16896423552036285,0.021971593311429023,0.009666055826656519
1789911243124928000,3.708927978515625,-0.0682224723547697,0.009890694895386696,0.018124087570421398
1789911243134936800,3.718936767578125,0.08145955506861209,-0.021423896300792694,0.017805851934105155
1789911243144946000,3.72894580078125,0.22242986824810504,-0.07791501432955264,0.0030941666230559347
1789911243154955000,3.738955078125,0.30913433823287484,-0.12669511958956717,0.0026777313092723487
1789911243164963800,3.7489638671875,0.31485096231400966,-0.1370288820773363,-0.03799954885281622
1789911243174973000,3.758972900390625,0.27832185133993625,-0.11053951908051966,-0.041213286734931166
1789911243184981800,3.768981689453125,0.20617899067103862,-0.11142506974339485,-0.04069306225311011
1789911243194990800,3.778990966796875,0.09781740015149117,-0.11288637446761131,-0.05298515573441982
1789911243205000000,3.789,0.014345336216688155,-0.1330897890627384,-0.0720522963086143
1789911243215009000,3.799009033203125,-0.03517360471189022,-0.15594225686192512,-0.06175013453550637
1789911243225018000,3.80901806640625,-0.039541736793518065,-0.13387246387302876,-0.005978307224623859
1789911243235027000,3.81902685546875,-0.07361117965579032,-0.08010112619698047,0.06076477675996721
1789911243245035800,3.829035888671875,-0.14515724347531794,-0.018837971460819242,0.08078337284009904
1789911243255044900,3.839044921875,-0.2114958017796278,0.009957330390810966,0.05075085734371096
1789911243265054000,3.849053955078125,-0.23616204100251195,0.003562660917639732,0.027307839772850274
1789911243275062800,3.859062744140625,-0.21547639584839343,-0.029456980630755424,-0.00354739028327167
1789911243285072000,3.86907177734375,-0.15415011274814605,-0.08697335005402565,0.016306589819677173
1789911243295081000,3.8790810546875,-0.07339373751282692,-0.09501403316855431,0.00039415041673928497
1789911243305090000,3.889090087890625,0.03112754419147968,-0.09830430688560009,-0.007755363367125391
1789911243315099000,3.899098876953125,0.09445756832957267,-0.1165250232309103,0.032689861604757606
1789911243325107700,3.909107666015625,0.12165478733479976,-0.1154354744285345,0.00999448406342417
1789911243335116800,3.91911669921875,0.17012041981816292,-0.103427641248703,-0.05512337333951145
1789911243345126000,3.9291259765625,0.22612053945958613,-0.10714870759844779,-0.09754866621270775
1789911243355135000,3.939135009765625,0.19617723661661146,-0.10143734421432017,-0.09395257794950157
1789911243365144000,3.94914404296875,0.1483189223766327,-0.08276537697017192,-0.05721464653033763
1789911243375153000,3.95915283203125,0.11331599805653095,-0.028337036690115926,-0.05119629955627024
1789911243385162000,3.969161865234375,0.09328735550642013,-0.026648352950811385,-0.037302725695073605
1789911243395170800,3.9791708984375,0.03787409584224224,-0.024701310536265373,0.0039202421836555005
1789911243405180000,3.989179931640625,-0.016268997755646705,-0.043566170004010196,0.003244754074886441
1789911243415188700,3.999188720703125,-0.04382102154791355,-0.07141103926301003,0.005828486957773566
1789911243425197800,4.00919775390625,0.004051905739307403,-0.06450140600502491,0.02955700693912804
1789911243435207000,4.01920703125,0.06280804609060286,-0.050770986816287035,0.055130497200042004
1789911243445216000,4.029216064453125,0.06593699176609516,-0.036707390150427816,0.07639416143782436
1789911243455225000,4.03922509765625,0.020641806012392044,-0.029855624559521673,0.04513349238596856
1789911243465234000,4.04923388671875,0.0426075541049242,-0.04240764761865139,-0.0018628712624311446
1789911243475242800,4.05924267578125,0.07801905922591686,-0.0672942515939474,-0.05778590707965195
1789911243485252900,4.0692529296875,0.10642331593334674,-0.1428413677483797,-0.09085925157666205
1789911243495261000,4.079260986328125,0.10351999570727348,-0.2005371853917837,-0.061279594414308663
1789911243505270000,4.08927001953125,0.09111468764245509,-0.16416297271847724,-0.031851072693057356
1789911243515280100,4.099280029296875,0.005658171892166137,-0.12943302012085914,0.01608344858828932
1789911243525288000,4.109287841796875,-0.08442483461499213,-0.06378828929960727,0.09501169508099555
1789911243535297000,4.119297119140625,-0.11202771181166171,-0.007852467066049576,0.12125840842835604
1789911243545307000,4.129306884765625,-0.1321440326452255,0.02678454655110836,0.11006474117562175
1789911243555315000,4.13931494140625,-0.1622217755228281,0.06174947694838047,0.11774700277391821
1789911243565325000,4.149324951171875,-0.19897008220553397,0.03739011171758175,0.1226987799623981
1789911243575334000,4.159333984375,-0.19031214397549628,0.046719081076979634,0.07483125950265675
1789911243585342000,4.169342041015625,-0.13649404454827307,0.012776479464769362,0.0686558953359723
1789911243595351800,4.179351806640625,-0.06643558893799781,-0.02192424703836441,0.11190182040967046
1789911243605361000,4.18936083984375,-0.04514379458427429,-0.0013853168785572052,0.1082409963471815
1789911243615369000,4.199368896484375,-0.049289223825931545,0.011289455777406691,0.04556479647532105
1789911243625378800,4.20937890625,-0.083912208917737,-0.018538111731410026,-0.016084690697304904
1789911243635388000,4.219387939453125,-0.08477437870502472,-0.05446399611532688,-0.1009338516715914
1789911243645397000,4.22939697265625,-0.03778174138367176,-0.14530629655718802,-0.17164828697256743
1789911243655406000,4.239406005859375,-0.03639934711456299,-0.23346914865672588,-0.22466522608473896
1789911243665414000,4.249413818359375,0.016581716966629027,-0.27826515271663665,-0.1808508900059387
1789911243675423700,4.259423828125,0.08132043885886668,-0.24913375077843664,-0.11112930166721344
1789911243685432800,4.269432861328125,0.14584230313003063,-0.1942149966329336,-0.05915588025860488
1789911243695441000,4.27944091796875,0.18591770840883254,-0.1523825185537338,-0.020067768984101713
1789911243705451000,4.289450927734375,0.17488135060966015,-0.12894962051808834,-0.0053551338249817485
1789911243715459800,4.2994599609375,0.08435118485689162,-0.09517536121010779,-0.027282120809704064
1789911243725469000,4.309468994140625,-0.009743979901075362,-0.07261281626820563,-0.07093147558514028
1789911243735478000,4.31947802734375,-0.1070832411468029,-0.07344459091722964,-0.09120083155594766
1789911243745486800,4.32948681640625,-0.1369990714609623,-0.0893845028489828,-0.08960490413401276
1789911243755496000,4.339495849609375,-0.061279521349072455,-0.07878478290140628,-0.08693440628312528
1789911243765504800,4.3495048828125,0.03248129688799381,-0.05685293707847595,-0.04560856255181134
1789911243775512800,4.359512939453125,0.11186813733577727,0.0005704933643341064,0.019678185144625604
1789911243785523000,4.36952294921875,0.1763905861288309,0.03019815438687801,0.09139704824779182
1789911243795532000,4.379531982421875,0.1900058545053005,0.03596387830674648,0.13978333188463002
1789911243805539800,4.389539794921875,0.13892214847803114,0.04804010054767131,0.1296230993328616
1789911243815550000,4.399550048828125,0.07196750410199165,0.05540215374827385,0.10649298363607376
1789911243825558000,4.40955810546875,-0.021306991922855376,0.038113165295124055,0.1051882942456752
1789911243835567000,4.419567138671875,-0.0886094268232584,0.051447863164544104,0.1238909854216501
1789911243845577000,4.429576904296875,-0.10817863516807555,0.025521979269385337,0.11895024108383803
1789911243855584800,4.439584716796875,-0.06136661511063576,-0.02567863113582134,0.12093578887786716
1789911243865593900,4.44959375,-0.027105449068546294,-0.0548334139496088,0.13786164310704915
1789911243875604000,4.45960400390625,-0.015085340929031372,-0.07743629090189934,0.11968626374080776
1789911243885612000,4.469612060546875,-0.06791209123134613,-0.06515022530257701,0.08511822370663284
1789911243895622000,4.479621826171875,-0.11734218483269214,-0.053150575429201125,0.07738635081294924
1789911243905630000,4.4896298828125,-0.2172463281303644,-0.028835633862018584,0.062800118512474
1789911243915639000,4.49963916015625,-0.28588498007059093,0.013584288716316222,0.018777765706181525
1789911243925648000,4.50964794921875,-0.26235797401070593,0.040461774247884746,-0.013613734006509184
1789911243935657000,4.519656982421875,-0.11748422365188597,0.038811084431409834,-0.016488047333806752
1789911243945665800,4.529665771484375,0.0853413649380207,-0.002021276694536209,0.03213314103744924
1789911243955675000,4.5396748046875,0.240203425347805,-0.07769231148958206,0.04700016304068267
1789911243965684000,4.54968408203125,0.30071605397760864,-0.12781973970532418,-0.022058760138228533
1789911243975693000,4.559693115234375,0.32402970954775806,-0.15414192944169045,-0.1182681040385738
1789911243985702000,4.569701904296875,0.302144040954113,-0.1687877099096775,-0.13825498980619014
1789911243995711000,4.5797109375,0.20039865370392798,-0.15790566588938235,-0.11012542185429483
1789911244005719800,4.5897197265625,0.058282677620649335,-0.10682020629644394,-0.09592789661046117
1789911244015729000,4.59972900390625,-0.06885960121452808,-0.05140343950092792,-0.10778024696763604
1789911244025738000,4.609738037109375,-0.12114391520321369,-0.03760755386054516,-0.10919584938660264
1789911244035746800,4.619746826171875,-0.1281494100511074,-0.013114917638897895,-0.07832900195792317
1789911244045755400,4.62975537109375,-0.0910053820490837,0.03153963212370872,0.004189560644328594
1789911244055764200,4.63976416015625,-0.029655133551359174,0.07066460480988025,0.11006032072883098
1789911244065773300,4.649773193359375,0.03950783452391624,0.09617138651013374,0.16787523470725862
1789911244075782400,4.659782470703125,0.10564999347329139,0.12417349215745925,0.1510998583320528
1789911244085791200,4.669791259765625,0.15448212118148802,0.0861696324557066,0.10595573495421558
1789911244095800300,4.67980029296875,0.1436029997706413,0.02430091304183006,0.0417447632631287
1789911244105809200,4.68980908203125,0.13414075942039488,-0.04638181194663048,-0.013269925537519156
1789911244115818200,4.699818359375,0.14584230313003063,-0.08587561794519424,-0.06332699193079024
1789911244125827300,4.709827392578125,0.13239537705779075,-0.0919511384665966,-0.0625699630184099
1789911244135836400,4.71983642578125,0.11539572694003582,-0.05286357518136501,-0.011957893090881407
1789911244145845200,4.72984521484375,0.07565875983536242,-0.029209727871417998,0.013632329109124838
1789911244155854300,4.739854248046875,0.02871639139652252,0.01040156702697277,0.029341281829215585
1789911244165863200,4.74986328125,-0.0015004676908254623,0.048152913272380825,0.05594206931125372
1789911244175872300,4.759872314453125,-0.03461772439479828,0.04830430444180965,0.0684486092608422
1789911244185881300,4.76988134765625,-0.0241945300579071,0.014449381113052367,0.07977423233017325
1789911244195890200,4.77989013671875,0.025332009655237197,-0.008950783696770668,0.10317571231424807
1789911244205899300,4.789899169921875,0.08683072671294212,-0.05893208144009113,0.09419712729509919
1789911244215908400,4.799908447265625,0.0933148280352354,-0.09415595503449439,0.10761033376082778
1789911244225917400,4.80991748046875,0.07893383598327636,-0.10231529609262943,0.05853285298943519
1789911244235926300,4.81992626953125,0.0244517196893692,-0.09409574927985667,-0.032518998549878594
1789911244245935000,4.82993505859375,-0.02074526638686657,-0.10570903018414973,-0.09378668333068489
1789911244255944200,4.839944091796875,-0.06365443378686904,-0.14346739069223402,-0.08816562857851386
1789911244265953300,4.849953369140625,-0.11254501368403434,-0.172186704698205,-0.0794579694552347
1789911244275962400,4.85996240234375,-0.11947452068626879,-0.1615121659487486,-0.07355780550073832
1789911244285971200,4.86997119140625,-0.1379740539729595,-0.14235504553616046,-0.019934753721579906
1789911244295980300,4.879980224609375,-0.1306587625235319,-0.10816986733973026,0.06234499515611678
1789911244305989400,4.8899892578125,-0.13049568091630934,-0.05872983686625957,0.14119933616239577
1789911244315998200,4.899998291015625,-0.1499310337483883,-0.023922142857313155,0.18803122996408492
1789911244326007300,4.91000732421875,-0.16593407404422758,0.00848491975069046,0.17236860060375184
1789911244336016100,4.92001611328125,-0.1932610569089651,-0.0027969372421503065,0.06296776669695973
1789911244346025200,4.930025146484375,-0.138409522780776,-0.0590291120737791,-0.07737623127773403
1789911244356034300,4.940034423828125,-0.058626376491785044,-0.11699790143966673,-0.1297311262845993
1789911244366043400,4.95004345703125,0.03502572067379951,-0.15050912589728832,-0.09634539137016981
1789911244376052500,4.960052490234375,0.06142156016826629,-0.1309077688485384,-0.06629523061923683
1789911244386061300,4.970061279296875,0.022211831808090207,-0.0955453635662794,-0.03295527107529342
1789911244396070100,4.980070068359375,-0.02270107662975788,-0.01329202777147293,0.04003218719158321
1789911244406079200,4.990079345703125,-0.0433873063057661,0.09416180025339126,0.10467888341881335
1789911244416088300,5.00008837890625,-0.03496668396294117,0.1559562853872776,0.15926679817475378
1789911244426097400,5.010097412109375,0.045421442481875414,0.16689911968410015,0.18042937665823847
1789911244436106200,5.020106201171875,0.19047113392949103,0.1559995400071144,0.19239256697874516
1789911244446115300,5.030115234375,0.2870499321967363,0.12135901925861835,0.16802848904021084
1789911244456124400,5.04012451171875,0.24917408278882502,0.07500701792836188,0.15107373751010744
1789911244466133200,5.05013330078125,0.10326923581659793,0.03508417286276817,0.1025209747325629
1789911244476142000,5.06014208984375,-0.05376198532581329,-0.002969371199607849,0.014164901615865528
1789911244486151200,5.070151123046875,-0.0930231516122818,-0.02471007836461067,-0.021771723357774317
1789911244496160300,5.08016015625,0.021243863558769224,-0.014368717092275619,0.005750709013827145
1789911244506169300,5.09016943359375,0.14849427894353864,0.018562077128887175,0.10314473265409468
1789911244516178400,5.100178466796875,0.18776947375535963,0.07174655482769011,0.20802476466819642
1789911244526187300,5.110187255859375,0.09441957440674305,0.11222761829793453,0.26628409794587643
1789911244536196400,5.1201962890625,-0.01903670890331268,0.1591974592655897,0.2558060316165909
1789911244546205200,5.130205078125,-0.07271393855512141,0.14055296455025673,0.21849344211462884
1789911244556214300,5.14021435546875,-0.05848316862881183,0.07495791808962822,0.16821027534790337
1789911244566223400,5.150223388671875,-0.0010287585258483885,-0.0031347908943891523,0.1180217280620709
1789911244576232200,5.160232177734375,0.025738836890459058,-0.08774550347030162,0.08569584093149751
1789911244586241300,5.1702412109375,-0.016681085687875748,-0.15156535695195197,-0.009869980900920927
1789911244596250400,5.18025048828125,-0.0779734665185213,-0.1546487099200487,-0.10834138798173516
1789911244606259500,5.190259521484375,-0.10275894820690154,-0.09882160875797272,-0.13299162591788918
1789911244616268300,5.200268310546875,-0.04954173728227615,-0.054475102031230925,-0.08029478560555726
1789911244626277000,5.210277099609375,0.03566226501166821,-0.012605214551091194,0.008343940377421677
1789911244636286200,5.2202861328125,0.04832008653283119,-0.010795534780621528,0.07750073444023728
1789911244646295300,5.23029541015625,-0.03587327741384506,-0.041975685942173005,0.07031484152413904
1789911244656304400,5.240304443359375,-0.10430676217079161,-0.0996937154173851,0.04666556079145521
1789911244666313200,5.250313232421875,-0.15041151074171066,-0.10446575212478637,0.007333302030153572
1789911244676322300,5.260322265625,-0.1425631353288889,-0.12564064210057257,-0.04343702719900757
1789911244686331400,5.270331298828125,-0.11041969209313392,-0.15994214015305042,-0.08584807235114277
1789911244696340200,5.28034033203125,-0.028059388792514798,-0.166552498203516,-0.12311112362295389
1789911244706349300,5.290349365234375,0.10269231271147727,-0.19227029230594633,-0.17675361075494436
1789911244716358100,5.300358154296875,0.2957902880132198,-0.17965981705784798,-0.16958130797278134
1789911244726367200,5.3103671875,0.3255985662996769,-0.19422142637372017,-0.1215227584529668
1789911244736376300,5.320376220703125,0.23707740228176116,-0.23229425965845585,-0.13713256164751947
1789911244746385400,5.330385498046875,0.13936580059230327,-0.21920564550459384,-0.16096563798189162
1789911244756394500,5.34039453125,0.07153963407874107,-0.16173077713549136,-0.17001721517201512
1789911244766403000,5.350403076171875,-0.02542202602624893,-0.06031915188431739,-0.11849372948799282
1789911244776412200,5.360412109375,-0.1447398948460817,-0.031712066081166265,-0.08030932558756321
1789911244786421200,5.370421142578125,-0.13388590787649154,-0.00374444722533226,-0.06561440874822437
1789911244796430300,5.380430419921875,-0.02196867070198059,0.04047521825134754,0.004992364927195013
1789911244806439400,5.390439453125,0.10242226359844207,0.02864507972598076,0.0322428850222379
1789911244816448300,5.4004482421875,0.2237386127591133,-0.020368249768018723,-0.016053857167623937
1789911244826457300,5.410457275390625,0.2440168461561203,-0.08528408179283141,-0.08449537910055369
1789911244836466400,5.420466552734375,0.2361164482951164,-0.17297347116172312,-0.14327639816477894
1789911244846475300,5.430475341796875,0.2205529684603214,-0.23474165281057358,-0.1798990326412022
1789911244856484000,5.440484130859375,0.17731237714886663,-0.2626443897366524,-0.12463208611253648
1789911244866493200,5.4504931640625,0.07942424984872341,-0.23357845425009727,-0.08516034581530839
1789911244876502300,5.460502197265625,-0.08830313735306262,-0.1752525220096111,-0.0713237993709743
1789911244886511400,5.470511474609375,-0.23162732018232343,-0.09636369421184063,-0.10259677991513162
1789911244896520400,5.4805205078125,-0.30306407840847965,-0.05029752408564091,-0.14044106514099985
1789911244906529300,5.490529296875,-0.3576180908948183,-0.05848316862881183,-0.10565737306214869
1789911244916538000,5.5005380859375,-0.34693653788268564,-0.010966799694299697,-0.08167940836437046
1789911244926547200,5.510547119140625,-0.28437808263897896,0.008947861087322234,-0.08139054495301097
1789911244936556300,5.520556396484375,-0.1872439885765314,0.02257774251103401,-0.10948171712327748
1789911244946565400,5.5305654296875,-0.07153261981606483,0.010109890604019164,-0.14803922865241764
1789911244956574200,5.54057421875,0.0216021754771471,-0.03277764948606491,-0.16552129199225454
1789911244966583300,5.550583251953125,0.14832009142041205,-0.07337211020290851,-0.18468301551472394
1789911244976592400,5.56059228515625,0.2825187185078859,-0.06690788262486458,-0.11933266453016549
1789911244986601500,5.5706015625,0.36286183676719663,-0.02258124964237213,0.029512364079803226
1789911244996610000,5.580610107421875,0.32944705842137334,0.04406768978536129,0.11378186200261116
1789911245006619100,5.590619140625,0.1940320412814617,0.09964929175376891,0.08887922020796686
1789911245016628200,5.600628173828125,0.08765607162117958,0.12444471031427383,0.04234645548332482
1789911245026637300,5.61063720703125,0.05909691661298275,0.08047112855315208,0.01828289486132562
1789911245036646400,5.620646484375,0.0961076736241579,-0.014528876090049743,-0.0014266352696344256
1789911245046653700,5.63065380859375,0.17426760262548924,-0.08789338750839233,-0.02010824712496251
1789911245056662800,5.640662841796875,0.2761456763446331,-0.12810089473426342,-0.014208667692355811
1789911245066671600,5.650671630859375,0.2553098090648651,-0.12801613906025885,0.04595741252209991
1789911245076680700,5.6606806640625,0.1601397085517645,-0.07946165924966335,0.03216623958945274
1789911245086689800,5.670689697265625,0.03069499799311161,-0.016767010405659675,0.006472958873771131
1789911245096699000,5.680698974609375,-0.10667290678024291,0.04099310464560985,-0.004892119423113763
1789911245106707700,5.690707763671875,-0.17918869241476057,0.03775193076729774,-0.007904964438267052
1789911245116716500,5.700716552734375,-0.17242577415108679,0.00012508768439292906,-0.03731971336249262
1789911245126725600,5.7107255859375,-0.10314590169787406,-0.0965647697418928,-0.07350753661822527
1789911245136734700,5.720734619140625,-0.06403495753705502,-0.20279227084219453,-0.07197484715823084
1789911245146743800,5.730743896484375,-0.04129296437501907,-0.2614168937683105,-0.06285831497311592
1789911245156752600,5.740752685546875,-0.0338935017734766,-0.22957214121818542,-0.017330526039935647
1789911245166761700,5.75076171875,-0.060141457229852674,-0.1466980431765318,0.08134360053874552
1789911245176770600,5.7607705078125,-0.1178185701727867,-0.05190495928227901,0.11128317705467343
1789911245186779600,5.770779541015625,-0.16410335148572922,0.00947743791937828,0.0581507948692888
1789911245196788700,5.780788818359375,-0.1861538552522659,0.031140403673052788,0.002445347325503826
1789911245206797600,5.790797607421875,-0.15128712453246115,-0.006775777745246887,-0.0628135990485549
1789911245216806700,5.800806640625,-0.07929799312055111,-0.06346271060705184,-0.10640808183159678
1789911245226815700,5.810815673828125,-0.0390694431066513,-0.13445114054381846,-0.08505768915843218
1789911245236824800,5.820824951171875,-0.007142857491970062,-0.15425883381962777,-0.08998451456874608
1789911245246834000,5.830833984375,0.03677519468963146,-0.11936813770234585,-0.12133757461179047
1789911245256842500,5.840842529296875,0.10407061532735824,-0.049071781682968135,-0.11089534678086638
1789911245266851600,5.8508515625,0.2375847672820091,-0.0036649522483348843,-0.04046520831398666
1789911245276860700,5.860860595703125,0.4075789303719997,0.014038462224602699,-0.054256381246633824
1789911245286869800,5.870869873046875,0.48384325488507746,-0.012381927189230918,-0.02064388837162405
1789911245296878800,5.88087890625,0.3650993865609169,-0.11525894881784915,0.07345456432197242
1789911245306887700,5.8908876953125,-0.14269932892918585,-0.16430267345011235,-0.11312555351834744
1789911245316896800,5.900896728515625,-0.2920499324411154,0.17679039910137653,-0.12636906597297637
1789911245326905600,5.910905517578125,-0.2868646387577057,0.17053367679417133,-0.13439572056215254
1789911245336914700,5.920914794921875,-0.08677344356775284,0.11595160725712776,0.021594868953526018
1789911245346923500,5.930923583984375,0.12523030773401259,-0.038567923325300214,0.09420830627623945
1789911245356932600,5.9409326171875,0.5421066432833671,-0.06644961746335029,0.15021368661466986
1789911245366941700,5.950941650390625,0.9870254164904355,0.0015758710145950317,0.18050825058072803
1789911245376950800,5.96095068359375,1.002239352235198,0.030299861195683477,0.26784710947889834
1789911245386960000,5.9709599609375,0.5314373652309179,-0.1450765794545412,0.33534466509260236
1789911245396968700,5.98096875,-0.32019699951708314,-0.327226459762454,0.09654734368305652
1789911245406977500,5.9909775390625,-1.6913807233035563,-0.1817366233319044,-0.21565018151272086
1789911245416986600,6.000986572265625,-1.7087001068949699,-0.16100655451416968,-0.20156795321162788
1789911245426995700,6.01099560546875,-1.7654338015079498,-0.0017670096725225448,-0.1455633400581777
1789911245437004800,6.0210048828125,-1.237704058623314,0.25567338168025017,-0.06658358257394284
1789911245447013600,6.031013671875,-0.39990474248230456,0.3559434356808662,0.09092818862702697
1789911245457022700,6.041022705078125,0.3650403498500585,0.21339432887732981,0.3646612874045968
1789911245467031800,6.05103173828125,0.8181400914251804,0.02403378653824329,0.5367362022913992
1789911245477040600,6.06104052734375,0.9209949012219906,-0.0809498519808054,0.3923459976658225
1789911245487049500,6.071049560546875,0.7350614107221365,-0.14720073200166225,0.19916852738708257
1789911245497058600,6.08105859375,0.3750152158975601,-0.17085341026782988,0.052595243101380765
1789911245507067600,6.091067626953125,0.046771688047051424,-0.2225450190603733,-0.11309070140067487
1789911245517076700,6.10107666015625,-0.1747217761337757,-0.21019114892184734,-0.14228683913815765
1789911245527085800,6.1110859375,-0.30894144600927825,-0.16916706461608408,-0.0628899156877771
1789911245537094700,6.1210947265625,-0.3652268123328686,-0.043324177941679955,0.010023344831727444
1789911245547103700,6.131103759765625,-0.3617997604936361,0.07623860554993152,0.012091675538383424
1789911245557112600,6.141112548828125,-0.2701373758405447,0.1206862345635891,0.02489361823797226
1789911245567121700,6.15112158203125,-0.18642741149663924,0.07655892354547977,0.07130608105119317
1789911245577130800,6.161130859375,-0.05033201087713241,0.03047229515314102,0.06880582520067692
1789911245587139600,6.1711396484375,0.12186346164941787,-0.023020225581526756,0.010531367419101297
1789911245597148700,6.181148681640625,0.19317513219118118,-0.1234609599739313,0.04963774500265717
1789911245607156700,6.19115673828125,0.28189444912970063,-0.2863789010673761,0.2056497426325455
1789911245617165800,6.201165771484375,0.32592122238278387,-0.2141840179502964,0.22880999773927033
1789911245627174700,6.211174560546875,0.3272393192440271,-0.021678747844696044,-0.05025521931387484
1789911245637183700,6.221183837890625,0.2422860768407583,-0.029718846437335012,-0.18222754865400492
1789911245647192800,6.23119287109375,0.3360667688220739,-0.11707973450422286,-0.1410706317488104
1789911245657201700,6.24120166015625,0.5519090753734112,-0.12723755590319633,-0.19815175155997275
1789911245667210500,6.25121044921875,0.6277578048229218,-0.20375848552584647,-0.17357582096904514
1789911245677219600,6.261219482421875,0.5420002602994441,-0.27693185828626155,-0.09478636189252138
1789911245687228700,6.271228759765625,0.3634171325623989,-0.2807517088353634,-0.00947751098461449
1789911245697237800,6.28123779296875,0.19651333670318125,-0.19751696078777312,0.11457885759919881
1789911245707246800,6.291246826171875,0.06007248364686966,-0.07076046639978885,0.2500068072859198
1789911245717255700,6.301255615234375,-0.08873743711709976,-0.028237083446979522,0.3176066176977008
1789911245727264800,6.3112646484375,-0.18036124332547188,0.09453355617523193,0.31453239788413045
1789911245737273600,6.321273681640625,-0.2525017659068107,0.11173369730114936,0.2579725985333323
1789911245747282700,6.33128271484375,-0.3084931177198887,0.05962532440125942,0.24687749628424643
1789911245757291800,6.341291748046875,-0.3643851008117199,-0.013120178335905074,0.19984708423577247
1789911245767300600,6.351300537109375,-0.24164076467454432,-0.056557753524184226,0.14411409109793602
1789911245777309700,6.361309814453125,-0.06531856760680675,-0.0900035115301609,0.22068229392841457
1789911245787318800,6.37131884765625,0.07567804905772209,-0.10937807408571243,0.3039450990267098
1789911245797328000,6.381327880859375,0.19404256267547607,-0.033977672925591465,0.3030143940478563
1789911245807336700,6.391336669921875,0.2802922746300697,0.12598492549359797,0.24374862367399036
1789911245817345500,6.401345458984375,0.36204642873108384,0.19852292295992374,0.203955177141726
1789911245827354600,6.411354736328125,0.3995329865604639,0.14117372679710388,0.21481610530875622
1789911245837363700,6.42136376953125,0.3375017700612545,0.018070494219660758,0.20666443610042332
1789911245847372800,6.431372802734375,0.1678945604622364,-0.11232231084406376,0.16521613503322005
1789911245857381600,6.441381591796875,-0.026492285606265067,-0.17508008805215358,0.09684713034722954
1789911245867390700,6.451390625,-0.14370704466700554,-0.2072165170252323,0.02628492646589875
1789911245877399800,6.46139990234375,-0.279167069992423,-0.19597908369600772,-0.02732672713641077
1789911245887408600,6.47140869140625,-0.28517244788706303,-0.1514069515198469,-0.10471636588498949
1789911245897417700,6.481417724609375,-0.2022626940101385,-0.16482114436626433,-0.15471512621976435
1789911245907426600,6.491426513671875,-0.10498656112849712,-0.13575053270459175,-0.06465487953368575
1789911245917435600,6.501435546875,-0.05635024825334549,-0.11245558183491229,0.064294192995131
1789911245927444700,6.51144482421875,-0.004014496338367462,-0.09318447965383529,0.024549006051383913
1789911245937453800,6.521453857421875,0.08087795578837394,-0.14892039540112018,-0.03982782372590154
1789911245947463000,6.531462890625,0.17975626316964624,-0.18865911607146263,-0.054287287841551006
1789911245957471500,6.541471435546875,0.2636275555551052,-0.2108423063069582,-0.05452938950173557
1789911245967480600,6.55148046875,0.23243337586820123,-0.20480419518649576,-0.06684416973888874
1789911245977489700,6.56148974609375,0.1248468613743782,-0.1567886445581913,-0.05962433802057057
1789911245987498800,6.571498779296875,0.01057633907198906,-0.08337386425733566,-0.0009729001527652144
1789911245997507800,6.5815078125,-0.05695172127783298,0.01146598138809204,0.09565945493262261
1789911246007516700,6.5915166015625,-0.09324760801792144,0.08859481377601623,0.08638144857548177
1789911246017525800,6.60152587890625,-0.18310265098810194,0.0786924284428358,0.03255874603837728
1789911246027534800,6.611534912109375,-0.15360066217184065,0.05873159043192863,-0.07322123049013317
1789911246037543700,6.621543701171875,-0.010890811848640441,-0.004718845215439796,-0.16485146643929183
1789911246047552000,6.631552001953125,0.11002221720814705,-0.08192658805847168,-0.12795849058888853
1789911246057561000,6.64156103515625,0.15393150156140326,-0.12125029818713665,-0.04789974222891032
1789911246067570200,6.651570068359375,0.13104571601450443,-0.10542904419898987,0.03153528474215418
1789911246077579300,6.661579345703125,0.03307634017169475,-0.09986381128728389,0.09869502323623747
1789911246087588000,6.671588134765625,-0.07165478489100932,-0.42238603888154025,-0.028419454276561736
1789911246097597200,6.68159716796875,-0.4113414977759123,-1.0880682084292173,-0.2289854639040306
1789911246107606300,6.691606201171875,-0.2911953614383936,-0.939006358730793,-0.2205102618297562
1789911246117615000,6.701614990234375,0.43362464125454425,-0.31738252661824223,-0.013271204179152845
1789911246127624200,6.711624267578125,0.7957020496457815,0.17414251494109628,0.04062237163707614
1789911246137633000,6.721633056640625,0.5984393558800221,0.09845920518636703,0.09530808421168475
1789911246147642000,6.73164208984375,0.31335283271074293,0.04611410092115402,0.08929510753247887
1789911246157651200,6.741651123046875,0.021631986093521117,-0.33480186345279217,-0.15088650784231722
1789911246167660300,6.751660400390625,-0.4629086034059524,-0.9573311199724673,-0.2256578903838992
1789911246177669000,6.761669189453125,-0.6375146442055701,-1.2606120560020209,0.0966429495446384
1789911246187678200,6.77167822265625,-0.27973230265974997,-1.1627508167088032,0.38475623665656894
1789911246197687000,6.78168701171875,-0.1365495741277933,-0.9979378556489944,0.3887808525301516
1789911246207696100,6.791696044921875,-0.1606879900842905,-0.7945610629171133,0.3146391827268526
1789911246217705200,6.801705322265625,-0.2604980253577232,-0.5495972912997007,0.23677103974632918
1789911246227714000,6.811714111328125,-0.5449737231522799,-0.40805239310264585,0.13050368155967443
1789911246237723100,6.82172314453125,-0.7821341275423764,-0.33992169068455697,0.09840257962830364
1789911246247732200,6.831732177734375,-0.952380219566822,-0.24427228222191333,0.07927863083295524
1789911246257741300,6.8417412109375,-1.346331022080779,-0.6543494591504335,-0.28958916835077103
1789911246267750100,6.851750244140625,-1.942619921928644,-1.0196534283727408,-0.8201544999875128
1789911246277759000,6.861759033203125,-1.9079507596075533,-0.7716016276121139,-1.0523901613265276
1789911246287768000,6.87176806640625,-1.0877730248749256,-0.23978783028423784,-0.8258851525940001
1789911246297777200,6.881777099609375,-0.16715046409666537,-0.02725684023797512,-0.5756893255420029
1789911246307786200,6.8917861328125,0.46334407221376894,-0.013462708163261413,-0.45544761987552046
1789911246317795000,6.901795166015625,0.9333195452660321,0.27294015830159185,-0.2997521773815155
1789911246327804200,6.91180419921875,1.105683944618702,0.5584381848812103,-0.23681027577817437
1789911246337813200,6.921813232421875,1.0868114863663911,0.6483218694239854,-0.39825748673193156
1789911246347822000,6.931822021484375,0.9621370589494704,0.7117927633374929,-0.4094473545923829
1789911246357831200,6.9418310546875,0.7077730063021183,0.8750783686995506,-0.05989128186106681
1789911246367840000,6.951840087890625,0.26200726087689397,0.7814590047597885,0.12546776975169777
1789911246377849000,6.96184912109375,-0.23584406109452247,0.5662649329841136,0.3283334711562842
1789911246387858200,6.971858154296875,-0.46119595426917076,0.4262017977774143,0.6050944298550486
1789911246397867300,6.9818671875,-0.5093067819654942,0.3938227922201156,0.5521412036288529
1789911246407875000,6.991875,-0.39313890160918236,0.5007780230730772,0.27025464554466305
1789911246417884200,7.00188427734375,-0.2263654541313648,0.6199310567200184,0.055403688118234276
1789911246427893200,7.011893310546875,-0.09145780199170112,0.6231447580695152,-0.05990794073492288
1789911246437902300,7.02190234375,0.06657704323530196,0.5409136341065168,-0.0874834184680134
1789911246447911200,7.0319111328125,0.24299743998050688,0.40709728433489795,-0.09311185280904173
1789911246457920000,7.041919921875,0.4597200364977121,0.3108563397198915,-0.0363258434869349
1789911246467929000,7.05192919921875,0.6984165644139051,0.1506926657706499,0.1053239763893187
1789911246477938200,7.061938232421875,0.8918629147619008,-0.033921558824181554,0.30909466380961237
1789911246487947300,7.071947265625,0.9583002572655678,-0.08746902461647987,0.5125550431717187
1789911246497956000,7.0819560546875,0.8635849147826433,-0.04878711952269077,0.6101699795536697
1789911246507965200,7.091965087890625,0.6309545550376177,-0.05471007983088493,0.548978063422814
1789911246517974000,7.10197412109375,0.3613642916858196,-0.0987216555148363,0.3857585820995271
1789911246527983000,7.111983154296875,0.07920739222764968,-0.11585633018910885,0.1710351235102862
1789911246537992200,7.1219921875,-0.14995909079909323,-0.0920645357131958,-0.006771393831074238
1789911246548001000,7.1320009765625,-0.24962241107821462,-0.024028525841236114,-0.1091632622912526
1789911246558010000,7.142010009765625,-0.2779278835862875,0.08269698790907859,-0.07489829685688018
1789911246568019200,7.152019287109375,-0.3471107254058122,0.16699439675211905,0.07737330866828561
1789911246578028300,7.1620283203125,-0.18921148925721645,-0.4155295971155166,-0.43706908261999483
1789911246588037400,7.172037353515625,-0.5903782144993543,-1.0102782817840577,-0.47272725597843523
1789911246598046000,7.1820458984375,-0.6415542749851941,-1.3412234698086976,0.3072026395179331
1789911246608055000,7.192054931640625,-0.39763095233142376,-0.6092202776134014,0.4936263246875256
1789911246618064100,7.202064208984375,-0.3310819661468267,0.17186989383399487,0.2254972199294716
1789911246628073200,7.2120732421875,-0.37636779955029487,0.306508081382513,-0.14579393394365905
1789911246638082300,7.222082275390625,-0.2712795316129923,0.32380759122967717,-0.3155257197704166
1789911246648091100,7.232091064453125,0.28520050493776794,0.3849281226247549,-0.3459439466487616
1789911246658100200,7.242100341796875,0.3571639173865318,0.2288058330208063,-0.19453202669285236
1789911246668109000,7.252109130859375,0.005970306581258774,0.22815876728892326,-0.07034099887870252
1789911246678118100,7.2621181640625,-0.1229600247144699,0.6088596276074647,0.04593231461346149
1789911246688127000,7.272126953125,-0.2723895386815071,0.6979910324782133,0.23296192978695032
1789911246698136000,7.282135986328125,-0.4828437224537134,0.4590443291932344,0.2719568463526666
1789911246708145200,7.292145263671875,-0.6120446873843669,0.1325152040451765,0.03288016001246869
1789911246718153200,7.3021533203125,-0.859321996641159,-0.024468670824170112,0.18285306014120578
1789911246728162000,7.312162109375,-0.7066133148729801,-0.16833090605288742,0.36200931159108873
1789911246738171100,7.322171142578125,-0.4755979891091585,-0.2490489951044321,0.42114604875780637
1789911246748180200,7.33218017578125,-0.011661211699247359,-0.5375713379412889,0.14154007589146494
1789911246758189300,7.342189208984375,0.5243599741905928,-0.7862704966947436,-0.1596255484845489
1789911246768198100,7.3521982421875,0.891651902359724,-0.9019380263134836,-0.1624272349670529
1789911246778207000,7.36220703125,1.1745119816511869,-0.8515221365451813,-0.13372004979029298
1789911246788216000,7.372216064453125,1.3017384316384792,-0.5254007154151797,-0.1876315265893936
1789911246798225200,7.38222509765625,1.3461767083019018,-0.16098112781196833,-0.3259714182000607
1789911246808234200,7.392234130859375,1.179388647776842,0.1444210381552577,-0.37126134325675664
1789911246818243300,7.402243408203125,0.7631751600503921,0.29428982032239437,-0.1942061557393521
1789911246828252200,7.412252197265625,0.28358021025955676,0.3219885591089725,-0.05995426409468054
1789911246838261200,7.42226123046875,-0.09157295280396938,0.3121010790839791,0.01679302162975073
1789911246848270000,7.43227001953125,-0.2673445302516222,0.29901246493011713,0.010421367705985903
1789911246858279200,7.442279052734375,-0.3479062596976757,0.24923838019669053,0.004254954030737281
1789911246868288000,7.4522880859375,-0.25996026521921156,0.1966317023858428,0.016913287008553744
1789911246878297000,7.462297119140625,-0.05570435156524181,0.1820215777531266,0.07099230239428579
1789911246888306200,7.47230615234375,0.13926701639294622,0.20266864446252583,0.08023300894834101
1789911246898315300,7.482315185546875,0.2660439690470695,0.27979104710966346,0.03266615193560719
1789911246908324400,7.492324462890625,0.30930151149332524,0.33632103584408757,-0.015689955758675933
1789911246918333000,7.5023330078125,0.3109738286197185,0.3148848645836115,-0.05030789934918284
1789911246928342000,7.512342041015625,0.321318112501502,0.23635785583555696,-0.07748612139299511
1789911246938351000,7.52235107421875,0.30193244403004643,0.10784282734245061,-0.1002716614358127
1789911246948360200,7.532360107421875,0.2919236757129431,-0.05537029730528593,-0.14352708499021827
1789911246958369300,7.542369384765625,0.2310837148249149,-0.18866759163886307,-0.19567476698718964
1789911246968378000,7.552378173828125,0.11527122377753257,-0.2665869898825884,-0.21980602255053816
1789911246978387200,7.56238720703125,-0.03707330085337162,-0.2754775678247213,-0.14230558037124574
1789911246988396300,7.572396240234375,-0.11527531543076038,-0.20803777028024195,-0.04223119507320225
1789911246998405000,7.582405029296875,-0.18889760100245476,-0.09401830012947321,0.08179419385045766
1789911247008414200,7.592414306640625,-0.3649409811288118,0.058550096385180946,0.21644918640330432
1789911247018422000,7.602422119140625,-0.6488900247007608,0.11465075379163026,0.2717627120200544
1789911247028431000,7.61243115234375,-0.9048293638408184,0.07361351774334907,0.27894970091469584
1789911247038440200,7.622440185546875,-0.9996733011394738,-0.03728022160232067,0.2696019537895918
1789911247048449000,7.632448974609375,-0.93649408364892,-0.18694383658617733,0.17829620055444537
1789911247058457900,7.642457763671875,-0.724131435906887,-0.32131226728260515,0.07403386204726993
1789911247068467000,7.652467041015625,-0.3563157761245966,-0.4002820513620972,0.010031710801273583
1789911247078476000,7.66247607421875,0.05291501310765743,-0.971572995814681,-0.30628077543266113
1789911247088485000,7.672485107421875,0.14755378322303295,-2.059839649425447,-0.7530914998661726
1789911247098494000,7.682493896484375,0.6764245128363371,-1.9648960511445999,-0.40701567046605047
1789911247108502800,7.692502685546875,1.2356886271476746,-1.6423863907709717,-0.012919906523451208
1789911247118511900,7.702511962890625,1.039065984851122,-1.3124632392704485,0.31030148231610655
1789911247128521000,7.71252099609375,0.387083839353919,-0.9329819838747382,0.3884307239182293
1789911247138530000,7.722530029296875,-0.4850251581460237,-0.8875424212142825,0.11016410989686846
1789911247148539100,7.7325390625,-0.9083838414520025,-1.2514441224232316,-0.5313320051603019
1789911247158548000,7.7425478515625,-0.9375263493061066,-1.3357158123031259,-0.7096811780110002
1789911247168557000,7.75255712890625,-0.5037561621010304,-0.9139484898418188,-0.5097109788522124
1789911247178566000,7.76256591796875,-0.16981413034796713,-0.4170677664682269,-0.48722602919116614
1789911247188575000,7.772574951171875,-0.3302420081913471,-0.23999241294562815,-0.36314079983904957
1789911247198583800,7.782583740234375,-0.67591539427042,-0.2861214191749692,-0.22830226741284132
1789911247208593000,7.792593017578125,-0.7355868959009647,-0.544083788575232,-0.09985489732846617
1789911247218602000,7.80260205078125,-0.4971452195286751,-1.3764426672279835,-0.2885166437484324
1789911247228611000,7.812611083984375,-0.27885259721577166,-2.951534514144063,-0.7613985057666898
1789911247238620200,7.8226201171875,0.06604688188135624,-4.171640956756472,-1.2314015974782406
1789911247248628700,7.832628662109375,0.01724047313630581,-4.339086019885539,-1.5208895704768597
1789911247258637800,7.842637939453125,-0.7415069335997104,-3.815127612233162,-1.6721736262694
1789911247268647000,7.85264697265625,-1.6512807681053876,-2.9220003766238687,-1.699554823539406
1789911247278656000,7.862656005859375,-2.1036580406248566,-2.042552999059856,-1.5848602306060493
1789911247288663800,7.872663818359375,-1.6565309437185525,-1.3693927487164734,-1.1102766792364418
1789911247298673000,7.8826728515625,-0.9907570042341947,-0.7176382744953036,-0.2754476110778749
1789911247308682000,7.892681884765625,-0.0009410802423954009,0.21726678639650343,0.5299202386662364
1789911247318691000,7.902691162109375,1.1114198579221963,0.9223162129536271,0.9739201434627175
1789911247328700200,7.9127001953125,1.208717618113756,1.4345990881204604,1.0690300382211804
1789911247338709000,7.922708984375,0.6977209833651781,1.5773203366205095,0.9864902867004275
1789911247348717800,7.9327177734375,0.6230488964796066,1.2354109792500734,0.5227487396016717
1789911247358727000,7.942726806640625,0.7686796026855707,0.33678660752922296,-0.029254589926451444
1789911247368736000,7.952736083984375,0.7223731940627097,-1.0596209893628954,-0.15301584802120924
1789911247378744800,7.962744873046875,0.4045335713267326,-2.0098992682144043,0.0015019289955496787
1789911247388754000,7.97275390625,0.16261574327647685,-2.386550560881197,-0.3917619141675532
1789911247398763000,7.982762939453125,0.13814999506175518,-2.4755031020537017,-1.495717135297507
1789911247408772000,7.992772216796875,-0.48634442405104633,-2.110634893900156,-1.589689988850057
1789911247418781000,8.002781005859376,0.38028175812363624,-1.4147963632807135,-1.4346094633840023
1789911247428789800,8.012789794921876,1.227507658779621,-1.163949963365495,-1.5706547412514686
1789911247438798800,8.022798828125,2.045771668845415,-1.3900705028250813,-2.346895719102025
1789911247448808000,8.032807861328125,1.997497759541869,-2.134096141247451,-2.4708146519765255
1789911247458817000,8.042817138671875,0.6632189943045377,-3.13087868938148,-2.24862852935642
1789911247468826000,8.052826171875,-1.0570639983564614,-3.2853391832530496,-2.0651257731348274
1789911247478835000,8.0628349609375,-2.2430367006987333,-2.3472047850511966,-1.8597300417959688
1789911247488844000,8.072843994140625,-2.715922508239746,-1.4875392356693744,-1.659588577723503
1789911247498852900,8.082852783203125,-2.7624662327498197,-1.596508728954196,-1.0521779798805713
1789911247508862000,8.092862060546874,-2.5128338847994804,-2.4421286557182666,-0.1783046030566096
1789911247518870800,8.102870849609374,-1.9417220963060855,-3.299583397182822,0.7537886152848601
1789911247528879900,8.1128798828125,-1.403189219856262,-3.6380718401938674,1.804313275000453
1789911247538889000,8.122888916015626,-0.8335258766055107,-2.8087930996388195,2.6003677913457155
1789911247548898000,8.13289794921875,-0.8643196587979793,-1.0965054896458983,2.9312919365823267
1789911247558905900,8.14290576171875,-1.0687760634601116,0.4901189741536975,2.9898779810637235
1789911247568915000,8.1529150390625,-0.29617198080718515,1.3262117786377667,2.978424274635315
1789911247578924000,8.162924072265625,1.3331652510374783,1.7369637860879301,3.0235841435715556
1789911247588932900,8.172932861328125,5.104287132805585,1.9687761074483394,3.4343794056415557
1789911247598942000,8.18294189453125,12.951316976237296,3.9593639414712785,6.600015520149469
1789911247608950800,8.19295068359375,16.654340304291246,5.3471419494450085,8.219483684408663
1789911247618960000,8.2029599609375,12.954979590398072,3.764997553668916,6.597474603495002
1789911247628969000,8.212968994140626,7.681970214134454,2.0259788808777928,4.986693019038438
1789911247638978000,8.22297802734375,5.094110022184252,1.0450313229963182,3.740860599017143
1789911247648987100,8.232987060546876,3.014168372711539,0.032543895529117434,2.9548323866456747
1789911247658996000,8.242995849609375,1.0039981786012648,-0.9880696648463606,1.8660458008140324
1789911247669004800,8.2530048828125,-0.048880058503150935,-1.9713328061938284,0.6846627643495797
1789911247679014000,8.263013916015625,-1.0734230124831199,-2.9247607812479135,-0.29178865115642544
1789911247689023000,8.27302294921875,-1.8026935648441313,-4.090575661702454,-1.3974685041218995
1789911247699031800,8.28303173828125,-2.016349759528041,-4.421160784243047,-0.869512551265955
1789911247709041000,8.293041015625,-2.3930296937674282,-4.203618980297446,0.08580839792788028
1789911247719050000,8.303050048828124,-2.401763619843125,-3.1503952907562254,0.5349287144780158
1789911247729059000,8.31305908203125,-2.112949016061425,-1.463977158296108,0.5090583601623774
1789911247739068000,8.32306787109375,-1.6149556552708149,0.11288315959721804,-0.7081605443149804
1789911247749076700,8.33307666015625,0.2768178765177727,0.8961378156021237,-1.8632599694877863
1789911247759085800,8.3430859375,2.7699755854666233,1.0063758675180374,-1.1966764671862125
1789911247769095000,8.353094970703125,2.6051217078745363,0.9488539451368152,0.16043781471550464
1789911247779104000,8.36310400390625,2.0713474241286516,1.1176467696130274,1.148300851073861
1789911247789113000,8.373113037109375,1.9214678283065556,1.3271698100149631,2.43909235676229
1789911247799122000,8.383121826171875,1.4596043500393627,1.1108966377656906,3.5362083795219657
1789911247809130000,8.3931298828125,1.0171624883398414,0.7043849712990224,4.508772139939666
1789911247819139000,8.40313916015625,1.1347276682734488,0.07063815519437193,5.141664969563484
1789911247829148200,8.413148193359374,0.9231564631700515,-0.7017875752169639,5.002517780157923
1789911247839157000,8.423156982421874,0.5645362094953655,-1.3640467115134,4.639045118016004
1789911247849165800,8.433165771484376,0.2207061131954193,-1.9261144850686192,4.469931244891882
1789911247859175000,8.4431748046875,-0.717805155494809,-2.3739365785017608,4.582084044387936
1789911247869184000,8.45318408203125,-1.7464467769652603,-2.7479513851851225,4.581985844710469
1789911247879192800,8.46319287109375,-2.167358651641011,-3.014386983898282,4.60171696561873
1789911247889202000,8.473201904296875,-1.6760224106520414,-3.1793478289961814,4.457260563889146
1789911247899211000,8.4832109375,-1.2808341752976178,-3.3826772754549976,4.184249678438902
1789911247909220000,8.49322021484375,-1.282217738610506,-3.3762247383147477,4.504599238169193
1789911247919229000,8.50322900390625,-0.8999030133545398,-3.0688363669663667,4.896739191868901
1789911247929237800,8.51323779296875,-0.3787561559915542,-2.849397497227788,5.18264696829319
1789911247939246800,8.523246826171874,-0.2557236505627632,-3.0084923729017374,5.76745702727139
1789911247949256000,8.533255859375,-0.35830315054953094,-2.9582307969123125,6.76305270370841
1789911247959265000,8.54326513671875,-1.4339406242117285,-3.1969030671700835,7.213382396048307
1789911247969274000,8.553274169921876,-2.432306934405863,-4.136462675869464,6.677189360722899
1789911247979283000,8.563282958984376,-2.908698996502161,-5.2436505953103305,6.418831270003318
1789911247989292000,8.5732919921875,-4.063137911939621,-5.959399987319111,6.542244299182295
1789911247999300900,8.58330078125,-5.426026101067662,-6.359257383528352,6.093077805402874
1789911248009310000,8.59331005859375,-6.176701260507106,-6.561106236040592,5.118582200139761
1789911248019319000,8.603319091796875,-6.781414874351024,-6.484522178053855,3.802406077826023
1789911248029328000,8.613327880859375,-6.626583209079504,-5.710318843510747,1.997176857024431
1789911248039337000,8.6233369140625,-6.58811465447545,-4.987374571561813,0.43595454550683493
1789911248049346600,8.6333466796875,-6.700374421477317,-4.9495302863359445,-0.5314876341134309
1789911248059354400,8.643354248046874,-5.911389112865924,-5.229268434214592,-1.6899515672832726
1789911248069363500,8.653363525390626,-5.276410124617815,-5.087198050838708,-2.4620921240776776
1789911248079372300,8.663372314453126,-5.028199333903193,-4.2670539261147375,-2.7084417970955372
1789911248089381400,8.67338134765625,-4.647543481770158,-3.336974970205128,-3.4116450112640857
1789911248099390500,8.683390380859375,-4.222510727772116,-2.678511938256025,-5.255296024918556
1789911248109399300,8.6933994140625,-4.4687078405767675,-2.567825996442139,-7.865521777933836
1789911248119408400,8.703408447265625,-5.096981778228282,-2.8137910540565847,-10.807851825881004
1789911248129417500,8.71341748046875,-5.602914115324616,-2.8048429007083175,-13.469098156559467
1789911248139426600,8.723426513671875,-5.694800371861458,-2.4852105493366716,-15.002251142412423
1789911248149435600,8.733435546875,-4.9859986070334905,-2.0671160701692104,-15.182444043433666
1789911248159444200,8.7434443359375,-3.639624914854765,-1.471780525523424,-14.367400748980044
1789911248169453300,8.753453369140624,-2.1769687760293484,-0.8214519924521446,-13.747674274921417
1789911248179462400,8.76346240234375,-1.0939151808917522,-0.2125017639517784,-13.216128773140907
1789911248189471500,8.773471435546876,-0.5036339970260858,0.37418402577042575,-12.298058819454909
1789911248199480300,8.783480224609375,-0.19475787133798003,0.8710913448899984,-11.363140606820583
1789911248209489400,8.793489501953125,0.6191409292556345,1.2046043375760316,-10.436374136459827
1789911248219498500,8.80349853515625,0.955927025328204,1.4791501775085925,-9.182870451158285
1789911248229507300,8.81350732421875,1.587974124842882,1.7547791365027428,-7.909097300288081
1789911248239516400,8.823516357421875,2.5696558422178026,2.0891618977606297,-7.128106497561931
1789911248249525200,8.833525146484375,2.972504821458459,2.662691853311658,-6.409367276087403
1789911248259534300,8.843534423828125,5.889979829612374,3.3871652345240113,-4.93950573592782
1789911248269543400,8.85354345703125,9.392288277620077,4.266699998110533,-2.8162422466009853
1789911248279552500,8.863552490234374,8.140553355556726,5.335085600948333,-1.5742343533039092
1789911248289561600,8.8735615234375,7.92349641251862,5.886483219668269,-0.8793710974574088
1789911248299570400,8.8835703125,6.642887862670421,5.445194911918044,-0.5728747065126896
1789911248309579300,8.893579345703126,5.057853298410773,4.351002083128691,-0.34462300024330617
1789911248319587600,8.903587646484375,3.8743081154763694,2.7810902691990136,-0.8082435513108969
1789911248329596400,8.913596435546875,2.631799286919832,0.8238444405466318,-1.6216384940356015
1789911248339605200,8.923605224609375,2.9743150857508183,-0.1655284158527851,-2.1360300319194794
1789911248349614300,8.9336142578125,3.294248465895653,-0.36010347796976566,-2.241639108860493
1789911248359623400,8.94362353515625,2.5925065564513203,-0.17616496067941187,-1.7151386155098676
1789911248369632500,8.953632568359374,2.1344214276790616,0.29396891780495643,-0.9118944799214601
1789911248379641300,8.963641357421874,1.3165455401480197,0.941277810794115,-0.3320727307498455
1789911248389650400,8.973650390625,0.320025734603405,1.5387608888626099,-0.12057342183887958
1789911248399659500,8.983659423828126,-0.33237083691358565,2.3098481372117994,-0.5489958182752132
1789911248409668400,8.99366845703125,-0.8268734329789876,3.0302164211928844,-1.6394406927078962
1789911248419677400,9.003677490234375,-1.0808359190881252,3.0569506988614794,-2.006730282789469
1789911248429686300,9.013686279296875,-0.3141273242145777,2.876676549297571,-1.706777029877901
1789911248439695400,9.0236953125,0.7354968795299529,2.4969413191407916,-1.9390379717886448
1789911248449704400,9.033704345703125,0.43877018744945523,2.24015208517313,-1.5927613591194152
1789911248459713500,9.043713623046875,-0.5307927106518298,2.013193925845623,-0.6551303803950548
1789911248469722600,9.05372265625,-0.3437888875067234,0.7211816461905837,1.0173878215283154
1789911248479731200,9.063731201171874,1.3090373564749955,-0.24875994902998208,1.663369265305996
1789911248489740300,9.073740234375,-0.03295885127186775,0.014297405421733855,1.5510457854181527
1789911248499749400,9.083749267578124,-0.5896083991706371,-0.7217123920664191,2.958767972528934
1789911248509758500,9.093758544921876,-1.5307120224416255,-1.8913167279317975,3.2548283096551893
1789911248519767600,9.103767578125,-0.8778280327338724,-2.262910737209022,3.733893098092079
1789911248529776400,9.1137763671875,-0.41013453313894566,-2.703561039316654,3.0209353826284406
1789911248539785500,9.123785400390625,-1.5356097313553094,-1.8117536541342734,3.0447610793739557
1789911248549794600,9.133794677734375,-1.4472629009909928,-0.48308220738470553,3.72628203856647
1789911248559803400,9.143803466796875,-0.12820976193621753,-1.2631100102975963,4.572842753311991
1789911248569812200,9.153812255859375,1.0229692749224601,-1.2682587713629005,5.201770770958066
1789911248579820300,9.1638203125,-1.8244021233052015,3.2426091718122363,5.744951180952787
1789911248589829400,9.173829345703124,0.25482567880973217,0.8472101185649633,5.487533001431823
1789911248599838500,9.18383837890625,2.6879376459881663,-2.5123098609253764,4.050892762872577
1789911248609847300,9.193847412109376,0.2584019298613071,-2.2130036737456917,3.183089938133955
1789911248619856400,9.2038564453125,-1.1194070572838186,-1.5573901860088109,2.2909610659122466
1789911248629865500,9.213865478515626,-0.03622749767899513,-2.7407652730733156,1.3502818055331707
1789911248639874600,9.22387451171875,-1.3049635311648249,-4.506261033901572,0.2898766800552606
1789911248649883400,9.23388330078125,-3.5537756003946064,-6.323144452139735,-0.569914103141427
1789911248659892200,9.243892333984375,-4.7447819129899145,-9.108403531455993,-1.5341361516714096
1789911248669901300,9.2539013671875,-4.1437908268004655,-11.142799235284327,-3.3938533339858052
1789911248679910400,9.263910400390625,-3.0122464647382494,-9.288893369597195,-2.6891736175239083
1789911248689919500,9.27391943359375,0.15294117534980178,-5.487307375982404,-0.3348182300657034
1789911248699928600,9.283928466796874,3.8697184495985506,-2.607334123227,1.0776315700888632
1789911248709937400,9.2939375,0.9990046080976724,-1.4506097272008656,2.4384043744981287
1789911248719946500,9.303946533203124,0.14688465178981422,-2.4077795191317795,2.6344880876123904
1789911248729955300,9.313955322265626,1.0058639724731444,-3.0339830802500245,1.1136579922378063
1789911248739964400,9.32396435546875,-1.1554004539459943,-3.7372850786179304,-0.7615618796348571
1789911248749973200,9.33397314453125,0.011948796468973158,-4.359512137320637,-3.0235300752967595
1789911248759982300,9.343982421875,-1.1456903763145208,-4.431073983231187,-3.1977444864302873
1789911248769991400,9.353991455078125,0.6182423729807138,-3.097639267602563,-3.1447306891232727
1789911248780000500,9.36400048828125,0.40240591164827344,-1.1734200947612523,-2.7771085060864684
1789911248790009600,9.374009521484375,-3.726343413364887,-0.41416123137176036,-2.3436054453849793
1789911248800018400,9.384018310546875,-5.9146565902292725,-0.8525099785387515,-3.8220056813091037
1789911248810027300,9.39402734375,3.566284953355789,-0.22496493968367576,-5.7752890360713005
1789911248820036400,9.404036376953124,-1.0201238954287022,2.090684577283263,-7.220516485711932
1789911248830044400,9.41404443359375,0.050022287340834734,3.173368754586577,-8.53380331632495
1789911248840053200,9.42405322265625,1.7639128755509852,4.668077151232958,-9.58818085207641
1789911248850062300,9.434062255859375,4.577859704691171,6.595702917647361,-9.870837517750262
1789911248860071400,9.444071533203125,4.669980354505777,7.7792235506623975,-9.457512152680755
1789911248870080500,9.45408056640625,5.482338355398178,7.983821994143724,-8.57903011301756
1789911248880089600,9.464089599609375,5.02035329657793,6.946679086309671,-6.759702224236726
1789911248890098400,9.474098388671875,3.924759368818998,5.293620202615857,-4.388205147841573
1789911248900107300,9.484107177734375,3.6887422892451283,4.390488290342688,-1.7614654823988676
1789911248910116400,9.494116455078125,3.295287745815515,3.981389018535614,0.7086480355709791
1789911248920125400,9.50412548828125,3.297858473086357,3.3971845242351293,3.031934915548563
1789911248930134300,9.51413427734375,3.276332577715814,2.961459695830941,4.661199082157015
1789911248940143400,9.524143310546876,3.102036625778675,1.9206568041846155,5.660561417651176
1789911248950152400,9.53415234375,2.118990049791336,1.6487854441583156,5.280631541705131
1789911248960161500,9.54416162109375,0.2655016057986766,1.5158809485346079,2.816815662574768
1789911248970170600,9.554170654296875,-0.2848468326618895,0.43813568893820043,3.4734681379705665
1789911248980179200,9.56417919921875,-0.5850643260002136,0.5660483676239848,2.6832477346062658
1789911248990188300,9.574188232421875,-0.3477437626123428,0.6645125412464141,3.39804143332541
1789911249000197400,9.584197265625,0.2259066227142699,0.1512915084466338,3.3532372459590434
1789911249010206500,9.59420654296875,-1.1619459300667048,-0.14317980592250823,1.8535393704622982
1789911249020215600,9.604215576171875,-3.2315660920113323,-1.5109092976018785,1.184151916655898
1789911249030224400,9.614224365234374,-5.543966836315393,-2.5821649029180405,1.7863351352393626
1789911249040233500,9.6242333984375,-5.871117892754078,-2.956435145667195,3.0183079567342994
1789911249050242300,9.6342421875,-5.614738408631086,-2.885535563057661,4.67821860601902
1789911249060251400,9.64425146484375,-4.494914294978976,-3.4908889361098407,5.587159496831894
1789911249070259500,9.654259521484375,-2.553504333361983,-3.573394493100047,4.892635848203301
1789911249080268300,9.664268310546875,0.4217284517556429,-2.9486741562768817,4.4597441973984235
1789911249090277400,9.67427734375,2.978366114707291,-1.6547908220529555,4.902467506387829
1789911249100286500,9.684286376953125,4.665646124693751,-0.46083267391473054,5.091183905604481
1789911249110295300,9.69429541015625,4.503718363681435,-0.11950710778161883,5.470160426348447
1789911249120304400,9.704304443359375,1.3814146104216576,1.740769169720262,7.491124401673674
1789911249130313500,9.7143134765625,-0.36161534383744,1.1245096411198376,8.123733738180995
1789911249140322600,9.724322509765624,-0.37653044276610015,-1.0152852962911127,7.29193044758439
1789911249150331400,9.734331298828126,-1.7893991989850997,-1.7080913273468612,5.625561415940523
1789911249160340200,9.74434033203125,-0.709558136153221,-4.559529390491545,2.455735448527336
1789911249170349300,9.754349365234376,-2.446584904474765,-6.738234488794207,1.323382108169794
1789911249180358400,9.7643583984375,-5.5299026551276445,-8.74413650406599,-0.8341098139733075
1789911249190367500,9.774367431640625,-5.90190524520576,-9.964957232427597,-3.9312323642253872
1789911249200376600,9.78437646484375,-2.978710690361261,-10.612264956372975,-7.915168144634365
1789911249210385400,9.794385498046875,-3.0725837368011475,-9.013994478443264,-9.504075166413188
1789911249220394500,9.80439453125,-0.8092066972546279,-5.467714786761999,-9.22538389723897
1789911249230403300,9.8144033203125,2.1447866082184017,-0.906558964112401,-8.143408744987845
1789911249240412400,9.824412353515624,3.9722839210599656,3.0345079809069633,-6.997498003920913
1789911249250421500,9.83442138671875,4.652970182994008,4.417191296090185,-4.956376791229844
1789911249260430300,9.844430419921874,4.374042766976356,3.529924769207835,-4.375903300151228
1789911249270439400,9.854439453125,2.7759675193578004,0.2847194434225559,-5.80848637227416
1789911249280448500,9.864448486328126,0.5841348631303757,-2.234189377376437,-6.577898965409398
1789911249290457600,9.87445751953125,-0.1826303938338533,-3.2988246877700087,-7.047855733761191
1789911249300465400,9.88446533203125,0.32625323081612584,-3.449765190821886,-6.733807320001721
1789911249310474500,9.894474609375,-0.0003238274101749994,-2.738540875022113,-5.434711511826515
1789911249320483300,9.9044833984375,-0.13643909949064253,-1.386186354868114,-4.999723181003332
1789911249330492400,9.914492431640625,0.5119207638561726,0.9021490387156605,-3.0516081687897443
1789911249340501200,9.924501220703124,2.079004076361656,3.1284269123151898,-1.2275947525411843
1789911249350510300,9.93451025390625,2.9986709438502785,4.227033758154511,-0.10926350779533385
1789911249360519400,9.94451953125,2.870745990204811,3.7049274081096053,0.8722264863997697
1789911249370528500,9.954528564453126,2.1093185506045815,2.3946406360954047,0.7836901248127222
1789911249380537600,9.96453759765625,0.8479284959673881,1.6531854326829314,0.4508464096903801
1789911249390546400,9.97454638671875,0.12609540013074874,1.4258429502129555,1.4514841719478369
1789911249400555300,9.98455517578125,-0.46356443696618077,1.3432038299709557,2.0879028376102444
1789911249410564400,9.994564453125,-1.094728835362196,1.8926076445251703,3.4425229646086692
1789911249420573400,10.004573486328125,-1.6175778204679487,2.756585065756738,5.15189176454544
1789911249430582500,10.01458251953125,-1.2353893519401549,2.4796754193022847,5.271406617242097
1789911249440591400,10.02459130859375,-1.0293372025191783,1.6209452510744333,4.622105089130997
1789911249450600400,10.034600341796875,-0.3854121067494154,0.4776087444096803,4.163851618054509
1789911249460609500,10.044609619140624,0.11632745483219623,-1.3163187456548213,3.258213860440254
1789911249470618400,10.054618408203124,-0.9340104501396417,-1.9063652439817784,2.4895213982731104
1789911249480627200,10.064627197265626,-1.6610317622691393,-1.1752268519222735,2.220866369944811
1789911249490636300,10.07463623046875,-1.5788760416299104,-0.26368133156895635,2.4124130241513253
1789911249500645400,10.084645263671876,-1.361996793246269,0.5253071919128298,2.4785323867470024
1789911249510654500,10.094654541015625,-0.8709545667678117,1.020348424899578,2.206995080980658
1789911249520662300,10.104662353515625,-0.2369926831403747,0.9058335724472999,0.9747954649925231
1789911249530671400,10.11467138671875,0.27703641463927925,0.9054013185098767,0.6121405489742755
1789911249540680400,10.124680419921875,0.9034042264085262,1.0757011865481734,0.950765185585618
1789911249550689500,10.134689453125,1.37012690820992,1.0899901164025068,0.6249608675807714
1789911249560698600,10.14469873046875,1.3394067757755517,0.7746472789183259,-0.024170564660429952
1789911249570707200,10.154707275390624,0.6066857906997204,0.09340250631868839,-0.7038491108566522
1789911249580716300,10.16471630859375,-0.3616748189397156,-0.23994302084594962,-0.9842436768174171
1789911249590725400,10.174725341796876,-0.6496931577771902,-0.14455913145169616,-0.6382587405711412
1789911249600734500,10.184734375,-0.7024790646124631,0.02446224108338356,-0.13472878844141958
1789911249610743600,10.19474365234375,-0.650840574246645,0.13086480648964643,0.35587387757599354
1789911249620752400,10.20475244140625,-0.5231185227621347,0.12180267137289047,0.6753676972597837
1789911249630761500,10.214761474609375,-0.37500060285031794,0.14099793183878062,1.0021399835139513
1789911249640770600,10.2247705078125,-0.18613880381360648,0.28896847916916013,1.1129174030035733
1789911249650779400,10.234779296875,0.018626812928169964,0.5623844382889569,1.0363508806735278
1789911249660788200,10.244788330078125,0.9248983384013175,0.22102847701758144,0.6989052247136831
1789911249670797300,10.25479736328125,0.797959473183751,-0.7598093368791043,-0.0942430487960577
1789911249680806400,10.264806396484374,-0.29662973451204594,-1.3985770498856902,-0.46075405572056766
1789911249690815500,10.2748154296875,-1.1056827755749226,-1.6658368244633077,-0.6007996552705764
1789911249700824600,10.284824462890626,-1.320717272874713,-1.6136856353349982,-0.4200912059426307
1789911249710833400,10.29483349609375,-0.8122213689006864,-1.1719305868558585,-0.003505377772450447
1789911249720842200,10.30484228515625,-0.08561623635664582,-0.9499955163873731,0.1875228055179119
1789911249730850600,10.3148505859375,0.46289852040335533,-0.6025540977224707,0.5068219794124365
1789911249740859400,10.324859375,1.0479483794867992,-0.3019754063889384,1.1922504674375056
1789911249750868200,10.3348681640625,0.8174477252468466,0.45548605218976734,1.7238000608712434
1789911249760877300,10.344877197265625,0.6267727393083274,0.9804450151868164,2.1262860520184037
1789911249770886400,10.354886474609375,0.32378888652920723,0.6674728523567318,1.7347738748282193
1789911249780895500,10.3648955078125,1.4370973346769809,-1.202049246265739,-0.27334581649303435
1789911249790904600,10.374904541015624,0.3908893691167235,-1.7059006854347885,-1.4581541512310503
1789911249800913400,10.384913330078126,-0.29521994077935815,-1.2681550187274813,-1.0227601622164249
1789911249810922500,10.394922607421876,0.25390871009528637,-1.9338680218048392,-0.002885200047492981
1789911249820931300,10.404931396484375,-0.0976677625477314,-1.5334502152338623,1.2368874815434217
1789911249830940400,10.4149404296875,-0.8386506722733378,-0.7849944854095577,1.8809061008155346
1789911249840949200,10.42494921875,-0.87794223369807,-1.0702365644667298,0.9446189379155635
1789911249850958300,10.434958251953125,-0.81511022220999,-2.556936353637278,-1.937213094449043
1789911249860967400,10.444967529296875,-1.1229586122855544,-2.535869307950139,-2.664189398393035
1789911249870976500,10.4549765625,-1.1205819462820887,-0.01783537028953433,2.5820728407204148
1789911249880985600,10.464985595703125,0.20563333948701618,1.7995266252458095,6.49689826002419
1789911249890994400,10.474994384765624,-0.05920856029391289,0.776319888305664,2.553094583517313
1789911249901003300,10.485003173828124,-0.7012643550604581,-0.9084995767861604,-0.7933242145985364
1789911249911012400,10.495012451171876,-0.6467939292043448,-1.8748837717860936,-4.202719985631108
1789911249921021400,10.505021484375,-1.0129910478740929,-1.72088285825029,-6.397570455309748
1789911249931029200,10.515029296875,-0.5992658698320389,-0.7371772338323295,-6.223190039959549
1789911249941038300,10.525038330078125,0.17462036158591507,0.7617024571493267,-4.6639060030281545
1789911249951047400,10.53504736328125,0.45992549594193693,1.8225187937766312,-3.1541859152108427
1789911249961056500,10.545056396484375,0.9354751158647239,2.176368764309585,-2.405681085547805
1789911249971065600,10.555065673828125,1.3537655559957027,2.352230211997777,-2.5954461170345544
1789911249981074400,10.565074462890625,1.535373584511876,2.630624105660617,-3.803867967072129
1789911249991083300,10.575083251953124,1.2309773807168005,2.562432320705056,-5.126625805863738
1789911250001092400,10.58509228515625,1.5402014430597424,2.4969094626978037,-6.2027931486189365
1789911250011101400,10.595101318359376,2.2374375655174252,2.895061808554828,-6.400854883807897
1789911250021110300,10.6051103515625,2.404456366058439,3.45857861187458,-5.623717249378561
1789911250031119400,10.615119384765626,2.5835996118962763,3.786172735905647,-3.9308196917712688
1789911250041128400,10.62512841796875,2.5826877577483653,3.9286750809580084,-2.214949839377403
1789911250051137300,10.63513720703125,2.341944672565907,3.7150013506174084,-0.8234247538298368
1789911250061146400,10.645146484375,1.7491206723496318,3.2175989414572714,0.2954641247987747
1789911250071155200,10.6551552734375,0.45724633986055846,2.8746880058288573,1.4968343027591704
1789911250081164300,10.665164306640625,-0.6673930651187896,2.5281398827418684,3.6643162885189056
1789911250091173400,10.67517333984375,-0.5701875132553279,1.7901142153866587,5.709463103464246
1789911250101182200,10.68518212890625,-0.7055716968655585,0.7079207442097365,7.138079025521874
1789911250111191300,10.69519140625,-0.6811030260413885,-0.6175095286615192,8.30347071212828
1789911250121199400,10.705199462890626,-0.7787387860156595,-1.5220663591712713,9.145028504019976
1789911250131208400,10.71520849609375,-1.0065906793124972,-1.675506570084393,10.864427699583768
1789911250141217300,10.72521728515625,-1.8839140504598617,-1.335415075790882,13.11962654724121
1789911250151226400,10.735226318359375,-1.3713129031240938,-0.2207412941066548,13.920297617471217
1789911250161235500,10.7452353515625,-0.26221082062497736,0.05070151090980507,13.144563420099018
1789911250171244300,10.755244384765625,0.30968861111477014,0.12048318627215922,11.734105086022614
1789911250181253400,10.76525341796875,0.9140199476428329,0.09327201180681585,8.84243905738592
1789911250191262200,10.77526220703125,1.475788592121005,-0.033981180056929586,6.396468631547689
1789911250201271300,10.785271240234374,1.65392456061244,-0.07944412359297275,5.31204082544744
1789911250211280400,10.7952802734375,2.250957556825876,0.5896914012789726,5.435974663630128
1789911250221289500,10.80528955078125,3.191161016386747,-0.28510785821825263,6.148547179168462
1789911250231298300,10.81529833984375,4.054479973709583,-3.0017051969796418,6.365132997563481
1789911250241307100,10.82530712890625,3.2709137675374746,-6.638755292910337,4.56268259382546
1789911250251316200,10.835316162109375,-1.2206821966737509,-9.690298579770326,-0.28995032981336116
1789911250261325300,10.8453251953125,-9.471455922359228,-8.800062973949313,-5.906169332391023
1789911250271334400,10.85533447265625,-14.146696973872183,-8.530214351922274,-10.274899964433908
1789911250281343200,10.86534326171875,-12.994175290232896,-9.84408044372797,-14.354803133213519
1789911250291352300,10.875352294921875,-10.247374828648567,-9.994052394008635,-15.45882820470929
1789911250301361400,10.885361328125,-4.656669622033834,-8.004614022281766,-12.747522250354288
1789911250311369500,10.895369384765624,0.45441550034880634,-5.4452516105413435,-9.482953467929363
1789911250321378300,10.90537841796875,14.416273793220519,-5.763083049970865,-5.709799788072705
1789911250331387400,10.915387451171876,13.507634515702724,-2.7800656023263928,-1.9126205049842595
1789911250341396200,10.925396240234376,7.860987057113647,1.3872282651364802,0.2694341960072517
1789911250351405300,10.9354052734375,6.285564955329894,2.879972083711624,1.1206395216882228
1789911250361414400,10.945414306640625,4.352454035502672,3.156135295712948,1.11878015755713
1789911250371423200,10.95542333984375,2.536439801314473,3.1128420974314213,0.9395821127921342
1789911250381432300,10.965432373046875,0.6329219095878302,2.961935496649146,0.927042364692688
1789911250391441400,10.97544140625,-0.6382505572646856,3.3218057503849265,1.2772504715919495
1789911250401450500,10.985450439453125,-1.268183368039131,3.7412054669320582,1.4560942960917949
1789911250411459300,10.995459228515625,-1.4290303480774162,4.027545789554715,1.6235989804536104
1789911250421468200,11.00546826171875,-1.4051467836648226,4.162230738854408,1.618679644230008
1789911250431477200,11.015477294921874,-1.3962228879749774,4.056550934764743,1.1971312252163886
1789911250441486300,11.025486328125,-1.6372896521538496,3.946999842199683,0.9134007928311825
1789911250451495400,11.035495361328126,-1.9049340421348808,3.6996564819693565,0.8128875777244567
1789911250461504300,11.045504150390625,-1.977758455327153,3.5383652652949094,0.6228869839161634
1789911250471513300,11.055513427734375,-1.8308616747081279,4.25665265134871,1.037741458249092
1789911250481521400,11.065521484375,-1.8211779005616902,4.71594774043262,1.4289268877029417
1789911250491530500,11.075530517578125,-1.651606346797943,5.277627099192142,2.0507798523962495
1789911250501539300,11.085539306640625,-1.6433955678135155,5.753570540738106,2.94600990550369
1789911250511548200,11.095548095703125,-1.6863772159278392,5.625042360502481,3.6333068177491423
1789911250521557200,11.10555712890625,-1.2845756999135016,5.58513354396224,3.7119036768630145
1789911250531566300,11.11556640625,-1.0487176102936266,5.175642057967186,3.703601420202851
1789911250541575400,11.125575439453126,-0.7520949631094932,4.492292129781842,3.194570532569289
1789911250551584300,11.135584228515626,-0.5867863274872303,2.947179241544008,2.3204469803765413
1789911250561593300,11.14559326171875,-0.32784890250973403,0.4775783492714166,1.9490769891135393
1789911250571602400,11.1556025390625,-0.012611571226641536,-2.592332368928194,1.6388444803804159
1789911250581611500,11.165611572265625,-0.7116694292187691,-6.313761706766486,1.0405734668046236
1789911250591620000,11.1756201171875,-2.6300153261125088,-10.816609132832289,-0.12746782099511475
1789911250601629200,11.185629150390625,-4.022749787449836,-14.61655671159029,-1.1270759844765066
1789911250611638300,11.19563818359375,-5.077809460246563,-16.23612775170207,-1.9388348504319786
1789911250621647400,11.2056474609375,-5.145243412572145,-15.414337905597685,-1.8879691710695623
1789911250631656400,11.215656494140624,-4.094429706782102,-11.85397883515954,-0.4222052389545366
1789911250641665300,11.225665283203124,-2.862297310811281,-7.162474631109833,1.424453395550698
1789911250651673300,11.23567333984375,-1.9470003289699553,-3.44429289689064,2.2401837954856454
1789911250661682400,11.245682373046876,-1.1637070945203303,0.11291852317154406,1.8703287388302385
1789911250671691500,11.25569140625,-0.7075099714517593,2.0741262411922214,1.8111226627543568
1789911250681700400,11.265700439453125,0.11944061841666698,3.279031607541442,2.238908222591877
1789911250691709200,11.275709228515625,3.1085049450099467,4.7032612773388625,3.710020639595389
1789911250701718300,11.28571826171875,4.021128323727846,4.078587994527816,4.700115380528569
1789911250711727400,11.295727294921875,3.010761779138446,2.47788415197134,4.51267002416104
1789911250721736400,11.305736328125,2.4165268892109393,1.2097101362824438,4.01310108461678
1789911250731745300,11.315745361328124,1.9064637359201908,0.35994624158143995,3.370697791586816
1789911250741754400,11.32575439453125,1.5476514668047427,-0.07182780337035656,2.5676310583919286
1789911250751763500,11.335763427734374,1.187339314520359,-0.3979290584951639,1.7324701279304922
1789911250761772300,11.345772216796876,0.8855015630364418,-0.8060498406589031,0.9805191033363342
1789911250771781000,11.355781005859376,0.5210778837800025,-1.3945406339764594,0.3458297456845641
1789911250781790200,11.365790283203125,0.0348480625519529,-1.4597598328620194,-0.0617011077620089
1789911250791799300,11.37579931640625,-0.4097801667433232,-1.2015835284501313,-0.3390570366792381
1789911250801808400,11.385808349609375,-0.713702396351099,-0.3318132030308246,-0.44865101853795347
1789911250811816200,11.395816162109375,-0.9451964455425739,-0.5442015697360039,-0.6385457408189773
1789911250821825300,11.4058251953125,-1.0897814420878886,-0.5683551832616329,-0.6857520939562469
1789911250831834400,11.41583447265625,-1.17959790661335,0.30655016695857046,-0.6308994638495147
1789911250841843500,11.425843505859374,-1.2040677464812994,0.22857085522115228,-0.8424991643950343
1789911250851852500,11.4358525390625,-1.1759013901829718,-0.19540800580978393,-0.9728509798612445
1789911250861861000,11.445861083984376,-1.105564117631316,-0.0539402645021677,-0.9726046769499778
1789911250871870200,11.4558701171875,-0.9444687157899141,-0.03423836968839168,-0.9107936790727078
1789911250881879300,11.46587939453125,-0.8227291727811098,-0.26664018137454987,-0.7487496712695807
1789911250891888400,11.475888427734375,-0.7319657827943563,-0.4980582427203655,-0.43534613128490746
1789911250901897500,11.4858974609375,-0.5827998881995677,-0.4602338312387466,-0.01791428074464202
1789911250911906300,11.49590625,-0.41186756747663017,-0.36482524579465386,0.42610973557978865
1789911250921915400,11.505915283203125,-0.23985154317021368,-0.3279337312489748,0.8478601069062948
1789911250931924200,11.51592431640625,-0.07374561969041823,-0.3386497710525989,1.2277926132008432
1789911250941933300,11.525933349609375,0.14719430226087568,-0.38400750064849853,1.5426692944779992
1789911250951942100,11.535942138671874,0.4551064052224159,-0.4387456375300884,1.7831321014143526
1789911250961951200,11.545951171875,0.8614414730131625,-0.4844844753980636,1.6490004020832478
1789911250971959300,11.555959228515626,1.3220482292175293,-0.5704863500714302,1.149391788115725
1789911250981968400,11.565968505859376,1.7206325367510318,-0.6543365996688604,0.616475290242955
1789911250991977200,11.575977294921875,1.9870804104238748,-0.7376356451243161,0.21082586662881075
1789911251001986300,11.585986328125,2.113131971412897,-0.8263006015270948,-0.16831768124513327
1789911251011995400,11.595995361328125,2.11553201829195,-0.8554612295597791,-0.5273307336296886
1789911251022004500,11.60600439453125,1.9949702868908643,-0.7880144177526235,-0.7266806819982826
1789911251032013300,11.616013427734375,1.8021715867966412,-0.7075462118089199,-1.0051629115317016
1789911251042022100,11.626022216796875,1.5463818852603435,-0.5051373873263597,-1.1017730547852813
1789911251052031000,11.636031005859374,1.2706366064101458,-0.23007599908709525,-1.1909721911299973
1789911251062040000,11.6460400390625,1.0062222843915223,0.05731120223999023,-1.2639921999596058
1789911251072049200,11.656049072265626,0.7657225795108824,0.31078152091801164,-1.3906814743302762
1789911251082058200,11.666058349609376,0.5592564789941534,0.4573158979654312,-1.615315136232972
1789911251092067300,11.6760673828125,0.2839455364406109,0.5863239706724882,-1.7873741228982805
1789911251102076200,11.686076171875,0.05930215686149895,0.727046446570754,-2.0294833818674087
1789911251112085000,11.6960849609375,0.08121464039683342,0.763043058103323,-2.3389621496237814
1789911251122093300,11.70609326171875,0.4108300411224365,0.7911603145629167,-2.6130419794797897
1789911251132102100,11.71610205078125,0.7607242597669363,0.7146294480681419,-2.8572306750714778
1789911251142111000,11.726111083984375,0.6198872175782919,0.4593225616127252,-2.9120012529179453
1789911251152120000,11.7361201171875,0.37237624569609756,-0.020476970839500425,-2.914388440315425
1789911251162129200,11.746129150390624,0.1427637724675238,-0.7314940736293792,-2.630830149626732
1789911251172138200,11.75613818359375,0.03413374027013778,-1.5185124660819769,-2.3996790686540304
1789911251182147300,11.766147216796876,-0.12111249715164303,-2.22562379360497,-1.9695009145915507
1789911251192156200,11.77615625,-0.1514380773104727,-2.8145208296358586,-1.6393139975883066
1789911251202165200,11.786165283203125,0.4405564863443374,-3.1998259688794612,-1.191208411038667
1789911251212174000,11.796174072265625,1.1230594423115252,-2.8518805462151766,-0.4809383272238075
1789911251222183200,11.80618310546875,1.1317021829724312,-2.1674112586110827,-0.4000172629460692
1789911251232192000,11.81619189453125,0.8426138768158853,-1.7439070293545722,-0.624075901439786
1789911251242201000,11.826201171875,0.8752734528802335,-1.523264044523239,-0.657381081931293
1789911251252210200,11.836210205078125,1.2797417038857937,-1.371493520388007,-0.5758206968367099
1789911251262219300,11.84621923828125,1.3284589730426668,-1.2625304568439721,-0.448336180435121
1789911251272227000,11.85622705078125,0.7014145771861076,-1.1639788971990346,-0.31334874105751515
1789911251282236200,11.866236083984376,0.13741203617602585,-1.098119062322378,-0.3182382666647434
1789911251292245200,11.876245361328126,0.0807885239392519,-1.0458160436332224,-0.11448474957495927
1789911251302254000,11.886254150390625,-0.5158803151369095,-0.6701257049530744,0.26731881128847595
1789911251312263200,11.89626318359375,-1.4843559294581412,-0.07730068182349205,0.913313991330564
1789911251322272000,11.90627197265625,-2.24196118042171,0.4962807116538286,1.725342906399071
1789911251332281000,11.916281005859375,-2.601043498650193,0.9602361937642097,2.4947484852716326
1789911251342290200,11.926290283203125,-2.284680670468509,1.439848094689846,3.2028184286937114
1789911251352299300,11.93629931640625,-1.895036332976818,1.8082307407051323,3.3794308408796785
1789911251362308400,11.946308349609374,-1.5900100145846605,2.1779642168074846,3.370698376108706
1789911251372317200,11.956317138671874,-1.4861772996664047,2.472778353264928,3.009582506226003
1789911251382326000,11.966325927734376,-1.4341110123425722,2.5146815584927795,2.242011449304223
1789911251392335000,11.976335205078126,-1.2170344878211616,2.317087440815568,1.4675669994816183
1789911251402344200,11.98634423828125,-1.0936392865598201,2.2837954120665787,1.0467109466463327
1789911251412353000,11.99635302734375,-1.2324316711783407,2.152363911604881,0.9438523374572396
1789911251422361000,12.006361083984375,-1.5567755612418055,2.057235312145948,0.9625175826996565
1789911251432370200,12.0163701171875,-1.6347756235063076,1.9747417378544807,0.8908809179872273
1789911251442379300,12.026379150390625,-1.4543459911197423,1.991346835696697,0.8319719251617789
1789911251452388000,12.03638818359375,-1.4178396764993666,1.9239689974725245,0.6954711586117744
1789911251462397200,12.046397216796874,-1.2653715254887938,2.0334481938451527,0.5261892354443669
1789911251472406300,12.05640625,-1.1347399432331322,2.2233540951073167,0.3793392165765166
1789911251482415000,12.0664150390625,-0.913737477439642,2.1632138069212434,0.17297610151022672
1789911251492424200,12.076424072265626,-0.9807271931290626,2.110450184983015,-0.17161942620426415
1789911251502433000,12.08643310546875,-0.5197521881341934,1.86086576782763,-0.33785394449979067
1789911251512442000,12.096442138671875,-0.26685820803940297,1.5534049157649277,-0.4616723396092653
1789911251522451200,12.106451171875,-0.16664660622775554,1.3868898269623517,-0.4766068738907575
1789911251532460300,12.116460205078125,-0.3483767998188734,1.3760820172220467,-0.4121896390378475
1789911251542469400,12.126469482421875,-0.2681763049006462,1.445524971282482,-0.07144231118410825
1789911251552478000,12.13647802734375,0.4207072920143604,1.6805664838224648,0.23493045338094234
1789911251562486300,12.146486328125,0.7723369561493396,1.6148118628859518,-0.057576282916963095
1789911251572495000,12.1564951171875,1.1491297031134367,1.3944418497771023,-0.2989139729917049
1789911251582504200,12.166504150390624,1.4797399600952863,1.5719868666380643,-0.2034448895320296
1789911251592513000,12.176512939453126,1.2703197955459355,1.6624632563769817,-0.263243816934526
1789911251602522000,12.186522216796876,1.1334756223857403,1.6332383309364318,-0.25289748722612854
1789911251612531200,12.19653125,1.4913506106510757,1.7229256161242723,-0.11734247709363699
1789911251622540300,12.206540283203125,2.092181830103695,1.8433909014135599,-0.10933394268304109
1789911251632549000,12.216549072265625,2.275470066791773,2.013005709797144,-0.337829102319479
1789911251642558200,12.22655810546875,2.120118469299376,2.0913217061430216,-0.4624824869483709
1789911251652567000,12.236567138671875,2.0845532349213958,2.0318723228305577,-0.4243859805271029
1789911251662576000,12.246576171875,1.9718495235443114,1.8752981978058814,-0.3867874867558479
1789911251672585200,12.256585205078125,1.957027509726584,1.593410762938857,-0.5760737948149443
1789911251682594000,12.266593994140624,2.146748702071607,1.2039882515043019,-1.1019196236491202
1789911251692603100,12.27660302734375,2.451781157943606,0.8745061217695475,-1.4890268438786267
1789911251702612200,12.2866123046875,2.5615993770122527,0.5175771821826696,-2.033055979657173
1789911251712620300,12.296620361328126,2.1711194654792547,0.235458861169219,-2.721127091145515
1789911251722629000,12.306629150390625,1.6357374542757868,0.24963585508167743,-2.9874110064283013
1789911251732638200,12.31663818359375,0.9516311547651887,0.3316343393325806,-3.075745415702462
1789911251742647300,12.326647216796875,0.5285764228418469,0.2409878537237644,-2.6555828980892895
1789911251752656100,12.33665625,0.4976660285323858,-0.105188221180439,-1.6476126009866594
1789911251762665200,12.346665283203125,0.7083972756803035,-0.7880792996823788,-0.312455591610074
1789911251772674000,12.356674072265625,0.7393249133855104,-1.8154349729955195,0.9120765584900975
1789911251782683100,12.36668310546875,1.0107470683395863,-2.9291701221227644,1.7434490564540028
1789911251792692200,12.376692138671874,1.6600941891580818,-3.9374084225118158,2.202764749934524
