time,seconds_elapsed,z,y,x
1789253239316324400,0.051324462890625,-0.10622808562219142,0.14576602302342653,0.08382964520081877
1789253239326378200,0.061378173828125,0.036921325162053105,0.10196633652448654,0.11132818524017929
1789253239336431600,0.071431640625,0.10876724871098994,0.026713234880566594,0.10519706207402049
1789253239346484500,0.081484375,0.12139116796255112,-0.034678806932270524,0.12040559099130332
1789253239356537300,0.091537353515625,0.08840075250864028,-0.05782850411236286,0.1635030475050211
1789253239366591500,0.101591552734375,-0.011583470287919043,0.004171732726693153,0.1827485768534243
1789253239376644400,0.111644287109375,-0.09950666841268539,0.046615036180615424,0.14755027609169483
1789253239386697500,0.121697509765625,-0.09591068974733352,0.041868426175415516,0.10385529207624494
1789253239396750300,0.131750244140625,-0.09365911142826079,0.04352145407944918,0.05812091118767857
1789253239406803500,0.141803466796875,-0.06333528483510018,0.0436661232471466,0.021272359000891444
1789253239416857600,0.151857666015625,-0.012761281895637511,0.030134733761847016,-0.006477525451034307
1789253239426910500,0.161910400390625,-0.010554127240180969,0.024702479580044744,-0.010758709901571272
1789253239436963300,0.17196337890625,0.0028209026396274566,-0.010312135177850722,0.022522870518639684
1789253239447016400,0.182016357421875,0.016733692657947538,-0.018031915774941443,0.0512128853648901
1789253239457070300,0.1920703125,0.07941665106415748,-0.009960837522149085,0.027308716555684804
1789253239467123500,0.20212353515625,0.1196224047243595,-0.01193476794362068,0.010935820034146308
1789253239477176300,0.21217626953125,0.08247253150343895,-0.03748626556843519,0.014457345223799347
1789253239487229400,0.2222294921875,0.04423310948014259,-0.04983721309751272,0.00719597591869533
1789253239497282600,0.232282470703125,0.07998831347227096,-0.08583966984897852,-0.007127806053310632
1789253239507336400,0.24233642578125,0.02990530892014503,-0.056254678924381726,0.011391747108101844
1789253239517389600,0.2523896484375,-0.006288286489248275,-0.026035774010419843,0.03854994927719235
1789253239527442400,0.2624423828125,-0.04689852929711342,-0.00872720407396555,0.07546053384952246
1789253239537495300,0.272495361328125,-0.08116554055809974,-0.026676117740571496,0.0774604024298489
1789253239547548400,0.28254833984375,-0.10326748225092887,0.003908990137279034,0.08210070251636206
1789253239557602300,0.292602294921875,-0.10009002125859259,0.024092823249101638,0.06760843210965395
1789253239567655400,0.302655517578125,-0.12301730785965918,0.025626024165749547,0.05492854488715529
1789253239577708500,0.31270849609375,-0.09360767350196837,0.0467944844007492,0.04540522199943661
1789253239587761400,0.322761474609375,-0.028073417317867277,0.05864771154075861,0.044104806925356385
1789253239597815600,0.332815673828125,-0.0209095170378685,0.03535071484446525,0.03328340705111622
1789253239607868400,0.342868408203125,-0.04938976159095764,0.045243455566465855,-0.0019612170703709126
1789253239617921300,0.35292138671875,-0.07353577633202076,0.05582067142128944,-0.029281258737668393
1789253239627974400,0.362974365234375,-0.07555763754844665,0.06891074687987565,-0.04417151548601687
1789253239638027500,0.373027587890625,-0.04167115003764629,0.1359898944184184,-0.06096212596297264
1789253239648081700,0.38308154296875,-0.06696399672627448,0.19279431618005036,-0.1206849193893373
1789253239658134500,0.393134521484375,-0.03677519468963146,0.23786563005000352,-0.22609693938829004
1789253239668187400,0.4031875,-0.032303602233529086,0.2916518730342388,-0.2866718195993453
1789253239678240500,0.413240478515625,-0.055556467527151106,0.2684267725303769,-0.3293104994948953
1789253239688294400,0.42329443359375,-0.1482575475782156,0.21181495073139667,-0.28100824087969956
1789253239698347300,0.43334716796875,-0.2005290020853281,0.01853781947046518,-0.2001530083797872
1789253239708400400,0.443400390625,-0.42226504285037514,-0.4107140135273337,-0.008471768008172512
1789253239718453500,0.45345361328125,-0.41305414691269393,-0.3833344236925244,0.060790495723113416
1789253239728506400,0.46350634765625,-0.1729395688921213,-0.15935849504619837,0.027227394947782157
1789253239738560500,0.473560546875,0.011602759510278702,0.10364069947749376,-0.16488047333806752
1789253239748613400,0.48361328125,-0.10295768564939499,0.1992518217563629,-0.3071897069711238
1789253239758666500,0.49366650390625,-0.10263561408817767,0.14681436303257941,-0.34733423196338115
1789253239768719400,0.50371923828125,-0.09232698604166507,-0.02011690535545349,-0.2956211054587737
1789253239778772500,0.5137724609375,-0.17083879722058773,-0.06266951440274715,-0.1803878756040707
1789253239788826400,0.523826416015625,-0.22798165715634822,-0.024146599262952803,-0.11533563078325242
1789253239798879500,0.53387939453125,0.005433715486526489,-0.0692398327037692,0.0271972920704633
1789253239808932600,0.5439326171875,-0.08839724537730216,-0.13451719151735306,-0.050806058129668236
1789253239818985500,0.5539853515625,-0.49874505594074725,0.026479426124691962,-0.16593290500044822
1789253239829039400,0.564039306640625,-0.4899684597671032,0.1791287789210677,-0.26159597666226325
1789253239839092500,0.574092529296875,-0.3378933997273445,0.26131372565478084,-0.22788071753252295
1789253239849145300,0.584145263671875,-0.3649433192163706,0.22664923950880764,-0.16678444379586727
1789253239859198200,0.5941982421875,-0.37883857357800005,0.09170797736048698,-0.12747585817109794
1789253239869251600,0.60425146484375,-0.2803922278732061,-0.05825637413561344,-0.11838873474355786
1789253239879305500,0.614305419921875,-0.18761048380136489,-0.21747487618923186,-0.04283672321829945
1789253239889358600,0.624358642578125,-0.11911036354899406,-0.30861908218711614,0.03845635270960629
1789253239899411500,0.634411376953125,0.007566635861992835,-0.31855712335556746,0.02179367946125567
1789253239909464300,0.64446435546875,0.033353403547406194,-0.22625118010193107,0.01258446402400732
1789253239919518500,0.6545185546875,0.07815174569487571,-0.11515724200904369,0.27914485816061496
1789253239929571300,0.6645712890625,0.11418868923783301,-0.05711421836316585,0.4932034231003374
1789253239939624400,0.67462451171875,-0.15925708049833773,-0.08956453559100627,0.41277284575328227
1789253239949677600,0.684677490234375,-0.3697328915804624,-0.13354308578819035,0.45864195893742143
1789253239959730400,0.69473046875,-0.38493747497498987,-0.07585340562462806,0.4106335687022656
1789253239969784600,0.70478466796875,-0.31253216397762296,0.05065700504779815,0.306825184507668
1789253239979837400,0.71483740234375,-0.20997253773510455,0.22790362348407506,0.24143282101228833
1789253239989890300,0.724890380859375,0.19113339723050593,0.36907939610779283,0.24826639335937797
1789253239999943400,0.734943359375,0.610392244002223,0.47765959781408307,0.3251477537922561
1789253240009996300,0.744996337890625,0.7270324180454015,0.4811173370525241,0.4343629654664546
1789253240020050400,0.755050537109375,0.5848480529010296,0.34166005878448485,0.4749724045567214
1789253240030103600,0.765103515625,0.5408785627931356,0.2836211267918348,0.4524372590783983
1789253240040156400,0.775156494140625,0.4537602513104677,0.22346944042891262,0.5036428379196674
1789253240050209500,0.78520947265625,0.11660101107656955,0.23584961405247448,0.618578253871575
1789253240060263400,0.795263427734375,-0.19633856465816496,0.2714344299137592,0.7417662421230227
1789253240070316300,0.80531640625,-0.3848766846984625,0.32033202407360073,0.776056488129124
1789253240080369400,0.815369384765625,-0.39260231051445005,0.41537382203191514,0.7287633334912359
1789253240090422300,0.82542236328125,-0.18161796538829802,0.4982283385902643,0.741240245487541
1789253240100475600,0.8354755859375,-0.07810381489992141,0.5306485529407858,0.7459211698453873
1789253240110529500,0.845529541015625,-0.057847793334722515,0.5070999195709824,0.7348709296513348
1789253240120582400,0.85558251953125,-0.0345820685595274,0.49269408533871173,0.7428052297819405
1789253240130635500,0.865635498046875,-0.10216098231375217,0.43485535209327936,0.7637620930928737
1789253240140688400,0.8756884765625,-0.2968839284688234,0.36883974213302134,0.7592406701456755
1789253240150741200,0.8857412109375,-0.4861766662687063,0.3357438204780221,0.8457874653507024
1789253240160795400,0.89579541015625,-0.5109422742128372,0.32158582352697845,0.9434128500614315
1789253240170848300,0.90584814453125,-0.5520891081154347,0.2870315197572112,0.9741539522185921
1789253240180901600,0.915901611328125,-0.6160708741605282,0.26270897940546273,0.9805591430857777
1789253240190954500,0.92595458984375,-0.5468722502499819,0.3073550536006689,0.9017468876555561
1789253240201008400,0.93600830078125,-0.3179413295447826,0.3264373552113771,0.7779518734216689
1789253240211061500,0.9460615234375,-0.1418698923677206,0.3527648056447506,0.675793740652129
1789253240221114400,0.9561142578125,0.042404725009202955,0.3521256309583783,0.5133676016636193
1789253240231167200,0.966167236328125,0.20954232962429523,0.3123433634072542,0.30710210175290703
1789253240241220400,0.976220458984375,0.21856033333837985,0.33910803621411323,0.2165853800036013
1789253240251274200,0.986274169921875,0.1136059209138155,0.329725583101809,0.15309351636730134
1789253240261327600,0.99632763671875,0.020459435182809828,0.33099165751487014,0.22020642004497348
1789253240271380500,1.00638037109375,0.28306758456230163,0.36276948230862616,0.15653518125377594
1789253240281433300,1.016433349609375,0.4317874889552593,0.20559096165001392,-0.05494125823825598
1789253240291486500,1.026486572265625,0.4675859475672245,0.03992752124071121,-0.15580321371741593
1789253240301540400,1.036540283203125,0.5329682280600071,-0.06888005948066711,-0.1825608722615987
1789253240311593500,1.046593505859375,0.4790127659887075,-0.21999562683850526,-0.2204447588454932
1789253240321646300,1.056646240234375,0.05491407797038555,-0.26521160987615583,-0.17310747280493377
1789253240331699500,1.066699462890625,-0.4422609521746635,-0.29349399376958607,-0.10385777629427612
1789253240341753600,1.076753662109375,-0.8381593816250562,-0.37325229787826536,-0.228724292217195
1789253240351806500,1.086806396484375,-1.2680261316508055,-0.3422302598878741,-0.5266795031793415
1789253240361859300,1.096859375,-1.4385504560947417,0.013292320032417773,-0.2925290942601859
1789253240371912400,1.106912353515625,-1.4298060086250304,0.2726461437910795,-0.10343611681610346
1789253240381965300,1.11696533203125,-1.1400012247622013,0.3494116958245635,-0.32603396204225715
1789253240392019500,1.12701953125,-0.5005220024853945,0.3538721823647618,-0.5376707066625357
1789253240402072300,1.137072265625,-0.15226035347878933,0.3024643589496612,-0.7613062974385917
1789253240412125400,1.14712548828125,-0.43872108761072154,0.14716960621103645,-0.7330860189959406
1789253240422178600,1.157178466796875,-0.9452607429504394,-0.009000175796449184,-0.7516427623625844
1789253240432231400,1.1672314453125,-1.427003810685873,-0.026208207967877387,-0.6199729961656034
1789253240442285600,1.17728564453125,-1.6904752988964318,0.1078292372085154,-0.46497415763363237
1789253240452338400,1.18733837890625,-1.832344022220373,0.218870568331331,-0.6310099384866654
1789253240462391300,1.197391357421875,-1.529327290084958,0.3844095055781305,-0.9716070442147552
1789253240472444400,1.2074443359375,-0.8521031513035296,0.6366726404234767,-1.2035206339925526
1789253240482498300,1.217498291015625,0.1899976711988449,0.8457683953240513,-1.4776765978246926
1789253240492551400,1.227551513671875,1.0769915186196566,0.9789439629741012,-1.4683588805116712
1789253240502604500,1.2376044921875,1.705307541847229,0.8914018731214105,-1.3541003409080206
1789253240512657400,1.247657470703125,2.1579659693956375,0.617737492198497,-1.148008297868073
1789253240522710300,1.257710205078125,2.316930204427242,0.3814778360404074,-0.8470880996204913
1789253240532764400,1.267764404296875,1.7988631929010153,0.2225159390963614,-0.5081229790084064
1789253240542817300,1.2778173828125,0.9958224709302186,0.3004847294397652,-0.13773659195527432
1789253240552870400,1.287870361328125,0.15320318728685378,0.5541695676513015,0.17882132040709256
1789253240562923500,1.297923583984375,-0.6070721596688031,0.8257787696100771,0.4292633773051202
1789253240572976400,1.307976318359375,-1.3522417074292898,1.1023131530113517,0.5342100448146462
1789253240583030500,1.318030517578125,-1.9601374584406612,1.452377029134333,0.5483939068593084
1789253240593083000,1.328082763671875,-2.372155248042941,1.905460550227016,0.5110751068122684
1789253240603135700,1.3381357421875,-2.688318461999297,2.3220308885671197,0.45077392897605895
1789253240613188900,1.34818896484375,-2.9143203435152767,2.498835462324321,0.38858269960954783
1789253240623242000,1.358241943359375,-2.9581594852417705,2.4564900662869213,0.2942334139600396
1789253240633296100,1.368296142578125,-2.664149650904536,2.2744503683552146,0.17577581523135302
1789253240643349000,1.378348876953125,-2.0789228278189897,2.059825474769622,0.1025122799694538
1789253240653401900,1.38840185546875,-1.3569845180422067,1.9027315636545419,0.11029591958299279
1789253240663455000,1.398455078125,-0.653294981661439,1.8261450214497743,0.15193872030898928
1789253240673508900,1.4085087890625,0.019431261178851127,1.7498006174378096,0.22522359061986208
1789253240683562000,1.41856201171875,0.6288730725884437,1.6596834164001046,0.3388635599337518
1789253240693614800,1.42861474609375,1.0100380432873963,1.5894870136238635,0.5079522986166178
1789253240703668000,1.43866796875,1.2062830844432115,1.5847985635466872,0.6841377175621688
1789253240713721000,1.44872119140625,1.3284107499867677,1.6871737731330096,0.8493459615498781
1789253240723775000,1.45877490234375,1.3423358149647713,1.8050912736356257,0.9970433910273014
1789253240733827800,1.468827880859375,1.2828314865946768,1.9273048638969659,1.0655549094565213
1789253240743881000,1.478880859375,1.2150772162735461,2.057403216058761,1.0539794763445853
1789253240753933800,1.488933837890625,1.0749684883594512,2.1558990999937055,0.9825114461973309
1789253240763987000,1.498987060546875,0.9487146827965974,2.2712945346727964,0.891769391259551
1789253240774040800,1.509040771484375,0.7281611298143863,2.363815435851365,0.8255321013726293
1789253240784094000,1.519093994140625,0.4816939678966999,2.3981787470936773,0.7772441635437309
1789253240794147000,1.52914697265625,0.3972837463289499,2.44752174693346,0.7062424357339739
1789253240804200000,1.539199951171875,0.27903262995779515,2.4856772900655866,0.6579851853042841
1789253240814252800,1.549252685546875,0.05622048439383506,2.5176357321232556,0.6857214796222746
1789253240824307000,1.559306884765625,0.0007715688943862914,2.550781922660768,0.6539310876078903
1789253240834359800,1.56935986328125,0.08646656957566738,2.536663673198223,0.5063004397563636
1789253240844413000,1.579412841796875,0.28228958592712877,2.448882806153595,0.2966165097042918
1789253240854466000,1.589466064453125,0.5407786095499992,2.2702836040645837,-0.011666034004837273
1789253240864520000,1.59952001953125,0.8001987765431403,2.069739112149179,-0.46306014070585366
1789253240874573000,1.609572998046875,1.1003548585504292,1.8880499812208116,-0.9540278406433761
1789253240884626000,1.6196259765625,1.4210048625320195,1.8003375032372773,-1.419028155631572
1789253240894678800,1.6296787109375,1.928852677860856,1.8234753638491032,-1.7735497418157755
1789253240904732000,1.63973193359375,2.505768184196949,1.8420318880200386,-2.005626559331268
1789253240914785800,1.649785888671875,3.0653689831167457,1.7523168380424379,-2.0966373482078313
1789253240924839000,1.6598388671875,3.6670764008820056,1.5086029203556477,-2.1559579905740915
1789253240934892000,1.66989208984375,4.023576301401853,1.1391462153680623,-2.158164414577186
1789253240944945000,1.67994482421875,4.176261602294445,0.7597565837785601,-2.108992825781554
1789253240954998000,1.689998046875,4.276902827695012,0.4541344914503395,-1.9489665144763886
1789253240965052000,1.700052001953125,4.551977659937739,0.2034853676728904,-1.7146721670418976
1789253240975105000,1.71010498046875,5.050481892859936,-0.0013650778081268071,-1.5238513428919016
1789253240985158000,1.720157958984375,5.510685913482308,-0.1476885155186057,-1.32385557090044
1789253240995211000,1.7302109375,5.8314382087945935,-0.3481500783909112,-1.0945920572400092
1789253241005264100,1.74026416015625,5.901227199813723,-0.5404583646196872,-0.8056260622888803
1789253241015318000,1.750318115234375,5.362939238035678,-0.7806063334532082,-0.35660452993810177
1789253241025371000,1.760370849609375,4.317585551217198,-1.1208622245281934,0.24575711395218966
1789253241035424000,1.770424072265625,2.99117094348371,-1.4031937499009073,0.8965645165815949
1789253241045476900,1.780476806640625,1.5786632756620644,-1.4810808533102273,1.5616791153743863
1789253241055531000,1.790531005859375,0.09611702597439288,-1.3775174568526447,2.049688550028205
1789253241065583900,1.800583984375,-1.1649947962433098,-1.2147650085192172,2.3501088359296323
1789253241075636700,1.81063671875,-1.9705033696323633,-0.9735483875408768,2.476847502399981
1789253241085690000,1.820690185546875,-2.277860761320591,-0.6558496345803141,2.4190957167856393
1789253241095743000,1.830742919921875,-2.1680255911171433,-0.3823576876148581,2.17290415693894
1789253241105796900,1.840796875,-1.7685522257894277,-0.15919994348362088,1.9007251922681927
1789253241115850000,1.85085009765625,-1.1421142713934183,-0.015472002159059048,1.6262822281882165
1789253241125902800,1.86090283203125,-0.4541021966159344,0.005359335076063871,1.3477910116307437
1789253241135956000,1.8709560546875,0.13324644092917443,-0.08746084131002425,1.1692186975486576
1789253241146009000,1.881009033203125,0.6574813274353742,-0.2318647822000086,1.102617835046351
1789253241156062700,1.891062744140625,1.053351699835062,-0.35353739745244384,1.113143612974882
1789253241166116000,1.9011162109375,1.4278250639408825,-0.5004436765521765,1.1662763604864477
1789253241176169000,1.9111689453125,1.700391128233075,-0.659472647383064,1.2250193490952253
1789253241186221800,1.921221923828125,1.600849973028898,-0.8076999459534883,1.314558019592613
1789253241196275000,1.93127490234375,1.1942162145525217,-0.9162731333971023,1.4332339372470975
1789253241206328800,1.941328857421875,0.6726987703114747,-0.9157562699161469,1.5450988597124815
1789253241216382000,1.9513818359375,0.2061830823242664,-0.8650108559325337,1.6080441223166881
1789253241226435000,1.96143505859375,-0.25037235266268254,-0.8195332993492483,1.5914033686392008
1789253241236488000,1.971488037109375,-0.6939759516179561,-0.7804466128468514,1.5047396690562367
1789253241246541000,1.981541015625,-1.0341659378498793,-0.7256677055634557,1.4097418563701212
1789253241256595000,1.991594970703125,-1.2736474786639214,-0.7311163263581693,1.325247025258839
1789253241266647800,2.001647705078125,-1.5170833100616932,-0.8230617657363414,1.257265668183565
1789253241276701000,2.011700927734375,-1.7574726133704184,-0.9461185288235544,1.1610875596716999
1789253241286753800,2.02175390625,-1.8289526262164115,-1.142217147246003,1.0350938663497566
1789253241296808000,2.031807861328125,-1.7599772896677255,-1.350640701973438,0.8780176370218395
1789253241306860800,2.04186083984375,-1.6430337487637996,-1.596350031261146,0.6459758908197283
1789253241316914000,2.051913818359375,-1.5282371567606925,-1.8207900702878832,0.41075186131969094
1789253241326967000,2.061967041015625,-1.4446090254813433,-2.028740746806562,0.0844049608707428
1789253241337020000,2.07202001953125,-1.3077262738764286,-2.179001450900733,-0.25088074057623744
1789253241347074000,2.082073974609375,-1.2693874831318854,-2.319799330122769,-0.6306586408309638
1789253241357127000,2.092126953125,-1.321950029540062,-2.439715164835751,-0.9758429282188414
1789253241367179800,2.1021796875,-1.3940338534981012,-2.5448010946854946,-1.2941323405489324
1789253241377233200,2.112233154296875,-1.5296365021646021,-2.5088871930003163,-1.7226691571451722
1789253241387286000,2.1222861328125,-1.6491414179891346,-2.409337269967794,-2.1367976552911103
1789253241397340000,2.13233984375,-1.635365990614891,-2.2155907676294446,-2.551576580169797
1789253241407393000,2.14239306640625,-1.3848141897320747,-1.9655644519254565,-3.0152713655173775
1789253241417446000,2.15244580078125,-0.8108294761508703,-1.760263413132727,-3.4284248811513183
1789253241427498800,2.162498779296875,0.04447393249869346,-1.608735465581715,-3.8063837492853403
1789253241437551900,2.1725517578125,0.9585323124557733,-1.566215005238354,-3.9869785091057417
1789253241447605800,2.182605712890625,1.6371739168196915,-1.6192454614192247,-4.011958928844332
1789253241457659000,2.192658935546875,1.9725930353879928,-1.6948691499412059,-3.9250139281019565
1789253241467712000,2.2027119140625,2.1056483376592396,-1.6652958494544028,-3.679628423941135
1789253241477764900,2.212764892578125,1.7782804235994816,-1.6288579238951206,-3.2329853111594913
1789253241487818000,2.22281787109375,1.7596084563553331,-1.637831503945589,-2.9169790413305163
1789253241497872000,2.232871826171875,1.8843699775338172,-1.5406205452546475,-2.746340442857146
1789253241507925000,2.242925048828125,2.039073632511496,-1.2008560909584165,-2.6384470543712375
1789253241517977900,2.252977783203125,2.0117928268760443,-0.8013406400546431,-2.4840207550302145
1789253241528031000,2.263031005859375,1.8211293852448462,-0.48639820006489753,-2.2129273936390876
1789253241538084000,2.273083984375,1.6175135230600832,-0.2746206587344408,-1.9218271631382404
1789253241548138000,2.283137939453125,1.5569430267632007,-0.13587503586709498,-1.6701206392623482
1789253241558190800,2.29319091796875,1.65314130128026,-0.05121142406016588,-1.5064315676659346
1789253241568244000,2.303243896484375,1.9417437236160038,-0.05112798356041312,-1.419305803529173
1789253241578296800,2.313296875,2.4535750556230544,-0.11189210273325442,-1.317500064393878
1789253241588351000,2.32335107421875,3.0327094070523977,-0.30121421275809407,-1.1647069192126394
1789253241598404000,2.333404052734375,3.3533465515524146,-0.5750837608642876,-1.0068225883722304
1789253241608457200,2.343457275390625,3.072646280643344,-0.8304702884271741,-0.8127119288966059
1789253241618510300,2.35351025390625,2.236400039163232,-0.98624785624668,-0.48874505545198915
1789253241628563200,2.363563232421875,1.1888175703793764,-1.0113828820250927,-0.12947773604542015
1789253241638617300,2.373617431640625,0.02915653637945652,-0.7896575087845324,0.14163959074318408
1789253241648670200,2.383670166015625,-0.9895248320907354,-0.32790479741543527,0.32984541008919477
1789253241658723000,2.39372314453125,-1.795853489691019,0.28043884349390863,0.5054124048754572
1789253241668776200,2.403776123046875,-2.325988540151715,0.8462282679207622,0.5607154821634293
1789253241678829300,2.413829345703125,-2.5806536215722558,1.1820809556007386,0.45959202620387074
1789253241688883200,2.42388330078125,-2.5349001706570387,1.2849540317066013,0.31206366968303917
1789253241698936300,2.433936279296875,-2.2629092759042977,1.226883535531908,0.19762509733736514
1789253241708989200,2.4439892578125,-1.863948536273837,1.0616127477020025,0.21870880189836023
1789253241719042300,2.454042236328125,-1.3890449591696261,0.8355880698323249,0.3157943806439638
1789253241729095200,2.46409521484375,-0.8494622814059257,0.5418227117754518,0.4529609176263213
1789253241739149300,2.4741494140625,-0.4159235648691654,0.21193653128445147,0.6289212956443428
1789253241749202200,2.4842021484375,-0.10038578933477402,-0.12730989048704505,0.8765431805551052
1789253241759255300,2.49425537109375,0.011529109752178192,-0.4161329698361456,1.1626777514725923
1789253241769308400,2.504308349609375,-0.18860650910139082,-0.6339607511162757,1.4486293670386075
1789253241779361300,2.514361328125,-0.6810638630747795,-0.7468057706601917,1.6576251686960457
1789253241789415200,2.524415283203125,-1.2782716313332319,-0.7468819046363234,1.7736244144871829
1789253241799468300,2.53446826171875,-1.9123598082214592,-0.6746738697767257,1.9002438384920357
1789253241809521200,2.544521240234375,-2.5998206788569687,-0.6316090734235942,1.9938976892232894
1789253241819574000,2.554573974609375,-3.136274410945177,-0.5707185513921081,2.034434282273054
1789253241829627400,2.56462744140625,-3.647614160043001,-0.4803925299093127,2.038839531494677
1789253241839681000,2.574680908203125,-4.066799941578507,-0.3906603826664388,1.9740780132487414
1789253241849734400,2.584734375,-4.54639956754446,-0.31569764227122066,1.8576565965227783
1789253241859787300,2.594787353515625,-4.923080086305737,-0.31134368484541775,1.7381980040580034
1789253241869840100,2.604840087890625,-5.043190566807985,-0.333214155869931,1.5505233689792453
1789253241879893200,2.614893310546875,-4.934476509588957,-0.34387086670175193,1.3904825907573104
1789253241889947100,2.624947021484375,-4.592551077866554,-0.335682445679605,1.289825729396194
1789253241900000300,2.635000244140625,-4.204424451461434,-0.306035349304229,1.1289394402608275
1789253241910053400,2.645053466796875,-3.7965602744072675,-0.2861402700059116,0.9600465164110064
1789253241920106200,2.655106201171875,-3.2181168278515337,-0.17499109459444878,0.7948457250773906
1789253241930160400,2.665160400390625,-2.604410344734788,0.006549713904410601,0.5776330069556832
1789253241940213200,2.675213134765625,-1.9663444963872432,0.20746508495882152,0.39306554411202665
1789253241950266000,2.68526611328125,-1.1147937182694674,0.4496677212998271,0.18025486034154892
1789253241960319200,2.6953193359375,-0.07694003181755542,0.7207135902874171,-0.10521949310153722
1789253241970372000,2.7053720703125,0.8375280979841947,0.9984837990939617,-0.3290606894522905
1789253241980426200,2.71542626953125,1.7612398569494485,1.2833651550799607,-0.43649668955951926
1789253241990479000,2.72547900390625,2.711224705812335,1.524021584892273,-0.37661914396286006
1789253242000532200,2.7355322265625,3.6040333769917487,1.7584017109140753,-0.2218888932392001
1789253242010585300,2.74558544921875,4.336294343340397,1.982234431697428,-0.14492314245849847
1789253242020638200,2.75563818359375,4.826571430665254,2.162347545480728,-0.1326414607733488
1789253242030692400,2.7656923828125,5.242984824877977,2.3459904408253727,-0.16634996136873959
1789253242040745200,2.7757451171875,5.525217127659917,2.560702135911584,-0.22946488145142793
1789253242050798000,2.785798095703125,5.764373674303293,2.682977100971341,-0.24878011503517627
1789253242060851500,2.7958515625,5.990599427703023,2.649516729918122,-0.28524785121083257
1789253242070904300,2.805904296875,5.986473287683725,2.5720585194453593,-0.31209377256035803
1789253242080958200,2.815958251953125,5.707289851078391,2.51380419113636,-0.3303298326052725
1789253242091011300,2.82601123046875,5.381485533073544,2.490775782248378,-0.3295034647837281
1789253242101064200,2.836064208984375,5.147623585706949,2.4629034404605625,-0.2745803267240524
1789253242111117000,2.846116943359375,4.962075295132398,2.3418447193227707,-0.19086422490030527
1789253242121170200,2.856170166015625,4.609969830179214,2.1535623276092113,-0.03293298617824912
1789253242131224000,2.86622412109375,3.9557530574977395,1.9185899347826838,0.2642791513316333
1789253242141277400,2.87627734375,3.120872843673825,1.7275544449687004,0.5694245660588145
1789253242151330300,2.886330322265625,2.265267821729183,1.5803022750407456,0.834279471451789
1789253242161383200,2.896383056640625,1.7946657412111757,1.5280144539207219,0.9744600955583155
1789253242171436300,2.906436279296875,1.992762547713518,1.4970106822393834,0.9193357358381151
1789253242181490200,2.916490234375,2.6365543724924323,1.3728317832544445,0.6482371137499809
1789253242191543300,2.926543212890625,3.089824209937453,1.0675362925320864,0.43241438868194815
1789253242201596200,2.93659619140625,2.978240734761953,0.6310859263323247,0.47911724927648897
1789253242211649300,2.946649169921875,2.4201111774384976,0.15916867156252265,0.6995011447802185
1789253242221702400,2.956702392578125,1.4996312400013208,-0.2868107166133821,1.0405106307014822
1789253242231756300,2.96675634765625,0.5064730198442936,-0.5996512158878147,1.4162962464496494
1789253242241809200,2.97680908203125,-0.3883680339455604,-0.7278799747854471,1.709905537161976
1789253242251862300,2.9868623046875,-1.1624141321003436,-0.7330984400860965,1.8675621967263518
1789253242261915100,2.9969150390625,-1.717927953967452,-0.6653903469942509,1.8975440780140458
1789253242271968000,3.006968017578125,-2.046995073160529,-0.5899792783096433,1.8518908726029097
1789253242282022100,3.017022216796875,-2.1678917356044054,-0.5481115827865898,1.8441962264470755
1789253242292075300,3.0270751953125,-2.2194342913150784,-0.6694074736811221,1.7522512254603206
1789253242302128400,3.03712841796875,-2.317770162382722,-0.8740931570544839,1.5672136608868836
1789253242312181200,3.04718115234375,-2.476772975859046,-1.0417305278852582,1.4391187575019895
1789253242322235100,3.057235107421875,-2.650624983420968,-1.1728452174827455,1.354934599775076
1789253242332288300,3.067288330078125,-2.861212438184023,-1.249671559792757,1.2837094384729861
1789253242342341000,3.077341064453125,-3.1524966469496487,-1.2430344598658383,1.1962041734993456
1789253242352394200,3.087394287109375,-3.379963924843073,-1.2456237457066774,1.0950246034383773
1789253242362447400,3.097447265625,-3.548177634257078,-1.26904319973886,0.9937973948433995
1789253242372500200,3.107500244140625,-3.7147774787336587,-1.2706480045869946,0.8334848139427602
1789253242382554400,3.117554443359375,-3.7978117357730863,-1.2976406409308314,0.687490535121411
1789253242392607200,3.127607177734375,-3.8517432324469087,-1.361801562935114,0.555110647893697
1789253242402660000,3.13766015625,-3.939683966228366,-1.441914087308943,0.3065503130890429
1789253242412713200,3.147713134765625,-3.935522754895687,-1.5609870414569973,0.022544424763321875
1789253242422767000,3.15776708984375,-3.642363984429836,-1.6603367657423018,-0.1869800769433379
1789253242432820200,3.1678203125,-3.0416110909104344,-1.7316425910651683,-0.4210129969626665
1789253242442873300,3.177873291015625,-2.2413544467002153,-1.8076926883056759,-0.7843743076846003
1789253242452926200,3.18792626953125,-1.2401327470749617,-1.9297355981752276,-1.1394421295747161
1789253242462979300,3.197979248046875,-0.15500935992598533,-2.091867065066099,-1.3707425558902322
1789253242473033200,3.208033203125,0.7711363481879234,-2.2844874859839677,-1.5799379717729984
1789253242483086000,3.218086181640625,1.410259596633911,-2.362940260452032,-1.70885822006613
1789253242493139200,3.22813916015625,1.8330571389257906,-2.3570757523328063,-1.786091681872308
1789253242503192000,3.238192138671875,2.1142034000366925,-2.3389622957542535,-1.9180267479419708
1789253242513245200,3.2482451171875,2.2488304816693065,-2.2275714205414054,-2.0369494799643753
1789253242523299300,3.25829931640625,2.2051275335431098,-1.964073336584866,-2.0685779594153164
1789253242533352200,3.268352294921875,2.104133841443062,-1.5878595585525035,-1.9981072697423397
1789253242543405300,3.2784052734375,2.2363263894051313,-1.2162570737078786,-1.848868602172285
1789253242553458200,3.288458251953125,2.506924368494749,-0.9457353747248649,-1.7614973388418553
1789253242563511000,3.298510986328125,2.8499095384031534,-0.8433192486062645,-1.7480455904640255
1789253242573565200,3.308565185546875,3.375912603625655,-0.8807321566775441,-1.880507018495351
1789253242583618000,3.3186181640625,3.7944805455237627,-0.9169242907822132,-2.0076744317717847
1789253242593672000,3.328671875,3.878662219032645,-0.8424947804808616,-1.9889501498185096
1789253242603725000,3.33872509765625,3.6771494666069744,-0.5885378473296761,-1.845109249638766
1789253242613778000,3.34877783203125,3.334951647683978,-0.3061243427619338,-1.6822142510294913
1789253242623832000,3.35883203125,3.0018758773714302,-0.05651566794812679,-1.575175579676777
1789253242633885000,3.368885009765625,3.008987755203247,0.01280278294980526,-1.5951009079828857
1789253242643937800,3.378937744140625,3.3517426234871146,-0.04858619012311101,-1.7126665263079106
1789253242653991000,3.388990966796875,3.673860946455598,-0.1103331828534603,-1.764177225575596
1789253242664043800,3.399043701171875,3.63980085594356,-0.19725494885072112,-1.5153002260372042
1789253242674098000,3.409097900390625,3.137547499620914,-0.3814959562189877,-1.0407041074469685
1789253242684151000,3.419151123046875,2.309285827153921,-0.5907102229326963,-0.44635961966514587
1789253242694204000,3.429203857421875,1.2878104440510272,-0.6983424762643873,0.12183145907595753
1789253242704257000,3.439257080078125,0.22221885584592818,-0.6136778415441513,0.5859808563232421
1789253242714310000,3.449309814453125,-0.5635293705403804,-0.40534503384009,0.8709607042476535
1789253242724364000,3.459364013671875,-1.1516109985351561,-0.11958514145389199,0.91248221668154
1789253242734417000,3.4694169921875,-1.5337223101735113,0.11350085310414433,0.8755706822611391
1789253242744469800,3.4794697265625,-1.7670231165260075,0.27246961818039417,0.8478747199535369
1789253242754523100,3.489523193359375,-1.926926093712449,0.2993511953651905,0.8183335681706666
1789253242764576000,3.499575927734375,-2.0764625751852988,0.26599267725124953,0.8858087292894721
1789253242774630000,3.5096298828125,-2.2967127613067624,0.18508681054264306,1.0235321695022284
1789253242784683000,3.51968310546875,-2.569452428600192,0.04102057717442512,1.2259402633324266
1789253242794735900,3.52973583984375,-2.8801088618338104,-0.11028335236236453,1.5193528624288737
1789253242804788700,3.539788818359375,-3.270271377980709,-0.23484628222882747,1.7925075402639805
1789253242814842000,3.549842041015625,-3.7092952479302883,-0.3568133503831923,2.0298846561446786
1789253242824895700,3.559895751953125,-4.136667843052745,-0.40434067910313604,2.213733595455438
1789253242834949000,3.56994921875,-4.470643777075409,-0.4533601460769772,2.300174153807014
1789253242845002000,3.580001953125,-4.686118419358134,-0.5394735183008015,2.234529422985762
1789253242855054800,3.590054931640625,-4.768363571846485,-0.61136298873052,2.1033114191442728
1789253242865108000,3.60010791015625,-4.674262561869621,-0.6621909664310515,1.9892484021127224
1789253242875161900,3.610161865234375,-4.563087082973122,-0.6879777341164648,1.7884947974912822
1789253242885215000,3.620215087890625,-4.605469596150517,-0.7870718762055039,1.5538262099169193
1789253242895267800,3.630267822265625,-4.681153490427136,-0.8498463122874498,1.400695941735804
1789253242905321000,3.640321044921875,-4.804323943021894,-0.9045916095621883,1.2858378288038075
1789253242915374000,3.6503740234375,-4.900899234157801,-0.9299499227024615,1.1346769609995186
1789253242925428000,3.660427978515625,-4.85283984438777,-0.8874499206252395,0.9612633448548614
1789253242935480800,3.670480712890625,-4.479232741722464,-0.7066115613073111,0.9155684922590851
1789253242945534000,3.680533935546875,-3.6601083154350516,-0.39842166431769727,0.9085942693322896
1789253242955586800,3.6905869140625,-2.4988497831106184,-0.06812690302580594,0.9256792596459388
1789253242965640000,3.700639892578125,-1.2342892817437647,0.23106851725578306,1.0089099160403012
1789253242975693800,3.71069384765625,-0.06252630653977394,0.43213089556545015,1.149697858390212
1789253242985747000,3.720746826171875,1.0394307265102862,0.5823907228767872,1.3359119193971156
1789253242995800000,3.730800048828125,2.0020231280118224,0.7044394779652356,1.4734437825605273
1789253243005853000,3.74085302734375,2.721838454285264,0.8048755361825227,1.5572230127483606
1789253243015907000,3.750906982421875,3.223248345521092,0.9710267601087689,1.5922054788023232
1789253243025960000,3.7609599609375,3.56861485760808,1.19805213945359,1.492314487247169
1789253243036012800,3.7710126953125,3.916162220865488,1.5418575397036969,1.3208742170020937
1789253243046066000,3.78106591796875,4.3073470657974475,1.971804953750223,1.0347951756641267
1789253243056119000,3.791119140625,4.792731704905629,2.343713289673626,0.6487398025751113
1789253243066172000,3.801171875,5.474345018556714,2.6980267860651015,0.15228811826854943
1789253243076226000,3.81122607421875,6.509623886084556,3.0050270348787307,-0.4548801952511072
1789253243086279000,3.82127880859375,7.597699693298339,3.087403120270371,-0.8782058530703186
1789253243096331800,3.831331787109375,8.085735139176249,2.8118700228661297,-0.9714052380323409
1789253243106385000,3.841385009765625,7.755968347281217,2.3462834324225783,-0.7767877980783582
1789253243116438800,3.851438720703125,6.778517399343848,1.8227771524518728,-0.32238428042829037
1789253243126492000,3.861491943359375,5.585568428248167,1.5063091103300452,0.16909940620735286
1789253243136545000,3.871544921875,4.248078884270787,1.3972421480201185,0.5613859287708998
1789253243146598000,3.881597900390625,3.0019068570315834,1.40289944312945,0.8105817850001156
1789253243156651000,3.891651123046875,2.0108558382868766,1.4105989115908741,0.9540754791773856
1789253243166705000,3.901704833984375,1.2181202372312545,1.3434906840883194,0.9949133932612836
1789253243176758000,3.911758056640625,0.6963754139751196,1.1621190946765243,0.9109051766231655
1789253243186811000,3.921810791015625,0.5222855060040951,0.9476697037883103,0.7546155676282942
1789253243196864000,3.931864013671875,0.66519175568223,0.7405059398636221,0.6401546373203396
1789253243206917000,3.941917236328125,0.8744342255771159,0.5859663894064724,0.6437227050654589
1789253243216971000,3.951970947265625,0.9636737669974565,0.37801118284314866,0.7220897009462117
1789253243227024000,3.96202392578125,0.9203858294129371,0.11403159897997975,0.85971187274158
1789253243237077000,3.972076904296875,0.7458604526340961,-0.14385770518407226,1.0449572348468006
1789253243247129900,3.9821298828125,0.5169675258517265,-0.4170515459857881,1.2379045496314762
1789253243257182700,3.9921826171875,0.40333354788720605,-0.588961333438754,1.3745701513543724
1789253243267236900,4.00223681640625,0.5253419709652662,-0.554357199177891,1.3130821018211543
1789253243277290000,4.0122900390625,0.7700380315572023,-0.42717283476665613,1.1114788946330547
1789253243287343000,4.022343017578125,0.9243483033031225,-0.29331001550480723,0.8718114758580923
1789253243297396000,4.03239599609375,1.0856021105766296,-0.22757249183356762,0.6503335015073418
1789253243307448800,4.04244873046875,1.133418339240551,-0.2491368195183575,0.46683308337330814
1789253243317503000,4.0525029296875,0.9003080870240926,-0.366158540225029,0.4012383291736245
1789253243327555800,4.062555908203125,0.3865846576601267,-0.47373774819523096,0.4303530722379684
1789253243337608700,4.072608642578125,-0.26491642632186413,-0.5755563468120992,0.4376816615603864
1789253243347662000,4.082662109375,-0.9408394193768501,-0.5962956218495965,0.4791745324216783
1789253243357715000,4.09271484375,-1.7052882526248692,-0.5634092512920499,0.5920949552893638
1789253243367769000,4.10276904296875,-2.4649106886297463,-0.5563591866500676,0.7017531614907085
1789253243377822000,4.112822021484375,-3.1390052972137927,-0.59422363788113,0.7389533035941421
1789253243387874800,4.122874755859375,-3.732553373920917,-0.7144258883200585,0.7774110445432364
1789253243397928000,4.132927978515625,-4.240860038933158,-0.871261733020842,0.807664143987745
1789253243407980800,4.142980712890625,-4.7002597574353215,-1.0386112268209458,0.8417894086904824
1789253243418035000,4.153034912109375,-5.028867442423105,-1.1607976368144153,0.8800164096236228
1789253243428088000,4.163088134765625,-5.16733483287096,-1.2479404982164501,0.767562727484852
1789253243438141000,4.173140869140625,-5.202057186684012,-1.3722180352702735,0.6786715611107647
1789253243448194000,4.183194091796875,-5.218955714514851,-1.588123470185697,0.536586418557167
1789253243458247000,4.193246826171875,-5.148192910027504,-1.8258461846336722,0.348669864481315
1789253243468300800,4.20330078125,-4.988282918578386,-2.1014953096330165,0.23739260571077464
1789253243478354000,4.21335400390625,-4.626608830291032,-2.33280523442924,-0.008968903875350952
1789253243488406800,4.22340673828125,-4.212833967888355,-2.4297867682784795,-0.2217126598894596
1789253243498460000,4.2334599609375,-3.750642572841048,-2.2479688964039086,-0.5129955534808337
1789253243508513000,4.243512939453125,-3.085275460591912,-1.9029241636171936,-0.900057984720543
1789253243518566000,4.25356591796875,-2.1247166107445956,-1.5317673767134545,-1.301877986239642
1789253243528620000,4.2636201171875,-1.0163824438780547,-1.2985694462135433,-1.8785900789581238
1789253243538673000,4.2736728515625,0.04464753549993038,-1.2436118213623761,-2.4676836604744192
1789253243548725800,4.283725830078125,0.9459119003355503,-1.185685117572546,-2.8360426333531734
1789253243558779000,4.29377880859375,1.7794161496311425,-1.110896418569982,-2.9711995840787884
1789253243568832800,4.303832763671875,2.5180343760520216,-1.0598676576003432,-3.0276778426259754
1789253243578886100,4.31388623046875,3.00038417750895,-1.063670557014644,-2.9520944861143827
1789253243588939000,4.32393896484375,3.0893747126042843,-1.0692740761101245,-2.6899273585006593
1789253243598991600,4.33399169921875,2.948181112062931,-0.9634007952749729,-2.4160392518244684
1789253243609044500,4.34404443359375,2.9659920785635707,-0.7510498379707335,-2.2221244071818886
1789253243619098600,4.3540986328125,3.3022540776968,-0.5037985399380326,-2.1848481311023233
1789253243629151500,4.3641513671875,3.847747440809011,-0.29478870975524185,-2.3753328551657495
1789253243639204600,4.37420458984375,4.477985372009873,-0.09811579857617617,-2.6839070752978325
1789253243649257700,4.3842578125,5.139774625772238,0.08361527179777621,-2.9318478168994186
1789253243659310600,4.394310546875,5.684115311717987,0.2056521903179586,-3.090922818829119
1789253243669363500,4.404363525390625,5.935283198672533,0.1941344787426293,-2.9861610063672064
1789253243679417600,4.41441748046875,5.864165004876256,0.09236205735504627,-2.6812936779290437
1789253243689470500,4.424470458984375,5.612551127719879,0.011400076545029877,-2.4384059819333253
1789253243699523300,4.4345234375,5.502558136606216,-0.04136281474083662,-2.3053744989290834
1789253243709576700,4.44457666015625,5.491373894768953,-0.06118190619349479,-2.2775153088837863
1789253243719629600,4.454629638671875,5.264419827094674,-0.0910221870534122,-2.2575563705690205
1789253243729683700,4.46468359375,4.603416170752048,-0.18500716943517326,-2.106091843643039
1789253243739736600,4.474736572265625,3.420336851763725,-0.2936404165029526,-1.7879975154936312
1789253243749789400,4.48478955078125,1.9528169062942264,-0.31675460397824645,-1.3204722120724617
1789253243759842600,4.494842529296875,0.46445817093551156,-0.24026319271102548,-0.8678250365704298
1789253243769895700,4.504895751953125,-0.8939718697398901,-0.0667312108837068,-0.5582828481890261
1789253243779949600,4.514949462890625,-1.983426564091444,0.25155206396654245,-0.40737463997155426
1789253243790002700,4.525002685546875,-2.764455360740423,0.5569369865380227,-0.4050564261570573
1789253243800055600,4.5350556640625,-3.1560043628096577,0.794065388354659,-0.5256660883530974
1789253243810108700,4.545108642578125,-3.23742592395544,0.9399652668908238,-0.6552665739953517
1789253243820161500,4.55516162109375,-3.193776167321205,0.9141524879813194,-0.6800605312511324
1789253243830215400,4.56521533203125,-3.1689480155348777,0.7501213249489664,-0.5663768689259886
1789253243840268500,4.5752685546875,-3.1269933723807335,0.48929187567979093,-0.3003644640609622
1789253243850321400,4.5853212890625,-3.0592876173764467,0.12681406979411838,0.15126228235214947
1789253243860374500,4.59537451171875,-3.1031635839819907,-0.2748759486697614,0.6427291639834642
1789253243870427600,4.605427734375,-3.3259055869191885,-0.6325716348454355,1.1184873120903969
1789253243880481500,4.6154814453125,-3.6803929785728453,-0.9141052878387271,1.5364306923493742
1789253243890534700,4.62553466796875,-4.104080163180828,-1.0765998889535664,1.919049953509867
1789253243900587500,4.63558740234375,-4.510862974739075,-1.1219136332772672,2.19487940351218
1789253243910640400,4.645640380859375,-4.884714407554268,-1.0727709783151744,2.382897299070656
1789253243920693800,4.65569384765625,-5.3181040710091585,-1.0765091419301926,2.4433466532059014
1789253243930747400,4.665747314453125,-5.4548839467614885,-1.1252141361273824,2.439645460600406
1789253243940800800,4.67580078125,-5.263621954715251,-1.0206028380520642,2.3450074211373924
1789253243950853600,4.685853515625,-5.050561387836932,-0.8329089137509464,2.2446660554662348
1789253243960906500,4.695906494140625,-4.964980368924141,-0.7111160331197083,2.1183898919411
1789253243970959600,4.705959716796875,-5.13742017160058,-0.6998959893167018,2.01553508214429
1789253243981013500,4.716013427734375,-5.153016969183087,-0.7959889037631451,1.9620147966198622
1789253243991066400,4.72606640625,-4.900141109266877,-0.8074784121572971,1.8251717925034463
1789253244001119500,4.736119384765625,-4.346176854929328,-0.6253760242529213,1.6701695929706095
1789253244011172600,4.746172607421875,-3.5823037757426497,-0.33188363791853187,1.510252002736926
1789253244021225500,4.7562255859375,-2.618116214004159,-0.014847148258984089,1.3197595337584613
1789253244031279600,4.766279541015625,-1.4365589900165796,0.244568488689512,1.1646692175507545
1789253244041332500,4.77633251953125,-0.06856149505078792,0.47331528499945996,0.8952744767710566
1789253244051385600,4.786385498046875,1.1446014120340346,0.7146326629385352,0.6083458328664303
1789253244061438500,4.7964384765625,2.13543206602633,0.9554917757160961,0.2993932809412479
1789253244071491600,4.80649169921875,2.8984236862033605,1.202851210298389,0.0914671543419361
1789253244081545500,4.81654541015625,3.346346317401528,1.352878836289048,-0.01672375578582287
1789253244091598600,4.8265986328125,3.525116492143273,1.3541574779227374,-0.05818038628995418
1789253244101651700,4.836651611328125,3.464833580616116,1.307068979011476,-0.06427870316505432
1789253244111704600,4.84670458984375,3.3034073393851515,1.2525398087054491,-0.14671382526755333
1789253244121757400,4.85675732421875,3.284681596127152,1.2987795818328858,-0.26176848368495703
1789253244131811600,4.8668115234375,3.5264568008363244,1.4617109669297932,-0.5165256273031235
1789253244141864400,4.876864501953125,4.024568819570542,1.668414419866353,-0.786875769111514
1789253244151917600,4.88691748046875,4.602810606074333,1.7711190075375138,-1.0224284460440278
1789253244161970700,4.896970703125,4.91729390411973,1.6498730932645498,-1.052052453804761
1789253244172023600,4.9070234375,4.8319484475284815,1.3252579850442707,-0.933719065977633
1789253244182077700,4.91707763671875,4.575347429609298,1.0124215774230658,-0.818580090277642
1789253244192130600,4.927130615234375,4.2288428534030915,0.8277100299336015,-0.7201242460921407
1789253244202183400,4.937183349609375,3.8169723633170127,0.8391190204374491,-0.6498721676059067
1789253244212236500,4.947236572265625,3.670849489679932,1.0052980091534554,-0.8371728548057377
1789253244222289700,4.95728955078125,4.196638035368919,1.1552334268160163,-1.3826179948620498
1789253244232343600,4.967343505859375,5.0945437374264,1.1627721517577767,-2.0805748328097162
1789253244242396700,4.977396728515625,6.139156835010647,1.0758666062429547,-2.7424612633362413
1789253244252449500,4.987449462890625,7.089574230071902,0.850921101912111,-3.2128134607464074
1789253244262502700,4.997502685546875,6.9482193014889955,0.36785379983559247,-3.2239652616187926
1789253244272555500,5.007555419921875,5.662071822214126,-0.18727029206156728,-2.8081472029507157
1789253244282608400,5.0176083984375,3.787487910157442,-0.46264483790323135,-2.128552389515191
1789253244292662500,5.02766259765625,1.895192984843254,-0.39206089711412784,-1.382558519759774
1789253244302715600,5.037715576171875,0.26885493481457234,-0.06192731773331761,-0.7885911947272718
1789253244312768500,5.0477685546875,-0.9231681536078452,0.43951808320730923,-0.4257729048408568
1789253244322821600,5.057821533203125,-1.6162147154211997,0.9066729458808899,-0.25259894267097116
1789253244332874500,5.06787451171875,-1.9272119249165056,1.214153233296424,-0.20133345033600925
1789253244342928600,5.0779287109375,-1.9640555086672304,1.3209206864923237,-0.2008800074800849
1789253244352981500,5.0879814453125,-1.8359803328961133,1.2632733841657637,-0.19167276480421422
1789253244363034400,5.098034423828125,-1.6962907071769238,1.119299359125644,-0.18933453111499546
1789253244373087700,5.108087646484375,-1.6922440621346235,0.9655344463028013,-0.145200936486572
1789253244383140600,5.118140625,-1.758786618578434,0.827227068722248,-0.04498714271783828
1789253244393194800,5.12819482421875,-1.900426209321618,0.691689594246447,0.048063043031841515
1789253244403247600,5.13824755859375,-2.069891380101442,0.5560768625773489,0.17774726143479347
1789253244413300500,5.148300537109375,-2.2844354635357855,0.35833339955732224,0.31094884030893444
1789253244423353600,5.158353515625,-2.5993478006482125,0.18454890427365897,0.41038332026824353
1789253244433406500,5.168406494140625,-3.0416017385601997,0.03985942444056272,0.5249922807447612
1789253244443460400,5.17846044921875,-3.509731876006722,-0.09094956020861863,0.6957549439892172
1789253244453513700,5.188513671875,-3.956972370159626,-0.18141952020674942,0.8704948403015732
1789253244463566600,5.198566650390625,-4.351590696671605,-0.28764278352335093,0.9634966568648815
1789253244473619500,5.208619384765625,-4.591630455890297,-0.3379161960810423,0.9792464530520141
1789253244483672600,5.218672607421875,-4.659543131643534,-0.40564284774288534,0.9615246261395514
1789253244493726500,5.2287265625,-4.594596319958567,-0.5034773451596498,0.8525034026674926
1789253244503779600,5.238779541015625,-4.501500687631965,-0.6203367149114608,0.7550467986524104
1789253244513832400,5.24883251953125,-4.559133376911282,-0.8212534011401236,0.7271215576335788
1789253244523885600,5.258885498046875,-4.720401212710142,-1.0457755654923617,0.7221398236982524
1789253244533938700,5.268938720703125,-4.958899587705731,-1.1868842642292379,0.7534617214180529
1789253244543992600,5.27899267578125,-5.142278717547655,-1.230103812752664,0.8182673710666596
1789253244554045400,5.28904541015625,-5.189229269292951,-1.1930489243388176,0.8640525322943925
1789253244564098600,5.2990986328125,-5.026743289875984,-1.1615431944847106,0.8930799624014645
1789253244574151400,5.3091513671875,-4.815900983569025,-1.21502314799875,0.7995403856996446
1789253244584204800,5.319204833984375,-4.4804321806401015,-1.1914449962735176,0.5563027802877127
1789253244594257200,5.329257080078125,-3.8990789841175078,-1.0046890834748745,0.22636844980604945
1789253244604311000,5.33931103515625,-3.1922441354483366,-0.693776629653573,-0.11835106961429119
1789253244614364200,5.3493642578125,-2.362900512963533,-0.4333537153586745,-0.5151131301566958
1789253244624417000,5.3594169921875,-1.3264841658383608,-0.21627719083726404,-1.000979269171506
1789253244634470000,5.369469970703125,0.19239011929333208,0.10312778151929378,-1.8368537547297774
1789253244644523300,5.379523193359375,1.6016197883576153,0.3254474673911929,-2.693930164401233
1789253244654577000,5.389576904296875,2.840170819199085,0.3868716579079628,-3.4163264470785855
1789253244664630300,5.39963037109375,3.708772685360908,0.28755642041414975,-3.8726375519156453
1789253244674683100,5.40968310546875,3.994296430903673,0.05569178434461355,-3.9844562971517443
1789253244684736000,5.419736083984375,3.837359317785501,-0.2438637014210224,-3.664734513930976
1789253244694789000,5.4297890625,3.418914125484228,-0.5513184160038829,-3.188492673960328
1789253244704843000,5.439843017578125,2.9754315225601196,-0.7815440526947378,-2.8441107889965176
1789253244714896100,5.449896240234375,2.723097514435649,-0.863949071919918,-2.5623323674619196
1789253244724949200,5.45994921875,2.5222850192338226,-0.7959241679638623,-2.4298886212177573
1789253244735002000,5.470002197265625,2.1840683789014816,-0.7829723319321871,-2.407126754311472
1789253244745055200,5.48005517578125,1.9596201565682887,-0.7783388269126414,-2.429875031083822
1789253244755109000,5.490109130859375,1.7448615536004304,-0.7280445176973939,-2.4064558693125844
1789253244765162000,5.500161865234375,1.395123402300477,-0.6684038495965302,-2.300464953447133
1789253244775215000,5.510215087890625,1.1400789661735296,-0.625134032190591,-2.2730384557306764
1789253244785268000,5.52026806640625,1.1798112571030854,-0.5699271087534725,-2.342318328183889
1789253244795321000,5.530321044921875,1.8343109383791685,-0.48912441015839575,-2.6050956966504453
1789253244805375000,5.540375,2.968656913858652,-0.44220922198742624,-3.0680405404135582
1789253244815428000,5.550427978515625,4.584487013876438,-0.466323234155029,-3.616977321977913
1789253244825481200,5.560481201171875,6.510466182127595,-0.5633991682894528,-4.3364498261630535
1789253244835534000,5.5705341796875,7.867149086874723,-0.808942639490962,-4.857845397590101
1789253244845587000,5.5805869140625,7.835365124601125,-1.210549948107451,-4.77436018191278
1789253244855641000,5.59064111328125,6.073723701113462,-1.7644335384242236,-4.001723366034031
1789253244865694000,5.60069384765625,3.856065771821141,-2.2374805278763175,-2.877875988215208
1789253244875747300,5.610747314453125,1.6594430317729711,-2.501974052610993,-1.8028008246108889
1789253244885800200,5.62080029296875,0.1739116287946701,-2.439565527231991,-1.0818535716980695
1789253244895853000,5.63085302734375,-0.817452693682909,-2.138700566302985,-0.7918173171669244
1789253244905906200,5.64090625,-1.4797183327853678,-1.6472091347523032,-0.7580331209868192
1789253244915960000,5.6509599609375,-2.0356430735409257,-1.1092433906659482,-0.7620686601132154
1789253244926013000,5.661012939453125,-2.4647405927598474,-0.6792145819462836,-0.7769000262811779
1789253244936066000,5.671066162109375,-2.674385213714838,-0.346521819601953,-0.8412526714652776
1789253244946119200,5.681119140625,-2.930191281864047,-0.19593495229333638,-0.8766668069347738
1789253244956172000,5.691172119140625,-3.27743060208559,-0.09828735575079918,-0.8444906304731965
1789253244966226200,5.70122607421875,-3.5578088014334437,-0.02069587428718805,-0.7414291921883821
1789253244976279000,5.711279052734375,-3.4420857422351836,0.09791443078517913,-0.6101958446472883
1789253244986332200,5.721332275390625,-2.9408342564314602,0.1996919667392969,-0.519545851907134
1789253244996385000,5.731385009765625,-2.300848838198185,0.25198519468680025,-0.5704395883202552
1789253245006438100,5.741438232421875,-1.622017848742008,0.29552023890018464,-0.7178112929746508
1789253245016492000,5.751491943359375,-0.9223381325244903,0.3971121891543269,-0.9708806296363472
1789253245026545200,5.761545166015625,-0.23185703728497026,0.5174988562494516,-1.2476336242243646
1789253245036598300,5.771598388671875,0.2070645413339138,0.5469314330913126,-1.370960144163668
1789253245046651100,5.781651123046875,0.27047113783955573,0.5025122995197773,-1.2493959577217697
1789253245056704000,5.7917041015625,0.030024551385641095,0.39549700904265045,-0.9004059944406151
1789253245066758100,5.801758056640625,-0.45526247256696223,0.20131635307073592,-0.45195466319322586
1789253245076811000,5.81181103515625,-0.9904670813769102,0.03472849129289388,-0.0676648384720087
1789253245086864000,5.82186376953125,-1.4743249493092299,-0.08859773638546466,0.1972279147133231
1789253245096917200,5.831917236328125,-1.8536814092814922,-0.1486122062347829,0.35045243704915047
1789253245106970000,5.84197021484375,-2.2155250089168548,-0.185361974222213,0.4514595731526613
1789253245117023000,5.85202294921875,-2.513291565439105,-0.18375600033029912,0.5094634338319302
1789253245127077000,5.8620771484375,-2.786415848135948,-0.2599462366938591,0.620291706725955
1789253245137130000,5.8721298828125,-3.102597766792774,-0.3346173006661236,0.7125538108378648
1789253245147183000,5.88218310546875,-3.4208132371038196,-0.3775505795940757,0.8269102578580378
1789253245157236200,5.892236328125,-3.7504835828870533,-0.3973281699925661,0.9322606838628649
1789253245167289000,5.9022890625,-3.982966058593988,-0.3725504332192242,0.9765484461396932
1789253245177343200,5.91234326171875,-4.0893963887900115,-0.2379687981635332,0.99405750708431
1789253245187396000,5.92239599609375,-4.02777842926681,-0.044644612890481945,0.9854711727857589
1789253245197449200,5.93244921875,-3.904281813457608,0.13554068934619426,0.9342267232388257
1789253245207502000,5.942502197265625,-3.677463354861736,0.3320335677832365,0.8433508127883076
1789253245217555000,5.952554931640625,-3.3512580548405646,0.5538698540523648,0.6846221400782465
1789253245227609000,5.962609130859375,-3.0450556784063574,0.7525956061080098,0.49397272697240113
1789253245237662000,5.972661865234375,-2.7261323520869016,0.9223132903441786,0.35479134303629395
1789253245247715000,5.982715087890625,-2.342797636133432,1.0221665802374482,0.28170272594988344
1789253245257768200,5.992768310546875,-1.875224548047781,1.0636422077029943,0.23211247335076332
1789253245267821000,6.002821044921875,-1.417622818878293,1.1267404689118266,0.193338652189821
1789253245277874000,6.0128740234375,-1.0807441491514445,1.150568796005845,0.10986571147218346
1789253245287928000,6.022927978515625,-0.7400853763639926,1.1140382237270474,-0.011872954753786325
1789253245297981000,6.03298095703125,-0.33559973583221436,1.0893097329229116,-0.22101386397033929
1789253245308034300,6.043034423828125,0.24111995567083358,1.0611182421833276,-0.5208331152386964
1789253245318087200,6.053087158203125,0.9524667288064956,0.9486664597406983,-0.9275516293890774
1789253245328140000,6.06314013671875,1.6799597501009702,0.7230076925739646,-1.448400088327378
1789253245338194200,6.073194091796875,2.2515859178572892,0.5387096943214535,-1.939297645638138
1789253245348247000,6.0832470703125,2.4447329929977655,0.5347787846133113,-2.3264862605407832
1789253245358300200,6.093300048828125,2.1274808147609234,0.7298200029373169,-2.4794112154081462
1789253245368353000,6.10335302734375,1.4692226577341556,0.9615393853172659,-2.479577511885762
1789253245378406100,6.11340625,0.7115460951000452,1.1904101002678273,-2.491336338740587
1789253245388460000,6.1234599609375,-0.07231704819202422,1.502529299530387,-2.5466426308989525
1789253245398513200,6.13351318359375,-0.5750923825621604,1.8781275760129093,-2.85397225779742
1789253245408566000,6.14356591796875,-0.09167933578789234,2.3001012347012755,-3.593920856039226
1789253245418619100,6.153619140625,1.7184791581094263,2.417340543681383,-4.643869761693478
1789253245428672000,6.163672119140625,4.122240089249611,2.0448662444382903,-5.662219706252217
1789253245438726100,6.17372607421875,6.2690966356098645,1.2545768674910067,-6.27095190808773
1789253245448779000,6.183779052734375,7.303163204738497,-0.049343876622617244,-6.3087739814817905
1789253245458832100,6.19383203125,6.805263951972127,-1.5457608307525514,-5.777643490242958
1789253245468885200,6.20388525390625,5.071663797098398,-2.828600792914629,-4.963159583237767
1789253245478938000,6.213938232421875,3.2323972821384666,-3.4631770455807445,-4.034614705027639
1789253245488991000,6.223990966796875,1.3373966049969195,-3.3979470330402255,-3.170462804012
1789253245499045000,6.234045166015625,-0.4862286887168884,-2.9522853325113654,-2.543478029388189
1789253245509098000,6.244097900390625,-1.7311790652066468,-2.579769532214105,-2.339439265616238
1789253245519151000,6.254151123046875,-2.4821599295943972,-2.313877246597409,-2.435062078332901
1789253245529204200,6.264204345703125,-3.0810300781071183,-2.1733160987406968,-2.4750129804491996
1789253245539257000,6.274257080078125,-3.561631574591994,-2.2219427670046685,-2.383814560046047
1789253245549311200,6.284311279296875,-3.7941245716929433,-2.388895954963565,-2.18230867575258
1789253245559364000,6.294364013671875,-3.7254771519243715,-2.5855031074300405,-1.9523489965215324
1789253245569417000,6.3044169921875,-3.311123612850904,-2.712395210896432,-1.7065305077709256
1789253245579470000,6.314469970703125,-2.7013240740448237,-2.7953105177313087,-1.5088164169758558
1789253245589523200,6.324523193359375,-2.0458751292198896,-2.8525393023848533,-1.4856941923245788
1789253245599577000,6.3345771484375,-1.419894270941615,-2.7947520070657133,-1.588704046552628
1789253245609630500,6.34463037109375,-1.0117904399126767,-2.740674672180414,-1.6852749537743628
1789253245619683300,6.354683349609375,-0.8962941752076149,-2.5723928659662603,-1.673923100285232
1789253245629736400,6.364736328125,-0.8577198221415281,-2.295796523244679,-1.5034129504971205
1789253245639789300,6.374789306640625,-0.7948942403942346,-1.979366182784736,-1.2291808526888488
1789253245649842200,6.38484228515625,-0.7843214084535837,-1.7554288325831293,-0.9259322114937006
1789253245659896300,6.394896240234375,-0.8212848191916942,-1.6429560073524712,-0.6423918217878788
1789253245669949200,6.40494921875,-0.9111433692932128,-1.5909870429232715,-0.4055199154829606
1789253245680002300,6.415002197265625,-0.9955676193863153,-1.5841145268052816,-0.20134868443775922
1789253245690055400,6.425055419921875,-1.032435753056407,-1.5611735039398074,-0.0645411900261417
1789253245700108300,6.4351083984375,-1.1074188055872916,-1.519326997335255,0.08795147437117994
1789253245710162400,6.445162353515625,-1.1959043137699366,-1.4069628931760787,0.20779464570675044
1789253245720215300,6.45521533203125,-1.2187351542592049,-1.3168176350876688,0.29598277837801723
1789253245730268200,6.46526806640625,-1.2596674686282872,-1.314558750244975,0.35467663061544297
1789253245740321300,6.4753212890625,-1.3353338272482156,-1.3548477982744573,0.4072634346820414
1789253245750374400,6.48537451171875,-1.3837602967649698,-1.35584966879338,0.526110251924023
1789253245760428300,6.49542822265625,-1.3222867141485213,-1.3395400467664003,0.5968552284937352
1789253245770481400,6.5054814453125,-1.1429659197866917,-1.328412211291492,0.551670225116238
1789253245780534300,6.5155341796875,-0.8747972136706114,-1.3597358625769613,0.4157577067829668
1789253245790587400,6.52558740234375,-0.6678098292261362,-1.3646554910615085,0.24004319328479468
1789253245800640300,6.53564013671875,-0.4457207372397184,-1.3404966168388723,0.053256958413124084
1789253245810694100,6.545694091796875,-0.18560206658840178,-1.3142737958237527,-0.11544329240880906
1789253245820747300,6.555747314453125,0.05698854615688324,-1.2833531723812222,-0.22496815455406902
1789253245830800400,6.56580029296875,0.15348784944713115,-1.194805120356381,-0.23704342694692312
1789253245840853200,6.575853271484375,0.2540671155273914,-1.013606549423933,-0.18476620028614996
1789253245850906400,6.58590625,0.3412538160711527,-0.8302809033349156,-0.22493585971966384
1789253245860959200,6.595959228515625,0.4937959091007709,-0.6866428322508931,-0.3041983431354165
1789253245871013400,6.606013427734375,0.7211305005252361,-0.6146700674518942,-0.4351103497676551
1789253245881066200,6.616066162109375,1.0439841520309447,-0.6320473187103867,-0.5515893418997526
1789253245891119400,6.626119384765625,1.3812912763029337,-0.7678481202974915,-0.6361586995519697
1789253245901172500,6.63617236328125,1.7896885373204945,-0.8256701946690678,-0.689313805025816
1789253245911225300,6.646225341796875,2.1898329337775704,-0.7435920693106949,-0.7223436757072806
1789253245921279200,6.656279296875,2.4020319153904914,-0.5664360517673194,-0.6922869756177067
1789253245931332400,6.666332275390625,2.253756832155585,-0.2381051378943026,-0.6298362185321748
1789253245941385200,6.67638525390625,1.9045318910747766,0.15561580138653516,-0.5707207433491945
1789253245951438000,6.68643798828125,1.8909943641096352,0.5787850996002555,-0.7013190078571439
1789253245961491500,6.696491455078125,2.6204408575594424,0.9591143501274287,-1.197993687264621
1789253245971545300,6.70654541015625,3.8766234066814182,1.0977788705825806,-1.9467853710450231
1789253245981598500,6.716598388671875,5.1969911354660985,0.9657206165246665,-2.6942051819503305
1789253245991651300,6.7266513671875,6.377566362679004,0.696667382659018,-3.1355478502362963
1789253246001704200,6.7367041015625,6.824217658767104,0.21306962696760892,-3.116018389379978
1789253246011757300,6.74675732421875,6.005367373245954,-0.4223297786496579,-2.4752181476324795
1789253246021810200,6.75681005859375,4.410911485168338,-0.9110859400175512,-1.557187795304507
1789253246031864300,6.7668642578125,2.824457117238641,-1.0905495038509367,-0.8362012332946062
1789253246041917400,6.77691748046875,1.8105676592200994,-0.9299659970544278,-0.6283695069804788
1789253246051970300,6.78697021484375,1.4380232173502445,-0.4925016315065324,-0.929490926888585
1789253246062023400,6.7970234375,1.3461907368272543,0.006373334424197673,-1.3915439363785087
1789253246072076300,6.807076171875,1.204154255720973,0.4126593023762107,-1.6360459357030688
1789253246082130200,6.817130126953125,0.8215636361330747,0.6004170856937766,-1.5558502630904316
1789253246092183300,6.827183349609375,0.15595453182160854,0.5390151070088148,-1.095414041147381
1789253246102236200,6.837236083984375,-0.6235860720962285,0.2605946175999939,-0.46723158117160196
1789253246112289300,6.847289306640625,-1.3754220920085907,-0.08350362811684608,0.12417217698320746
1789253246122342400,6.85734228515625,-2.0991326721549033,-0.35316432635635137,0.5471303166642785
1789253246132395300,6.867395263671875,-2.7516543313562867,-0.47157136394158,0.8555335641436278
1789253246142449400,6.877449462890625,-3.3462393498957157,-0.4600068906150758,1.0129235355958341
1789253246152502300,6.887502197265625,-3.801413559657335,-0.38193785476759073,1.0557228128805756
1789253246162555100,6.89755517578125,-4.081510603976249,-0.3009481091678142,1.0173445669084786
1789253246172608300,6.907608154296875,-4.242044864803552,-0.19123554243072866,0.9184251968644559
1789253246182661400,6.917661376953125,-4.3050650923401115,-0.130612000772357,0.8399941958367824
1789253246192715500,6.927715576171875,-4.117342964857817,-0.13388327752798795,0.7083068209178746
1789253246202768400,6.937768310546875,-3.858412627208233,-0.18430559703707694,0.5764506653033197
1789253246212821200,6.9478212890625,-3.547980065858364,-0.14022797037959098,0.45650151284262536
1789253246222874400,6.957874267578125,-3.1724972324490546,0.010047931283712386,0.4087769079849124
1789253246232927200,6.96792724609375,-2.7173060715526343,0.16974281867742538,0.3375409330278635
1789253246242981000,6.977981201171875,-2.241807451164722,0.3227233031243086,0.26923677373901006
1789253246253034200,6.9880341796875,-1.900122257938981,0.48297027144283056,0.24006240944191812
1789253246263087400,6.99808740234375,-1.5705080262571571,0.6676920480653643,0.1946605484433472
1789253246273140200,7.00814013671875,-0.9600210897088051,0.8612617325320839,0.04113397442102432
1789253246283193300,7.018193359375,0.08043488819599151,1.0437851223275065,-0.21760829331055281
1789253246293246200,7.02824609375,1.3974217423707247,1.1727183762326836,-0.509586767950654
1789253246303300400,7.03830029296875,2.690776376545429,1.2177452664390205,-0.6995932069778442
1789253246313353200,7.048353271484375,3.713370534545183,1.0703653784781695,-0.6651679364152252
1789253246323406300,7.05840625,4.1887668636024,0.7369584765151143,-0.37062589489743114
1789253246333459500,7.06845947265625,4.10088692009747,0.3747854987949133,0.1447033622279763
1789253246343512300,7.07851220703125,3.590709200516343,0.12282470789700746,0.6688865185469388
1789253246353566500,7.08856640625,2.8406717544585462,0.09458908575475215,1.0504268984295426
1789253246363619300,7.098619384765625,2.187791783338785,0.4075795148938894,1.1861077268987894
1789253246373672200,7.108672119140625,1.814593261474371,0.8871690578572452,1.1411848815888166
1789253246383725300,7.118725341796875,1.3679741140902042,1.3367277658246457,0.8986025982804596
1789253246393778400,7.1287783203125,0.8790139545828104,1.6754964870817959,0.7296459615446627
1789253246403831300,7.138831298828125,0.5368219808787107,1.8543441109739243,0.6211580412317067
1789253246413885400,7.148885498046875,0.3865490018248558,1.7820134726479648,0.5185103713795542
1789253246423938300,7.158938232421875,0.3580447918742895,1.5627843001373112,0.42616921068206426
1789253246433991200,7.1689912109375,0.43298342074155804,1.3213950260058045,0.3079364336851984
1789253246444044300,7.179044189453125,0.7632932334721088,1.0018436309158802,0.08561294842101633
1789253246454097200,7.18909716796875,1.5051163934141396,0.7488593421891331,-0.48585985540449617
1789253246464151300,7.1991513671875,2.9133079516023397,0.5924579433828592,-1.4059531316116451
1789253246474204400,7.209204345703125,5.385645575362443,0.4562481226034462,-2.5417747326016427
1789253246484257300,7.21925732421875,8.137136825111508,0.2500323070533573,-3.3123207136809825
1789253246494310400,7.229310302734375,9.449387882936,-0.29834026475697756,-3.1818197720676658
1789253246504363300,7.23936328125,8.442830667501687,-1.2228428818389772,-2.379689296809584
1789253246514416000,7.249416015625,5.89364302829504,-1.9052955689236521,-1.1808994907312094
1789253246524470300,7.25947021484375,3.1059950080156327,-2.0417516195490957,0.1024015130713582
1789253246534523100,7.269523193359375,0.7945937961429357,-1.8136596338860689,0.9697315326664596
1789253246544576500,7.279576416015625,-0.770859284812212,-1.3369044375658035,1.275190324191749
1789253246554629400,7.28962939453125,-1.704195781213045,-0.7383088682107627,1.2060913612633943
1789253246564682200,7.29968212890625,-2.0573446177393198,-0.23045681509822605,0.9692151075769215
1789253246574736400,7.309736328125,-1.9462907193958758,0.06765870099216699,0.5728160351280123
1789253246584789200,7.319789306640625,-1.4347171615421772,0.13423077579140663,0.18447664275504647
1789253246594842600,7.329842529296875,-0.8177110523581504,-0.004987725284695625,-0.08617942319735884
1789253246604895500,7.3398955078125,-0.37138065878748894,-0.20645152400210498,-0.17037483297064898
1789253246614948600,7.349948486328125,0.026723171752691267,-0.3417543129391968,-0.2757623030502349
1789253246625001700,7.360001708984375,0.2942746227532625,-0.40681481413170695,-0.3207603324882686
1789253246635055600,7.3700556640625,0.22169687779843805,-0.5262200689740478,-0.26883286911323667
1789253246645108500,7.3801083984375,-0.16691022560000418,-0.6570236467957496,-0.17861220770105718
1789253246655161600,7.39016162109375,-0.7789157500177621,-0.7350627258963882,0.07149564880654215
1789253246665214500,7.40021435546875,-1.3970242674857378,-0.7132581597149372,0.4058750490635633
1789253246675267600,7.410267578125,-1.8911317267537116,-0.6507517269194125,0.641117198742181
1789253246685321500,7.420321533203125,-2.344064295068383,-0.5977203939557075,0.7852220105551183
1789253246695374600,7.43037451171875,-2.7576298986345527,-0.5785007297009229,0.8651611511234194
1789253246705427700,7.440427734375,-3.104541886597872,-0.580364623876661,0.8779751130543648
1789253246715480600,7.45048046875,-3.3734406605541705,-0.6156196232616901,0.8724831645745783
1789253246725533400,7.460533447265625,-3.676808690345287,-0.6722584791980684,0.9075774204399436
1789253246735586600,7.470586669921875,-4.002679643845558,-0.6835008809633553,0.9541909953158348
1789253246745640400,7.480640380859375,-4.216086832204461,-0.6803070533581078,0.9814500275108963
1789253246755693600,7.490693603515625,-4.272438249501586,-0.7008309320792555,0.940878217017278
1789253246765746700,7.50074658203125,-4.200964666396379,-0.7184373159185051,0.8573591721355914
1789253246775799600,7.510799560546875,-3.994280064290762,-0.6833868991948664,0.7668436924953013
1789253246785852700,7.520852783203125,-3.566702886506915,-0.6171545777440071,0.5611035316329449
1789253246795906600,7.530906494140625,-2.9172698409706355,-0.5464877809770405,0.2140708398994058
1789253246805959400,7.54095947265625,-2.311691719251871,-0.49076355566754937,-0.00028385844267904756
1789253246816012500,7.551012451171875,-1.7720616952151058,-0.4178948649421334,-0.10916552731357514
1789253246826065700,7.561065673828125,-1.122987546119094,-0.29307109218239785,-0.19591653985381124
1789253246836118500,7.571118408203125,-0.26084640040397644,-0.15101649089753627,-0.3797732240796089
1789253246846171600,7.581171630859375,0.6195838507175445,-0.05893500404953956,-0.6249414322279393
1789253246856225500,7.5912255859375,1.375493988201022,-0.09683774146437645,-0.8162566157661378
1789253246866278700,7.601278564453125,1.938567431667447,-0.1826891017511487,-1.0137684619873761
1789253246876331500,7.61133154296875,2.5184172378897665,-0.2713426599770784,-1.2958582875587046
1789253246886384400,7.62138427734375,3.092849110716581,-0.34645927575975655,-1.547650882282853
1789253246896437800,7.631437744140625,3.384901965767145,-0.2919321512803435,-1.7555092043429612
1789253246906491400,7.641491455078125,3.6903719362735745,-0.12022943070679902,-1.8410957762137055
1789253246916544800,7.651544677734375,3.948601432177424,0.1418868435025215,-1.889070118048787
1789253246926597600,7.66159765625,4.212286855399609,0.330331732301414,-1.9515429408356546
1789253246936650500,7.671650390625,4.648382855203748,0.34193419955074783,-2.149002764608711
1789253246946703600,7.68170361328125,5.167477456212043,0.3268140795692801,-2.3914295650944113
1789253246956756500,7.691756591796875,5.579067960312962,0.3514750580951571,-2.5429852774351835
1789253246966810400,7.701810302734375,5.791531730341911,0.370565543012321,-2.466459087115526
1789253246976863700,7.71186376953125,5.63511484170556,0.35620880861878396,-2.1277987946689128
1789253246986916600,7.72191650390625,5.240254523131251,0.34122400545477866,-1.738084899072349
1789253246996969500,7.731969482421875,4.9727077483057975,0.26888547608330843,-1.5370025008879602
1789253247007022600,7.742022705078125,5.106656200024485,0.08651303906589745,-1.532555604481697
1789253247017076500,7.752076416015625,5.471676676130294,-0.16959435011744498,-1.6327220519773662
1789253247027129600,7.762129638671875,5.5895829245865345,-0.5002237501911818,-1.6754617080293595
1789253247037182500,7.772182373046875,5.174996745800971,-0.9350774948492646,-1.6662473049603401
1789253247047235600,7.782235595703125,4.093423160088062,-1.3545187124505638,-1.407379218892008
1789253247057288700,7.792288818359375,2.5020775129854678,-1.5551861000932752,-0.8732505687505007
1789253247067341600,7.802341552734375,0.8356663957655429,-1.541158889915049,-0.3450977781482041
1789253247077395500,7.8123955078125,-0.6071990009188651,-1.413433112103492,-0.08324410039782523
1789253247087448600,7.822448486328125,-1.750561811068654,-1.1491456313349306,-0.03521934354975819
1789253247097501400,7.83250146484375,-2.540740128856897,-0.8474326752744614,-0.12738748576790093
1789253247107554600,7.842554443359375,-3.011703443902731,-0.5754809434883296,-0.27880788129121065
1789253247117607700,7.852607666015625,-3.301440423226356,-0.4251842912979424,-0.45944209633916616
1789253247127661600,7.86266162109375,-3.5301065555155273,-0.39067558023557064,-0.5178942853078246
1789253247137714700,7.872714599609375,-3.634437867605686,-0.455475530795753,-0.38450785138607024
1789253247147767600,7.882767578125,-3.7223867846935987,-0.6144444420024753,-0.1579755162551999
1789253247157820400,7.8928203125,-3.848042624363303,-0.8289531618624925,0.04766206101551652
1789253247167873500,7.90287353515625,-4.0120805093973875,-1.0645911789909004,0.24613895287662743
1789253247177926700,7.9129267578125,-4.310048141449689,-1.256170858684182,0.4040788132965564
1789253247187980500,7.92298046875,-4.6707799804508685,-1.3886267337575553,0.6166676710098982
1789253247198033700,7.93303369140625,-5.0071197209954255,-1.4054662248775363,0.8456240184172987
1789253247208086500,7.94308642578125,-5.3302919369310136,-1.3511787543728946,1.0448594735607504
1789253247218139600,7.9531396484375,-5.56172694941163,-1.320797060112655,1.138995408720523
1789253247228192500,7.963192626953125,-5.6936026865094895,-1.299762163129449,1.1188872711934148
1789253247238246400,7.973246337890625,-5.665838481271266,-1.2821604554653168,1.0802600188963114
1789253247248299500,7.983299560546875,-5.582788442140817,-1.2406214073747395,1.0186972966916858
1789253247258352600,7.9933525390625,-5.455128861433267,-1.1757280794426799,1.0152369271047412
1789253247268405800,8.00340576171875,-5.199732543128729,-1.1202847169011831,1.0496982918940483
1789253247278458600,8.013458740234375,-4.826028994351625,-1.0731041557922958,0.927155031286925
1789253247288511500,8.023511474609375,-4.413203395497798,-0.9430354681164026,0.8034615777313708
1789253247298565600,8.033565673828125,-3.973386329343915,-0.732833505539596,0.8315091299556195
1789253247308618500,8.043618408203125,-3.4095489157676693,-0.4654571188449859,0.9071087069496512
1789253247318671400,8.05367138671875,-2.752379723021388,-0.13577537488490343,0.9266485430695116
1789253247328724700,8.063724853515625,-2.1393886946976184,0.238696527916193,0.9745641404546797
1789253247338777600,8.073777587890625,-1.478783682283759,0.6925950186535715,0.960301806346327
1789253247348830500,8.08383056640625,-0.7669400655418634,1.1585521959751843,0.8442671969808637
1789253247358884600,8.093884521484375,-0.00037000235617160797,1.5855948284909127,0.7574529830113053
1789253247368937500,8.1039375,0.8389782967925071,1.9204770637035369,0.5138208983890712
1789253247378990600,8.113990478515625,1.858269321593642,2.0234172136962414,0.22184666153267024
1789253247389043500,8.12404345703125,2.887985294297337,2.008225782044232,-0.03053805386573076
1789253247399096600,8.1340966796875,3.7246255035310982,1.9655311341777442,-0.25238091600611806
1789253247409150700,8.144150634765625,4.2868525593012565,1.8950392555862665,-0.4258380790315568
1789253247419203600,8.15420361328125,4.721442830717564,1.8121429457128047,-0.5300519022218882
1789253247429256400,8.16425634765625,5.159399948218464,1.7125760715454816,-0.7060609416872262
1789253247439309600,8.1743095703125,5.649000743716955,1.436694306834042,-0.8278060376539826
1789253247449362400,8.184362548828124,5.927876721808314,1.0094812861874698,-0.846411515533179
1789253247459415600,8.19441552734375,5.666973038259148,0.5537931355543434,-0.6853130449518561
1789253247469469400,8.204469482421874,4.867602529233694,0.23508783589974044,-0.2971384146865457
1789253247479522600,8.2145224609375,3.7068987081825733,0.1287359777674079,0.27978629786930975
1789253247489575700,8.22457568359375,2.5283693075835703,0.1575993764191866,1.0074391859006135
1789253247499628500,8.234628662109374,1.8277192850291728,0.21726883222311733,1.649444784849882
1789253247509681400,8.244681396484374,1.713744530802965,0.128495154748857,1.9548669706918298
1789253247519734500,8.254734619140624,2.117107889306545,-0.1604313849747181,1.9446913213752208
1789253247529788400,8.264788330078124,2.666895150220394,-0.542468754594028,1.7136740959152579
1789253247539841500,8.274841552734374,3.186789377173781,-0.8903902118608354,1.432531634196639
1789253247549894700,8.284894775390624,3.6301392936289307,-1.1729117068476975,1.1916479714997112
1789253247559947500,8.294947509765626,3.822935655635595,-1.3730112314745784,0.9095477706648409
1789253247570000600,8.305000732421876,3.423673302710056,-1.4907866931580007,0.7106621518723666
1789253247580054500,8.315054443359376,2.532892337965965,-1.438978910639882,0.6564259000983089
1789253247590107400,8.325107421875,1.3141080838680266,-1.0386289086081086,0.8342823940612375
1789253247600160500,8.335160400390626,0.07690262241661548,-0.44489656137526035,1.0410697258889674
1789253247610213600,8.345213623046876,-0.9315127881050109,0.15936244056895374,1.132947360727936
1789253247620266800,8.355266845703126,-1.4476432786107063,0.6073153207749128,0.9948873820371925
1789253247630319600,8.365319580078125,-1.4211989237993954,0.7834764820620417,0.5674670022502541
1789253247640373800,8.375373779296876,-0.931270211520791,0.7984066324293613,0.03727693366669118
1789253247650426600,8.385426513671876,-0.3177630503684282,0.7696981320783496,-0.41534072347991163
1789253247660479700,8.395479736328125,0.07822714901864528,0.7276112408466636,-0.6329646527510135
1789253247670532600,8.40553271484375,0.1664168891251087,0.5491992318928242,-0.594699511764571
1789253247680585700,8.415585693359375,-0.06619768852889538,0.24467954784855245,-0.3982571214057505
1789253247690638800,8.425638916015625,-0.5300140544295311,-0.10684957852140069,-0.12385682742372155
1789253247700692700,8.435692626953125,-1.2201041045248509,-0.4153929651238024,0.12522877336405216
1789253247710745600,8.44574560546875,-1.9688783987790346,-0.6183211373053491,0.3433207585383206
1789253247720798700,8.455798828125,-2.6790239794313906,-0.7251930737890303,0.5110626857221127
1789253247730851600,8.4658515625,-3.431553242304921,-0.7814350393623113,0.6023853900920599
1789253247740904400,8.475904541015625,-4.164684561747312,-0.797044842556864,0.665679758394882
1789253247750958600,8.48595849609375,-4.862908818459511,-0.7676137270197272,0.7776572013240307
1789253247761011700,8.49601171875,-5.396229513218999,-0.7963353791132569,0.8471655487708747
1789253247771064800,8.50606494140625,-5.749859995782375,-0.8359519347086548,0.8239129757381976
1789253247781117700,8.51611767578125,-6.008050913241505,-0.9315463981136679,0.7620572619363665
1789253247791170600,8.526170654296875,-6.010177988398075,-1.0178770663499832,0.6302883462138473
1789253247801223700,8.5362236328125,-5.844208258518576,-1.0928034202575683,0.4389854741679504
1789253247811277600,8.546277587890625,-5.730334042057395,-1.060103658313304,0.30277101374603804
1789253247821330700,8.55633056640625,-5.459406392621994,-0.941971638277173,0.2615234228827059
1789253247831383800,8.5663837890625,-5.021072258502245,-0.8827553330682217,0.23266572331935165
1789253247841436700,8.576436767578125,-4.341681297075748,-0.851936562564969,0.08419445992521941
1789253247851489800,8.58648974609375,-3.382610055437684,-0.7410255798235535,-0.16239683982878922
1789253247861542700,8.596542724609375,-2.278078787985444,-0.5676005655020475,-0.4732411968499422
1789253247871596500,8.606596435546875,-1.0234253481268882,-0.3782192726358771,-0.7648791144240648
1789253247881649700,8.616649658203125,0.27837796544134613,-0.19282880297154187,-1.1944310263469815
1789253247891702500,8.62670263671875,1.5363789621621369,0.03777209677249193,-1.6073831741899252
1789253247901755600,8.636755615234375,2.6859868041813373,0.3211757814213633,-1.9339744047887621
1789253247911808800,8.646808837890624,3.503311487570405,0.46727863518372176,-2.1654875970721243
1789253247921862700,8.656862548828125,4.035471906378865,0.4365064803011715,-2.3092115928739307
1789253247931915800,8.666915771484375,4.431599468410015,0.3270772605501115,-2.346449728900194
1789253247941968600,8.67696875,4.769366611409187,0.2172914824463427,-2.310948645799607
1789253247952021500,8.687021484375,5.172670348680019,0.2198056572243571,-2.2035936019740996
1789253247962075000,8.697074951171874,5.786294998732209,0.25430340850129723,-2.1165327197670933
1789253247972127700,8.707127685546874,6.59275809636712,0.1514886384539306,-2.179906583046913
1789253247982182000,8.717181884765624,7.214666590639949,-0.13792773061320185,-2.375301437114179
1789253247992234800,8.72723486328125,7.235811669999361,-0.46373906288072464,-2.4639929892629384
1789253248002287600,8.73728759765625,6.596819938978553,-0.5818507707811892,-2.2276411247767505
1789253248012340700,8.7473408203125,5.495859515750408,-0.40302097480669613,-1.774918838211894
1789253248022393600,8.7573935546875,4.375419900548458,-0.11292524517327547,-1.3324651399441063
1789253248032446700,8.76744677734375,3.679772800847888,0.09688801034688949,-1.0672418396301566
1789253248042500600,8.77750048828125,3.530253270509839,0.16249211689680815,-1.0471326791897415
1789253248052553700,8.7875537109375,3.988600265088677,0.04872209146246314,-1.2991260571829975
1789253248062606600,8.797606689453126,4.459783944886922,-0.17349954086244104,-1.5792289467208087
1789253248072659700,8.80765966796875,4.449177795198559,-0.4993098502166569,-1.651750869835168
1789253248082712600,8.817712646484376,3.7465982658863064,-0.9388621279545127,-1.5112943513967096
1789253248092765700,8.827765625,2.4532424626678226,-1.0969294141463934,-1.1628116069853305
1789253248102819600,8.837819580078126,0.8793512237131595,-1.330755705677718,-0.6152586809948086
1789253248112872700,8.847872802734376,-0.6422504405558109,-1.282815266112238,-0.04733078323453665
1789253248122925800,8.85792578125,-1.9145412439137697,-0.9495093403056263,0.31082141453698275
1789253248132978700,8.867978759765625,-2.6634119842797515,-0.6046795654438436,0.4335306793607771
1789253248143031600,8.878031494140625,-2.882604185780883,-0.3155444975361228,0.400751568569988
1789253248153085700,8.888085693359375,-2.6409517306685446,-0.15106033003926275,0.21688070968836545
1789253248163138600,8.898138671875,-2.148552244362235,-0.1959634477354586,0.01703735177963972
1789253248173191700,8.908191650390625,-1.7551397865086793,-0.3148667444050312,-0.04246127750203013
1789253248183244800,8.918244873046875,-1.6360072111278772,-0.45634223062768575,0.13198299686461687
1789253248193297700,8.928297607421875,-1.6776655016839503,-0.6379745168022811,0.4710689673773944
1789253248203350800,8.938350830078125,-1.8242565773546695,-0.8301162142924964,0.8523350603632628
1789253248213404700,8.94840478515625,-2.092680135014653,-0.9864655906505883,1.2319039940424263
1789253248223457500,8.95845751953125,-2.3896681083798406,-1.0683150218196213,1.5417510105893015
1789253248233510700,8.9685107421875,-2.619169522449374,-1.0744833351910115,1.780105300939083
1789253248243563800,8.978563720703125,-2.854039185553789,-1.0000137851402162,1.9009107779681682
1789253248253616600,8.98861669921875,-3.059716071921587,-0.8831237279891967,1.9511020652003586
1789253248263669800,8.998669677734375,-3.2650264630645514,-0.7939822401158512,1.9583818469449876
1789253248273723600,9.0087236328125,-3.5269553980082273,-0.7621779657065868,1.8609692282021044
1789253248283776800,9.01877685546875,-3.846175661447644,-0.7490624635457992,1.7642581818573175
1789253248293829600,9.02882958984375,-4.244471215167642,-0.742098031360656,1.688494061951339
1789253248303882500,9.038882568359375,-4.622085799908637,-0.7202341362074017,1.6427175224214792
1789253248313936000,9.048935791015625,-5.006327109313011,-0.7010555346153676,1.5860326353862881
1789253248323988700,9.05898876953125,-5.2727434188038105,-0.6680499215923249,1.5500073822811244
1789253248334043000,9.06904296875,-5.351035449752211,-0.5719081995680928,1.4683451442472635
1789253248344095700,9.079095703125,-5.264112368580698,-0.4429118172988295,1.3289496791690587
1789253248354148600,9.089148681640625,-4.999408708226681,-0.28527386243492364,1.2108952544137834
1789253248364201700,9.09920166015625,-4.4896723026722665,-0.06795213098078966,1.0482679668299852
1789253248374254600,9.109254638671874,-3.7655227465867993,0.23193974713236093,0.9355706851936876
1789253248384307700,9.1193076171875,-2.8837738140821454,0.5626379746586084,0.9964556542672216
1789253248394361900,9.12936181640625,-1.6764041034460067,0.8759978216320276,1.1006951964206992
1789253248404414700,9.139414794921874,-0.3012181582808494,1.1518266871124505,1.1069859671279787
1789253248414467600,9.149467529296874,1.0409224263727663,1.3915502199888228,1.0386915985807776
1789253248424520700,9.159520751953124,2.194157226717472,1.6112594311013817,0.7917645640663802
1789253248434573600,9.169573486328124,3.1388492298692463,1.7588307499811053,0.5242306487224996
1789253248444627700,9.179627685546874,3.8235090716093776,1.8644287210062145,0.3047143298335373
1789253248454680600,9.1896806640625,4.097406092244387,1.9566361723214387,0.1582138550557196
1789253248464733700,9.199733642578124,4.010442094540596,2.1083993899330498,0.08131152490004896
1789253248474786800,9.209786865234374,3.644583414044976,2.2840809510096904,0.06016907588914036
1789253248484839700,9.219839599609376,3.397379170024395,2.4329598453566432,-0.010234247636049985
1789253248494892500,9.229892578125,3.438278166645765,2.5666674740567803,-0.2665283915631473
1789253248504946700,9.23994677734375,3.7378327756285663,2.6072993441745638,-0.5557866474591195
1789253248514999600,9.24999951171875,4.302767336791754,2.4563851446077227,-0.8716479558594524
1789253248525052700,9.260052734375,4.850617492163181,2.0407021104961633,-1.1108752296514808
1789253248535105800,9.270105712890626,5.060621594080328,1.4799375284940004,-1.1549473033510147
1789253248545158700,9.28015869140625,4.704982694303989,0.9792723181456326,-0.9716212188705802
1789253248555211800,9.290211669921876,3.8912487288832662,0.6784083801299333,-0.6288486687995493
1789253248565265700,9.300265625,2.901449171504378,0.5994441490083933,-0.2656844880849123
1789253248575318500,9.310318603515626,1.9818126991540193,0.6066722005657851,0.0955392260864377
1789253248585371600,9.32037158203125,1.1485422586143017,0.6228070505477488,0.3884826733011752
1789253248595424800,9.3304248046875,0.4938672207713127,0.5618124836198986,0.5676850289151072
1789253248605477600,9.3404775390625,0.25739421412348745,0.40384398162737484,0.6180503575399517
1789253248615530800,9.35053076171875,0.6110656132191419,0.2079929082252085,0.5222719158701599
1789253248625584600,9.360584716796875,1.2429852138966322,0.039368864444643256,0.37226876673363146
1789253248635637800,9.3706376953125,1.9410615865707397,-0.20390534665063023,0.22851437579356132
1789253248645690600,9.380690673828125,2.3853987604975697,-0.5466366879284381,0.1783381400000304
1789253248655743500,9.390743408203125,2.4639193395048378,-0.9597446108549833,0.21848587986268103
1789253248665796900,9.400796875,2.1649685416340825,-1.2961112394064664,0.3619718291249126
1789253248675849700,9.410849609375,1.5548486848324536,-1.4614169524192808,0.5935708730608225
1789253248685904000,9.42090380859375,0.784037330815196,-1.4163091059312223,0.8546467713717371
1789253248695956700,9.430956787109375,0.011339140138030052,-1.2053978260412812,0.9806392225846647
1789253248706009600,9.441009521484375,-0.4500608122706413,-0.9315368996329605,0.9486140719663351
1789253248716062700,9.451062744140625,-0.523546319720149,-0.7216894495822489,0.7604591790899634
1789253248726115600,9.461115478515625,-0.34249066438972947,-0.6064785776898265,0.521168484672904
1789253248736168700,9.471168701171875,-0.27673136727809905,-0.6175330556675791,0.38120186864323913
1789253248746222800,9.481222900390625,-0.3665022390961647,-0.7006019456289708,0.39800767668932674
1789253248756275700,9.491275634765625,-0.6500415328234433,-0.8343998829610645,0.49286571557857095
1789253248766328600,9.50132861328125,-1.0435083512127399,-0.9752943544253706,0.6130350135959685
1789253248776381700,9.511381591796875,-1.5528642330169677,-1.102257769562304,0.7394605224639177
1789253248786434600,9.5214345703125,-2.106899214503169,-1.1817582995176314,0.8085999635331332
1789253248796487700,9.53148779296875,-2.740642523476481,-1.1977965572573244,0.8729777431584894
1789253248806541600,9.54154150390625,-3.3661703772902487,-1.1519453450560568,0.9124323861904442
1789253248816594700,9.5515947265625,-3.9875346816837784,-1.0693312131248414,0.9719142104677856
1789253248826647800,9.561647705078125,-4.546222457411885,-0.9788251589000224,0.9899170462787151
1789253248836700700,9.57170068359375,-5.005118318045139,-0.9282707374438642,1.0242578534282742
1789253248846753500,9.58175341796875,-5.35687540795207,-0.8987960750259458,1.097210715305805
1789253248856807700,9.5918076171875,-5.612726484286785,-0.8913758618973195,1.1089106515802443
1789253248866860500,9.601860595703124,-5.691620572781562,-0.926064021179825,1.0328761903002857
1789253248876913700,9.61191357421875,-5.558754071080684,-0.9746947810970247,0.9493241929970682
1789253248886966800,9.621966796875,-5.255464367222785,-1.0462950593218208,0.7881139326043427
1789253248897019600,9.63201953125,-4.868716627955436,-1.08685123385489,0.5653510330095887
1789253248907072800,9.64207275390625,-4.562110931417346,-1.0692698383264243,0.3619403380081057
1789253248917125600,9.652125732421876,-4.362422471809387,-0.9713631524562835,0.2717731603488326
1789253248927179500,9.662179443359374,-4.160097818478942,-0.7982122789010405,0.2630688987590372
1789253248937232600,9.672232666015624,-3.64795142917335,-0.6445689466312527,0.30415304268896576
1789253248947285800,9.68228564453125,-2.6522709970623253,-0.4232730508491397,0.16588322063982486
1789253248957338600,9.692338623046876,-1.2139496735483408,-0.2034171247422695,-0.14383403204753994
1789253248967391700,9.702391845703126,0.34581308681070805,-0.02926964136511087,-0.48343891186788673
1789253248977445600,9.712445556640626,1.7567583276212215,0.031279227621853346,-0.7937615831024945
1789253248987498800,9.722498779296876,2.93686184566915,-0.091168025264889,-1.0389438197761773
1789253248997551600,9.732551513671876,3.819371825674176,-0.38233065347746015,-1.2953466847747563
1789253249007604500,9.7426044921875,4.288349519860744,-0.5947481001466512,-1.5497214049465953
1789253249017657900,9.752657958984376,4.333720108938217,-0.6013254327103496,-1.6225995941527187
1789253249027710700,9.762710693359375,4.2712358879745,-0.3868272342443466,-1.6084814908206462
1789253249037764900,9.772764892578126,4.44860028757155,-0.09781140880212187,-1.7199409012250602
1789253249047817700,9.782817626953126,4.841618193149566,0.18294249199032783,-1.9932778037592767
1789253249057870600,9.79287060546875,5.308182980975508,0.2957505405247211,-2.2428132672064005
1789253249067923700,9.802923828125,5.596210818293691,0.1899253366149962,-2.3855112809613344
1789253249077976600,9.8129765625,5.531226597207785,-0.03753843414708972,-2.3442387748524545
1789253249088029700,9.82302978515625,5.034831319263577,-0.2671832022100687,-2.0921409135714173
1789253249098083800,9.833083740234375,4.2915386712908745,-0.33805648133456706,-1.7347930179201065
1789253249108136700,9.84313671875,3.402968368333578,-0.2629310977235436,-1.3192163667924701
1789253249118189600,9.853189453125,2.407521744978428,-0.134288789588958,-1.001905297975242
1789253249128242700,9.86324267578125,1.5688848089694976,0.03623027415797114,-0.827573982463777
1789253249138295600,9.873295654296875,1.054220883885026,0.19270429980903864,-0.7484336641229689
1789253249148348700,9.8833486328125,0.9530378066927194,0.3217684866175055,-0.8170828374572098
1789253249158402600,9.893402587890625,1.2255816591531037,0.3244008809477091,-1.1058904269762337
1789253249168455700,9.90345556640625,1.6936749717205761,0.49430137440487737,-1.5633742288544774
1789253249178508800,9.9135087890625,2.2419489054620265,0.3587017944782972,-2.0933938362419604
1789253249188561700,9.923561767578125,2.8684581715285775,0.1722400423206389,-2.530295014949143
1789253249198614500,9.933614501953125,3.313428967183828,-0.021114099699258804,-2.7746450385823844
1789253249208667600,9.943667724609375,3.259521435907483,-0.25884017514809965,-2.7634102356016634
1789253249218721500,9.953721435546875,2.4974679733633995,-0.4271778032027185,-2.475929218511283
1789253249228775000,9.96377490234375,1.3081705105125903,-0.5087142228998244,-2.074550019562244
1789253249238827800,9.973827880859375,0.20564473766386507,-0.45193844271078704,-1.7441738635972142
1789253249248880600,9.983880615234375,-0.5301981788247824,-0.32484789406284686,-1.6157035510286688
1789253249258933800,9.993933837890625,-0.8861118038892746,-0.1895487583875656,-1.6700561957240103
1789253249268986600,10.003986572265624,-0.9402163190424442,-0.0705177436850965,-1.8210390766128897
1789253249279040500,10.01404052734375,-0.7612082438915968,-0.012517828528583049,-1.9307108729481697
1789253249289093600,10.02409375,-0.6969055753290653,-0.09608326983526348,-1.8765537508249281
1789253249299146800,10.034146728515625,-0.8047042712688446,-0.1973157391272485,-1.5959598628997802
1789253249309199600,10.04419970703125,-0.9750871414154767,-0.35086467111185193,-1.162657877728343
1789253249319252700,10.054252685546874,-1.234153088143468,-0.5249342669472098,-0.6894426921024918
1789253249329305600,10.0643056640625,-1.5457611230134962,-0.7152209842205047,-0.1923173463180661
1789253249339359700,10.07435986328125,-1.897546269971132,-0.7889123895056546,0.27474983807206155
1789253249349412600,10.08441259765625,-2.332697682401538,-0.7898246820449829,0.6462573381096124
1789253249359465500,10.094465576171874,-2.9327760376602408,-0.7157854131702334,0.9668167411983013
1789253249369518800,10.104518798828124,-3.5924481531381605,-0.5833784918051212,1.2491782233178614
1789253249379571700,10.11457177734375,-4.137148320046067,-0.47478331172540783,1.4309405656129122
1789253249389624600,10.12462451171875,-4.561272142505645,-0.4257143065214157,1.4758772933177648
1789253249399678700,10.1346787109375,-4.925524556848407,-0.4337415456324816,1.403763074221462
1789253249409731600,10.144731689453126,-5.215577762514353,-0.3898224705375731,1.286880177463591
1789253249419784700,10.15478466796875,-5.419456659549474,-0.3266843157097697,1.1688611162826419
1789253249429837800,10.164837890625,-5.524197721484303,-0.2808699283875525,1.0337490276120602
1789253249439890700,10.174890625,-5.533361855670809,-0.26484453012943265,0.9614680736467242
1789253249449943800,10.18494384765625,-5.4278439641445875,-0.20304595334231854,0.8720826940149068
1789253249459997700,10.194997802734376,-5.016852010458708,-0.11761281846761702,0.7352795835174619
1789253249470050600,10.205050537109376,-4.43559935170114,-0.06387275271266699,0.6307407661564648
1789253249480103700,10.215103759765626,-3.6871997359782456,-0.0694908848553896,0.5608223035387695
1789253249490156500,10.225156494140625,-2.951489505958557,-0.02767608856335282,0.5197833139248192
1789253249500209700,10.235209716796875,-2.4482085601538417,0.22165976065844295,0.5090265037193894
1789253249510262800,10.2452626953125,-2.0069746129393575,0.6514703965827823,0.572140839280188
1789253249520316700,10.255316650390625,-1.3647972376197575,1.1805968545228243,0.5037786661937833
1789253249530369800,10.265369873046875,-0.5159411054134369,1.6520589128710328,0.26466829677969217
1789253249540422700,10.275422607421875,0.3496878824174404,1.9511178472913802,-0.007682371196150779
1789253249550475500,10.2854755859375,1.1860796698480844,2.080199862017482,-0.2695014160245657
1789253249560528600,10.295528564453125,1.834895460268855,2.0600855870105326,-0.39479426760077474
1789253249570581800,10.305581787109375,2.3202976350337265,1.8965718719810247,-0.37301264390349387
1789253249580636000,10.315635986328125,2.660658886179328,1.7281651242129503,-0.25296412272155283
1789253249590688800,10.325688720703125,2.97089797078371,1.574961060143262,-0.2111274068586528
1789253249600741000,10.3357412109375,3.3302579369097947,1.4927867809340356,-0.2145845615752041
1789253249610794000,10.3457939453125,3.562954347628355,1.5108910312928259,-0.23195655213668942
1789253249620847000,10.35584716796875,3.7819443045556542,1.6126542464606464,-0.345044732786715
1789253249630900200,10.365900146484375,4.249706777733564,1.6371378225930033,-0.5890709312930703
1789253249640954400,10.375954345703125,4.6498137647897,1.4805192739047108,-0.858421248409152
1789253249651007200,10.38600732421875,4.645944229879975,1.20219713030383,-0.9277278627388179
1789253249661060000,10.39606005859375,4.114210512050986,0.9236633897788822,-0.7694080630905926
1789253249671113200,10.40611328125,3.253087018945813,0.7845300827682018,-0.46049394347965716
1789253249681166000,10.416166015625,2.427273908674717,0.8051010155014693,-0.20227029279470443
1789253249691219200,10.42621923828125,1.560939402922988,0.8616359726719558,-0.1139583876132965
1789253249701273000,10.436273193359375,0.8375625847756862,0.959610755342245,-0.12109262340739368
1789253249711326200,10.446326171875,0.4328150784373283,1.016786348503828,-0.1936013217139989
1789253249721379300,10.45637939453125,0.08377133914232253,1.0366172765247523,-0.3637964872688055
1789253249731432200,10.46643212890625,-0.1937269208550453,1.1733531670048831,-0.7268592534355819
1789253249741485000,10.476485107421874,0.38968788437247276,1.4176054293520748,-1.268449179368466
1789253249751538200,10.4865380859375,1.6012965477526186,1.5985460800006985,-1.8028342884890733
1789253249761592000,10.496592041015624,2.9463427907198665,1.6318328480526805,-2.241128382859379
1789253249771645200,10.506645263671874,4.271131258556246,1.3776853607654571,-2.494196988868713
1789253249781698300,10.5166982421875,4.92602256949842,0.7172580430060624,-2.3132192210800944
1789253249791751200,10.526751220703124,4.43011712089777,-0.1935709996409714,-1.6704229832097888
1789253249801804000,10.536803955078126,3.2115526470303535,-1.0076204607516526,-0.8162224943008274
1789253249811857200,10.546857177734376,1.8039152155935763,-1.4602784499086439,0.07490611483715474
1789253249821911000,10.5569111328125,0.5666530555188656,-1.5262413067683576,0.8055410143539309
1789253249831964200,10.566964111328126,-0.36670448366999625,-1.2631208239525555,1.192463744862005
1789253249842017300,10.577017333984376,-0.9701648825824261,-0.878681800018996,1.3032169797584414
1789253249852070100,10.587070068359376,-1.21760644249022,-0.4892876378960907,1.1969633943688123
1789253249862123300,10.597123291015626,-1.2245248435765503,-0.21983225297033784,0.98258531515114
1789253249872176000,10.607176025390626,-1.079247188591957,-0.11877528637573122,0.665984367364645
1789253249882230300,10.617230224609376,-0.9177946438759564,-0.09670300916880369,0.3687324823662638
1789253249892283100,10.627283203125,-0.9503039978146552,-0.08464315354079008,0.25432101722322403
1789253249902336000,10.6373359375,-1.225198797315359,-0.06579992138296366,0.2358949144989252
1789253249912389400,10.647389404296876,-1.540780411991477,-0.02518865566179156,0.289140693930909
1789253249922442200,10.657442138671875,-1.8648574678122996,0.02856558474898338,0.3649903001632541
1789253249932495000,10.6674951171875,-2.268674999824166,0.07327917122244834,0.4497232508793473
1789253249942549200,10.67754931640625,-2.7695500535309314,0.06913944106921553,0.5861757213082164
1789253249952602000,10.68760205078125,-3.294564692237973,0.04458382261395454,0.7262186905097215
1789253249962655000,10.697655029296875,-3.7737861325412987,0.01192760755047202,0.8809642849329858
1789253249972708400,10.707708251953125,-4.079802631014585,-0.026130758817493913,1.0360693603184075
1789253249982761200,10.71776123046875,-4.308862146535516,-0.06658537267223,1.1453327219832687
1789253249992814000,10.72781396484375,-4.524982100984454,-0.08347045649960637,1.3064189906701444
1789253250002868200,10.7378681640625,-4.668182365173101,-0.11271700925007462,1.5069250502713023
1789253250012921000,10.747921142578125,-4.767998245665431,-0.16329568836465477,1.6212296209737658
1789253250022974200,10.75797412109375,-4.765176173982024,-0.21896672218218444,1.7365462913282215
1789253250033027000,10.768027099609375,-4.57073788998723,-0.23244024400040506,1.7140289007022975
1789253250043080200,10.778080078125,-4.34152932138443,-0.2599769240930676,1.5830042274758218
1789253250053133300,10.78813330078125,-4.0662124970793725,-0.2501704003497958,1.4263393554277717
1789253250063187200,10.798187255859375,-3.7033471531808373,-0.15312822235450146,1.2069553576815872
1789253250073240300,10.808240234375,-3.2419413555532692,-0.015103753368556499,1.0155368598993868
1789253250083293200,10.818293212890625,-2.7676901048779485,0.11383315379843115,0.8911077124804258
1789253250093346000,10.828345947265625,-2.346332240000367,0.24304580916687846,0.7378353324148803
1789253250103399200,10.838399169921875,-1.846519847089052,0.3835463128775358,0.6244708190415054
1789253250113452300,10.848452392578125,-1.1843933241963387,0.4658323818981647,0.45400180498138065
1789253250123506200,10.858506103515625,-0.45667292388677594,0.48555605015233155,0.21937530298307537
1789253250133559300,10.868559326171875,0.2179658745765686,0.4173587122388184,-0.023595395120978354
1789253250143612200,10.878612060546875,0.7761106294691562,0.3964353128060698,-0.3915139307558536
1789253250153665000,10.8886650390625,1.2113853760182858,0.5548483436957001,-0.8404486616060137
1789253250163718100,10.89871826171875,1.65875504950881,0.7679983424231409,-1.1604119984976946
1789253250173771300,10.908771240234374,2.1258219416379927,0.8777025797232985,-1.4176586208440363
1789253250183825200,10.9188251953125,2.4587550886094567,0.7489850143954158,-1.6294615888766943
1789253250193878300,10.928878173828124,2.5123516542404887,0.40977030293643474,-1.7639717661313712
1789253250203931100,10.93893115234375,2.302849656626582,0.13683745115846394,-1.7243772762373089
1789253250213984300,10.948984375,1.8479595245033502,0.042220892874896526,-1.5038406743898987
1789253250224037000,10.959037109375,1.2736159144818782,0.02045242092013359,-1.2640433456249534
1789253250234090000,10.969090087890624,0.7695131309002637,-0.022800153090059755,-1.0187751842334867
1789253250244143400,10.979143310546876,0.555788547155261,-0.13153057692199946,-0.8689572554707526
1789253250254197200,10.989197265625,0.6950257529318332,-0.29746216674819587,-0.9197337952449918
1789253250264250400,10.99925048828125,0.9846768075376748,-0.43540407201722264,-1.0838935530930758
1789253250274303200,11.00930322265625,1.3379367032229899,-0.44190731643140313,-1.241203445046395
1789253250284356000,11.019356201171876,1.691987457025051,-0.4910087626002729,-1.33503177556172
1789253250294409200,11.0294091796875,1.9625357517540454,-0.575148350533098,-1.449089093504846
1789253250304462000,11.039462158203126,2.199901907849312,-0.6164176417715848,-1.5422826332479715
1789253250314516000,11.049515869140626,2.33487561096251,-0.5933166060388088,-1.6825138184979558
1789253250324569300,11.0595693359375,2.275785124090314,-0.49781069770008324,-1.7868265720181167
1789253250334622200,11.069622314453126,2.1567653614342213,-0.27141221808195115,-1.9416219969324766
1789253250344675000,11.079675048828125,2.5269383979976174,0.03780716808587312,-2.3342023878760636
1789253250354728200,11.089728271484375,3.610602818509936,0.2348087266974151,-2.963464605912566
1789253250364781000,11.099781005859375,5.139852951705455,0.30171982419267296,-3.5577547331586477
1789253250374835200,11.109835205078125,6.794277863055467,0.1941198656953871,-3.9292145946621893
1789253250384888000,11.11988818359375,7.681050761201977,-0.32469182671830055,-3.958265917101502
1789253250394941200,11.129941162109375,7.201022680690884,-1.1390218583360314,-3.5784044302165507
1789253250404994300,11.139994384765625,5.642459943771362,-1.8201307295963167,-2.7479958088487386
1789253250415047200,11.150047119140625,3.675454937648773,-2.046743728747964,-1.7730226492017507
1789253250425100000,11.16010009765625,1.8482739972800015,-1.9242060210987924,-1.067293569817394
1789253250435154200,11.170154296875,0.4064467114716768,-1.548889191906154,-0.7432518775708973
1789253250445207000,11.18020703125,-0.5856909334659576,-1.0851393153704703,-0.7837208122119307
1789253250455260200,11.19026025390625,-1.1796493445396423,-0.7261460636649281,-1.0000203610114753
1789253250465313300,11.200313232421875,-1.4543418994665145,-0.5219519632007926,-1.2826454625032842
1789253250475366100,11.2103662109375,-1.43570032736063,-0.5003005417544395,-1.5252334449000655
1789253250485419300,11.220419189453125,-1.1300731204658747,-0.602500833165273,-1.7293512652575969
1789253250495473200,11.23047314453125,-0.7023042195022106,-0.6856980987466871,-1.769229540529102
1789253250505526000,11.240526123046875,-0.37156127605140205,-0.6843200153265148,-1.7429659491121767
1789253250515579100,11.2505791015625,-0.18042495621144772,-0.5463273297183215,-1.6495239875659347
1789253250525632300,11.26063232421875,-0.2171820307224989,-0.33576917411498725,-1.562642845840007
1789253250535685400,11.270685302734375,-0.3163315562605858,-0.14915559239648282,-1.552924292641133
1789253250545738200,11.28073828125,-0.43321138427853584,0.03167999044246971,-1.5460845097489655
1789253250555792100,11.290792236328125,-0.7768377746999263,0.1560772814184427,-1.4458863519407807
1789253250565845200,11.30084521484375,-1.358242993670702,0.24819807736352084,-1.218469050668925
1789253250575898000,11.310898193359375,-2.057550369444489,0.27369009988605975,-1.0092698353938758
1789253250585951000,11.320950927734375,-2.5666706889271733,0.36723793295957147,-0.72962769523561
1789253250596004400,11.33100439453125,-3.0392817711800335,0.4601207993183285,-0.5650125948354602
1789253250606057200,11.34105712890625,-3.3404110821336506,0.4639857311181724,-0.5454071461334824
1789253250616111400,11.351111328125,-3.557748595678806,0.45897097169607876,-0.56962403415367
1789253250626164200,11.361164306640624,-3.702752694419026,0.43316549931019543,-0.6250410932101309
1789253250636217000,11.371217041015624,-3.7903380388915537,0.45161783245429393,-0.6187453540667891
1789253250646270200,11.381270263671874,-3.7856466662049293,0.4667610410504043,-0.6281495806194841
1789253250656323000,11.391322998046874,-3.74515566586256,0.4248461453847587,-0.6571278378225862
1789253250666376200,11.401376220703124,-3.7682699994683264,0.33294483740925784,-0.6767177966944873
1789253250676429300,11.41142919921875,-3.8371313542485237,0.2553876966066658,-0.6073319796487688
1789253250686483200,11.421483154296874,-3.961485463669896,0.21245017989501355,-0.4840738487705588
1789253250696536000,11.4315361328125,-4.008423740455508,0.15394596847817302,-0.33111499163359404
1789253250706589200,11.441589111328126,-4.048471673205495,0.017651245894283057,-0.294441503752768
1789253250716642000,11.45164208984375,-4.056584837034344,-0.06634659548029304,-0.2715367212444544
1789253250726695400,11.4616953125,-3.9889264283031225,-0.04779913139864802,-0.22134704144746065
1789253250736748300,11.471748291015626,-3.70955302208364,0.05021992880478501,-0.24703926271721718
1789253250746802200,11.48180224609375,-3.31696883174777,0.12060688571706414,-0.22204583736658096
1789253250756855300,11.491855224609376,-2.877083961054683,0.10738076278865337,-0.22709946749433874
1789253250766908200,11.501908203125,-2.5016139871269463,0.08657572903856635,-0.2872719043843448
1789253250776961000,11.5119609375,-2.2032254993140694,0.11175970852524042,-0.3622026422061026
1789253250787014100,11.52201416015625,-1.9608815548062324,0.174239107183367,-0.4527117651708424
1789253250797067300,11.5320673828125,-1.7267916439026594,0.26506460262089965,-0.5382037175606936
1789253250807121200,11.54212109375,-1.5739952838510274,0.382233915104717,-0.5646123434714972
1789253250817174300,11.55217431640625,-1.517098507630825,0.5122743995994329,-0.6247848534267395
1789253250827227100,11.56222705078125,-1.464837574517727,0.6676784579314291,-0.6227056359998882
1789253250837280300,11.5722802734375,-1.2940449545264243,0.7921538556449115,-0.6052077540364116
1789253250847333000,11.5823330078125,-1.1053320624411105,0.8640120541535318,-0.584821530220285
1789253250857386200,11.59238623046875,-0.8305266947895288,0.8855573848769068,-0.6256488498449325
1789253250867439400,11.602439453125,-0.34127953503429886,0.8337241756565869,-0.6370606898929924
1789253250877493200,11.6124931640625,0.05437222617864609,0.7566795144207775,-0.599343903504312
1789253250887546400,11.62254638671875,0.20637772811353206,0.7244141983710229,-0.462998912037909
1789253250897599200,11.63259912109375,0.24273265156447885,0.7256212360732257,-0.3554788869090378
1789253250907652000,11.642652099609375,0.28038638265430926,0.7565745927415788,-0.26735271355807777
1789253250917705200,11.652705322265625,0.3278554053157568,0.8417487844191491,-0.23938341420181095
1789253250927758300,11.66275830078125,0.3065273706048727,0.901644596324861,-0.2371363659273833
1789253250937812000,11.67281201171875,0.15094225661754607,0.9837814661331474,-0.246613949977234
1789253250947865300,11.682865234375,-0.012474866169691085,1.1090220030002296,-0.277183641090244
1789253250957918200,11.692918212890625,0.05764613328278064,1.2583292057618498,-0.4077431079577654
1789253250967971000,11.70297119140625,0.26318448796272276,1.375249658051133,-0.6253457021798938
1789253250978024200,11.713024169921875,0.5429992082089186,1.488948225684464,-0.8864777145922184
1789253250988077000,11.7230771484375,0.816311122432351,1.56545804939121,-1.180444294309616
1789253250998131200,11.733131103515625,0.8810334777116775,1.6007342376947402,-1.3445099441334605
1789253251008184300,11.743184326171875,0.5450614014357328,1.5591922669947147,-1.2252630216579883
1789253251018237200,11.7532373046875,-0.042784664237499236,1.4509301913268864,-0.9160740306284278
1789253251028290300,11.763290283203125,-0.7411006908863782,1.5196632435522972,-0.604125548290275
1789253251038343200,11.77334326171875,-1.4350854103326796,1.9462246684223412,-0.5228918378667906
1789253251048396000,11.78339599609375,-1.2064099256932734,2.655229262346029,-0.9543952857162803
1789253251058450200,11.7934501953125,0.7099433360785246,3.2322330314874645,-1.9981946557648478
1789253251068503000,11.8035029296875,3.7186031745016574,2.9755969422549007,-3.3567329791203138
1789253251078556400,11.813556396484374,6.789402365973592,2.324961827452481,-4.321375591149926
1789253251088609300,11.823609375,8.921678013795614,1.3082728018432854,-4.690009289316833
1789253251098662100,11.833662109375,9.256782075065374,-0.0024769115075469017,-4.4869203736156225
1789253251108715300,11.84371533203125,8.061635301664472,-1.1933905773833393,-3.8520103589504955
1789253251118769200,11.85376904296875,6.233834768092632,-1.9320263394609092,-3.072936788022518
1789253251128822000,11.863822021484374,4.47456007373631,-2.1942082262523472,-2.512776601654291
1789253251138875100,11.873875244140624,3.073015113955736,-2.1487084578372535,-2.263687128408998
1789253251148928300,11.88392822265625,1.9471382761359213,-1.8700883542031048,-2.191436277320981
1789253251158981000,11.893981201171876,0.9170143071532249,-1.576242332125455,-2.1387029043905437
1789253251169034200,11.9040341796875,-0.035064883640408516,-1.4529143508814275,-2.068881764667481
1789253251179087000,11.914087158203126,-0.8509504741370677,-1.4590942085601388,-1.987939365340769
1789253251189141200,11.924141357421876,-1.4642495454967022,-1.5416592406526206,-1.8658236824959515
1789253251199194000,11.934194091796876,-1.902626934236288,-1.641945661266148,-1.7521821057468652
1789253251209247200,11.944247314453126,-2.133257060074806,-1.7154964890368283,-1.6919935945048927
1789253251219300400,11.95430029296875,-2.058069424882531,-1.7883511512368917,-1.675098719935864
1789253251229353200,11.964353271484375,-1.8408026384860277,-1.8223399300783871,-1.7234576771743595
1789253251239406000,11.974406005859375,-1.6366355721592902,-1.8688903765901923,-1.7301031065382062
1789253251249460200,11.984460205078125,-1.4938590863406658,-1.9178814942523836,-1.727827416691184
1789253251259513000,11.99451318359375,-1.3630121077686548,-1.9842957481414079,-1.6695156591065228
1789253251269566200,12.004566162109375,-1.2839239580065012,-2.0798802746742964,-1.56276311121881
1789253251279619300,12.014619384765625,-1.1949778465747833,-2.1727271929368377,-1.3734393937587737
1789253251289672200,12.024672119140625,-1.1712000806242227,-2.2129592500820756,-1.187221898685768
1789253251299725300,12.034725341796875,-1.3294354168593883,-2.194684465461969,-1.0059354302741585
1789253251309779200,12.044779296875,-1.5942086353182792,-2.0708777607902884,-0.793378502069041
1789253251319832000,12.05483203125,-1.8067437170177698,-1.882634239782393,-0.6739851568602025
1789253251329885200,12.06488525390625,-2.0143863505005837,-1.6799387073129415,-0.6470038456279784
1789253251339938000,12.07493798828125,-2.2109826893121003,-1.4966832038506865,-0.6233801742605865
1789253251349991200,12.0849912109375,-2.301068618428707,-1.3870835959687828,-0.6077682521741837
1789253251360044300,12.095044189453125,-2.323175236296654,-1.309353582817316,-0.5694130582841113
1789253251370097200,12.10509716796875,-2.2990216227710247,-1.2408005633339285,-0.5048739506172016
1789253251380151300,12.1151513671875,-2.209799032485485,-1.1873644489616155,-0.4601760001042858
1789253251390204200,12.1252041015625,-2.082413592544198,-1.1153986984252928,-0.444600135711953
1789253251400257000,12.135257080078125,-1.9072066632419824,-1.0281640670865773,-0.46736017598733304
1789253251410310100,12.14531005859375,-1.626995637154579,-0.9730570968925952,-0.4559893986020237
1789253251420363300,12.15536328125,-1.334738199442625,-0.9875023863524198,-0.3944752282468602
1789253251430416100,12.165416015625,-1.0496090061753989,-0.9985562798082828,-0.31223343675937504
1789253251440470300,12.17547021484375,-0.8448281918644904,-1.018673477424681,-0.21655947837736456
1789253251450523100,12.185523193359375,-0.717702864164114,-1.0259756171315908,-0.12622731028157286
1789253251460576300,12.195576171875,-0.5733002384483814,-1.0682175527945161,-0.07012008157044183
1789253251470629000,12.205629150390624,-0.4436544523596763,-1.1167740784317255,-0.03237946678160224
1789253251480682200,12.21568212890625,-0.4001864820331335,-1.1399983021527529,-0.04145310053990688
1789253251490735400,12.2257353515625,-0.3957400240182876,-1.137670735988021,-0.11983948154114187
1789253251500789200,12.235789306640624,-0.3780652511179447,-1.0492854733094572,-0.21465558098480103
1789253251510842000,12.245842041015624,-0.31646190464198587,-0.8906737049773334,-0.30565409490168094
1789253251520895200,12.255895263671874,-0.12893208486139773,-0.7522559988901019,-0.4287967096414417
1789253251530948000,12.265947998046874,0.153708214199543,-0.6811433580517768,-0.5621798556275666
1789253251541001000,12.2760009765625,0.49396074427366254,-0.6749500563696026,-0.6573930646300316
1789253251551054300,12.286054443359374,0.8180407227039337,-0.7008662956535816,-0.7369039698489009
1789253251561108200,12.296108154296874,1.0886100602209567,-0.6848375363945961,-0.8279233804233371
1789253251571161300,12.306161376953124,1.2827332869172094,-0.6890069310337305,-0.855963041602075
1789253251581214200,12.316214111328126,1.5797142460197209,-0.7194833178400993,-0.8676610051151364
1789253251591267000,12.32626708984375,1.8350100265592335,-0.7868602792814373,-0.8682743877731263
1789253251601321000,12.336321044921876,1.782656738987565,-0.7290136549904942,-0.715818950113654
1789253251611373800,12.346373779296876,1.4778618912637234,-0.48874622449576854,-0.5257653474764898
1789253251621427000,12.356427001953126,1.3248141867995262,-0.4067360498070717,-0.40118349371384826
1789253251631480800,12.366480712890626,1.159207445013523,-0.22113924391567705,-0.4005025622449815
1789253251641534200,12.3765341796875,1.1395172406375407,0.197537711314857,-0.6232631237521767
1789253251651587000,12.386587158203126,1.8067121528357266,0.6343187707737088,-1.1523433313976972
1789253251661640000,12.396639892578126,3.1656302692890166,0.8464245211452245,-1.959342362540215
1789253251671693000,12.406693115234376,4.8619478644728655,0.7508788653180003,-2.7604949326768518
1789253251681746000,12.416745849609375,6.501352901345491,0.42462388093620534,-3.18297741767019
1789253251691799800,12.4267998046875,7.065804062905907,-0.256305834364891,-2.983940407708287
1789253251701853000,12.43685302734375,6.10116232765913,-1.1765873266205191,-2.0845833377987146
1789253251711906000,12.446906005859375,4.225418139651418,-1.8738696263074874,-0.8440649524070322
1789253251721959000,12.456958984375,2.2886013510435816,-2.0473802730858326,0.23830416759774087
1789253251732012000,12.467011962890625,0.6961714158356189,-1.768547111222893,0.8977396978408098
1789253251742065000,12.47706494140625,-0.32877602729201316,-1.2444031178705393,0.9629061436258256
1789253251752117800,12.48711767578125,-0.6704121206790209,-0.5693738587848842,0.48864963225349783
1789253251762172000,12.497171875,-0.4103571629136801,0.12395195836126803,-0.37830548961460586
1789253251772225000,12.50722509765625,0.030004093119502067,0.7107941076889633,-1.264518708051741
1789253251782278100,12.517278076171875,0.320671046769619,0.9670721772640943,-1.856415802681446
1789253251792331000,12.5273310546875,0.3785305305421352,0.9476070138156414,-1.9210422963708638
1789253251802384000,12.5373837890625,0.0018318916022777557,0.7266907650008797,-1.5976880018666386
1789253251812437000,12.54743701171875,-0.6546832211494445,0.38030426221638913,-1.131960687778145
1789253251822491000,12.557490966796875,-1.30069272197783,0.056903205960988995,-0.6986544648230075
1789253251832544000,12.5675439453125,-1.8310025444835423,-0.19334230545163153,-0.3467059439972043
1789253251842597000,12.57759716796875,-2.317714048281312,-0.2861561982274055,-0.1218096856355667
1789253251852650000,12.58764990234375,-2.760330389764905,-0.21193243963122366,0.0366775795340538
1789253251862703000,12.597703125,-3.1034488306641577,-0.1696659540489316,0.14519260704964398
1789253251872756000,12.607755859375,-3.4572459019660946,-0.1610410413056612,0.20940555150210857
1789253251882809900,12.617809814453125,-3.778242527428269,-0.1999748753339052,0.2783445015631616
1789253251892863000,12.627863037109375,-3.9773756912410256,-0.27034283528476954,0.34779980364851654
1789253251902915800,12.637915771484375,-4.029865756934881,-0.30634003133922816,0.38029483680091797
