time,seconds_elapsed,z,y,x
1789700793028776000,0.05177587890625,0.0854325503528118,-0.11206482895165681,-0.16620587672293186
1789700793038796800,0.061796875,0.19585867218673228,-0.22793781801462173,-0.08158230466544628
1789700793048818000,0.07181787109375,0.24205285260677337,-0.2669096459656954,-0.07239186699390411
1789700793058838800,0.0818388671875,0.33295945045650005,-0.3331766003385186,-0.14203589658439159
1789700793068860000,0.09185986328125,0.35329145986735816,-0.3908616043269634,-0.223690681964159
1789700793078881000,0.101881103515625,0.4036766622364521,-0.42325171580016613,-0.311760010561347
1789700793088902000,0.11190185546875,0.38481180276870725,-0.4509884485095739,-0.4792950900614261
1789700793098923000,0.121923095703125,0.35262568943500516,-0.5482748105242848,-0.6075269176989794
1789700793108944000,0.13194384765625,0.45365153023898597,-0.6789420486152171,-0.747744366684556
1789700793118965000,0.141965087890625,0.4763642973065376,-0.6457312684088945,-0.6991109764188528
1789700793128985900,0.15198583984375,0.4029080159515142,-0.5417477468430996,-0.4719108250290155
1789700793139007000,0.162007080078125,0.3040390609204769,-0.4596756128340959,-0.2972808188319206
1789700793149027800,0.17202783203125,0.24219079977273938,-0.5040805717498064,-0.32526363525688645
1789700793159048700,0.182048583984375,0.21940555199086664,-0.4634308737143874,-0.38503041395545
1789700793169070000,0.192070068359375,0.12225275322794914,-0.36869273487776516,-0.30930911027789115
1789700793179091000,0.202091064453125,-0.21175006880164146,-0.28131811054646966,-0.35103988154828547
1789700793189112000,0.212112060546875,-0.5147907663345337,-0.12477145805060863,-0.3975917893648147
1789700793199133000,0.2221328125,-0.5812076505720615,0.05154956997334957,-0.3463771504342556
1789700793209153800,0.23215380859375,-0.5240536847203969,0.13103987079560755,-0.37848201522529124
1789700793219175000,0.2421748046875,-0.4132090452134609,-0.06516191574037075,-0.42214229325354097
1789700793229197000,0.252197021484375,-0.44078795701265333,-0.24956220532357692,-0.34826340257227417
1789700793239218000,0.262218017578125,-0.6737012253522873,-0.25528321331888437,-0.3213233731985092
1789700793249239000,0.272239013671875,-0.9207003021895885,-0.15023615417480468,-0.38313013329207896
1789700793259260000,0.282260009765625,-1.0873960082560776,-0.07882014647573232,-0.38804479334056374
1789700793269281000,0.292281005859375,-1.1904700137615203,-0.10111673395782708,-0.43915421833097934
1789700793279302000,0.302302001953125,-1.1848480822265148,-0.09933744932562112,-0.34051322683691976
1789700793289322800,0.31232275390625,-1.2125532507538794,0.07006108595877886,0.18095862469673155
1789700793299344000,0.32234375,-1.4775363125711678,0.40377164704352614,1.1199825190842152
1789700793309364700,0.33236474609375,-1.9001158281981945,0.5281885925680398,1.8408833025068043
1789700793319386000,0.34238623046875,-1.908466307914257,0.6092255383104086,1.916077367439866
1789700793329407000,0.352406982421875,-1.6138070697575806,0.6521838055491447,1.615216352033615
1789700793339427800,0.362427734375,-1.1153759020715952,0.6820417681962251,0.9862672915995121
1789700793349449000,0.372448974609375,-0.5855436339497566,0.7239952423065901,0.5961877775609493
1789700793359469800,0.3824697265625,-0.06883095964193343,0.12224398539960384,-0.5051350492388009
1789700793369491000,0.392490966796875,1.4995716187685728,-0.37638475068509575,-1.1654594911456106
1789700793379511800,0.40251171875,0.9068845428049563,0.3414128060251474,0.5844605148881673
1789700793389533000,0.412532958984375,1.386740189358592,-0.002543254742026329,0.015101123020052908
1789700793399554000,0.422553955078125,1.429616623532772,-0.10220248336791991,0.17106734527945516
1789700793409575000,0.432574951171875,1.5146318252563475,-0.2843348280191421,0.24037176765203475
1789700793419596000,0.442595947265625,1.4345938274234533,-0.23820260691940784,0.22885610190331934
1789700793429617000,0.452616943359375,1.1828156996160746,-0.09257365427911281,0.25521979269385336
1789700793439638000,0.462637939453125,0.8695768486738205,0.039974867513775825,0.21550679098665712
1789700793449659000,0.472658935546875,0.7476672097951174,0.11233400128185748,0.13911854783296584
1789700793459679700,0.4826796875,0.6886024418860673,0.02783493238687515,0.18369769427180288
1789700793469700900,0.492700927734375,0.4800023615479469,-0.09047931234836577,0.34159576137661934
1789700793479722000,0.502721923828125,0.2858393873631954,-0.05500818599462509,0.41335517568588254
1789700793489743000,0.5127431640625,0.24308628730773923,0.04557283365130424,0.2650081962585449
1789700793499764700,0.5227646484375,0.1997352213591337,0.12860124547183513,0.10381284117400645
1789700793509785900,0.532785888671875,0.031986206847429276,0.1415788004666567,-0.04862111530601978
1789700793519807000,0.542806884765625,-0.1418476805359125,0.08209200775325298,-0.20088789852559566
1789700793529827800,0.552827880859375,0.11066168415546417,-0.03968552917838097,0.06615034225583076
1789700793539848700,0.5628486328125,0.13809738809168337,0.023857260927557945,-0.04239887979030609
1789700793549869800,0.572869873046875,0.11149638141393661,0.057714522343873975,-0.111292383274436
1789700793559890700,0.582890625,0.05430792877078056,0.13053659744858742,-0.1817676029920578
1789700793569911800,0.592911865234375,0.0015554127484560011,0.2305260809421539,-0.20192484035789965
1789700793579932700,0.6029326171875,0.029918752923607825,0.2880997335106134,-0.0672246934890747
1789700793589953800,0.612953857421875,-0.02482347561120987,0.2256511683821678,-0.09205109170973301
1789700793599975000,0.622974853515625,-0.10137129324078559,0.18755904587507247,-0.1749047314852476
1789700793609995800,0.632995849609375,-0.14544833537638185,0.2173024422317743,-0.1845645402342081
1789700793620017000,0.643016845703125,-0.22758242870569229,0.19946283415853977,-0.17712533014416693
1789700793630037800,0.653037841796875,-0.23191724303960798,0.12374094595909117,-0.20974223611056803
1789700793640059000,0.663058837890625,-0.21504794130325317,0.07259644965529441,-0.3455103044718504
1789700793650079700,0.673079833984375,-0.23302900367379187,0.04752455224096775,-0.47071956941783427
1789700793660100600,0.6831005859375,-0.23205285211801527,0.014898293924331665,-0.4999105925887823
1789700793670121700,0.693121826171875,-0.21376257766783235,0.03823065419495106,-0.4708049096137285
1789700793680142800,0.703142822265625,-0.3263432471871376,0.015271803411841391,-0.3916407720059156
1789700793690164000,0.7131640625,-0.4395820883542299,-0.01272913319170475,-0.39933424911797044
1789700793700184800,0.723184814453125,-0.4985995099902153,0.024345336705446242,-0.48243163452148435
1789700793710205700,0.733205810546875,-0.563203791847825,0.10519874257445334,-0.630787966299057
1789700793720226800,0.743226806640625,-0.6804600519627332,0.11442951225638388,-0.7726818240642547
1789700793730247700,0.75324755859375,-0.8239958317160606,0.10324293233156204,-0.9189584269583224
1789700793740268800,0.763268798828125,-0.9049462682187557,0.10362053347229958,-1.0241168375223875
1789700793750289700,0.77328955078125,-0.9513058683335781,0.14313596678078175,-1.0601911904662846
1789700793760310800,0.783310791015625,-1.0813403614789248,0.11683365078866481,-1.1199918714344501
1789700793770332000,0.793331787109375,-1.1907476616591215,0.0016144494593143461,-1.1469716482967138
1789700793780353800,0.803353759765625,-1.15979138238132,-0.1357961254119873,-1.2315969739198684
1789700793790374700,0.813374755859375,-1.016594040802121,-0.23513912769556045,-1.2680424982637166
1789700793800395800,0.823395751953125,-0.47137657202184197,-0.41571313698887824,-1.0696639522105456
1789700793810416600,0.833416748046875,0.09190817610770463,-0.5891700077533721,-0.7825152358144521
1789700793820437800,0.843437744140625,0.3734478204503655,-0.7188251461923122,-0.45128830823898314
1789700793830459000,0.853458984375,0.6018906653776764,-0.7912205203175544,-0.14250877479314802
1789700793840479700,0.863479736328125,0.8111924642443656,-0.8357599192678928,0.09415770860016345
1789700793850500900,0.8735009765625,1.053536408752203,-0.8799532812595366,0.28688392798006535
1789700793860521700,0.883521728515625,1.2680068424284456,-0.9623761284023523,0.4003302744179964
1789700793870542800,0.89354296875,1.2717784699216483,-0.9844353999972343,0.27090952925682066
1789700793880563700,0.903563720703125,1.3473033742442726,-0.631923692330718,0.1591156262010336
1789700793890584800,0.913584716796875,1.602890538945794,-0.1819417905151844,0.3264168969452381
1789700793900605700,0.923605712890625,1.2431599859416484,0.02425648937821388,0.5638257231384516
1789700793910626800,0.933626708984375,0.661252662667632,0.14727788889110088,0.8408294776171445
1789700793920648000,0.94364794921875,0.2819008788704872,0.24168986451327798,1.0602063880354164
1789700793930668800,0.953668701171875,0.015359189434349536,0.36797231164872646,1.1258300760686397
1789700793940690000,0.96368994140625,-0.22272417501956224,0.5235878207743168,1.125954579231143
1789700793950710800,0.973710693359375,-0.35957097852826114,0.6132499715209007,1.06249362218976
1789700793960731600,0.983731689453125,-0.3306631562128663,0.6245639772176742,0.9254173938393593
1789700793970752800,0.993752685546875,-0.17630173880159855,0.5947738191097974,0.7768523877471685
1789700793980773600,1.003773681640625,-0.028640403550863263,0.48173371538519855,0.6593745938360691
1789700793990795000,1.013794921875,0.26946283757984635,0.35459552820324897,0.5916898816198111
1789700794000815900,1.02381591796875,0.4784513327136635,0.18257658128738402,0.5715186157286167
1789700794010836700,1.033836669921875,0.5399886282160878,0.04036766622364521,0.5275777671933174
1789700794020857900,1.04385791015625,0.5433054976791143,-0.04446341110467911,0.5026794727802276
1789700794030878700,1.053878662109375,0.46697599897533654,-0.037166239833831785,0.4570025942325592
1789700794040899800,1.06389990234375,0.3809425601199269,0.0279155964076519,0.41311084553599353
1789700794050920700,1.073920654296875,0.26079057856351134,0.08955342967510223,0.3736778298139572
1789700794060941800,1.08394189453125,0.09539572596251963,0.1586491777330637,0.3333405587285757
1789700794070963000,1.093962890625,-0.06521452271044254,0.22192074968218803,0.30380759025216103
1789700794080983800,1.10398388671875,-0.21543138766288755,0.24575287616848945,0.2654132699280977
1789700794091005700,1.114005615234375,-0.36654637049883604,0.23403087419271468,0.262115397426486
1789700794101026800,1.12402685546875,-0.461160006172955,0.2389578092008829,0.2357727494239807
1789700794111047700,1.134047607421875,-0.490358628128469,0.2612175718039274,0.18612755176723003
1789700794121068800,1.14406884765625,-0.4803574585959315,0.2672486686617136,0.11237491781413554
1789700794131089700,1.154089599609375,-0.43575200867205854,0.2734030996382236,0.05682546454966068
1789700794141110800,1.16411083984375,-0.3711874743029475,0.2801905678212642,0.07173135725855827
1789700794151132000,1.1741318359375,-0.33472821369469163,0.2533668583035469,0.0898468596637249
1789700794161152800,1.18415283203125,-0.33631869775652884,0.20055881270170212,0.1304717155188322
1789700794171174000,1.194173828125,-0.31025428217351436,0.14356734393537043,0.16697627657353878
1789700794181194800,1.20419482421875,-0.26101328140348196,0.13691431578695773,0.1730488744854927
1789700794191215900,1.2142158203125,-0.20547186531499026,0.14912147093117237,0.16276362731456756
1789700794201236700,1.22423681640625,-0.14678016850203274,0.1863379796475172,0.1915396399438381
1789700794211257600,1.234257568359375,-0.12360416783690452,0.2424608488857746,0.24020050273835658
1789700794221279000,1.244279052734375,-0.08985679653584956,0.28041327066123484,0.2897434090644121
1789700794231299800,1.2542998046875,-0.040676878303289414,0.27410803303718567,0.31431437121927736
1789700794241321000,1.264321044921875,0.03906418240964413,0.2651917361319065,0.3752157069057226
1789700794251341800,1.274341796875,0.16631912783905864,0.29522037917077537,0.5079208805650473
1789700794261362700,1.28436279296875,0.47104091032668943,0.35210897208452224,0.8744301339238881
1789700794271383800,1.2943837890625,0.8761790234178304,0.5222475120812654,1.2665192342191933
1789700794281404700,1.30440478515625,1.1057891585588455,0.6574614536911249,1.4427122519493103
1789700794291425800,1.31442578125,0.826953950869292,0.3704121060162782,1.541694019705057
1789700794301446700,1.32444677734375,0.44670624114573,-0.07360650348067284,1.268690733039379
1789700794311467800,1.3344677734375,0.4237655105412006,-0.18236790697276592,0.5001058228999375
1789700794321489000,1.344489013671875,0.46134778383001684,-0.03593523673415184,-0.32559155203700063
1789700794331509800,1.354509765625,0.35392435094341634,0.09191782071888446,-0.9284089768707752
1789700794341531000,1.36453076171875,0.22745617197751997,0.1277969433516264,-1.0986071381002664
1789700794351551700,1.3745517578125,0.10815993046760558,0.06777940476238727,-1.0093827942490576
1789700794361572900,1.38457275390625,0.1403711782425642,0.0010100538253784179,-0.8047533711075783
1789700794371593700,1.39459375,0.2768026789486408,-0.10805413200557232,-0.64398647056818
1789700794381614600,1.404614501953125,0.3404053825482726,-0.22080489739477632,-0.5939063886255026
1789700794391636000,1.414635986328125,0.28132614772245285,-0.27625732002556325,-0.6145189685434103
1789700794401657900,1.424657958984375,0.23387480684816836,-0.25856734955608845,-0.7491729381829499
1789700794411678700,1.4346787109375,0.11456161420345305,-0.2966150483995676,-0.9746452428668737
1789700794421699800,1.444699951171875,-0.29469883951470255,-0.4073685024917125,-1.2288801161766052
1789700794431720700,1.454720703125,-0.5795552071899175,-0.34322073222994803,-1.182896948158741
1789700794441741800,1.464741943359375,-0.45054581930860876,-0.2639186474561691,-0.9821966811597347
1789700794451762700,1.4747626953125,-0.35409795394465327,-0.1969295162886381,-0.9058750735014677
1789700794461783800,1.48478369140625,-0.33469095042422414,-0.15620178458094597,-0.8540046010106801
1789700794471805000,1.494804931640625,-0.3313718890041113,-0.117025373968482,-0.7326800685435533
1789700794481825800,1.50482568359375,-0.33238837257027626,-0.05796645127832889,-0.5109954657047987
1789700794491847000,1.514846923828125,-0.31997955737411976,-0.05153729501366615,-0.3366583049744367
1789700794501868000,1.524867919921875,-0.3012638971187174,-0.16292378631234167,-0.42470892887115475
1789700794511889000,1.534888916015625,-0.27090375710316,-0.3110357879400253,-0.6057113927096128
1789700794521910000,1.544909912109375,-0.161925422924757,-0.3495470126420259,-0.7358598676234483
1789700794531931000,1.554930908203125,-0.0659170449566096,-0.311955825394392,-0.7954904527217149
1789700794541952000,1.564951904296875,-0.009697875737026334,-0.29539164408445356,-0.7837140902101993
1789700794551973000,1.57497314453125,0.030193441679142414,-0.2879483423411846,-0.7749433392554521
1789700794561994000,1.584993896484375,0.04924304659664631,-0.3434294065445661,-0.8667477627277373
1789700794572015000,1.59501513671875,0.0598006809681654,-0.4316904583215713,-1.0696113452404736
1789700794582036000,1.605035888671875,0.09696575175821781,-0.5304074376612902,-1.3509668651878832
1789700794592057000,1.61505712890625,0.18577159620271994,-0.6476485002070665,-1.6155284867227075
1789700794602078000,1.625077880859375,0.24759996533989906,-0.7238496963560581,-1.7501017923414706
1789700794612098800,1.635098876953125,0.3156675028612837,-0.709319651222229,-1.7623440187990664
1789700794622120000,1.645119873046875,0.3538870876729488,-0.6205915664553642,-1.5681857207894325
1789700794632141000,1.65514111328125,0.2676432574698701,-0.5286141245037317,-1.2778618814885616
1789700794642162200,1.665162109375,0.1247206777114421,-0.3629980303674936,-0.9715887779057025
1789700794652183000,1.67518310546875,0.1366683051366359,-0.19189795186221598,-0.6525321805953979
1789700794662204000,1.685203857421875,0.22360300368070601,-0.06129530344009399,-0.337605230435729
1789700794672225000,1.69522509765625,0.24728549256324767,0.014022680133581161,-0.02128945626616478
1789700794682246000,1.705245849609375,0.2389139700591564,0.10697510459721088,0.31524200745820996
1789700794692267000,1.71526708984375,0.2291501894790679,0.14826631540656088,0.5635352157592773
1789700794702288000,1.725287841796875,0.19307452136091888,0.1538034912675619,0.7571984237283468
1789700794712309000,1.73530908203125,0.1359049195487052,0.13337035956978796,0.8943196602642536
1789700794722330000,1.745330078125,0.08946918545775115,0.08607961608469486,0.9737199447154998
1789700794732351000,1.75535107421875,0.07131517767310142,-0.012538579055666924,0.9831342542707919
1789700794742372000,1.7653720703125,0.041627383961156006,-0.13841302991211413,0.9725777889430522
1789700794752394000,1.77539404296875,0.061001873451471324,-0.2269365320175886,0.9345920494198798
1789700794762414800,1.785414794921875,0.1746493684846908,-0.20505203246772288,0.8845862017571926
1789700794772436000,1.79543603515625,0.32167766652889546,-0.12037819152772426,0.8247738303512334
1789700794782457000,1.80545703125,0.41931276891604063,-0.04126140019297599,0.8741957406461238
1789700794792478200,1.815478271484375,0.46152913174629207,0.014636428117752074,1.0384814629614352
1789700794802499000,1.8254990234375,0.41850956277437507,0.09287409853041172,1.245042730948329
1789700794812520000,1.83552001953125,0.295163753612712,0.2191156291335821,1.3528402578443288
1789700794822541000,1.845541015625,0.11033676305003463,0.3531856614053249,1.3464414967179297
1789700794832562000,1.85556201171875,-0.08521744629740714,0.49037470248043535,1.276419281464815
1789700794842583000,1.8655830078125,-0.20821137328147887,0.6166255854338407,1.2019260582774878
1789700794852604000,1.87560400390625,-0.27471951599903405,0.7294733814567327,1.0893646779805422
1789700794862624800,1.885624755859375,-0.3198328423798084,0.812269738087058,0.9959621716618537
1789700794872646100,1.895646240234375,-0.38755679062791165,0.8519289637804031,0.9130693689197301
1789700794882667000,1.9056669921875,-0.43576687744762743,0.9162766405284404,0.897774769154191
1789700794892688100,1.915688232421875,-0.4493452478798106,1.0522557212918997,0.9286001155287027
1789700794902709000,1.925708984375,-0.45546413261890406,1.154444176134467,0.9601444238275288
1789700794912729900,1.935729736328125,-0.4496329057147726,1.1922954756230115,1.100623738619685
1789700794922751000,1.9457509765625,-0.43509113361053164,1.2060785017818212,1.2379863826960325
1789700794932771800,1.955771728515625,-0.39723530407734214,1.2937035937428474,1.2852590060025453
1789700794942793000,1.96579296875,-0.2914963902115822,1.4419471127957104,1.2653595427900552
1789700794952814000,1.97581396484375,-0.16654672604985535,1.5569775135546922,1.214721242442727
1789700794962835200,1.985835205078125,-0.06909523660130798,1.6611106727242468,1.1761813761681317
1789700794972856000,1.99585595703125,0.013745616757869719,1.7305945433169603,1.1357646101057528
1789700794982877000,2.005876953125,0.08679101575706154,1.7335452098160982,1.1249877800256014
1789700794992898000,2.01589794921875,0.11022216022703796,1.7227426607728002,1.115489883840084
1789700795002919000,2.0259189453125,0.11884853427503257,1.6758862170517443,1.096453759458661
1789700795012940000,2.03593994140625,0.11612933844421058,1.6114724893301724,1.0952239254027605
1789700795022961000,2.0459609375,0.12000935821533203,1.552649128961563,1.1062585296362637
1789700795032982000,2.05598193359375,0.1719452606251463,1.486793970260024,1.1369611264139414
1789700795043003100,2.066003173828125,0.2628255915224552,1.492978211852908,1.1921575284570456
1789700795053024000,2.07602392578125,0.35953587068226184,1.544596170887351,1.2692471978783606
1789700795063045000,2.086045166015625,0.3116191407859325,1.5718085874617098,1.3565934728980065
1789700795073066000,2.09606591796875,0.13037294958578421,1.5923042630016804,1.4381746085196732
1789700795083086800,2.1060869140625,-0.08401918555670418,1.6084773991674184,1.4712097398981452
1789700795093108000,2.11610791015625,-0.310527253895998,1.639366458427906,1.4913789599627256
1789700795103130000,2.126130126953125,-0.6458908428847789,1.7315426378220318,1.5345388872534036
1789700795113151000,2.13615087890625,-0.988419501197338,1.7684908509910107,1.658191862668097
1789700795123172000,2.146172119140625,-1.218880115687847,1.6914257314890622,1.8302303910672664
1789700795133193000,2.15619287109375,-1.3651421055346726,1.4450725513398646,2.0256284600049255
1789700795143214000,2.166214111328125,-1.4846218869179486,1.118248242637515,2.2110355885431168
1789700795153235000,2.17623486328125,-1.5430261450916527,0.7717430819094181,2.354504440540075
1789700795163255800,2.186255859375,-1.5521160449981688,0.449983070859313,2.453153907601535
1789700795173277000,2.19627685546875,-1.524192849805951,0.16188567543625831,2.555386786107719
1789700795183298000,2.206298095703125,-1.4936305382817983,-0.032958266749978066,2.870995288790762
1789700795193319200,2.216319091796875,-1.4837486112147569,-0.13151800970137117,3.362190952265262
1789700795203340000,2.226340087890625,-1.4533984811365603,-0.16375673000514507,3.7953444688767193
1789700795213361200,2.236361083984375,-1.4085358415812252,-0.26751170351207254,3.9680958217203615
1789700795223382000,2.246382080078125,-1.4202297865062952,-0.4923533090770244,3.830518950371444
1789700795233403000,2.25640283203125,-1.4989917730540037,-0.5894529163479805,3.548615733413398
1789700795243424000,2.266424072265625,-1.5546961246192454,-0.48783378582596776,3.4056942861661312
1789700795253444900,2.27644482421875,-1.5393839891970156,-0.2778969039261341,3.453395656278729
1789700795263466000,2.286466064453125,-1.5104337890446184,-0.1965945852458477,3.603201017820835
1789700795273487000,2.296487060546875,-1.3550561803281307,-0.23132921401858328,3.729295248907804
1789700795283508000,2.306508056640625,-1.0803951895833015,-0.2562403679132461,3.7560830103293057
1789700795293529000,2.316529052734375,-0.6647557023525238,-0.2750719096332788,3.70531933003664
1789700795303550000,2.326550048828125,-0.20680735170245168,-0.2651075649797916,3.7331782278209924
1789700795313571000,2.336571044921875,0.21136194626688956,-0.28838614923655986,3.7624028610005973
1789700795323592000,2.346592041015625,0.5424865825116634,-0.21637305242717264,3.67887380618155
1789700795333612800,2.35661279296875,0.8239045732360333,0.057384267476201054,3.544926231245696
1789700795343634000,2.366634033203125,1.065494557571411,0.5686503668159246,3.4290386291354893
1789700795353655000,2.376655029296875,1.253541094702482,1.2178688928186894,3.38261765422225
1789700795363676200,2.38667626953125,1.3294459382534027,1.8690993431657552,3.351389572265744
1789700795373697000,2.396697021484375,1.392737968468666,2.4767361509799954,3.336057563099265
1789700795383718000,2.4067177734375,1.4570961666107176,2.9187551110923287,3.365010101339221
1789700795393739000,2.416739013671875,1.5474468841433524,3.177268684634566,3.4487440310806035
1789700795403759900,2.426759765625,1.6140438011229037,3.2782524398624897,3.5748914536595344
1789700795413781000,2.436781005859375,1.4911165096342562,3.2547493992000818,3.821749076199531
1789700795423801900,2.4468017578125,1.3003976845540106,3.0897856314927337,4.161873303718865
1789700795433823200,2.4568232421875,1.0893396166045217,2.765718512544036,4.479398453678191
1789700795443844000,2.466843994140625,0.8289385488152503,2.3963842648923395,4.6302252672225235
1789700795453865000,2.476864990234375,0.5230594129860401,1.9497329688042402,4.692946804073452
1789700795463887000,2.48688720703125,0.22735680325627325,1.5018465779632328,4.653467026600241
1789700795473908000,2.496907958984375,-0.03380516590289771,1.0504974794477224,4.561890566664934
1789700795483928800,2.5069287109375,-0.31500472810361535,0.585194089859724,4.389860806094109
1789700795493949700,2.51694970703125,-0.5660439837098121,0.1770265459448099,4.113260956241191
1789700795503970600,2.526970458984375,-0.7562976754963397,-0.17827216209173202,3.810787244941294
1789700795513991700,2.53699169921875,-0.8614847276329993,-0.5044458979308605,3.5385382837742565
1789700795524012500,2.547012451171875,-0.8270189789295196,-0.688681352341175,3.323322000166774
1789700795534033700,2.55703369140625,-0.744303286319971,-0.8260895891249179,3.1238711487069724
1789700795544054500,2.567054443359375,-0.5116331790864467,-0.920147344481945,2.834060811886191
1789700795554075600,2.57707568359375,-0.10692184004001319,-0.9550263501614331,2.4568361032456156
1789700795564096800,2.5870966796875,0.3628384558916092,-1.0066752888560295,2.0700901175439355
1789700795574117600,2.59711767578125,0.8280605969369411,-1.0115502014160156,1.6471780089616774
1789700795584138800,2.607138671875,1.2215572259426115,-1.039210946279764,1.3520067296296356
1789700795594159600,2.61715966796875,1.5604863984584807,-1.2077747843056916,1.1662228767335414
1789700795604180500,2.627180419921875,1.8434253882050513,-1.300912502208352,0.9013345074623823
1789700795614201600,2.63720166015625,2.0674737975656985,-1.2617203095048666,0.5309124645739793
1789700795624222500,2.647222412109375,2.236928008560091,-1.1332406445860863,0.1092570780545473
1789700795634243800,2.657243896484375,2.3228806372642516,-0.9631757543474435,-0.3179991972118616
1789700795644264700,2.6672646484375,2.319296495167166,-0.8558096046060323,-0.7581774978935718
1789700795654285600,2.67728564453125,2.261988653928041,-0.8094178557872772,-1.1338228283882141
1789700795664306700,2.687306640625,2.2138135288238523,-0.77752108078897,-1.525181276321411
1789700795674327600,2.69732763671875,2.1624398999392986,-0.7569885803699493,-1.8629390669703483
1789700795684348700,2.7073486328125,2.1026514939308165,-0.7739666031777859,-2.145057387983799
1789700795694369500,2.71736962890625,2.0189923829913137,-0.9148393012017011,-2.3549638747453687
1789700795704390400,2.727390380859375,1.797125409322977,-1.1258213082402944,-2.541712188759446
1789700795714411800,2.737411865234375,1.4496750766992568,-1.3690946425527333,-2.7019974432617424
1789700795724432600,2.7474326171875,1.0355530082941056,-1.7090443902879953,-2.7581559683352705
1789700795734453800,2.757453857421875,0.6391537166494876,-2.188744554018974,-2.8783056118041275
1789700795744474600,2.767474609375,0.3484813561718911,-2.5625772821336983,-3.214883837279677
1789700795754495700,2.777495849609375,0.1387818997571245,-2.803061277988553,-3.58590267701745
1789700795764516600,2.7875166015625,-0.01795417436361313,-3.0818361337929963,-4.037314319375157
1789700795774537500,2.797537353515625,-0.2671744343817234,-3.155578830873966,-4.717019753578305
1789700795784558600,2.80755859375,-0.7275894674062728,-3.175069713285565,-5.416009149444103
1789700795794579500,2.817579345703125,-1.242293724501133,-3.3214854323893785,-5.757193991932272
1789700795804600800,2.827600830078125,-1.8535726882100103,-3.749771635225415,-5.462897157347202
1789700795814621700,2.83762158203125,-2.424714871841669,-4.49534537987262,-4.664281266081333
1789700795824642600,2.847642578125,-2.634295195388794,-5.300521652567387,-3.926467341780662
1789700795834663700,2.85766357421875,-2.2454256416618823,-5.780192590203881,-3.6147996856778857
1789700795844684500,2.8676845703125,-1.5103648154616356,-5.762791958069801,-3.6795208719134327
1789700795854705700,2.87770556640625,-0.9036169923763722,-5.424807957449555,-3.864036312308907
1789700795864727800,2.887727783203125,-0.5679471139173954,-4.963734752777219,-4.1247225537151095
1789700795874748700,2.897748779296875,-0.36478140665292735,-4.668139695075154,-4.219046266531944
1789700795884769800,2.907769775390625,-0.29151977108716964,-4.67264109814763,-4.211238807651401
1789700795894790700,2.917790771484375,-0.2818482719004154,-4.78207879346609,-4.204223960453271
1789700795904811500,2.9278115234375,-0.38379261578880247,-4.890536830097437,-4.133611962613463
1789700795914832600,2.93783251953125,-0.565512287985906,-5.1386593580067155,-3.9185914938390254
1789700795924853500,2.947853515625,-0.7940296594541519,-5.626698895537853,-3.6532372606217858
1789700795934874600,2.95787451171875,-0.9974854357063769,-6.076172263309359,-3.6732068664610384
1789700795944895500,2.9678955078125,-1.1011224819220602,-6.31572979196906,-3.8230081363499164
1789700795954916600,2.97791650390625,-1.0169454845882953,-6.495538077586889,-3.9375376018494364
1789700795964937700,2.987937744140625,-0.915353242073208,-6.5925248721331355,-4.1908337330043315
1789700795974958600,2.99795849609375,-0.7773790419697761,-6.378858740577101,-4.707987136816978
1789700795984979700,3.007979736328125,-0.46238355661854147,-5.660981688889861,-5.307421933475136
1789700795995000600,3.01800048828125,0.05468925623856485,-4.524609760540724,-5.66952506082952
1789700796005021700,3.028021728515625,0.5666108238123357,-3.3117987356334924,-5.516365712684393
1789700796015042600,3.03804248046875,0.9281586553715169,-2.321436868196726,-4.899322194099426
1789700796025063400,3.0480634765625,1.13199780491814,-1.7214391769587993,-4.013694374334812
1789700796035084800,3.058084716796875,1.2609304743014276,-1.5454402204960584,-2.9530946030676364
1789700796045105700,3.068105712890625,1.257007455638796,-1.7053554726421831,-1.8389082030415533
1789700796055126800,3.078126708984375,1.272233081821352,-2.0196528927266595,-0.6077157182693481
1789700796065147600,3.088147705078125,1.2504092264175415,-2.3997166241854426,0.4820692309498787
1789700796075168500,3.09816845703125,0.9683693774677813,-2.80151872472167,1.031210010653734
1789700796085189600,3.108189697265625,0.41645182652696966,-2.951714546886086,0.8617156137794255
1789700796095210500,3.11821044921875,-0.19620894692912696,-2.9190935492664574,0.5944733748584985
1789700796105231600,3.128231689453125,-0.8743689052559435,-2.224192884019017,0.9106827660441398
1789700796115252700,3.138252685546875,-1.6877694009386002,-0.9632318684488534,2.075926568612456
1789700796125273600,3.148273681640625,-2.2040881074927747,0.21144202576577661,3.597497837743163
1789700796135294700,3.158294677734375,-2.180867390903085,1.1198843194067478,4.651890571063757
1789700796145315600,3.168315673828125,-1.6791583705902098,1.6171405980944633,5.0479392226397986
1789700796155336700,3.178336669921875,-0.9748704299248755,1.9473978038549422,4.946124277284741
1789700796165357600,3.188357666015625,-0.26347674890756606,2.050681652718782,4.547661258043348
1789700796175378700,3.198378662109375,0.2808219975925982,1.6402584388315677,4.0324291776821015
1789700796185399600,3.208399658203125,0.8124341348685323,0.942920901826024,3.3460546409785747
1789700796195420400,3.21842041015625,1.3572946069046854,0.46319794174134726,2.440406361970305
1789700796205441800,3.22844189453125,1.699619705469161,0.18135025436282157,1.345380004966259
1789700796215462700,3.238462646484375,1.7961922201260923,-0.03110416331589222,0.26787819873690605
1789700796225483800,3.24848388671875,1.8011212009608744,-0.012032383099198341,-0.4627908222451806
1789700796235504600,3.258504638671875,1.8730895818457007,0.3967915788978338,-0.5868970943853259
1789700796245525500,3.268525390625,1.9312413265630601,1.0132377161115407,-0.23017332198172807
1789700796255547600,3.278547607421875,1.7266263703383504,1.6685212412416934,0.31622341971099377
1789700796265568800,3.28856884765625,1.4089721871718763,2.264941658514738,0.9452624965161085
1789700796275589600,3.298589599609375,1.172370877969265,2.7498066576629876,1.4081310601726174
1789700796285610800,3.30861083984375,1.1180258320584893,3.1610926258593794,1.5993448291629553
1789700796295631600,3.318631591796875,1.266728785316646,3.436638582745194,1.7117232541084288
1789700796305652700,3.32865283203125,1.6588564640566705,3.652032561007142,1.8970088020935654
1789700796315673600,3.338673583984375,1.9658441456496714,3.746136493593454,2.1074293758571145
1789700796325694500,3.348694580078125,1.9399907424688339,3.7523330101460215,2.2522888054296373
1789700796335715600,3.358715576171875,1.776058363635838,3.7285108205318447,2.400165829257667
1789700796345736400,3.368736328125,1.5213796920813618,3.5970372344940897,2.531096686720848
1789700796355757800,3.3787578125,1.298850016720593,3.3094396052867174,2.669957460400462
1789700796365778700,3.38877880859375,1.2860242912866175,2.8983173032194376,2.9290207767799497
1789700796375799600,3.398799560546875,1.4796648490324615,2.5287837336033583,3.239815741701424
1789700796385820700,3.408820556640625,1.4182164008572697,2.1229992854326962,3.5014170521259307
1789700796395841500,3.418841552734375,1.1252476000055671,1.4699234994798898,3.860402339720726
1789700796405862700,3.428862548828125,0.7556663918554782,0.6212427238404751,4.223188773164153
1789700796415883500,3.438883544921875,0.49313452258259055,-0.3080067955076694,4.442857944527268
1789700796425904600,3.448904541015625,0.5759793945297599,-1.1326321572989224,4.517236016902327
1789700796435925800,3.45892578125,1.0257686963826418,-1.69534611980319,4.512620047539472
1789700796445946600,3.468946533203125,1.5290443814903496,-1.9550667310476302,4.443158973300457
1789700796455967700,3.4789677734375,1.9157170096948741,-1.9861293933093547,4.37463313408494
1789700796465988600,3.488988525390625,2.1443568384990095,-1.8283476460605859,4.307051882243156
1789700796476009700,3.499009765625,2.158020914453268,-1.491939516454935,4.273611677195132
1789700796486030600,3.509030517578125,1.9912197021856903,-1.0677759465068577,4.252904989252984
1789700796496051500,3.519051513671875,1.8713091281697154,-0.64148763948977,4.2874166229248045
1789700796506072600,3.529072509765625,1.7634908507466316,-0.3887836290091276,4.550782020412385
1789700796516093400,3.539093505859375,1.6615771211922168,-0.500673978176713,4.987658064678311
1789700796526114600,3.549114501953125,1.5978151353776453,-0.8026531839579343,5.335014289277792
1789700796536135400,3.559135498046875,1.6452143076732755,-1.0616560023218393,5.52095830117166
1789700796546156300,3.56915625,1.6671856087237595,-1.0158774169653653,5.498251963844895
1789700796556177400,3.579177490234375,1.6250000794231891,-0.7292612000107764,5.427090515428781
1789700796566198500,3.589198486328125,1.4718436538875102,-0.22061375873684883,5.346942042958736
1789700796576219600,3.5992197265625,1.2159010998770594,0.5098077172249555,5.2384524421453476
1789700796586240500,3.609240478515625,1.014674032524973,1.2109434774696826,5.199324546849727
1789700796596261400,3.619261474609375,0.8712873058535158,1.6662562189191579,5.330346297466755
1789700796606282500,3.629282470703125,0.8003510444954037,1.9371049578994513,5.5395157021254295
1789700796616303400,3.639303466796875,0.8502896721407771,1.9289193133562803,5.728569370472431
1789700796626324500,3.649324462890625,1.0006197882093488,1.7041414206773042,5.8290416690468785
1789700796636345300,3.659345458984375,1.2382266211926936,1.3427221839338541,5.802270566499233
1789700796646366700,3.66936669921875,1.5147180422350763,0.9858768309772014,5.598791482436656
1789700796656387600,3.6793876953125,1.7388732729710636,0.6919435690075159,5.286963082814216
1789700796666408400,3.689408447265625,1.9170050036787987,0.3614993162423372,4.9994484557151795
1789700796676429600,3.6994296875,2.0486004625305534,-0.0022498247534036633,4.720685874870419
1789700796686450400,3.709450439453125,2.0700433557927607,-0.3788683841943741,4.573197558099031
1789700796696472300,3.719472412109375,2.0646388664007187,-0.782151663199067,4.559322469742596
1789700796706493400,3.729493408203125,2.1280568610832096,-1.134980766251683,4.547220528538525
1789700796716514600,3.7395146484375,2.2604501923143863,-1.3190075463473796,4.353059307919442
1789700796726535700,3.74953564453125,2.451562839017808,-1.3649287550449372,3.990519542713463
1789700796736556500,3.759556640625,2.6304315056979655,-1.1872259172737598,3.438028868059814
1789700796746577400,3.769577392578125,2.761338690024614,-0.9061673344463109,2.7454239125341173
1789700796756598500,3.7795986328125,2.763903864337504,-0.747889912635088,2.0262106438070533
1789700796766619400,3.789619384765625,2.748947702746093,-0.7361398536086082,1.332406541624665
1789700796776640500,3.799640625,2.8168355363190174,-0.7991098122626542,0.6715507693201304
1789700796786661400,3.809661376953125,3.028659254878759,-0.9000298546046018,-0.03377542835175991
1789700796796682500,3.8196826171875,3.3616347796872255,-0.9945365227729082,-0.7569839041948319
1789700796806703600,3.82970361328125,3.6768919847145676,-1.062552074378729,-1.3441361423850058
1789700796816724500,3.839724365234375,3.8627886503353714,-1.1711650093108414,-1.7869734331429004
1789700796826745600,3.84974560546875,3.9017254069730636,-1.3728525337815285,-2.087995776590705
1789700796836766500,3.859766357421875,3.8310973347812887,-1.6792115620821713,-2.301220009598136
1789700796846787300,3.869787353515625,3.6663176914691924,-2.0112305168181654,-2.4855220995038745
1789700796856808400,3.879808349609375,3.4142017100095745,-2.4006664722561837,-2.6876410011291503
1789700796866829300,3.889829345703125,3.1473031699597835,-2.8543723630309104,-2.936934910905361
1789700796876850700,3.8998505859375,2.988254471515119,-3.1449604062259193,-3.413835799306631
1789700796886871600,3.90987158203125,3.0145763689905403,-3.160090170818567,-4.006135921779275
1789700796896892700,3.919892578125,3.1307822432696817,-3.1210996381670233,-4.548426104936003
1789700796906913500,3.92991357421875,3.0886990052998065,-3.0432074201911687,-5.004359608632326
1789700796916934400,3.939934326171875,2.698749547381699,-3.0095740306586025,-5.31879263779521
1789700796926955500,3.94995556640625,2.056537100748718,-3.0056501352131364,-5.376483194741606
1789700796936976400,3.959976318359375,1.3483797713041306,-3.0962615495085712,-5.1294180669307705
1789700796946997500,3.96999755859375,0.6621034342780708,-3.218724146094918,-4.684283605146407
1789700796957018600,3.9800185546875,0.16337474495023488,-3.446818615975976,-4.06658892917633
1789700796967039500,3.99003955078125,-0.14564999542832374,-3.7524206884294746,-3.481770102369785
1789700796977060600,4.000060546875,-0.29566520032882687,-3.9289977370411155,-3.0575866586774585
1789700796987081500,4.01008154296875,-0.3091629798054695,-3.915783450680971,-2.766725059238076
1789700796997102600,4.0201025390625,-0.17804419855475426,-3.8584430223464965,-2.5582681867629287
1789700797007123500,4.03012353515625,0.01900996702685952,-3.8731729739665983,-2.489333182224631
1789700797017144300,4.040144287109375,0.11263123066276311,-3.959422685921192,-2.527144734224677
1789700797027165400,4.05016552734375,0.25678163518309594,-4.296670188960433,-2.4192846634864806
1789700797037186300,4.060186279296875,0.5442226125240326,-4.831473815754055,-2.2737153320789334
1789700797047207700,4.070207763671875,1.0334925686329604,-5.217841031271219,-2.3748288511663675
1789700797057228500,4.080228515625,1.5911536316618322,-5.271206710755825,-2.698321969619393
1789700797067249700,4.090249755859375,2.0961770372197033,-5.184771120840311,-3.0648066730588672
1789700797077270500,4.1002705078125,2.4861080826982853,-5.135077992388606,-3.331418797382712
1789700797087291400,4.11029150390625,2.7195874604880808,-5.39790533747673,-3.2924855478763577
1789700797097312500,4.1203125,2.755375105445087,-6.070179744896293,-3.0001451080560684
1789700797107333400,4.13033349609375,2.6683658072948453,-6.774006059399246,-2.921746694123745
1789700797117354500,4.1403544921875,2.4977792312696576,-7.093271915546059,-3.0751293296307325
1789700797127375600,4.150375732421875,2.433509588193893,-7.125410682606697,-3.3062463622033595
1789700797137396500,4.160396484375,2.46011001034975,-6.9108315278589725,-3.636651452001929
1789700797147417600,4.17041748046875,2.575269005924463,-6.4796612940192215,-4.107674972802401
1789700797157438500,4.1804384765625,2.784789415977895,-5.814688734045625,-4.648280563873052
1789700797167460400,4.19046044921875,3.057221624757349,-4.994786309123039,-5.060049347150326
1789700797177481500,4.2004814453125,3.2661095821261403,-4.167919598145783,-5.066248201790452
1789700797187502300,4.21050244140625,3.409889107507467,-3.419316276544332,-4.676984680309891
1789700797197523700,4.220523681640625,3.3303231111004945,-2.839978511497378,-4.214811405441164
1789700797207544600,4.230544677734375,2.91241187954545,-2.5870360160857437,-3.6327398315161465
1789700797217565400,4.2405654296875,2.3459824036493897,-2.4742870042622087,-2.927902294144034
1789700797227586600,4.250586669921875,1.6378556154735386,-2.5062667813688515,-2.170655939620733
1789700797237607400,4.260607421875,0.9008687896467745,-2.566102533650398,-1.1371925970822572
1789700797247628500,4.270628662109375,0.1744599103271961,-2.4930291141331193,0.14425123454630373
1789700797257649400,4.2806494140625,-0.6026118192590773,-1.9847832393974065,1.3525456588119267
1789700797267670300,4.290670166015625,-1.3348458976007997,-1.1491910779118537,2.160293535560369
1789700797277691600,4.300691650390625,-1.965903913012892,-0.33018063339293,2.53183902952075
1789700797287712500,4.31071240234375,-2.3988019935585556,0.19949673642814159,2.5383324831932783
1789700797297733600,4.320733642578125,-2.5214333708405494,0.4036088576972484,2.3489421302378175
1789700797307754500,4.33075439453125,-2.2052948529340326,0.3818997147142887,2.137224210140109
1789700797317775400,4.340775390625,-1.557806803985685,0.21378362045586108,1.787505932584405
1789700797327796500,4.35079638671875,-0.9162557438708842,0.2454413260012865,1.354451200172305
1789700797337817300,4.3608173828125,-0.29806524720788,0.46512160328030583,0.9252952287644147
1789700797347838500,4.37083837890625,0.25162016076669097,0.784615422964096,0.5784639048218727
1789700797357859600,4.380859619140625,0.6255297535099089,1.017716907352209,0.3907183964639902
1789700797367880700,4.390880615234375,0.8320517123997211,1.221925474733114,0.457720971634984
1789700797377901600,4.400901611328125,0.9375672658383846,1.4128338310360908,0.6657225015580653
1789700797387922400,4.41092236328125,0.9459224217295646,1.641432743307948,0.8828852430582046
1789700797397943600,4.420943603515625,0.9347358418047428,1.809773878493905,1.0636328553527592
1789700797407964400,4.43096435546875,0.8811537430904806,1.8478636629134415,1.1017395909070968
1789700797417985500,4.440985595703125,0.8604733586333692,1.781280189937353,1.0523901613265276
1789700797428006400,4.45100634765625,0.902413973262161,1.6871195587277412,0.9675690208703279
1789700797438027300,4.46102734375,0.9395382736504078,1.5707926884174346,0.7639414682477712
1789700797448048600,4.471048583984375,0.9511831187367439,1.5268670374512672,0.5270592962771654
1789700797458069500,4.481069580078125,0.9628921151004731,1.5568500877827405,0.33498540332615373
1789700797468090600,4.491090576171875,0.9130733144424855,1.7165835536211729,0.1735714370548725
1789700797478111500,4.501111572265625,0.7824665743671357,1.9850532885104417,0.08636661633253097
1789700797488132400,4.51113232421875,0.45689036602973937,2.302785943740606,0.0033750293910503387
1789700797498153200,4.5211533203125,-0.12623700055852533,2.555931268247962,-0.04515256241261959
1789700797508174000,4.531174072265625,-0.7677766624964774,2.8353789087474346,0.0687976418942213
1789700797518195200,4.5411953125,-1.4315760870374739,3.1957997821033,0.3414519689917564
1789700797528216000,4.551216064453125,-2.0215188327290115,3.347695393922925,0.6656769088506698
1789700797538237200,4.5612373046875,-2.2511576094426213,3.2598487681657073,0.8004372614741325
1789700797548258000,4.571258056640625,-2.066824832137674,2.905533810469508,0.8546914142310619
1789700797558279200,4.581279052734375,-1.579071710332483,2.1802613878339527,1.0028010777711869
1789700797568300300,4.59130029296875,-0.8598072959400713,1.369073015242815,1.3736764173850415
1789700797578321200,4.601321044921875,-0.13645078992843626,0.7969348063111305,1.9054180262595415
1789700797588342300,4.61134228515625,0.44177462996244427,0.4643739997833967,2.5317089734002947
1789700797598363100,4.621363037109375,0.6863140386879444,0.26725334483683105,3.3112071994811294
1789700797608384300,4.63138427734375,0.7066609534069895,0.1109562831878662,4.133397443079948
1789700797618405000,4.641405029296875,0.5414217297591268,-0.10944587862491607,4.906459790894389
1789700797628426000,4.651426025390625,0.25549539476484057,-0.34510581532418727,5.6168292434304945
1789700797638447000,4.661447021484375,-0.07455489024668932,-0.42555531656742096,6.286650997000932
1789700797648468200,4.67146826171875,-0.37462007910013195,-0.2858534158885479,6.9519760236740105
1789700797658490000,4.681489990234375,-0.49280572901964187,0.12361994992792606,7.351801855701208
1789700797668511200,4.69151123046875,-0.5551273067675531,0.6549708059191703,7.504188465908169
1789700797678532000,4.701531982421875,-0.6351299410261213,0.8428355567425488,7.577904274982213
1789700797688553200,4.71155322265625,-0.7115034250020981,0.3736450965881347,7.564138784480094
1789700797698574000,4.721573974609375,-0.7024912665069103,-0.22217209409475325,7.415229494994878
1789700797708595200,4.73159521484375,-0.6151905841946601,-0.3998690866470337,7.089310026177763
1789700797718616300,4.7416162109375,-0.5578047092832624,-0.24482816253900527,6.6258823673337695
1789700797728637200,4.75163720703125,-0.586318709975481,0.11986965748369693,6.1946636181771755
1789700797738658300,4.761658203125,-0.7109598196446896,0.6915998701363801,5.773963340425491
1789700797748679200,4.77167919921875,-0.8443558981776237,1.4732020827591419,5.351258737114072
1789700797758700000,4.781699951171875,-0.9075916681610048,2.158083458295464,5.133096463182568
1789700797768721200,4.79172119140625,-0.9468718314088881,2.4927491281479597,5.0850622078537935
1789700797778742000,4.801741943359375,-0.9412287109553813,2.5083780744343995,5.193343718874454
1789700797788763100,4.81176318359375,-0.8163935400187968,2.3872066867023705,5.331587237438559
1789700797798784300,4.8217841796875,-0.5805893725432455,2.148695452225208,5.393333791777491
1789700797808805000,4.83180517578125,-0.3146468180440366,1.8723083683401345,5.431380906099081
1789700797818826200,4.841826171875,-0.11427037617191671,1.5055290658682583,5.526598937407136
1789700797828847000,4.85184716796875,0.007929770085960627,1.0246201108694075,5.586150612050295
1789700797838868200,4.8618681640625,0.07235109659209847,0.47998541041314596,5.577354726654291
1789700797848889000,4.87188916015625,0.2234909216083586,-0.020881459987163543,5.423160774764418
1789700797858910200,4.88191015625,0.43307241419926285,-0.5595499455153942,5.1040030551671975
1789700797868931000,4.89193115234375,0.7165854044415056,-1.112310084760189,4.762538811215758
1789700797878952200,4.9019521484375,1.080536790011078,-1.4551082076638937,4.385903300639987
1789700797888973300,4.911973388671875,1.440052969612181,-1.5992530592262744,3.9166193169832226
1789700797898994200,4.921994140625,1.8695485482379792,-1.6390297738194464,3.34253815729022
1789700797909015300,4.932015380859375,2.3128429351136086,-1.615559466382861,2.688502586394548
1789700797919036200,4.9420361328125,2.6646716289520262,-1.506342720338702,2.0135919852524995
1789700797929057000,4.95205712890625,2.8455130570098754,-1.394903037548065,1.3393009773135185
1789700797939078100,4.962078125,2.8472026175320146,-1.3083832764804362,0.7285989367097616
1789700797949099000,4.97209912109375,2.7120348531514407,-1.2641957597076892,0.26931378449797627
1789700797959120400,4.982120361328125,2.5479905383765695,-1.2506126400351523,-0.0707978758007288
1789700797969141200,4.992141357421875,2.3804662725314496,-1.2985510337740183,-0.432149892526865
1789700797979162000,5.002162109375,2.110363821873814,-1.3946277277380228,-0.9748159232586622
1789700797989183200,5.012183349609375,1.7545955966293811,-1.5261726254463195,-1.625040995955467
1789700797999204000,5.0222041015625,1.3960451933205127,-1.7644962283968924,-2.228523606699705
1789700798009225200,5.03222509765625,1.0247522128164768,-2.0803607516676186,-2.823740493401885
1789700798019246000,5.04224609375,0.5834051606163382,-2.431732641649246,-3.373321418088674
1789700798029267200,5.05226708984375,0.17977087621688842,-2.7059885587245223,-3.799550103873014
1789700798039288300,5.062288330078125,-0.05421469752937555,-2.754050286582112,-4.154035741961002
1789700798049309200,5.07230908203125,-0.1786494709715247,-2.5829127986758946,-4.523009924128651
1789700798059330300,5.082330322265625,-0.2270025829911232,-2.4360680405050514,-4.803267711967229
1789700798069351200,5.09235107421875,-0.12991115902662276,-2.4601781071498987,-5.038345464864373
1789700798079372300,5.102372314453125,0.0797191411420703,-2.6204680378273126,-5.347879616069793
1789700798089393200,5.11239306640625,0.2649381997622549,-2.8423315043643114,-5.671281549108028
1789700798099414000,5.1224140625,0.35951018825173375,-3.1626652820035814,-5.897728836303949
1789700798109435100,5.13243505859375,0.3799661163032055,-3.593010170935094,-5.972563420274853
1789700798119456000,5.1424560546875,0.30856559843420983,-4.124748564939201,-5.966055353555083
1789700798129477400,5.152477294921875,0.2084755771756172,-4.551553297045826,-5.868020511260628
1789700798139498200,5.162498291015625,0.11676423881426452,-4.865982234555482,-5.56346239490211
1789700798149519000,5.17251904296875,0.08026070067286491,-5.096567936730384,-5.127085240069031
1789700798159540200,5.182540283203125,0.07915946143269538,-5.323031006017327,-4.700136423316597
1789700798169561000,5.19256103515625,0.05429419250637293,-5.469768796682358,-4.24695367963314
1789700798179582200,5.202582275390625,0.037231852415949104,-5.57452096453309,-3.81628671914041
1789700798189603000,5.21260302734375,0.1509133227840066,-5.610622790005803,-3.4663322947412727
1789700798199625200,5.222625244140625,0.3219996650248766,-5.499747755360603,-3.2368829031199216
1789700798209646300,5.232646240234375,0.5747030909836292,-5.288750550752878,-3.1899311823308465
1789700798219667200,5.242667236328125,0.8589820971623062,-5.0226516366481775,-3.2030402547508476
1789700798229688000,5.25268798828125,1.0088444495886564,-5.01069348782897,-3.0262697293937206
1789700798239709200,5.262709228515625,0.9837418647751212,-5.5052083588540555,-2.5868349405556916
1789700798249730000,5.27272998046875,0.8612313373938202,-6.2359519063770765,-2.142172187936306
1789700798259751200,5.282751220703125,0.7463143338814378,-6.856894185966253,-1.7926608311295509
1789700798269772000,5.29277197265625,0.7920286218300461,-7.198385902446508,-1.5305647229254244
1789700798279793200,5.302793212890625,1.0300158324331044,-7.1847121818810695,-1.5510837793409824
1789700798289814300,5.312814208984375,1.4845742483839393,-6.748824856391549,-1.8709201288521289
1789700798299835100,5.322835205078125,2.1635037297785282,-5.9260243719398975,-2.390814940327406
1789700798309856300,5.332856201171875,2.7791549172222614,-4.945668350210785,-3.022822219288349
1789700798319877000,5.342877197265625,3.127585200794041,-4.126691223439574,-3.5891491115927696
1789700798329898200,5.352898193359375,3.157190942245722,-3.6632173873662945,-4.017494935661554
1789700798339919000,5.362919189453125,2.925907613195479,-3.436678330233693,-4.279686905455589
1789700798349940000,5.37293994140625,2.513760644255578,-3.2980250618249176,-4.200962328308821
1789700798359961300,5.38296142578125,2.054320886003971,-3.219348999994993,-3.7108220191061494
1789700798369982200,5.392982177734375,1.5323124433755875,-3.1342256617218256,-2.946558479297161
1789700798380003300,5.40300341796875,1.057924706839025,-3.006030074441433,-1.8338427363455294
1789700798390024200,5.413024169921875,0.7187130641199648,-2.7878829980790614,-0.47653147056698797
1789700798400045000,5.423045166015625,0.4739876313030719,-2.5072347496181724,0.9013584728598594
1789700798410066200,5.433066162109375,0.13490312209501862,-2.1101497407317162,2.004672765737772
1789700798420087000,5.443087158203125,-0.1639163044810295,-1.636432743063569,2.779346055880189
1789700798430108200,5.453108154296875,-0.3204091809630394,-1.1232014811307192,3.1629689411252735
1789700798440129300,5.46312939453125,-0.3098014238394797,-0.6308563553601503,3.14059519675374
1789700798450150100,5.473150146484375,-0.24842545637860894,-0.14822715243995188,2.7779116391628977
1789700798460171300,5.483171142578125,-0.14224910094365475,0.2872363946795463,2.129085327348113
1789700798470192000,5.493192138671875,0.001592237627506256,0.673830404689908,1.3923451697587965
1789700798480213200,5.503213134765625,0.10155614828839897,0.9822183084696531,0.6654805094957351
1789700798490234000,5.513234130859375,0.13671996225863695,1.3031751864433287,0.04243453562557697
1789700798500256000,5.523256103515625,0.10961538997292518,1.584883757612109,-0.4618739996612072
1789700798510277000,5.533277099609375,0.025209260058403012,1.8022282854199407,-0.8047206378817557
1789700798520298000,5.543298095703125,-0.1347977620244026,1.952774820718169,-0.969706032899022
1789700798530318800,5.55331884765625,-0.3113995066858828,2.035926566657424,-0.9153560185521841
1789700798540340000,5.563340087890625,-0.3531377306103706,2.127492505198717,-0.7702648260504007
1789700798550360800,5.57336083984375,-0.35713586033582684,2.190097137671709,-0.6640069298118353
1789700798560382000,5.5833818359375,-0.43489612249508497,2.19449683393538,-0.5502613081663846
1789700798570403000,5.593403076171875,-0.5518693278849125,2.1423165648430587,-0.3982026147395372
1789700798580424200,5.603424072265625,-0.6113958680868149,2.0481302146703,-0.34454818144142624
1789700798590445000,5.613445068359375,-0.6592799012899399,1.9355472070634363,-0.427200161164999
1789700798600466000,5.6234658203125,-0.649321913312003,1.8290052331864832,-0.5437351212680339
1789700798610487000,5.633487060546875,-0.5999134470205754,1.6452198606312274,-0.6947486895561218
1789700798620508000,5.6435078125,-0.49583822858333587,1.4000111743420363,-0.809783766490221
1789700798630529000,5.653529052734375,-0.3853542390823364,1.1490420248299837,-0.9047101213753223
1789700798640550000,5.6635498046875,-0.292602232561633,0.9493307688683271,-0.8587935888528824
1789700798650571000,5.673571044921875,-0.14975670009478925,0.806262606626749,-0.7092284658074378
1789700798660592000,5.683592041015625,0.05699680252857506,0.7705050645470619,-0.558283871102333
1789700798670613000,5.693613037109375,0.27707038997411726,0.8144166869878768,-0.3347679611831903
1789700798680634000,5.703634033203125,0.41968204061985015,0.7711480386257171,0.008533435067534446
1789700798690655000,5.713655029296875,0.4725228925127536,0.5844587613224983,0.3945148661375045
1789700798700675800,5.72367578125,0.5113432562291622,0.2527390817940235,0.8535054193168878
1789700798710697000,5.733697021484375,0.5915198588151485,-0.15050678780972956,1.2827619284898042
1789700798720717800,5.7437177734375,0.6855087136544287,-0.6224608674585819,1.6530828490912914
1789700798730739000,5.753739013671875,0.7516974882245063,-1.1710843452900648,2.1479475564673542
1789700798740760000,5.763760009765625,0.7189606091402471,-1.8119161512196063,2.8386200826257464
1789700798750781200,5.77378125,0.5430863019704818,-2.4103327107459305,3.6290962143167853
1789700798760802000,5.783802001953125,0.28797639939188957,-2.6766940751790997,4.389623782467842
1789700798770823000,5.793822998046875,0.06916523309759795,-2.4697166276067493,5.0202001518428325
1789700798780844000,5.803843994140625,-0.33014621966667473,-1.9768512773543596,5.622982505363225
1789700798790866000,5.813865966796875,-0.9169254598259925,-1.417277950963378,6.208965699774026
1789700798800887000,5.823886962890625,-1.3608207352042196,-0.7697223897367715,6.707929951423406
1789700798810908200,5.833908203125,-1.6648294009864328,-0.1401741943657398,7.111114446228743
1789700798820929000,5.843928955078125,-1.8599825552523135,0.42203298766016956,7.451113293802738
1789700798830950100,5.8539501953125,-1.9315186821997166,0.6669909140586853,7.800529958063364
1789700798840971000,5.863970947265625,-1.823468641847372,0.539208583754301,8.041674463653564
1789700798850991900,5.873991943359375,-1.5410697503268718,0.32964696490764617,8.047917157435418
1789700798861013000,5.884012939453125,-1.2276326003335416,0.31708149784505363,7.879074502468109
1789700798871033900,5.894033935546875,-0.9174818515997379,0.42862639457583424,7.623217580914497
1789700798881055000,5.904054931640625,-0.642645577353239,0.6645084495931863,7.305249363362789
1789700798891076000,5.914076171875,-0.39266653485707936,1.0750701951682566,6.992077147915959
1789700798901097000,5.924096923828125,-0.22931502465195952,1.5618746379464863,6.894138751733303
1789700798911118000,5.9341181640625,-0.07292612000107765,2.019584503665566,6.982237890946864
1789700798921139000,5.944138916015625,0.03180851219296455,2.4835230346411463,7.170607084161043
1789700798931160000,5.95416015625,0.19260938806720077,2.7344226260483264,7.438827812725305
1789700798941181000,5.964180908203125,0.4029484210271388,2.790474183616042,7.673238041624426
1789700798951201800,5.974201904296875,0.647374505571276,2.759672218117118,7.776020955228805
1789700798961223000,5.984222900390625,0.9754982064343989,2.623856803482771,7.740780130499601
1789700798971244000,5.994244140625,1.2848095086693763,2.319968549209833,7.589272641214728
1789700798981265200,6.00426513671875,1.5638754563748836,1.8982547105014322,7.2988733985900875
1789700798991286000,6.0142861328125,1.711295237954706,1.476215877622366,6.875455094051361
1789700799001307100,6.02430712890625,1.7787375197172164,1.0134621725171804,6.347042629599571
1789700799011328000,6.034327880859375,1.798329378285259,0.530980269113183,5.818939377227426
1789700799021348900,6.044348876953125,1.7820657873570918,0.11393033056259154,5.344128739103675
1789700799031370000,6.054369873046875,1.819034604922682,-0.18299743704795837,4.872681147672235
1789700799041390800,6.064390869140625,1.9479729733943938,-0.43585868391692634,4.252525926807523
1789700799051412200,6.074412109375,2.1179484317839146,-0.6672796678721904,3.5114512471452355
1789700799061433000,6.08443310546875,2.280079606413841,-0.8927589868187904,2.7381156353473664
1789700799071454000,6.094453857421875,2.365492429152876,-1.0770610767245292,1.9497765156850217
1789700799081475000,6.10447509765625,2.4093279176175595,-1.1052747792959212,1.1755360640019177
1789700799091496000,6.114495849609375,2.3968074587404726,-1.0566402199864386,0.43517479330599307
1789700799101517000,6.12451708984375,2.3119372184455393,-1.0599655650168656,-0.166552498203516
1789700799111538000,6.134537841796875,2.1766122176766394,-1.0938526370495558,-0.6498527322530746
1789700799121558800,6.144558837890625,2.007486654114723,-1.127867719376087,-1.0482663593947887
1789700799131580200,6.154580078125,1.8540239391088484,-1.1734709481656551,-1.3830840049386024
1789700799141601000,6.16460107421875,1.7411819883048534,-1.2162719790160654,-1.6725433363646267
1789700799151622100,6.1746220703125,1.615482894015312,-1.3279565764784813,-1.9251444709926842
1789700799161643000,6.18464306640625,1.544400356054306,-1.5223463451564312,-2.1863789939314127
1789700799171664000,6.194663818359375,1.5079144997000693,-1.7353367694079875,-2.446616907048225
1789700799181685000,6.20468505859375,1.4729074837267397,-1.9211825816243886,-2.700263751336932
1789700799191705900,6.214705810546875,1.4199742043100296,-2.0509622232258318,-2.991508797135949
1789700799201727000,6.22472705078125,1.331498779129982,-2.0897113483369347,-3.369899626946449
1789700799211747800,6.234747802734375,1.2228430279694498,-2.124879692351818,-3.6677193749606607
1789700799221769200,6.244769287109375,1.1072867767054586,-2.278667986050248,-3.8088188674777745
1789700799231790000,6.2547900390625,0.9900339506566523,-2.724391061377525,-3.7927737416058775
1789700799241811000,6.26481103515625,0.8812076652348041,-3.372202643191814,-3.661536302411556
1789700799251832000,6.27483203125,0.8718423093877732,-4.068334311538934,-3.5041415086537597
1789700799261853000,6.28485302734375,0.9494878591261804,-4.856379708951711,-3.3405098663330075
1789700799271874000,6.2948740234375,0.8937877453446388,-5.537611329808831,-3.21355463450253
1789700799281895000,6.30489501953125,0.9115303227841853,-5.829554294744134,-3.3234453342854975
1789700799291915800,6.314915771484375,1.0319570296287537,-5.598022836151719,-3.76242536509335
1789700799301937200,6.324937255859375,1.0122584958158434,-5.096476166793703,-4.047147731125355
1789700799311958000,6.3349580078125,0.7478584215182811,-4.597157110357284,-4.2100013748109335
1789700799321979100,6.344979248046875,0.33897461909279225,-4.343229695561528,-4.2546641078799965
1789700799332000000,6.355,-0.08596461140289902,-4.34971555044949,-4.308999509179592
1789700799342020900,6.365020751953125,-0.45425767943859097,-4.488996595367789,-4.363752259108424
1789700799352042000,6.3750419921875,-0.7044283720493316,-4.493962693342566,-4.489230988645553
1789700799362062800,6.385062744140625,-0.7375671829979866,-4.281761958163976,-4.727541147592664
1789700799372084000,6.395083984375,-0.630210604802519,-4.11127562764287,-4.884630820924043
1789700799382105000,6.40510498046875,-0.5235106638848781,-4.317663877150416,-4.733400979536771
1789700799392126200,6.415126220703125,-0.5494049835979938,-5.234716178226471,-4.087060639318824
1789700799402147000,6.42514697265625,-0.5607528915643691,-6.339367272666096,-3.6003672556996342
1789700799412169000,6.4351689453125,-0.48208793565034863,-6.900772490659356,-3.6235809580266474
1789700799422189800,6.44518994140625,-0.34626718725375827,-7.02363139308691,-3.9152830999433994
1789700799432211000,6.4552109375,-0.1847299599289894,-6.817573398447037,-4.2795290845453735
1789700799442231800,6.465231689453125,0.10184249094910919,-6.353809054994583,-4.7631683412909505
1789700799452253200,6.475253173828125,0.630142654132843,-5.400421119689941,-5.347106878131628
1789700799462274000,6.485274169921875,1.155755185667798,-4.112582618588209,-5.851019107577204
1789700799472295200,6.495295166015625,1.530910759884119,-2.7288445336550473,-6.0429720044970505
1789700799482316000,6.50531591796875,1.6918097623705863,-1.5499696806192398,-5.8072495239555835
1789700799492337000,6.5153369140625,1.4763994174957276,-0.9415157112032174,-5.223125693675875
1789700799502358000,6.52535791015625,0.8344985940951853,-0.8620265794247388,-4.390889272359013
1789700799512379000,6.53537890625,0.05991824293322861,-1.0910849259018898,-3.536297811371088
1789700799522400000,6.54539990234375,-0.6735480806171894,-1.2442898667544127,-2.911902176457643
1789700799532420900,6.5554208984375,-1.2758417738378047,-1.4681915611207483,-2.318244794157147
1789700799542441700,6.565441650390625,-1.7659622092962264,-1.9928385355591773,-1.668255283781886
1789700799552462800,6.575462890625,-2.1178923176825046,-2.654699685513973,-0.9791682732492685
1789700799562483700,6.585483642578125,-2.256276706022024,-3.229572872367501,-0.3592676116675138
1789700799572504800,6.5955048828125,-2.3136638961076734,-3.548217966267466,0.05818798507452011
1789700799582526000,6.60552587890625,-2.193759751832485,-3.563039687824249,0.2562982355803251
1789700799592546800,6.615546875,-1.908102735298872,-3.3749007962346074,0.32736323788464067
1789700799602568000,6.62556787109375,-1.626716235691309,-3.0240029535055157,0.25117022504210473
1789700799612588800,6.6355888671875,-1.3736930762588977,-2.435321021530032,0.0835071352481842
1789700799622610000,6.64560986328125,-1.1017758312642574,-1.6468635361850261,-0.10656710831820965
1789700799632630800,6.655630859375,-0.8970563186865299,-0.7496130831658839,-0.27462182777822014
1789700799642652000,6.66565185546875,-0.7260089932817966,0.08053074978590011,-0.37477790001034733
1789700799652672800,6.6756728515625,-0.6361749930996448,0.7576677948057651,-0.39410102463960645
1789700799662694000,6.68569384765625,-0.5638228735942393,1.23976274471879,-0.39149522605538367
1789700799672715000,6.695715087890625,-0.4305190764546394,1.6126123070150613,-0.41735798158645626
1789700799682735900,6.70573583984375,-0.2844832965791225,1.8832839358627795,-0.4618021034687757
1789700799692757000,6.715757080078125,-0.1284930358570069,2.0186165354162453,-0.4460632670670748
1789700799702777900,6.72577783203125,0.030510800532624123,2.014228529590368,-0.40982466347217555
1789700799712798700,6.735798828125,0.1707037726640701,1.957713446164131,-0.3624439036160707
1789700799722819800,6.74581982421875,0.23918285012841223,1.8940484909832476,-0.28407354673445223
1789700799732840700,6.7558408203125,0.35959786653518677,1.840822512230277,-0.15128712453246115
1789700799742862000,6.765862060546875,0.43859008164219554,1.816554916936159,0.012664251261949538
1789700799752883000,6.775883056640625,0.43454292514324183,1.777680704140663,0.24387480733692646
1789700799762903800,6.78590380859375,0.32364275605678555,1.8008043900966644,0.4321697662711143
1789700799772925000,6.795925048828125,0.16623576040454208,1.800116992354393,0.5329951160669326
1789700799782945800,6.80594580078125,-0.0182685740750283,1.7642185804992914,0.5473778616845607
1789700799792967000,6.815966796875,-0.22407054812721908,1.718787785667181,0.5918342585265636
1789700799802987800,6.82598779296875,-0.44423890118412673,1.6117752716690301,0.583875408476591
1789700799813009000,6.8360087890625,-0.6390740755420178,1.3732067540466784,0.6103314537256955
1789700799823029800,6.84602978515625,-0.6661854428946972,1.0714204404890537,0.6792436619102954
1789700799833051000,6.85605078125,-0.6190986975491046,0.8148369582265615,0.7914239339351654
1789700799843072000,6.866072021484375,-0.5539758717101066,0.5836942066907882,1.0054597755864263
1789700799853092900,6.8760927734375,-0.4793406827688217,0.3531494210481643,1.331071493628621
1789700799863114000,6.886114013671875,-0.42901678213290867,0.11164835710525511,1.8126541101053355
1789700799873134800,6.896134765625,-0.397912107360363,-0.03849544261097908,2.345834227350354
1789700799883155700,6.90615576171875,-0.30317740258984266,-0.13459960910379887,2.8821941436752674
1789700799893176800,6.9161767578125,-0.1697475679177791,-0.21939619964063167,3.381330244760215
1789700799903197700,6.92619775390625,-0.07729132947325706,-0.307114230582118,3.789045076471567
1789700799913219000,6.936218994140625,0.03275076147913933,-0.465938180360198,4.24765247555226
1789700799923240000,6.946239990234375,0.172591851432994,-0.7023468896001577,4.713773319002986
1789700799933260800,6.9562607421875,0.3452455160558224,-0.871228123012185,5.132414326137304
1789700799943282000,6.966281982421875,0.5250255984924733,-0.9545341827303171,5.477823508322238
1789700799953302800,6.976302734375,0.7785118453919887,-0.87328914719522,5.6896665161043405
1789700799963324000,6.986323974609375,1.1005999924179166,-0.48974751049280163,5.748797334986925
1789700799973344800,6.9963447265625,1.3612591266214846,0.19003508059978483,5.712319661939143
1789700799983366000,7.006365966796875,1.4334228839479386,0.7804419366717338,5.907523085087537
1789700799993387000,7.016386962890625,1.255717854219675,0.7680880665332078,6.47610272475481
1789700800003408000,7.026407958984375,0.9913888723969458,0.29643793826699255,7.1185437194466585
1789700800013429000,7.036428955078125,0.9863548237524926,-0.22197511021792887,7.423902630794048
1789700800023449900,7.046449951171875,1.207374240680784,-0.41807402090132234,7.383752991235256
1789700800033471000,7.056470947265625,1.3296167647756636,-0.15318623615205287,7.025974741342663
1789700800043491800,7.066491943359375,1.2974480409681797,0.44001521907448765,6.608778672319651
1789700800053512700,7.0765126953125,1.2290192323863505,1.199685585874319,6.317835824337601
1789700800063533800,7.086533935546875,1.0792321371532976,1.912684802392125,6.081178693294524
1789700800073554700,7.0965546875,1.023699050501734,2.541231127244234,5.934886892831325
1789700800083576000,7.106576171875,1.0772726736485958,2.952020836356282,5.91205079164505
1789700800093597000,7.116596923828125,1.1701416576124728,3.1351877847522496,5.940053481814265
1789700800103617800,7.12661767578125,1.2962253673054278,3.0458319234758613,5.977884323036671
1789700800113639000,7.136638916015625,1.43196990866065,2.7901877678900955,5.964699847292899
1789700800123659800,7.14665966796875,1.5111973207630216,2.485999069365859,5.813052072754502
1789700800133681700,7.156681640625,1.584051982963085,2.1091443630814553,5.593018159732222
1789700800143701800,7.16670166015625,1.5909611778296529,1.6273942810833453,5.334628504830598
1789700800153724000,7.176723876953125,1.5888604061581193,1.0254407796025276,5.013735339742898
1789700800163745000,7.1867451171875,1.5911876800619065,0.35404140145182605,4.6625867371231315
1789700800173766000,7.196765869140625,1.6192612435102463,-0.2799351317554712,4.270115067251027
1789700800183786800,7.206786865234375,1.7686825741708279,-0.7785667904496193,3.8442762575671074
1789700800193808000,7.216807861328125,2.009871357294172,-1.1264631132751703,3.4028128855109214
1789700800203828700,7.226828857421875,2.2015746633671225,-1.4090712636321783,2.955519784387946
1789700800213849900,7.236849853515625,2.3212371078409255,-1.6378455324709416,2.499759006910026
1789700800223870700,7.24687060546875,2.387908697491884,-1.7242045500189065,2.0369880584090945
1789700800233891800,7.256891845703125,2.4252875571630894,-1.6783225042879582,1.574816537106037
1789700800243913000,7.266912841796875,2.354691487544775,-1.5432453408002853,1.079991284957528
1789700800253933800,7.276933837890625,2.264597959643602,-1.3644915326714515,0.6290244637578726
1789700800263955000,7.286954833984375,2.1551906594634054,-1.168396129119396,0.21222528509795666
1789700800273975800,7.296975830078125,2.014290488910675,-0.9839970085799693,-0.1647358041703701
1789700800283997000,7.306996826171875,1.8718086021244524,-0.8141986603230238,-0.5528799662321806
1789700800294017800,7.317017822265625,1.6761375614643097,-0.6353267787724733,-0.9005319589078425
1789700800304038700,7.32703857421875,1.4924782995067536,-0.4771043020188808,-1.2389537664234638
1789700800314060000,7.33706005859375,1.26922966222167,-0.38136604622900483,-1.6081529895186424
1789700800324081000,7.347080810546875,1.016570075404644,-0.3120323977619409,-1.9406120892375707
1789700800334102000,7.35710205078125,0.8515127841949462,-0.26047113735079763,-2.257964805239439
1789700800344123000,7.367122802734375,0.7183844166874885,-0.2595101833641529,-2.533534143000841
1789700800354143700,7.377143798828125,0.6430383760631084,-0.23697803356051445,-2.8244255530565976
1789700800364164900,7.387164794921875,0.597919131398201,-0.23522622145712374,-3.0737042652636766
1789700800374185700,7.397185791015625,0.5594586870353668,-0.3052665568888187,-3.289994900104403
1789700800384206800,7.407206787109375,0.5405424627065658,-0.38528643454313277,-3.461958317440748
1789700800394228000,7.41722802734375,0.5252360994379968,-0.6273205824494361,-3.5230180585592983
1789700800404248800,7.427248779296875,0.5220656527083367,-1.0458739113003015,-3.506328205043077
1789700800414270000,7.43727001953125,0.5561994660437106,-1.5698825878351925,-3.490405244246125
1789700800424290800,7.447290771484375,0.6742869162857532,-2.077357478198409,-3.5673160499691963
1789700800434312000,7.45731201171875,0.7752268323719501,-2.5187708736330268,-3.7468408424705264
1789700800444332800,7.467332763671875,0.8078701148886233,-2.976850157186389,-3.8595220497548577
1789700800454354000,7.47735400390625,0.7842717240929603,-3.3920775564849373,-3.8196728544473646
1789700800464374800,7.487374755859375,0.7131202856142074,-3.85265450207293,-3.591197860816121
1789700800474396000,7.49739599609375,0.6392684290703385,-4.264790949618816,-3.2763597579836845
1789700800484417000,7.5074169921875,0.6325941389381885,-4.643693236082792,-2.970048075956106
1789700800494438000,7.51743798828125,0.7213888592004776,-4.938728906336427,-2.7848721258252858
1789700800504458500,7.52745849609375,0.875461815059185,-5.035089093416929,-2.7423130870372057
1789700800514479400,7.537479248046875,1.0688741170071066,-5.130282574805617,-2.791199575281143
1789700800524500500,7.54750048828125,1.3141431551814078,-5.19614825490117,-2.9711417164117098
1789700800534521300,7.557521240234375,1.5623391867183147,-5.180098452854156,-3.234884422779083
1789700800544542200,7.567542236328125,1.7661143311180174,-5.178811335653067,-3.4543390746086833
1789700800554563300,7.577563232421875,1.8789621271409094,-5.452675623062253,-3.4046284105002877
1789700800564584200,7.587584228515625,1.88211752243191,-6.294285437402129,-3.0522324381679296
1789700800574605600,7.59760546875,1.7852620991803705,-7.177593289786577,-2.9645091465294358
1789700800584626400,7.60762646484375,1.5374834162726998,-7.658585246893763,-3.171213037857413
1789700800594647300,7.617647216796875,1.211599311029911,-7.81463564030528,-3.3837650706917044
1789700800604668400,7.62766845703125,0.9527940610647201,-7.5036606426417825,-3.8132857837587593
1789700800614689300,7.637689208984375,0.9210603676736354,-6.714187258252501,-4.592287458494305
1789700800624710400,7.64771044921875,0.9777578219294547,-5.581815213194489,-5.582658678281307
1789700800634731300,7.657731201171875,0.850042200185731,-4.347929251554608,-6.187569276002049
1789700800644752400,7.66775244140625,0.6154008659444749,-3.3102637811511753,-6.0998266951411955
1789700800654773500,7.6777734375,0.24878654477596282,-2.6014234378784895,-5.48369561522603
1789700800664794400,7.68779443359375,-0.30758842396512626,-2.2276368869930505,-4.645516944378614
1789700800674815500,7.6978154296875,-0.941471872061491,-2.0366075346589088,-3.6269530648082493
1789700800684836400,7.70783642578125,-1.4900772297143936,-1.9732792640864847,-2.5604770949840545
1789700800694857500,7.717857421875,-1.8849357947230339,-2.02360601426661,-1.611870548737049
1789700800704878300,7.72787841796875,-2.116779388004541,-2.1120254714757203,-0.8164315339416265
1789700800714899200,7.737899169921875,-2.1817875744879243,-2.091294233614206,-0.25012802251279354
1789700800724920300,7.74792041015625,-2.1395172895133494,-2.091910319685936,0.1170388179719448
1789700800734941400,7.75794140625,-2.1016683281123636,-2.1148656633377074,0.2742074017584324
1789700800744962600,7.767962646484375,-2.004775641590357,-2.0476889006435868,0.19736790770590304
1789700800754983400,7.7779833984375,-1.9062474628210067,-1.8198849381417035,-0.07555646850466728
1789700800765004300,7.78800439453125,-1.8092858027160166,-1.3994219762772322,-0.4550122971981764
1789700800775025400,7.798025390625,-1.6688099950551987,-0.9037789780050516,-0.8536217391729355
1789700800785046300,7.80804638671875,-1.5169278272390365,-0.41226095070838925,-1.2019319034963845
1789700800795067400,7.8180673828125,-1.404272923439741,0.06320902810692787,-1.4894547139018772
1789700800805088300,7.828088134765625,-1.3783435324132443,0.4951742117166519,-1.7646996420145034
1789700800815109400,7.838109375,-1.2935107015192508,0.8520517133772373,-1.947577252075076
1789700800825130500,7.848130615234375,-1.147096151459217,1.075276531395316,-2.0171908865273
1789700800835151400,7.8581513671875,-0.9856383460462093,1.2042162150412796,-1.9744775339603422
1789700800845172500,7.86817236328125,-0.8172481110215186,1.2534879032105206,-1.8986568615615367
1789700800855193300,7.878193359375,-0.6624106005311012,1.2436895627737043,-1.7887527177751064
1789700800865214500,7.88821435546875,-0.545082955680415,1.1379618278890848,-1.6657558681815863
1789700800875235300,7.8982353515625,-0.42262686190009113,1.0312877520650625,-1.562492477583885
1789700800885256200,7.908256103515625,-0.3259504484772682,0.861414585006237,-1.4778162985563277
1789700800895277300,7.91827734375,-0.19572952938172966,0.7211655718386173,-1.378659174233675
1789700800905298400,7.92829833984375,-0.042079730838537215,0.6056295596450567,-1.256004854467511
1789700800915319600,7.938319580078125,0.042401217877864834,0.494825252148509,-1.0683177982985972
1789700800925340400,7.94834033203125,0.10941088037677109,0.44692952850759027,-0.8938584724932909
1789700800935361300,7.958361328125,0.14488317577429116,0.47591421545147894,-0.6597673925459384
1789700800945382400,7.96838232421875,0.2752945394080132,0.5459831924557685,-0.36985681022107597
1789700800955403300,7.9784033203125,0.4433797270715236,0.6733353146493435,-0.08097907807528971
1789700800965424400,7.98842431640625,0.6365139427304267,0.8397633096903562,0.16999942378699778
1789700800975445200,7.9984453125,0.8670049523591995,0.9891185893774032,0.4570125311046839
1789700800985466400,8.00846630859375,1.1088451120633631,1.0870534784287214,0.7537742944985628
1789700800995487500,8.018487548828125,1.264207450145483,1.1489724667251109,1.0621382328808306
1789700801005508400,8.02850830078125,1.3950361624084413,1.163724630177021,1.3725187717825174
1789700801015529500,8.038529541015626,1.5200035814225672,1.1536486418426035,1.6198293987870216
1789700801025550300,8.04855029296875,1.552229442244768,1.0502981574833392,1.7977800738394258
1789700801035572200,8.058572265625,1.5349194110035895,0.8767097692936658,1.9950775466576218
1789700801045592300,8.06859228515625,1.4049310950875282,0.5609726717948913,2.2516081296890973
1789700801055614500,8.078614501953124,1.2105508248902856,0.11689619463086127,2.6005931245341896
1789700801065634600,8.088634521484375,1.0520716699618846,-0.3629343174815178,2.9248189411759373
1789700801075656400,8.098656494140625,0.9553120352350175,-0.8098129925847053,3.1909470813751217
1789700801085677300,8.10867724609375,0.9844377380847931,-1.2390776850640772,3.4941347861632703
1789700801095698400,8.118698486328125,1.03660266347751,-1.6192214960217475,3.7831487119093534
1789700801105719300,8.12871923828125,1.1790566393435,-1.8325217168748378,4.0977646964237096
1789700801115740400,8.138740478515626,1.430800864881277,-1.8098422675549983,4.514236542825401
1789700801125761300,8.14876123046875,1.7011388778604566,-1.7991145373135804,5.121368031466007
1789700801135782400,8.158782470703125,1.7972328152202068,-2.0421692604392767,6.087466979783773
1789700801145803500,8.168803466796875,1.792520545876026,-2.484305124929547,7.143212881278991
1789700801155824400,8.178824462890624,1.8219545840226112,-2.6871932573616504,7.909936089199781
1789700801165845500,8.188845458984375,2.066263837254047,-2.5076211185872554,8.191699020904302
1789700801175866400,8.198866455078125,2.276457908785343,-1.875856416210532,7.974868287837505
1789700801185887200,8.20888720703125,2.3915876782655716,-0.8626233762741088,7.485664967224001
1789700801195908400,8.218908447265624,2.4130605282746256,0.2888385691791773,6.796667388540506
1789700801205929200,8.22892919921875,2.2162030543088913,1.3610481142193078,6.1864779736340045
1789700801215950600,8.23895068359375,1.8464543806374072,2.213107426381111,5.826477956038713
1789700801225971500,8.248971435546874,1.3764029197394847,2.800110026967525,5.771086323684454
1789700801235992300,8.258992431640625,0.9871114142734557,3.0959055756777523,5.882333698773384
1789700801246013400,8.269013427734375,0.7041736666359006,3.13513108612895,6.045244625604153
1789700801256034300,8.279034423828126,0.5029167886674404,3.0011165834367275,6.2612102662742135
1789700801266055400,8.289055419921874,0.3622258769512176,2.718813553506136,6.44971273047924
1789700801276076300,8.299076171875,0.2686030789453536,2.328245963689685,6.545822742190957
1789700801286097400,8.309097412109375,0.14040325388126074,1.7793612045735119,6.586482669359445
1789700801296118300,8.3191181640625,0.0010287585258483885,1.2411860555201768,6.544252131873368
1789700801306139400,8.329139404296875,-0.008626447113230825,0.5926847378760576,6.406303212341665
1789700801316160500,8.339160400390625,0.09445406119823455,-0.1630664096534252,6.1501511072337625
1789700801326181400,8.349181396484376,0.2712533011931926,-0.829888396885991,5.836155300444364
1789700801336202500,8.359202392578124,0.595927080798149,-1.3207073360025883,5.431688364613056
1789700801346223400,8.369223388671875,1.0076654689371585,-1.6371873608231544,4.873278529043495
1789700801356244200,8.379244140625,1.4156909740328787,-1.749621899870038,4.1673040965959425
1789700801366265300,8.389265380859374,1.7067513109147547,-1.8916911142021418,3.4116792057946324
1789700801376286200,8.3992861328125,1.8882406814873218,-1.889814214414358,2.5909064277783034
1789700801386307600,8.4093076171875,2.1854946123123167,-1.7944868775129317,1.8532129149869083
1789700801396328400,8.419328369140626,2.4537223551392553,-1.4404524903237819,1.2187480137407778
1789700801406349300,8.429349365234375,2.5081319907188413,-0.7457499779969453,0.59100189935565
1789700801416370400,8.439370361328125,2.43978267711401,-0.07364508192539215,0.11543927382081746
1789700801426391300,8.449391357421876,2.2481728945434094,0.38222646245062347,-0.1799915332302451
1789700801436412400,8.459412353515624,2.0110522376418114,0.6549556083500385,-0.36310090622007846
1789700801446433300,8.469433349609375,1.7607026813328266,0.804345374828577,-0.385196418172121
1789700801456454400,8.479454345703125,1.4063444690167903,0.8637854057908058,-0.5056237095385789
1789700801466475500,8.4894755859375,1.0077157378196715,0.8012035696715116,-0.7258955229699611
1789700801476496400,8.499496337890625,0.6996177568972111,0.672470806774497,-0.9507277761846781
1789700801486517500,8.509517578125,0.42103458773996677,0.49552960102558136,-1.2839473388820886
1789700801496538400,8.519538330078126,0.19607439729664475,0.3909896146208048,-1.744589750921726
1789700801506559500,8.5295595703125,-0.013714016043208538,0.3603980770021677,-2.2436329130262136
1789700801516580400,8.539580322265625,-0.1836216881598346,0.2729395737797022,-2.6905799771904944
1789700801526601200,8.549601318359375,-0.3305377762675285,0.1522352190375328,-3.113500853601098
1789700801536622600,8.55962255859375,-0.42856443525552745,0.052635611644387244,-3.5123721613824364
1789700801546643500,8.5696435546875,-0.48912090302705763,-0.1791232259631157,-3.812935655146837
1789700801556664600,8.57966455078125,-0.5471440529286861,-0.6430027202278376,-4.115824961510301
1789700801566685400,8.589685546875,-0.6194400583326816,-1.2221376561790704,-4.3854386057376855
1789700801576706300,8.599706298828124,-0.6168553025364876,-1.8076964876979589,-4.575757179453968
1789700801586727400,8.6097275390625,-0.5701847367763518,-2.4556243893682956,-4.754249706298112
1789700801596748300,8.619748291015625,-0.4756161092877388,-2.959513237938285,-4.99138965242207
1789700801606769400,8.629769287109376,-0.3497755607008934,-3.3314012617260214,-5.104693960040807
1789700801616790300,8.639790283203125,-0.18922608403814956,-3.807001004400849,-5.067438288357853
1789700801626811400,8.649811279296875,-0.20585575006604193,-4.2864398868471385,-4.868007602903247
1789700801636832500,8.65983251953125,-0.3314426161527633,-4.857871993336081,-4.438198720544577
1789700801646853400,8.669853271484374,-0.3923509661018848,-5.420332273340225,-3.976017262369394
1789700801656874500,8.67987451171875,-0.3466518757224083,-5.813356024137139,-3.5903818682581186
1789700801666895400,8.689895263671875,-0.2072515518059954,-6.060368544977903,-3.3785657484829423
1789700801676916500,8.69991650390625,-0.0798818939557299,-6.0438721682071685,-3.366832056069374
1789700801686937300,8.709937255859375,0.05156652110815048,-5.858332645460963,-3.492361639010906
1789700801696958200,8.719958251953125,0.14954649141021073,-5.565376119568944,-3.6945629582226274
1789700801706979600,8.7299794921875,0.19872107588052748,-5.530698189419508,-3.667452248457074
1789700801717000400,8.74000048828125,0.12918518283963204,-6.117329618605971,-3.276621623790264
1789700801727021600,8.750021484375,-0.060909592058137056,-6.672201050916314,-3.0915935576975344
1789700801737042400,8.76004248046875,-0.12627082976289092,-6.859348008859157,-3.1876527160048482
1789700801747063300,8.770063232421874,-0.009776713126897811,-6.95647158152759,-3.5193192040413614
1789700801757084400,8.78008447265625,0.2142190161984414,-6.968655355796217,-3.9738124458014963
1789700801767105300,8.790105224609375,0.5491325233321637,-6.5819707448929545,-4.597983039787412
1789700801777126400,8.80012646484375,1.0231950465023516,-5.589626179206371,-5.432777913415432
1789700801787147500,8.8101474609375,1.6304232735157012,-4.236184448337554,-6.174863523685932
1789700801797168400,8.82016845703125,2.096574804365635,-2.8288568135023113,-6.440629260313511
1789700801807189500,8.830189453125,2.309565228617191,-1.8235533975213765,-5.974308802637458
1789700801817210400,8.84021044921875,2.2713035947620868,-1.4625760593265293,-4.884660047018528
1789700801827231500,8.8502314453125,1.879379329639673,-1.6282266402542591,-3.7295898479402063
1789700801837252400,8.86025244140625,1.292632895771414,-2.103528861287236,-2.45298585755825
1789700801847273500,8.8702734375,0.6530407146394253,-2.6040502792507407,-1.3085118712961672
1789700801857294300,8.88029443359375,0.006228701789118349,-2.9360253948450086,-0.43537820692360396
1789700801867315500,8.8903154296875,-0.5340355650305748,-3.104560006776452,0.04621639225184917
1789700801877336600,8.900336669921876,-0.9105378046154975,-3.1090666705459356,0.32241526008844373
1789700801887357400,8.910357421875,-1.2534604306817054,-3.1368232769995927,0.5003045603424311
1789700801897378600,8.920378662109375,-1.4241583581268786,-3.044593906113505,0.44898412294983864
1789700801907399400,8.9303994140625,-1.4561784672439098,-2.5952228296726942,0.1920399906814098
1789700801917420300,8.940420166015626,-1.4197627535164354,-2.0326655190348624,-0.012225275322794913
1789700801927441400,8.95044140625,-1.2533879499673843,-1.4818980149120091,-0.1730751779705286
1789700801937462300,8.960462158203125,-0.9595745149850845,-0.8958914396256208,-0.3173614838302135
1789700801947483400,8.9704833984375,-0.6480255168259144,-0.2892477345019579,-0.5056716403335333
1789700801957504500,8.98050439453125,-0.3331529272019863,0.2753898895412683,-0.6133984400808811
1789700801967525400,8.990525390625,-0.06427285794615745,0.8003998520731925,-0.7112865673810244
1789700801977546500,9.00054638671875,0.10673603514432907,1.2632014879733324,-0.7455144156754017
1789700801987567400,9.0105673828125,0.17947160100936888,1.6814719082295895,-0.7344669519603252
1789700801997588500,9.02058837890625,0.16742752747237682,2.020895586264133,-0.7181418401032685
1789700802007609300,9.030609375,0.11341068146950564,2.3630121566444635,-0.63109951646626
1789700802017630500,9.04063037109375,0.0570814851373434,2.6675913157910105,-0.6008487551093101
1789700802027651300,9.0506513671875,-0.052035892185568804,2.895302339312434,-0.5754173767328262
1789700802037672400,9.06067236328125,-0.22183192062126472,2.9959271981000897,-0.5718810193002224
1789700802047693600,9.070693603515625,-0.4577689024299383,3.019149668255448,-0.6285729205980897
1789700802057714400,9.08071435546875,-0.7179723287552595,2.9649779330849646,-0.7261760934770107
1789700802067735600,9.090735595703125,-0.9575866291034966,2.809080684408545,-0.7502046193182468
1789700802077756400,9.10075634765625,-1.1111387028932571,2.5289549985170363,-0.7816758623808622
1789700802087777300,9.11077734375,-1.173538168182969,2.1137615014880895,-0.8643018308803438
1789700802097798400,9.12079833984375,-1.182260988342762,1.701114766332507,-0.9218810364067553
1789700802107819300,9.1308193359375,-1.1878250522106886,1.27894675411582,-0.8868582383424043
1789700802117840600,9.140840576171875,-1.1292694028675556,0.8265548685491084,-0.724476596082747
1789700802127861500,9.150861572265624,-0.9536199904948472,0.3593582125604152,-0.49281712719649073
1789700802137882400,9.16088232421875,-0.6257552328288555,-0.10263619861006736,-0.25821166798621414
1789700802147903500,9.170903564453125,-0.17576224336372687,-0.45165772607326504,0.06058657064884901
1789700802157924400,9.18092431640625,0.5353881121506914,-0.9158476014614104,0.50871758390069
1789700802167945500,9.190945556640624,1.3904407974421977,-1.584967928764224,0.9224500684663652
1789700802177966300,9.20096630859375,1.7404922524750233,-2.015023479360342,1.3476435659840702
1789700802187987200,9.2109873046875,1.7547312057077884,-2.11288413413167,1.771751606352627
1789700802198008300,9.22100830078125,1.6828163085758685,-1.9972715495705604,2.3361279491111633
1789700802208029400,9.231029541015625,1.4316039979577064,-1.8777508516550063,2.948218229202926
1789700802218050600,9.241050537109375,1.0856816786188632,-1.8439806840002535,3.4238889912873502
1789700802228071400,9.251071533203126,0.882310073518753,-1.9143004208952188,3.6888165235251185
1789700802238092500,9.261092529296874,0.8852864589810371,-1.959640030312538,3.8566274973571297
1789700802248113400,9.271113525390625,0.9574048427958041,-1.9303695121645927,4.042497859492898
1789700802258134300,9.28113427734375,0.965042205806449,-1.8587907151192427,4.324451929855346
1789700802268155400,9.2911552734375,0.9396260980643332,-1.6647317858308552,4.797635551299154
1789700802278176300,9.30117626953125,0.9545254879672079,-1.2505413283646105,5.266521183288097
1789700802288197600,9.31119775390625,0.9369231227159499,-0.6796545807987451,5.708655294212699
1789700802298218500,9.321218505859376,0.8748432447694241,-0.16523030968904495,6.302883754399418
1789700802308239400,9.3312392578125,0.6411876336298883,0.10698971764445304,7.088875726413726
1789700802318260500,9.341260498046875,0.35205037376508114,0.10960896023213863,7.856454674381017
1789700802328281300,9.35128125,0.26299517593570054,0.07647709048092365,8.332504498910904
1789700802338302500,9.361302490234374,0.3104091804742813,0.13594284040629864,8.478055125617981
1789700802348323300,9.3713232421875,0.3495791613459587,0.2537204940468073,8.459041797590256
1789700802358344200,9.38134423828125,0.3597907587587833,0.4644400507569313,8.40776227672994
1789700802368365600,9.391365478515626,0.42445290828347204,0.9026695554584264,8.222614383649825
1789700802378386400,9.401386474609374,0.5375848550099879,1.5138561647087334,7.913939479622244
1789700802388407600,9.411407470703125,0.6328560047447681,2.133563349545002,7.678927777698636
1789700802398428400,9.421428466796876,0.7002851347647607,2.5798937431156634,7.656383352935314
1789700802408449500,9.431449462890624,0.8366587678037584,2.7826141177654264,7.9100781280189745
1789700802418470400,9.441470458984375,1.0478326441526413,2.7625504039019346,8.236720065891742
1789700802428491300,9.4514912109375,1.3907821582257747,2.6423674426853654,8.422267187422513
1789700802438512400,9.461512451171876,1.8337375224053858,2.3856086038559674,8.371617196637391
1789700802448533200,9.471533203125,2.2495054583214222,1.9502689753770828,8.173340357393025
1789700802458554600,9.4815546875,2.491515202438831,1.3618915793061255,7.863525051158666
1789700802468575500,9.491575439453126,2.5918355253219603,0.6789993317604065,7.489274389892816
1789700802478596400,9.501596435546874,2.5473791284799576,-0.016921324184536932,6.989144017073512
1789700802488617500,9.511617431640625,2.4593957246005536,-0.6755272717356682,6.431942095988989
1789700802498639400,9.521639404296875,2.439123190291971,-1.118522383403778,5.779904420912265
1789700802508660200,9.53166015625,2.4855963337838647,-1.4406757776856423,5.022435363548993
1789700802518681300,9.541681396484375,2.547825703203678,-1.698779601383209,4.229722851108014
1789700802528702200,9.5517021484375,2.616151635932922,-1.757898729828,3.4220775579512117
1789700802538723600,9.5617236328125,2.7030957598924634,-1.693699521639943,2.6023554580315946
1789700802548744400,9.571744384765625,2.7785844238579274,-1.509472250536084,1.8201035493284463
1789700802558765300,9.581765380859375,2.7698481596946714,-1.2672668377161025,1.1645853386595844
1789700802568786400,9.591786376953126,2.7280641969323156,-1.02552962692976,0.6005564941644668
1789700802578807300,9.601807373046874,2.5829507925987243,-0.8350766131788492,0.18183949918448924
1789700802588828400,9.611828369140625,2.4071941204592586,-0.7698252655893564,-0.12008096214681863
1789700802598849300,9.621849365234375,2.2489912251889703,-0.7377893743813038,-0.3742968384951353
1789700802608870100,9.6318701171875,2.0615069981157776,-0.803267516463995,-0.5721984146863222
1789700802618891500,9.6418916015625,1.8713306093491613,-0.935007644483447,-0.8188993853598833
1789700802628912400,9.651912353515625,1.6476606779120861,-1.1362328121393919,-1.0796505086958408
1789700802638933500,9.66193359375,1.3893009797573088,-1.4025398160368203,-1.2976035237908363
1789700802648954400,9.671954345703124,1.1715489671271293,-1.6718594457536935,-1.5286515827804803
1789700802658975500,9.6819755859375,0.9452245025932788,-1.9123516249150037,-1.7921791850924491
1789700802668996400,9.691996337890625,0.7556418419361114,-2.2315040838152167,-2.103475085273385
1789700802679017200,9.702017333984376,0.5646106629710644,-2.550485277801752,-2.393727612903714
1789700802689038300,9.712038330078125,0.4514332696676254,-2.8181518796145912,-2.6580209388911724
1789700802699059500,9.7220595703125,0.4707447038590908,-3.0269933674931524,-2.9612802476108073
1789700802709080600,9.73208056640625,0.523592423884198,-3.0880998703628775,-3.28347397390306
1789700802719101400,9.742101318359374,0.5521276865601539,-3.113898328486085,-3.486039450252056
1789700802729122300,9.752122314453125,0.5343734186828136,-3.0793682823747393,-3.5933944940775633
1789700802739143400,9.762143310546875,0.5768973861575126,-2.9329595775336026,-3.6713954331248995
1789700802749164300,9.772164306640626,0.6393452936988323,-2.8633967964857816,-3.659800272399187
1789700802759185400,9.782185302734375,0.6591408581454307,-3.0366221965819595,-3.525696337857842
1789700802769206300,9.792206298828125,0.549295166547969,-3.395101872742176,-3.262718186122179
1789700802779227100,9.80222705078125,0.40646139758415517,-3.8369787940353155,-3.0237872649282216
1789700802789248500,9.81224853515625,0.2952257129330188,-4.236840281897783,-2.977297900953889
1789700802799269400,9.822269287109375,0.20343217618092893,-4.648498006016016,-3.0747949831098316
1789700802809290500,9.83229052734375,0.15039397508502006,-5.132004576292633,-3.2472815475374457
1789700802819311400,9.842311279296876,0.13466215294599532,-5.458870386049151,-3.5860143206983803
1789700802829332200,9.852332275390625,0.07647752887234091,-5.669795109942555,-4.01487218594253
1789700802839353300,9.862353271484375,-0.010673369705677033,-5.797153661876917,-4.452749808466434
1789700802849374200,9.872374267578126,-0.017733225089311598,-5.718181831970811,-4.937147774624824
1789700802859395300,9.882395263671874,0.020282763441652057,-5.563208127880096,-5.381415974968672
1789700802869416400,9.89241650390625,0.05014971311278641,-5.6244099078178404,-5.578852856257558
1789700802879437600,9.9024375,0.010870938104391097,-6.251783681759238,-5.357784339490532
1789700802889458400,9.91245849609375,-0.2107108619470149,-6.957455331867933,-5.174006565719843
1789700802899479300,9.922479248046875,-0.5205203229624777,-7.2722946037441485,-5.201215475162863
1789700802909500400,9.93250048828125,-0.7651811661105603,-7.310859604460001,-5.345439821702241
1789700802919521300,9.942521240234376,-0.9175275904376059,-7.189014847511053,-5.496048316320777
1789700802929542400,9.95254248046875,-0.9007190789777785,-6.889307093793153,-5.8498927338957785
1789700802939563300,9.962563232421875,-0.6402538599111139,-6.224741361054778,-6.382692619651555
1789700802949584400,9.97258447265625,-0.09158047852329909,-5.273330863302946,-6.8953720929205415
1789700802959605500,9.98260546875,0.5911703147251158,-4.309169020527601,-7.112049096730351
1789700802969626400,9.99262646484375,1.2674129681885242,-3.4340956202641126,-6.864667742577195
1789700802979647500,10.0026474609375,1.7052864990592003,-2.7121932585835453,-6.1999114557027815
1789700802989668400,10.01266845703125,1.7194821976721286,-2.237999291053414,-5.2513651152104135
1789700802999689200,10.022689208984374,1.3174971417844294,-2.0192051489591596,-4.205782295811176
1789700803009710300,10.03271044921875,0.7101904427073895,-1.9464216522991655,-3.2084728011935946
1789700803019731200,10.042731201171875,0.019395678408816456,-2.015610923859477,-2.294456506812572
1789700803029752300,10.05275244140625,-0.5228606755435466,-2.149145534080267,-1.6099895572960377
1789700803039773400,10.0627734375,-0.9961902813293039,-2.344899576848745,-1.1559984198391438
1789700803049794600,10.072794677734375,-1.3049158926308155,-2.587320678246021,-0.899663943901658
1789700803059815400,10.0828154296875,-1.4937830984950065,-2.744311567378044,-0.8210317212134599
1789700803069836300,10.092836181640624,-1.592795261389017,-2.756195481917262,-0.8595166424304247
1789700803079857400,10.102857421875,-1.5516965044118463,-2.6677777782738206,-0.9598258593976497
1789700803089878300,10.112878173828125,-1.4999838528312741,-2.443472763803601,-1.1531307554483412
1789700803099899400,10.1228994140625,-1.4140589889168738,-2.108548150753975,-1.3483774332165717
1789700803109920300,10.132920166015625,-1.2696411656320095,-1.6803694999456404,-1.4807055902570485
1789700803119941400,10.14294140625,-1.090931854232028,-1.190500408899784,-1.5466601176798342
1789700803129962500,10.15296240234375,-0.8767583576757461,-0.7474106046855449,-1.473768484470248
1789700803139983400,10.1629833984375,-0.70186940828152,-0.33549802902340886,-1.3517869493991135
1789700803150004500,10.17300439453125,-0.5210124173283577,0.040704935353994366,-1.2837129456043244
1789700803160025300,10.183025390625,-0.45820787836909294,0.3711848439544439,-1.23888596188426
1789700803170046200,10.193046142578124,-0.4956652101039886,0.5911795940101147,-1.1666887406796216
1789700803180067300,10.2030673828125,-0.5114671018045396,0.7161170562773943,-1.1212035853117703
1789700803190088200,10.213088134765625,-0.47736967495679855,0.8414099078536034,-1.0831956339567899
1789700803200109600,10.223109619140626,-0.37857261611819265,0.9358429262638092,-1.0517202992409467
1789700803210130400,10.23313037109375,-0.2212859589099884,0.9869470905572175,-1.0052449637919665
1789700803220151600,10.243151611328125,-0.09564173661284148,0.966916109919548,-0.9784434661060571
1789700803230172400,10.25317236328125,-0.0038940848290920254,0.9238011908143758,-0.8704887028217315
1789700803240193300,10.263193359375,0.04983516727089882,0.8275818735092878,-0.6925134778499603
1789700803250214400,10.27321435546875,0.08689619316458702,0.6519207706987857,-0.5196586646318435
1789700803260236300,10.283236328125,0.09752747729420662,0.49806350341737265,-0.32244273261725903
1789700803270256400,10.29325634765625,0.11042663329057395,0.358413040664792,-0.07468669993281364
1789700803280277500,10.303277587890625,0.15388941598534583,0.16384499281048773,0.2115472397059202
1789700803290298400,10.31329833984375,0.2427962913852185,-0.12810790899693966,0.48786944166123863
1789700803300319500,10.323319580078126,0.30175832957215604,-0.34210137281119823,0.714827016466856
1789700803310340400,10.33334033203125,0.36596455202288924,-0.4639116429686546,1.0414449889421462
1789700803320361500,10.343361572265625,0.47974290689416227,-0.5608119282752275,1.5007038376688957
1789700803330382300,10.35338232421875,0.4407038589257747,-0.6583499269634485,1.9518428005650639
1789700803340403200,10.3634033203125,0.2941946893848479,-0.8317232110977172,2.409712533020973
1789700803350424300,10.37342431640625,0.1199146656692028,-1.1151695658445357,2.92041339969337
1789700803360445200,10.383445068359375,0.02193593747615814,-1.6520394775182008,3.4995208631157873
1789700803370466600,10.393466552734376,0.1438378314398229,-2.359196982270479,3.9907422455534336
1789700803380487400,10.4034873046875,0.41985374392494557,-2.969056142309308,4.1872865619167685
1789700803390508300,10.41350830078125,0.5428022243320941,-3.2125574401587245,4.49083170184046
1789700803400529400,10.423529296875,1.0238298372745513,-2.947135986924171,4.691902263456583
1789700803410550300,10.43355029296875,0.9446879114985466,-2.049005243939161,4.5557662385657425
1789700803420571400,10.4435712890625,0.7134193416260183,-0.8989829759001732,5.060790520906448
1789700803430592300,10.45359228515625,0.7689290474019944,0.04764905540347099,5.5119502343297
1789700803440613400,10.46361328125,1.1669571823574603,0.724560474973917,6.123733640429378
1789700803450634500,10.473634521484374,1.7543620801344513,1.0290274059176445,7.084550264430046
1789700803460655400,10.4836552734375,1.8301916664920745,0.6283323898404837,8.110593101578951
1789700803470676500,10.493676513671875,1.8214752760730684,0.06665186203718185,8.96728533423841
1789700803480697300,10.503697265625,2.1394040383972226,-0.06272738206982613,9.593597616428136
1789700803490718500,10.513718505859375,2.593059514158964,0.2501549105197191,9.952206471925974
1789700803500738600,10.523738525390625,2.8530092579841613,0.6335644452750683,9.96181951892376
1789700803510759700,10.533759765625,2.9273966827094555,0.8516197517007589,9.713637369781733
1789700803520780500,10.543780517578124,2.938608104814589,0.9801374105423688,9.157470636963843
1789700803530801700,10.5538017578125,2.920138674405217,1.3654524866580962,8.40009919475615
1789700803540822800,10.56382275390625,2.916847231644392,1.9324597624421118,7.669062217244505
1789700803550843600,10.57384375,2.923898903721571,2.488395609113574,7.142591534510254
1789700803560864800,10.58386474609375,2.8701626373589035,2.9513071351289746,6.831150672900677
1789700803570885600,10.5938857421875,2.6995968118607996,3.1096283960819244,6.678634298834204
1789700803580906800,10.60390673828125,2.44642649904266,2.8879847097754476,6.463437304449081
1789700803590927600,10.613927734375,2.321571454361826,2.39384685536921,6.155723938930034
1789700803600948500,10.623948486328125,2.314787347179651,1.7211369791418314,5.701113208270073
1789700803610969900,10.633969970703125,2.266743154978752,1.104143144917488,5.175363825547695
1789700803620990700,10.64399072265625,2.176442560198158,0.5611760854125023,4.706487253648042
1789700803631011800,10.65401171875,2.1647874859787524,0.046433249872922897,4.307890963415801
1789700803641032700,10.66403271484375,2.2548446273922917,-0.42164311155974865,4.022369555960595
1789700803651053600,10.674053466796876,2.425204555054754,-0.7566600790679454,3.802982416409254
1789700803661074700,10.68407470703125,2.6673686129510403,-0.9000754473119974,3.6197462021693587
1789700803671095600,10.694095458984375,2.8577064758896826,-0.8510241238951682,3.3469755552157756
1789700803681116700,10.70411669921875,2.9489722624406216,-0.8461685005575418,3.0384552572280166
1789700803691137500,10.714137451171876,2.8878397483468055,-0.9137900844097137,2.6743562798812985
1789700803701158700,10.72415869140625,2.793623003035784,-0.8178834863156079,2.2236869803234933
1789700803711179800,10.7341796875,2.675136908864975,-0.5114087226808071,1.7554469527617096
1789700803721200600,10.74420068359375,2.4193185657560825,-0.17764321653842924,1.3150059094905853
1789700803731221800,10.7542216796875,2.1088941877126692,0.04457213217616081,0.9305331294178962
1789700803741242600,10.76424267578125,1.8484674740254878,0.1428507200986147,0.6548959871172905
1789700803751263700,10.774263671875,1.5723508776448667,0.15113047266602514,0.39350364326834675
1789700803761284600,10.78428466796875,1.2625859864234923,0.12728139504492283,0.19304361476600168
1789700803771305500,10.794305419921875,0.931027634936571,0.07145780101418495,0.10189327128827572
1789700803781326800,10.804326904296875,0.6359644921541213,-0.08882336183488368,0.18906185165345668
1789700803791347700,10.81434765625,0.37389644100069996,-0.4582791900396347,0.38482816938161846
1789700803801368800,10.824368896484375,0.1975053434152156,-0.8490724053055048,0.4384714967638254
1789700803811389700,10.8343896484375,0.12838204976320267,-1.139677399635315,0.20776362951397895
1789700803821410600,10.84441064453125,0.02029818020649254,-1.3157459142029284,-0.2818681456446647
1789700803831431700,10.854431640625,-0.08680150061845779,-1.5469862808942794,-0.8510977736532688
1789700803841452500,10.86445263671875,-0.08773666257672011,-1.7894658344805239,-1.3438129017800091
1789700803851473700,10.8744736328125,0.05743044470548629,-2.160383551931381,-1.7348247282326221
1789700803861494800,10.884494873046876,0.36671135180220005,-2.42322083389163,-2.0787685140401124
1789700803871515600,10.894515625,0.6307819749496877,-2.559377609309554,-2.4689129100084304
1789700803881536800,10.904536865234375,0.7324842537105083,-2.685455473783612,-2.8478309785634277
1789700803891557600,10.9145576171875,0.7292657300554215,-2.869708463850617,-3.113617757979035
1789700803901578800,10.924578857421874,0.6881155351519584,-3.1634745525598524,-3.2927573505550622
1789700803911599600,10.934599609375,0.6818037216566503,-3.4583015484988686,-3.447730470123887
1789700803921620500,10.944620361328125,0.7496634981788695,-3.777295017445087,-3.5326872196584937
1789700803931641600,10.9546416015625,0.8537094174563884,-4.092435318094492,-3.5660254256367683
1789700803941662500,10.964662353515624,0.9319969183601439,-4.492187792624533,-3.5016309871375557
1789700803951683800,10.974683837890625,0.8909938768424093,-5.023531926614046,-3.26870252122879
1789700803961704700,10.98470458984375,0.729028852559626,-5.5782572284519665,-3.1079899812251326
1789700803971725800,10.994725830078124,0.46110579176768657,-6.033970367395877,-3.1121178748100995
1789700803981746700,11.00474658203125,0.10435337779149413,-6.424192504775524,-3.2036592634320256
1789700803991767600,11.014767578125,-0.151067344301939,-6.676275753009319,-3.361625135076046
1789700804001788700,11.02478857421875,-0.22401918326616285,-6.806732270959019,-3.5766362515002488
1789700804011809500,11.0348095703125,-0.14589797884002326,-6.7873220525681965,-3.8576013108253475
1789700804021830700,11.04483056640625,0.008029138807207346,-6.466808242186904,-4.219740094015002
1789700804031851800,11.054851806640626,0.16140388326868413,-5.976371580386162,-4.504561244246363
1789700804041872600,11.06487255859375,0.29054025853052734,-5.566265177363157,-4.623136185744404
1789700804051893800,11.074893798828125,0.20445655079260466,-5.63427546827197,-4.399673467317223
1789700804061914600,11.08491455078125,-0.0628406331859529,-6.3233151325315236,-3.893589739051461
1789700804071935700,11.094935791015626,-0.3658721244990825,-6.969602865779399,-3.6107004336655137
1789700804081956600,11.10495654296875,-0.4688366782806813,-7.330328859561681,-3.5202328117549415
1789700804091977500,11.1149775390625,-0.4234520606778562,-7.668399369421601,-3.570882218018174
1789700804101998600,11.12499853515625,-0.18428689233660697,-7.8485320646882055,-3.8627567938923835
1789700804112019700,11.135019775390624,0.3740891870938241,-7.471402048593759,-4.492743965202569
1789700804122040800,11.145040771484375,1.1075614289283753,-6.363796780523657,-5.28684325582683
1789700804132061700,11.155061767578125,1.7301964839100836,-4.918598556977511,-5.747748118194937
1789700804142082800,11.165082763671874,2.0662195597209037,-3.7556343897789715,-5.654206495666504
1789700804152103700,11.175103759765625,2.1047069651558994,-2.9421356944188473,-5.171890011957288
1789700804162124500,11.18512451171875,1.7654593743406235,-2.5900264300733804,-4.433578659528494
1789700804172145700,11.195145751953126,1.2465104654133319,-2.5570149718314408,-3.5334956134319304
1789700804182166500,11.20516650390625,0.7199509353518485,-2.6977076371133326,-2.5966952403128145
1789700804192187600,11.215187744140625,0.30744916162490843,-2.839363594469428,-1.6888813077032565
1789700804202208800,11.225208740234375,-0.06548880960717797,-2.8286738581508395,-0.8865209692120551
1789700804212229600,11.235229736328124,-0.45939080454334613,-2.7643074767023323,-0.20254209547340868
1789700804222250800,11.245250732421875,-0.787508952448517,-2.73879894143641,0.36394144869744777
1789700804232271600,11.255271728515625,-0.9860638049166649,-2.790859968063235,0.7263485274344682
1789700804242292700,11.265292724609376,-1.141937088195607,-2.822186249697208,0.7445090380251407
1789700804252313600,11.275313720703124,-1.2727554982602596,-2.5784862144052982,0.4357254129260778
1789700804262334500,11.28533447265625,-1.2709211224399506,-2.021620393407345,0.11456804394423961
1789700804272355600,11.29535546875,-1.2421861724734307,-1.4645897372364998,-0.07351473354399204
1789700804282376700,11.305376708984374,-1.1191126774471252,-0.9810089326798915,-0.11899170560538769
1789700804292397800,11.315397705078125,-0.7845685881476849,-0.36650691527128215,-0.19709435146152973
1789700804302418700,11.325418701171875,-0.39606969436407086,0.15356266824901102,-0.3014683336496353
1789700804312439800,11.335439697265626,-0.14470891518592835,0.4861468556523323,-0.40931671395003794
1789700804322460700,11.345460693359374,-0.04525952991843223,0.6742132665276527,-0.49021278991699213
1789700804332481500,11.3554814453125,-0.06250869781784713,0.7671323732435703,-0.5350000261485577
1789700804342502700,11.365502685546875,-0.060272390133142464,0.8539566702157259,-0.5638806681960821
1789700804352523500,11.3755234375,-0.13274254652764647,0.8770236575484275,-0.5225415265917778
1789700804362545000,11.385544921875,-0.2583071642499417,0.8074164528369903,-0.5221095649152994
1789700804372565800,11.395565673828125,-0.27469840014576913,0.6540618743807077,-0.5405500614911317
1789700804382586600,11.405586669921876,-0.18661917120907454,0.6511749207675457,-0.43566696073710914
1789700804392607700,11.415607666015624,-0.2089198503443971,0.8975777852773665,-0.5303863948732614
1789700804402628600,11.425628662109375,-0.32197920675873754,0.9528718024760484,-0.5230775331646204
1789700804412649700,11.435649658203126,-0.3232850286602974,1.0952215873152018,-0.327577172896266
1789700804422670600,11.445670654296874,-0.1562158313726075,1.3026882797092199,-0.19312778591811655
1789700804432691500,11.45569140625,0.011717325800657272,1.4697434667378664,-0.03401391328275204
1789700804442712600,11.465712646484375,0.0077449241715017705,1.42137661845386,0.12625146747529506
1789700804452733700,11.475733642578126,0.0020434930929215623,1.4236983393996954,0.4190925502941012
1789700804462754800,11.4857548828125,0.029116206652356775,1.2885229762345551,0.6372589158788323
1789700804472775700,11.495775634765625,-0.07080898171663284,1.3283213181376456,0.957557622204721
1789700804482796500,11.505796630859376,-0.17352116817235946,1.3942483730316162,1.3991700473427773
1789700804492817700,11.515817626953124,-0.29448446611165996,1.4388234278172254,1.7763909565910696
1789700804502838000,11.525838134765625,-0.45066345433890814,1.3631728512883186,2.112705270433426
1789700804512859100,11.535859130859375,-0.5849474216222763,1.1086088921546935,2.488391809721291
1789700804522880000,11.5458798828125,-0.7052677454829216,0.9077209936290979,2.884272995775938
1789700804532901000,11.555901123046874,-0.7585048301517963,0.84509005767107,3.3953640308097004
1789700804542922000,11.565921875,-0.7548767027825116,0.7849930241048335,3.9664153212875126
1789700804552943000,11.575943115234375,-0.781612734016776,0.5712859760165214,4.472721167871356
1789700804562964200,11.585964111328124,-0.8851479272931814,0.244879015943408,4.937390935730934
1789700804572985000,11.595985107421875,-1.067887590187788,-0.1102156939536333,5.320769490826129
1789700804583006200,11.606006103515625,-1.1304852083981036,-0.41255847235023974,5.65594720185399
1789700804593027000,11.616027099609376,-1.046879873472452,-0.6818541366696357,5.983574643632769
1789700804603048200,11.626048095703124,-0.8073053936779498,-0.8464239366233348,6.359063322260975
1789700804613069000,11.636069091796875,-0.4399006527841091,-0.8047013486593961,6.7235413620531554
1789700804623090000,11.64608984375,-0.06971011709664017,-0.5905085628807545,6.929998000621795
1789700804633111300,11.656111328125,0.22520459365844725,-0.42321372187733647,7.111470420059561
1789700804643132200,11.666132080078125,0.3641409167923033,-0.5629027630746364,7.394988086476921
1789700804653153300,11.6761533203125,0.39689503927230835,-0.9849532863914966,7.60983904390335
1789700804663174100,11.686174072265626,0.5023544786095618,-1.322472007587552,7.471911751681565
1789700804673195000,11.696195068359375,0.7242588616788387,-1.5125854141205548,7.050486666786671
1789700804683216100,11.706216064453125,0.9257366889216005,-1.5017437021106481,6.487473429074883
1789700804693237000,11.716237060546876,1.0324422558624298,-1.2295546544373035,5.870575456440449
1789700804703258000,11.726258056640624,1.0634278342999517,-0.7365250535339116,5.255614004826546
1789700804713279000,11.736279052734375,0.9947031115114688,-0.007568973949551582,4.709076393358409
1789700804723300000,11.746300048828125,0.8386720073223114,0.8226859181612729,4.370402949169278
1789700804733321200,11.7563212890625,0.6893627587340772,1.5295055692613124,4.245791650116443
1789700804743342000,11.766342041015625,0.5276290589891374,1.992555626964569,4.3497064903602
1789700804753363200,11.77636328125,0.3516412084423005,2.137882966309786,4.503937559390068
1789700804763384000,11.786384033203126,0.2584697344005108,2.079641789743304,4.618054352435469
1789700804773405200,11.7964052734375,0.2918471033453941,1.8896639922887086,4.6883074538350105
1789700804783426000,11.806426025390625,0.34603330543264743,1.6453034472614525,4.640520743526518
1789700804793447000,11.816447021484375,0.4253660045403987,1.440856979471445,4.490370514069498
1789700804803468300,11.82646826171875,0.49106392685361205,1.2321136912703514,4.241709349238873
1789700804813489200,11.8364892578125,0.5031448252696543,0.9802057996034622,3.934879196295142
1789700804823510300,11.84651025390625,0.5744282195650041,0.7188046879261731,3.6691499922856687
1789700804833531100,11.85653125,0.7069194582127034,0.5549801533818245,3.3101384012058377
1789700804843552000,11.866552001953124,0.8812252008914947,0.4741238249033689,2.883319640573859
1789700804853573000,11.876572998046875,1.101585423258692,0.4434077841222286,2.523338035418093
1789700804863594000,11.886593994140625,1.3531509312286971,0.47922436291277404,2.1719220140337945
1789700804873615000,11.896614990234376,1.5735960554003714,0.5834492920190095,1.8228832431748507
1789700804883636200,11.90663623046875,1.8145010531462729,0.736701579144597,1.5270625600233674
1789700804893657000,11.916656982421875,2.0501745799794793,0.8618184896320104,1.218468320016563
1789700804903678200,11.92667822265625,2.2409341754615304,0.958531143411994,0.9341998352319002
1789700804913699000,11.936698974609374,2.3822249527670443,0.9483908576697111,0.7102759290337562
1789700804923720200,11.94672021484375,2.441088645146042,0.8638350901514291,0.5443026920229196
1789700804933741000,11.956740966796875,2.487342885190248,0.7199591186583042,0.378965414828062
1789700804943762200,11.96676220703125,2.519330261081457,0.5643038620442151,0.1934615479171276
1789700804953783000,11.976782958984375,2.4938407227769495,0.34890111595392226,-0.018931494963169097
1789700804963804000,11.986803955078125,2.444671764329821,0.11091770474314688,-0.23732582408487796
1789700804973825300,11.9968251953125,2.3947768296957013,-0.15262158800661563,-0.4838175359219312
1789700804983846100,12.00684619140625,2.305637241518497,-0.342144627431035,-0.7902730103343725
1789700804993867300,12.0168671875,2.1581799044072625,-0.5005740249335765,-1.1203186191707848
1789700805003888000,12.02688818359375,2.016141231343895,-0.685052055928111,-1.3685259027540684
1789700805013909000,12.036908935546874,1.8889795171558856,-0.9428764781624078,-1.578673797056079
1789700805023930000,12.04693017578125,1.821279022848606,-1.2168822198688982,-1.7533651780515909
1789700805033951000,12.056950927734375,1.8720447489678858,-1.4700608621239661,-1.917996352803707
1789700805043972000,12.06697216796875,1.9736030892133711,-1.6395125889003277,-2.194983740669489
1789700805053993200,12.0769931640625,1.9638018261671064,-1.7091992885887621,-2.4697820940583943
1789700805064014000,12.08701416015625,1.8715736243247985,-1.755298776462674,-2.630764683175087
1789700805074035200,12.09703515625,1.7316963670790195,-1.8903613269031048,-2.647874223408103
1789700805084056000,12.10705615234375,1.4608862065434456,-2.095532017314434,-2.631092599955201
1789700805094077200,12.1170771484375,1.1034219910360872,-2.3522598764836786,-2.6042823344409465
1789700805104098000,12.12709814453125,0.7556244524098932,-2.653469266936183,-2.513257078647613
1789700805114119200,12.137119140625,0.44754503005743024,-2.996232903048396,-2.4125375273138285
1789700805124140000,12.14714013671875,0.12471242133975029,-3.475809148138761,-2.3097119436115023
1789700805134161200,12.1571611328125,-0.15383315575346349,-4.029862834325432,-2.249908924555778
1789700805144182300,12.167182373046876,-0.3901297829210758,-4.489624371877312,-2.3102882821947337
1789700805154203100,12.177203125,-0.5207017439439893,-4.7713130693018435,-2.4805466491788626
1789700805164224300,12.187224365234375,-0.5813572881758212,-4.849783379426598,-2.7389263672083612
1789700805174245000,12.1972451171875,-0.4947149236418307,-4.682469833722711,-3.0107845754921434
1789700805184266000,12.207265869140626,-0.3435048098683357,-4.395003137418628,-3.1979677737921475
1789700805194287000,12.217287109375,-0.23637129983901975,-4.240142246052622,-3.198175863584876
1789700805204308000,12.227307861328125,-0.2956266218841076,-4.6138019556879994,-2.783510189822316
1789700805214329000,12.2373291015625,-0.546816866800934,-5.389226356458663,-2.292328847134113
1789700805224350200,12.24735009765625,-0.8040297330081463,-6.099537356805801,-2.0851409716814757
1789700805234371000,12.25737109375,-0.9033750003140419,-6.747961517560482,-2.098477423116565
1789700805244392200,12.26739208984375,-0.7795370237212628,-7.054410562232136,-2.2890759828180074
1789700805254413000,12.2774130859375,-0.44575865809731186,-6.9212009461820125,-2.6341525720477104
1789700805264434200,12.28743408203125,0.09667181031294167,-6.262911224973202,-3.257959008896351
1789700805274455000,12.297455078125,0.7684324960567057,-5.135010772371292,-3.9048534758657216
1789700805284476200,12.30747607421875,1.3243266955435276,-3.969919530016184,-4.356603556397557
1789700805294497000,12.3174970703125,1.6503706675231455,-2.859145568782091,-4.34246104927659
1789700805304518100,12.32751806640625,1.7010158360026775,-2.066766526079178,-3.872054783591628
1789700805314539300,12.337539306640625,1.5400198028825223,-1.6820915014326572,-3.148014533099532
1789700805324560100,12.34756005859375,1.178949160381034,-1.5502525892138481,-2.3562270265489813
1789700805334581200,12.357581298828125,0.8526784669734537,-1.5288941593647003,-1.5527467441171408
1789700805344602000,12.36760205078125,0.6671674396693706,-1.4848440052360294,-0.8510831606060266
1789700805354623000,12.377623046875,0.5744295347392558,-1.4477753805577753,-0.28011282640993596
1789700805364644000,12.38764404296875,0.5098377470370382,-1.4525848266661165,0.14983692572414875
1789700805374665000,12.3976650390625,0.4017360495626926,-1.5964514458090067,0.4261281480193138
1789700805384686300,12.407686279296875,0.23057634982466696,-1.8631068247526883,0.4308487468004226
1789700805394707200,12.417707275390624,-0.05583002377152443,-2.0442583416730162,0.11533318309783935
1789700805404728000,12.42772802734375,-0.3337959012806415,-1.9182512043476103,-0.48703240631520744
1789700805414749200,12.437749267578125,-0.5789679088212549,-1.596570103752613,-1.2271575301676987
1789700805424770000,12.44777001953125,-0.7648257768016308,-1.2246382408231495,-1.9233073186933993
1789700805434791200,12.457791259765624,-0.8190811716675758,-0.7350128954052925,-2.571326990300417
1789700805444812000,12.46781201171875,-0.8012883253455162,-0.18139760063588617,-3.175271373337507
1789700805454833200,12.477833251953125,-0.7534896323382854,0.3811240541666746,-3.657125500231981
1789700805464854300,12.487854248046874,-0.7672141332428902,0.838083393779397,-3.994018198484182
1789700805474875100,12.497875244140625,-0.8409132103778422,1.192751402696967,-4.164172520571947
1789700805484896300,12.507896240234375,-1.0290812549967319,1.4594360077351332,-4.15735874890387
1789700805494917000,12.517917236328126,-1.268963120239973,1.6708330253154038,-4.01270945495069
1789700805504938800,12.527938720703125,-1.4537480252265929,1.7844167343974113,-3.745799808984995
1789700805514960000,12.5379599609375,-1.4817606522679327,1.8381839804202318,-3.455103044718504
1789700805524980700,12.547980712890626,-1.442965934449434,1.8807383430331945,-3.2643092547059056
1789700805535001900,12.558001953125,-1.3780395810306072,1.7808312771260737,-3.0486651010751724
1789700805545023000,12.56802294921875,-1.1870949113052338,1.5636463237941265,-2.7943092317342755
1789700805555043800,12.5780439453125,-0.9662439097464084,1.2658248222142456,-2.5730975071042774
1789700805565065000,12.58806494140625,-0.7584767000358551,0.8893138148009777,-2.3711709131807086
1789700805575085800,12.5980859375,-0.5685644420981407,0.46787645494639873,-2.1841414441376923
1789700805585107000,12.60810693359375,-0.3717091600894928,0.07310206108987331,-1.9788427434325218
1789700805595127800,12.6181279296875,-0.16187164691090583,-0.2721200740903616,-1.7315706948727367
1789700805605148700,12.628148681640624,0.045157823109626766,-0.5828150857686996,-1.4955454319924115
1789700805615169800,12.638169677734375,0.26186471060104666,-0.8143097194820642,-1.2581617402404546
1789700805625191000,12.64819091796875,0.40554939730577166,-0.9148112441509961,-1.0332254421293734
