time,seconds_elapsed,z,y,x
1789323814986016000,0.05301611328125,-0.07679857752025127,-1.0161886748716236,-0.32069398925378917
1789323814995979000,0.06297900390625,0.18616203855872154,-0.9530410215631127,-0.16082944438159466
1789323815005941200,0.072941162109375,0.40235272015631196,-0.8811693790510297,0.33833120662271976
1789323815015904300,0.082904296875,0.565736525195837,-0.7317875036180019,0.883542830184102
1789323815025867000,0.092866943359375,0.8890414276003837,-0.5799117655426264,1.205317015890032
1789323815035830000,0.102830078125,1.1667629749596118,-0.49635786854326724,1.3726440055973828
1789323815045792000,0.1127919921875,1.2945727777928113,-0.5367948006108403,1.4820967523545026
1789323815055755300,0.12275537109375,1.333067051360011,-0.6730208418726921,1.4660123173855244
1789323815065718300,0.13271826171875,1.1974766776531933,-0.8561267077311873,1.4613530934028327
1789323815075681000,0.142680908203125,0.9774714062035084,-1.0163935497939587,1.4285552779115736
1789323815085643000,0.15264306640625,0.8251216208755969,-1.0570499698311089,1.2963297044627369
1789323815095606000,0.16260595703125,0.7279857732474804,-0.9942185428649186,1.1181225704312323
1789323815105569000,0.172569091796875,0.6236152981907129,-0.9783344527736305,1.0537658335939049
1789323815115531000,0.182531005859375,0.7018693352162838,-0.9335504314124584,0.9607906127765774
1789323815125494000,0.192493896484375,0.9616413843870162,-0.8349702301949262,0.8143691945843398
1789323815135457000,0.20245703125,1.218404899391532,-0.7327180624663829,0.6853158214308321
1789323815145420000,0.212419921875,1.2569517799288035,-0.7426023276209831,0.8595207340836525
1789323815155382300,0.22238232421875,0.6349743120729923,-0.5095926131695508,1.1927990412309766
1789323815165345300,0.23234521484375,-0.24063655606806278,0.34747926645725963,0.9075316085368395
1789323815175308000,0.24230810546875,-0.15640286011099813,1.3712743246793746,-0.02524813076406717
1789323815185270000,0.25227001953125,0.07003273664712906,1.6499156172320246,-0.614830810971558
1789323815195233000,0.26223291015625,0.22416882086992262,0.1522089155524969,-0.22655630052834747
1789323815205196000,0.272196044921875,0.31390462137460706,-1.1201827178314328,0.22039251720160244
1789323815215159300,0.2821591796875,0.4224836540371179,-1.453626444673538,0.4082873709022999
1789323815225121000,0.29212109375,0.4891226565927267,-1.3602303680956362,0.6733376527369022
1789323815235084000,0.302083984375,0.8755021470695733,-0.8438646075293421,0.7456266438782214
1789323815245047000,0.312047119140625,1.1464221977204083,-0.2263005722016096,0.9455258236274122
1789323815255010000,0.322010009765625,1.190616144233942,0.12733341749310492,1.2769015120238065
1789323815264972000,0.331971923828125,1.1963608253657818,0.2722898776993155,1.4247665531530975
1789323815274935000,0.34193505859375,1.1573936735898256,0.038031039969623086,1.6371680716007948
1789323815284898000,0.35189794921875,1.1067910290777683,-0.19026421318054199,1.6504881564229725
1789323815294861000,0.361861083984375,1.3393646901994942,-0.3456543891176581,1.3436349148645996
1789323815304823000,0.371822998046875,1.4940800356149673,-0.3657850307375192,0.9886725991755724
1789323815314786000,0.3817861328125,0.7782435498446225,-0.5993856968194246,0.9606013738147914
1789323815324749000,0.3917490234375,-0.784281660965085,-1.2854600815325974,0.47999783150330183
1789323815334711000,0.4017109375,-2.272075163656473,-1.7935694704070686,-0.7795832740157842
1789323815344674000,0.411674072265625,-3.353341875377297,-1.4681509368494152,-2.0326199263274667
1789323815354637000,0.421636962890625,-3.943706645873189,-0.22316022834926844,-2.7712159409165382
1789323815364600000,0.43160009765625,-3.9222991161853074,0.6932692646533251,-2.71929110789001
1789323815374562000,0.44156201171875,-3.056211278671026,1.2181997322082518,-2.048638748714328
1789323815384525000,0.451525146484375,0.062390112939476966,2.5215716102674604,-1.5880252705082296
1789323815394488000,0.461488037109375,0.4482873728573322,0.3374053239494562,-0.3780301432719454
1789323815404450300,0.4714501953125,0.531506338813901,-0.9160705965623259,1.4974267156943677
1789323815414413000,0.4814130859375,0.4776163431942463,-0.8873708640396595,2.5069588552862405
1789323815424376000,0.4913759765625,0.425644748416543,-0.5953951658785342,2.3658751448601483
1789323815434339000,0.501339111328125,0.5207265861243009,-0.06983546050935983,1.983895496777445
1789323815444301000,0.511301025390625,0.30206220788955684,-0.2344692656099796,1.5161680949129164
1789323815454264000,0.52126416015625,-0.2799760482877493,-0.7864750793561339,1.0466258256461471
1789323815464227000,0.53122705078125,-0.9970569811612368,-1.088253209607303,0.6878902750287205
1789323815474190000,0.541190185546875,-0.5067734640955924,-0.3895031754553318,-0.09735825820714235
1789323815484152000,0.551152099609375,0.6622498570114373,0.6356067647576332,-1.3269348322153092
1789323815494115000,0.561114990234375,1.4585387666344642,0.32564415900707244,-1.344316759648919
1789323815504078000,0.571078125,2.1936077761411665,-0.17283610851764677,-0.6105353057347238
1789323815514041000,0.581041015625,2.419511457979679,0.025441022987663743,-0.440499495460093
1789323815524003000,0.591003173828125,1.970725487950444,0.2161120634034276,-0.19728505172803998
1789323815533966000,0.600966064453125,1.1607768862873316,0.2958203908905387,0.15217457489147782
1789323815543929000,0.61092919921875,0.43673020605444907,0.21224574336409568,0.45691593886241316
1789323815553891000,0.62089111328125,-0.06962824749946595,0.01841331630796194,0.6873737768739462
1789323815563854000,0.63085400390625,1.4349410334259272,-0.1931970517620444,1.226055852536112
1789323815573817000,0.640817138671875,0.9438777641594409,-0.5570777101829648,1.7003247849985956
1789323815583780000,0.650780029296875,-0.2994242606014013,-0.4403469352468848,1.4560428581655025
1789323815593742000,0.6607421875,0.15366086792647837,0.9763228206902742,0.8229055522613227
1789323815603705000,0.670705078125,-1.1229700104624032,1.0688716327890753,0.5862248942121863
1789323815613667800,0.680667724609375,-2.422357495060563,-0.035787644957005975,1.5285123204402624
1789323815623631000,0.690631103515625,-2.1682348499536515,-1.3024571013018489,1.9707443387813866
1789323815633593000,0.700593017578125,-1.0341028094857931,-1.2198814016848802,0.6307407661564648
1789323815643556000,0.71055615234375,0.1379343064844608,0.24495295796245334,-0.6406998501129448
1789323815653519000,0.72051904296875,0.23110358856916427,-0.23256927720755338,-0.2135116716466844
1789323815663481000,0.730481201171875,0.1272422320783138,-0.33753538006991146,0.08352730125337839
1789323815673444000,0.740444091796875,-0.028686580780148505,-0.2141881096035242,0.31517054965719576
1789323815683407000,0.750406982421875,-0.06393032811880112,-0.2605570620685816,0.5343104364491998
1789323815693370000,0.7603701171875,0.2059258926928043,-0.37767479049563407,0.5918270981334149
1789323815703332000,0.77033203125,0.42002223235964775,-0.5090051686704159,0.6414638202227652
1789323815713295000,0.780295166015625,0.4075841910690069,-0.614247165864706,0.4815618659496307
1789323815723258000,0.790258056640625,0.26593057180047036,-0.689487115766108,0.23609452872425316
1789323815733221000,0.80022119140625,-0.049882513543963426,-0.734974609221518,0.1101582646779716
1789323815743183000,0.81018310546875,-0.3723480425149202,-0.6620952509716153,0.19338409876674412
1789323815753146000,0.82014599609375,-0.4903589203894138,-0.3255319308042526,0.35952012512385845
1789323815763108900,0.83010888671875,-0.496449638479948,-0.06091711777746677,0.3274449248187244
1789323815773071000,0.840071044921875,-0.4060585889369249,0.08703121772110461,0.13373890062123536
1789323815783034000,0.8500341796875,-0.2598673262387514,0.0388365111336112,-0.07618029949143529
1789323815792997000,0.8599970703125,-0.18146949682831764,-0.20289017825871705,-0.20939239975959062
1789323815802960100,0.869960205078125,-0.07658288894295692,-0.4000818526148796,-0.14754106987193227
1789323815812922000,0.879922119140625,-0.010537176105380058,-0.4513379925996065,0.034709786592423915
1789323815822885000,0.889885009765625,0.06137596746087074,-0.3440402319192886,0.1778602202899754
1789323815832848100,0.89984814453125,-0.023573183289170265,-0.21380758585333823,0.4002532636590302
1789323815842811100,0.90981103515625,-0.17657471052408216,-0.22184856122881172,0.640430970043689
1789323815852773000,0.919773193359375,-0.36449031475186344,-0.2033119108021259,0.6024925767935813
1789323815862736000,0.92973583984375,-0.5377566313803196,-0.11637275527864693,0.3600000175952911
1789323815872699100,0.93969921875,-0.6983148576050996,-0.0913192703038454,0.22695187571719289
1789323815882662100,0.949662109375,-0.8220078727692365,-0.08655366333723068,-0.06444909129589796
1789323815892624100,0.9596240234375,-0.9136889621227979,-0.12581804449409245,-0.42747021027803417
1789323815902587100,0.969587158203125,-0.9207996709108353,-0.11775047337263822,-0.5833942008309067
1789323815912550000,0.9795498046875,-0.8064332870185374,-0.20457184773534534,-0.7658839806176722
1789323815922512100,0.98951220703125,-0.7340273914992809,-0.4575882851660251,-0.9059621672630309
1789323815932474600,0.999474609375,-0.7447580443501473,-0.6762602621853351,-0.7608876336351037
1789323815942437600,1.009437744140625,-0.8531354169607162,-0.7456099850043654,-0.8109154008686542
1789323815952400400,1.019400390625,-1.109167695081234,-0.8710504283577203,-0.9181149618715048
1789323815962362600,1.029362548828125,-1.3679606700867413,-1.1290034454077482,-1.0351897279396653
1789323815972325600,1.03932568359375,-1.6615695224076508,-1.5129983788356185,-1.6149921878889202
1789323815982288600,1.04928857421875,-1.9327192901611328,-1.709885809548199,-1.695508909149468
1789323815992251600,1.059251708984375,-2.2088129440575837,-1.792020779660344,-1.35719290009588
1789323816002213400,1.06921337890625,-2.6717209629416465,-2.2685554650977253,-1.1182751306444405
1789323816012176600,1.0791767578125,-3.074492200770974,-2.448437400473654,-1.2895610871106384
1789323816022139600,1.0891396484375,-3.0823686332345006,-2.0494714001461865,-2.1961910706326364
1789323816032101600,1.0991015625,-3.0128871007293463,-2.198185167059302,-3.1681419598489997
1789323816042064400,1.109064453125,-3.226118932521343,-3.044168958699703,-3.7323698340475557
1789323816052027400,1.11902734375,-3.428395655056834,-3.7246044607430693,-4.113513469697534
1789323816061990400,1.128990478515625,-3.2614649711906907,-4.067844189934433,-4.400311765220761
1789323816071952600,1.13895263671875,-3.0781133138775822,-4.493691475185751,-4.984439687153697
1789323816081915600,1.14891552734375,-3.146052877637744,-5.278907202130556,-5.0708723544597625
1789323816091878700,1.158878662109375,-3.0274294208228585,-5.907325516688823,-5.026355167341232
1789323816101841400,1.16884130859375,-2.833732895106077,-6.344013637167215,-5.196319519814849
1789323816111803600,1.1788037109375,-2.6235049213051793,-6.63832040862441,-5.110131182658672
1789323816121766700,1.1887666015625,-2.327208729596436,-6.736257051241397,-4.431237649360299
1789323816131729700,1.198729736328125,-1.8644068014353512,-6.674102500623464,-3.5324428895086046
1789323816141691400,1.20869140625,-1.4966963555932045,-6.635304275673628,-2.9439111796587705
1789323816151654400,1.218654296875,-0.9700991238698363,-6.766890674436092,-1.6356109052866696
1789323816161617400,1.228617431640625,0.0845008224606514,-6.439541465076804,0.3997153573900461
1789323816171580700,1.23858056640625,0.9376010950427501,-5.924830778241157,1.6172165859401224
1789323816181542700,1.248542724609375,1.580855817270279,-5.490836134630442,2.471233461910486
1789323816191505400,1.25850537109375,2.110432649326324,-5.152599036031961,2.5952292594134807
1789323816201468400,1.268468505859375,2.1123311764240262,-4.911476157751679,2.697054726162553
1789323816211430700,1.2784306640625,1.6942437115192412,-4.742395602375269,3.0126076992660757
1789323816221393700,1.2883935546875,0.699661084582284,-4.339551007048786,3.1898516873538494
1789323816231356700,1.298356689453125,-0.859651593921706,-3.4011566427364945,3.5114369263589382
1789323816241319400,1.3083193359375,-2.4709014534771443,-2.547445471714437,4.147801816007495
1789323816251281400,1.318281494140625,-3.871426422560215,-1.816169570880383,4.52607164978683
1789323816261244400,1.328244384765625,-4.947816468155383,-1.2131614457800983,4.615439786022901
1789323816271207700,1.338207763671875,-5.172265859532356,-0.8361769756361842,4.6160418435692785
1789323816281170700,1.348170654296875,-4.594176048719882,-0.5225330510243773,4.613472869864106
1789323816291132400,1.35813232421875,-3.622638708740473,-0.27799773395210503,4.679602753853797
1789323816301095400,1.368095458984375,-2.568031163625419,-0.19122458264529704,4.699799738708138
1789323816311058400,1.378058349609375,-1.5693533032640814,-0.030811025588214396,4.827621816501021
1789323816321020700,1.388020751953125,-0.8269546815216541,0.21307167279422282,5.210171519556641
1789323816330983700,1.397983642578125,-0.20228782845139504,0.4413029207974672,5.507035574281216
1789323816340946400,1.407946533203125,0.2618400876164436,0.7718219923645258,5.443139148432016
1789323816350909400,1.417909423828125,0.6239242180094122,1.156663605749607,4.996807585817575
1789323816360871700,1.42787158203125,0.6773967188693583,1.3321502287760376,4.591752620965242
1789323816370834700,1.437834716796875,0.4624656819440424,1.3388234229296445,4.32532052938342
1789323816380797700,1.447797607421875,0.17684855902940033,1.1370663403540848,4.0475633261889215
1789323816390760400,1.457760498046875,0.040515550261735915,0.9204033650696277,3.9526626902669664
1789323816400722400,1.467722412109375,0.053068742364645004,0.8597446059674024,4.256431117552519
1789323816410685400,1.477685546875,0.1244715983211994,0.9993675961911678,4.932029700958728
1789323816420648400,1.4876484375,0.2685876621805131,1.3498282165467739,5.551805274856091
1789323816430610400,1.4976103515625,0.3557598958075046,1.7391875996172428,6.060295479741693
1789323816440573400,1.507573486328125,0.4087959780115634,1.963892427060008,6.409673565557599
1789323816450536400,1.517536376953125,0.39741292566657066,1.9809329937100408,6.5353200528770685
1789323816460499500,1.52749951171875,0.307084419965744,1.7869862926244735,6.508361903324722
1789323816470461700,1.537461669921875,0.23972769759483634,1.5202923352360724,6.288996098822355
1789323816480424700,1.5474248046875,0.25996267637200654,1.3555810809850692,5.934664774513244
1789323816490387500,1.557387451171875,0.7609177365124226,1.2792641495019197,5.579484139898419
1789323816500350500,1.5673505859375,0.655038610458374,1.1766595150738954,5.762720646399259
1789323816510312400,1.5773125,-0.2895137102280743,1.2217097861558197,6.355998089471459
1789323816520275700,1.587275634765625,-3.014179478627443,1.9416139597564934,6.5841814066797495
1789323816530238700,1.59723876953125,-7.3077148766934865,2.8586510632634163,4.634620871832967
1789323816540200400,1.607200439453125,-5.557574505907297,0.4520400033891201,3.071655516040325
1789323816550163500,1.61716357421875,-4.351465024465322,-1.5790981599479912,2.474003511145711
1789323816560126500,1.62712646484375,-1.9569827938020228,-1.4988351211875677,1.9216501991361379
1789323816570089500,1.63708935546875,0.42216161900851873,-1.251540276274085,1.6106933216512203
1789323816580051500,1.647051513671875,1.5642729312598704,-1.3217232350468635,0.8479337566643953
1789323816590014500,1.657014404296875,1.5978396852970123,-1.377351598766446,0.31661212676763534
1789323816599977500,1.6669775390625,1.2207798118293285,-1.3538976579427717,0.013415946412086486
1789323816609939500,1.676939453125,0.4600432771027088,-1.26831605450809,-0.20121815339326857
1789323816619902700,1.68690283203125,-0.3091886987686157,-0.9306652313649654,-0.24161270762383935
1789323816629865700,1.69686572265625,-0.5818477020412683,-0.6669564272671937,-0.40067163520157334
1789323816639828500,1.706828369140625,-0.7039215915709733,-0.4296218353539705,-0.3977969565480947
1789323816649790500,1.71679052734375,-0.4879325700253248,-0.11214227810204029,-0.18514906212389468
1789323816659753500,1.72675341796875,-0.3450818499267101,0.10462649564445019,-0.16335516346693038
1789323816669716500,1.736716552734375,-0.8974679682273418,0.4206798194855451,-0.027443887242674825
1789323816679679700,1.7466796875,-1.380786833912134,0.43498833082318306,0.17194471263587474
1789323816689641500,1.756641357421875,-1.273737495034933,0.3346393663674593,0.38432898768782614
1789323816699604500,1.7666044921875,-1.023535822764039,0.16898878543972967,0.4628858070522546
1789323816709567500,1.7765673828125,-0.3289104673266411,-0.17077157720327377,0.21407237426936626
1789323816719529700,1.78652978515625,0.3963410586513579,-0.5945435174852609,-0.07540683090090751
1789323816729492500,1.796492431640625,0.7852870386153459,-1.0486457141011953,-0.5395335779249668
1789323816739455500,1.80645556640625,1.0952437991470099,-1.390154966238141,-0.781366650301218
1789323816749418500,1.81641845703125,1.3124473110489547,-1.4373931027531623,-0.5796025534629822
1789323816759380500,1.82638037109375,1.324852619113773,-1.4271610470741987,-0.07290799982249736
1789323816769343500,1.836343505859375,1.4340163197964428,-1.6362345901429651,0.3836374982923269
1789323816779306800,1.846306640625,1.9041271096661685,-1.659209807538986,0.9573217676222324
1789323816789269500,1.85626953125,1.7876963405899702,-1.175990822032094,1.401625039279461
1789323816799231500,1.8662314453125,1.434921598073095,-0.566657731693983,1.9381056593745947
1789323816809194500,1.876194580078125,1.251937751159072,-0.3385889807760715,2.5280834763795137
1789323816819157500,1.886157470703125,0.7901873778775333,-0.325143223747611,2.6141350354135033
1789323816829119500,1.896119384765625,0.3740907945290208,-0.3289633665576577,2.6119419092833995
1789323816839082500,1.90608251953125,1.2151906135201453,-0.875489579848945,2.5617168659120795
1789323816849045500,1.91604541015625,3.0032723001658916,-1.6230983374550938,2.02077166762352
1789323816859008500,1.926008544921875,4.113744063583016,-1.4081059257313608,1.4325544305503368
1789323816868970800,1.935970703125,1.8039260292485355,-1.023464803354442,1.2949901264220476
1789323816878933500,1.94593359375,0.3232560948267579,-0.4697735207393765,0.7199474282205104
1789323816888896500,1.955896484375,-0.6042524260729552,-0.13041238654702902,0.14188801254630087
1789323816898859500,1.965859619140625,1.1944003389477729,-0.4174290009960532,0.5587450588732957
1789323816908821500,1.975821533203125,4.433531897777319,-1.4328557515844702,1.2966992684274912
1789323816918784500,1.985784423828125,-0.33548633858561516,-1.9490365109726786,1.2237176188468932
1789323816928747500,1.99574755859375,-1.5613731181651354,-1.1552972858324646,1.4536924956470727
1789323816938709200,2.005709228515625,-0.0788362208276987,-0.4628308619946241,0.5998597440719604
1789323816948672300,2.01567236328125,0.025234979021549222,-0.4578539503648877,1.0412784002035855
1789323816958635300,2.02563525390625,2.9938614977419373,-0.24690643011778593,2.069343098568916
1789323816968598300,2.035598388671875,1.6821023150876164,0.822978471367061,2.202341117694974
1789323816978560300,2.045560302734375,1.0430147224768995,0.7457189983367919,3.2246856848478314
1789323816988523300,2.055523193359375,4.57993183479011,-0.17140344536602495,2.997579641482234
1789323816998486300,2.065486328125,1.7716349942356346,-0.3991679526403546,0.04312777858674526
1789323817008449300,2.07544921875,-3.674671678316593,-0.47363165747225283,-2.133665640875697
1789323817018411500,2.08541162109375,-2.0117329133823514,-0.7948089001983404,-1.4810305844277143
1789323817028374500,2.09537451171875,-0.4723983162850141,-0.27380905009061096,-1.7184230440080164
1789323817038337300,2.105337158203125,-6.48781420533657,0.9676648824602365,-5.3379848295211785
1789323817048299300,2.11529931640625,-5.834459017920493,0.7350318923667073,-4.199252601781487
1789323817058262300,2.12526220703125,1.0040919943645596,-1.1111170755833386,-3.3941005867451426
1789323817068225300,2.135225341796875,2.695135448537767,-1.1769818788960575,-4.661232399904728
1789323817078188500,2.1451884765625,1.6043793161988258,-1.2947235844403504,-4.966849669927359
1789323817088150300,2.155150390625,1.0167977466806768,-0.43658582914769645,-4.802120880019665
1789323817098113300,2.16511328125,0.07763473608344792,0.7450570272967219,-4.520291312819719
1789323817108076300,2.175076171875,-2.4885274187996984,1.9380083364799618,-4.289518563640117
1789323817118039300,2.185039306640625,-3.8035765829101202,2.6826442157551647,-3.31501068341732
1789323817128001300,2.195001220703125,-3.8626317062079902,2.879209867167473,-2.5214514910191297
1789323817137964300,2.20496435546875,-1.8050035953521728,2.991840221047401,-2.132608240777254
1789323817147927300,2.21492724609375,1.6396511205881834,2.3148066364020106,-0.7392115161389112
1789323817157890300,2.224890380859375,-1.6408569892466067,2.4277719213247297,-1.5847563318401574
1789323817167852300,2.234852294921875,-0.10473433993309736,1.8998025244653223,-0.722117173475027
1789323817177815600,2.244815673828125,0.19473843598514795,1.2013520577818155,-0.18280337578058242
1789323817187778300,2.2547783203125,-0.023984248308092353,2.497026074814796,0.1612368561387062
1789323817197740300,2.264740234375,0.6894774711549282,1.3827555036365986,-1.1486731915175914
1789323817207703300,2.274703369140625,0.4420730283871293,0.10751111117005348,-0.6801414875328541
1789323817217666300,2.284666259765625,-1.4702796194411814,0.28533494497239587,0.8198428036898374
1789323817227629300,2.29462939453125,-3.3420991813510654,1.2802309487074612,1.1920961536586283
1789323817237591300,2.30459130859375,1.2064762689277528,0.8256780857145786,-1.2968565048158167
1789323817247554300,2.31455419921875,-0.49531581214442844,-0.12281097163259982,-1.5458189906805753
1789323817257517300,2.324517333984375,-0.7300541039541363,0.10677695167660713,-1.4484908353507517
1789323817267480300,2.334480224609375,0.08121639396250248,0.5712123262584209,-0.7747749969512224
1789323817277442300,2.3444423828125,1.1006612941510974,0.4613835857957601,0.3722352297902107
1789323817287405300,2.3544052734375,1.1584170252881945,0.6529699874907732,1.5594699148923157
1789323817297368300,2.364368408203125,0.7654016039282083,0.9556313303172588,1.4805957001417875
1789323817307331300,2.374331298828125,-0.08906082385256886,0.7281506084203719,0.304598448368907
1789323817317293300,2.384293212890625,-0.6362620137959718,0.6351981839567422,-0.40044191809892654
1789323817327256300,2.39425634765625,-0.2766628320865333,0.6645265697717666,-0.6814443868249654
1789323817337219300,2.40421923828125,0.3315408158302307,0.5648445447921753,-0.49527942565679545
1789323817347181300,2.414181396484375,-0.41284488807618613,0.7088286528348923,-0.21416940490305422
1789323817357144300,2.424144287109375,-1.126905596345663,1.6850450905412435,-0.04831482583582401
1789323817367107300,2.434107421875,-1.2650105832219123,1.9043232167601585,-0.6754010150074958
1789323817377070300,2.4440703125,-1.7712994786709546,1.9324720374017952,-1.240952831286192
1789323817387032300,2.4540322265625,-0.4004471787959337,1.7645494198888538,-0.9516139113694428
1789323817396995300,2.463995361328125,0.44999888948295264,0.8532078976750374,-0.7409756032019853
1789323817406958300,2.473958251953125,1.0117442626833915,-0.45635494397878645,0.15897650999128818
1789323817416921300,2.48392138671875,1.7138550054401158,-0.8626134394019842,1.4861831448853016
1789323817426883300,2.49388330078125,1.7402976066857576,-1.4514064305365084,2.1593378422707317
1789323817436846300,2.503846435546875,1.1789701301038265,-1.8170096749663351,1.5666536889165639
1789323817446809300,2.513809326171875,0.08474571886612102,-0.649669192379713,0.7682371196150779
1789323817456772400,2.5237724609375,-0.8833698117047548,2.2641391099601984,0.16245850688815117
1789323817466734300,2.533734375,-1.8357243123084306,1.5976280883729457,1.3698714721441267
1789323817476697000,2.543697021484375,-0.42905835625231264,1.912427612760663,-0.6692103436738253
1789323817486660400,2.553660400390625,-0.6688970399409532,2.398259411114454,-0.9546195229262113
1789323817496623400,2.563623291015625,-1.5794254922062159,1.7081652693659066,0.11267419302165507
1789323817506585300,2.57358544921875,-1.1751333284199237,0.8319014902740717,0.6585539251029491
1789323817516548400,2.58354833984375,0.5476502488851547,-0.6527151359468698,-0.7123784542709588
1789323817526511400,2.593511474609375,2.320742456191778,-2.2444740400254726,0.7052993096649647
1789323817536473300,2.603473388671875,2.8127058891683814,-2.4314158307850358,1.0359522367447613
1789323817546436400,2.613436279296875,1.64870244204998,-1.48258658169806,1.0081155507922173
1789323817556399400,2.6233994140625,0.6611901188254355,-0.4822463410824537,0.5083154328405857
1789323817566362400,2.6333623046875,-0.23914193359613417,0.9507312833160162,-0.47135611375570297
1789323817576324400,2.643324462890625,-1.1858604741394518,1.974448307865858,-0.6001520050168037
1789323817586287400,2.653287353515625,-1.9199334583461283,2.6289374677479267,-1.0227724371761082
1789323817596250400,2.66325048828125,-1.2849381034851073,2.4892057564526793,-2.1907219915717837
1789323817606213400,2.67321337890625,-1.0248457363188266,1.01808807875216,-1.9588129318386316
1789323817616175400,2.68317529296875,0.09815994824515654,1.0050842202723025,-3.834299345692992
1789323817626138000,2.69313818359375,-0.36478133358769116,0.7406593768596649,-5.916112634256482
1789323817636101000,2.70310107421875,-0.7624983567673712,0.8957166675806045,-3.796739722627401
1789323817646064400,2.713064453125,1.0561854619562625,0.1612584834486246,-2.7181577199459075
1789323817656026400,2.7230263671875,2.974171293365955,-0.04022504288256168,0.9194891728341579
1789323817665989400,2.7329892578125,1.1335586244940756,2.3405811291277407,2.1107123430505395
1789323817675952400,2.742952392578125,0.5323181666534393,2.0711668068647384,6.7686115068793296
1789323817685915100,2.7529150390625,1.9594307714760302,0.6575783580690622,2.824998676769435
1789323817695877400,2.76287744140625,1.4769628965973853,-1.5213111568897961,3.136544460058212
1789323817705840400,2.77284033203125,0.7362802119273691,-2.125682240906358,4.7682855381742115
1789323817715803400,2.782803466796875,-0.582381297461316,-0.6507534804850816,2.416615152016282
1789323817725766400,2.792766357421875,-0.5906710599660873,-0.6786456960171461,2.997935323052108
1789323817735728400,2.802728271484375,-0.3955168827868998,-4.247114423152804,0.7924182056695223
1789323817745691400,2.81269140625,0.7736007655400783,-6.5993836519867175,0.8308040504261851
1789323817755654400,2.822654296875,1.145404545110464,-6.203243814995885,1.3760104132905602
1789323817765617400,2.832617431640625,-0.2597289406813681,-5.034064426544308,1.3299129712432622
1789323817775579100,2.8425791015625,-0.921279271121323,-3.1152456514418123,0.6900891733124852
1789323817785542100,2.852542236328125,-0.4725076218783855,-0.8842045089632272,-0.2752025502756238
1789323817795505400,2.86250537109375,-0.11982231121063232,1.05937928956151,-0.2779524335056543
1789323817805468400,2.872468505859375,-0.20281389815211295,1.1757137586563824,-0.26668255921155215
1789323817815430400,2.882430419921875,0.08003390617966652,0.5364999093174934,0.11375906564891337
1789323817825393400,2.892393310546875,0.46684828094244,-0.01707739152908325,0.29046996977329254
1789323817835356200,2.902356201171875,0.8076163593232631,0.19104981060028076,0.21768150467723607
1789323817845319200,2.912319091796875,0.8105519013185054,0.7354542094320058,-0.14279256017059086
1789323817855281400,2.922281494140625,0.2679578398443758,0.9535749823093413,0.16723229716122148
1789323817865244400,2.932244384765625,0.16896540456414222,0.8211258292376995,0.526176083701849
1789323817875207400,2.94220751953125,0.29481632841452954,0.6113514444231987,0.9077502197235822
1789323817885170200,2.952170166015625,0.6393407636541872,0.3990004871189594,1.4940017096817493
1789323817895132400,2.96213232421875,0.26421792266368865,0.8061275820702314,0.9228227011710405
1789323817905095400,2.972095458984375,-0.10753332300186157,1.3859236122786998,0.49370033977180716
1789323817915058400,2.982058349609375,-0.3270083600323647,1.296893329694867,0.17798603862673043
1789323817925021400,2.992021484375,-0.8710791429955512,1.0340016871988773,-0.07485474997609853
1789323817934983200,3.001983154296875,-0.8427636605501174,0.40002106233835216,0.08998626813441514
1789323817944946200,3.0119462890625,0.5867524982828647,1.393883046850562,0.9211471691742539
1789323817954909400,3.021909423828125,1.1901404164809732,2.9748651208490133,1.1418041825309395
1789323817964872400,3.03187255859375,0.8494717068213969,3.168676212856173,0.18513620264232158
1789323817974834400,3.04183447265625,0.034047267563082274,2.9045746100485323,-0.8403668285414576
1789323817984797200,3.051797119140625,-0.10230060998015104,2.3267022413790226,-1.0229460401773451
1789323817994760200,3.06176025390625,0.32256493422482163,1.779298076209426,-0.7301175245791673
1789323818004723200,3.07172314453125,0.2964005653986707,1.233490824842453,-0.2776236399427056
1789323818014685400,3.081685546875,0.299383965123631,0.6706611270040274,-0.017959435060620307
1789323818024648400,3.0916484375,0.5192167660832405,0.6123714351207018,-0.0717659901805222
1789323818034611200,3.101611083984375,0.8724082727074622,-0.8337403961390256,-0.8067144420474768
1789323818044574200,3.11157421875,0.7599182040810585,-2.727735111108422,-1.7722474270455537
1789323818054536400,3.121536376953125,-0.30122042330317195,-1.5092010323792695,-0.8966570171706378
1789323818064499500,3.13149951171875,-0.7505237682700157,6.086566231551766,1.7507842216476797
1789323818074462500,3.14146240234375,-0.4004629608869552,8.766391590493917,2.052006179320812
1789323818084425200,3.15142529296875,0.08565357269234955,5.3362961457818745,0.7266010408908128
1789323818094387200,3.16138720703125,-0.25145072248391803,4.464257290908694,0.990484032511711
1789323818104350200,3.17135009765625,-1.068840360867977,5.36909074640274,1.8908581705093384
1789323818114313500,3.1813134765625,-1.122021331435442,4.08510892072916,1.7191703552439808
1789323818124276500,3.1912763671875,-0.18985974229918792,2.684337867930531,1.4249477549389005
1789323818134238200,3.20123828125,0.5774760628283023,1.7616817554980515,-0.14252638351507485
1789323818144201200,3.211201171875,0.8422960430383681,0.07355798816382884,-1.2101273387812077
1789323818154164200,3.221164306640625,0.40186000473592426,-4.682327794903516,-2.7320617421358824
1789323818164127200,3.231127197265625,0.16975209796242416,-16.28270947013497,-4.821959260694682
1789323818174089500,3.24108935546875,0.7909259212851524,-14.283545238685607,-0.8531438925281166
1789323818184052200,3.25105224609375,0.9815151286363601,-6.634427492839097,4.329228058215976
1789323818194015200,3.26101513671875,1.7357856822192668,-3.5393215431064364,2.5295851131141185
1789323818203978200,3.270978271484375,1.9125848491489885,-4.766360999852418,-1.8807678613886236
1789323818213940500,3.2809404296875,0.08666128843016922,-6.992571653434633,-1.4190537284642457
1789323818223903500,3.290903564453125,-1.1050631823718546,-4.259005351954698,-0.29329394115284085
1789323818233866200,3.3008662109375,-0.5255542254764587,-1.9146809446454047,-1.2860656462103128
1789323818243829200,3.310829345703125,-0.41148938181400296,0.15769757609665394,-1.2550892009273171
1789323818253791200,3.320791259765625,-0.5473720895309001,0.7659469628512859,-0.5094293854318559
1789323818263754200,3.330754150390625,-0.7490787570934743,0.7110644490629434,0.4982936589114368
1789323818273717500,3.340717529296875,-0.8022562205296009,0.6405763698637486,0.7316754946108907
1789323818283680500,3.350680419921875,-0.7655565022289752,0.865506238234043,1.128419069648534
1789323818293642200,3.360642333984375,-0.574919291017577,1.4019763369351625,1.6499112333178518
1789323818303605200,3.370605224609375,-0.39078685859031975,1.482246974480152,1.9168975977815688
1789323818313568300,3.380568359375,-0.33709728091359137,1.1180062505751847,2.2874846219733356
1789323818323531300,3.39053125,-0.19680844719223678,0.7131278113335371,1.2067917646177113
1789323818333493200,3.4004931640625,-0.4762543341260403,0.0817120685249567,0.7766852875519543
1789323818343456300,3.410456298828125,-0.7004009431641548,-0.2565051563292742,0.8779097196679562
1789323818353419300,3.420419189453125,-0.8005331230640411,-0.20766893696784972,0.7165444879092275
1789323818363382300,3.43038232421875,-0.8312555205207317,-0.05342530071735382,0.7337471132531762
1789323818373345300,3.44034521484375,-0.7048783808391541,-0.09106967945694923,0.9203077957406639
1789323818383307300,3.450307373046875,-0.4293490097619593,-0.21537878069281577,1.0522183118909596
1789323818393270300,3.460270263671875,-0.10288754302263259,-0.40182138975858683,0.9374837522733956
1789323818403233300,3.4702333984375,0.15822291514500975,-0.5032376911848783,0.6411787927363067
1789323818413196300,3.4801962890625,0.07547448930963874,-0.41681846788227556,0.4596748821817338
1789323818423158500,3.490158447265625,-0.2631868260502815,-0.5466846187233925,0.1288189798757434
1789323818433121500,3.50012158203125,-0.5079916077136993,-0.6271393806636333,0.2761062211170792
1789323818443084300,3.510084228515625,-0.549371081328392,-0.7341115626513958,0.4514753552436828
1789323818453047300,3.52004736328125,-0.8392755261734127,-0.7544529244124889,0.45511268883273004
1789323818463009300,3.53000927734375,-1.0639677863955497,-0.7088298218786716,0.05479731972292065
1789323818472972300,3.53997216796875,-1.0408630974009632,-0.4971253457844257,-0.6372736750565469
1789323818482935600,3.549935546875,-0.9368848365321755,-0.48733226604461666,-0.6326907311804593
1789323818492898300,3.559898193359375,-0.6880323869131505,-0.42995442830920216,-0.1237181496053934
1789323818502860300,3.5698603515625,-0.27062881261929866,-0.43403848275244233,0.6816022077351808
1789323818512823300,3.5798232421875,0.18255232362896204,-0.2803770303040743,0.9436739121504127
1789323818522786300,3.589786376953125,0.3749064948260784,-0.36583705318570137,0.9618136722140014
1789323818532749300,3.599749267578125,0.3716626905992627,-0.33489304886758325,0.8076794876873493
1789323818542712300,3.60971240234375,0.4206862492263317,-0.07444938404560089,0.7476505509212613
1789323818552674300,3.61967431640625,0.35699002212435005,-0.3275000160068273,0.8852204080075025
1789323818562637300,3.62963720703125,0.24096739545762538,-0.12997896356582642,0.6155328217610716
1789323818572600300,3.639600341796875,0.1224091128334403,0.5957850419789552,0.4094482313752174
1789323818582563300,3.649563232421875,0.014688158304989337,0.5704314050137996,0.45978038838282226
1789323818592525300,3.659525390625,-0.04239566491991281,0.5395253946185111,0.47362449707910415
1789323818602488300,3.66948828125,-0.07604016036838293,0.3879775733232498,0.8353460777699947
1789323818612451300,3.679451416015625,-0.17642127352803944,0.5586106188386678,0.8446411448597908
1789323818622414300,3.689414306640625,-0.16502572702765464,0.7015601231366395,0.9539556521899998
1789323818632377300,3.69937744140625,-0.31105712298899885,0.6496978339523076,0.9564604746177792
1789323818642339300,3.70933935546875,-0.39787148308902975,0.5205114820688963,1.3225862816169858
1789323818652302300,3.71930224609375,-0.46468584221154446,0.7958703919500112,1.078662812832743
1789323818662265300,3.729265380859375,-0.6618146804645657,0.8464081545323133,1.0309763480283318
1789323818672228400,3.739228271484375,-0.6792135590329765,0.8168956443220377,1.0360251558504998
1789323818682190300,3.7491904296875,-0.7419266203165054,1.0085258851587773,0.8403792496316135
1789323818692153000,3.759153076171875,-0.6488192975521088,1.262495385530591,0.7957967421919107
1789323818702116400,3.769116455078125,-0.5297314380958676,1.530981487032771,0.4382962863273918
1789323818712079400,3.779079345703125,-0.4840434536322951,1.8460797021061182,0.1972724845074117
1789323818722041300,3.789041259765625,-0.37182518768459555,2.0864052925288674,0.0798515353500843
1789323818732004400,3.79900439453125,-0.2685913154423237,2.267494265606999,0.0604495002657175
1789323818741967400,3.80896728515625,-0.22499328899532556,2.3375194034695626,0.15891352775767445
1789323818751930000,3.81893017578125,-0.16366349876374006,2.343616551300883,0.2530205290839076
1789323818761893400,3.828893310546875,-0.14125877473205328,2.3183844948887824,0.3339524070166051
1789323818771855400,3.83885546875,-0.12949381039738656,2.277819260266423,0.4529729003250599
1789323818781818400,3.848818359375,-0.08265373328924179,2.176035294571519,0.5214331269584596
1789323818791781400,3.858781494140625,-0.10625526589006185,1.9961480984985827,0.6009783728383481
1789323818801744100,3.868744140625,-0.24744360573440788,1.640740669390559,0.6643610039465129
1789323818811706400,3.878706298828125,-0.48251551341265436,1.2207868260920047,0.8333709783047437
1789323818821669400,3.88866943359375,-0.7985127231523395,0.7977922999233007,1.0075159774638711
1789323818831632400,3.89863232421875,-1.1683785934627056,0.45587738959491253,1.2774804809555411
1789323818841595400,3.908595458984375,-1.4621502351298927,0.12193477331995964,1.5436637123428285
1789323818851558100,3.91855810546875,-1.6935995683968066,-0.18379180229604244,1.7388139439992605
1789323818861520400,3.928520263671875,-1.8020076284065842,-0.33862229852378367,2.044447142243385
1789323818871483400,3.9384833984375,-1.7483067256182432,-0.4021037138313055,2.2030910592794415
1789323818881446400,3.9484462890625,-1.7717118588641285,-0.309520122680068,1.7844686107151209
1789323818891409400,3.958409423828125,-1.7297653990164399,0.002345686343312263,1.437295925989002
1789323818901371100,3.96837109375,-1.5746192609682679,0.41689796285927294,1.3211499652035534
1789323818911334400,3.97833447265625,-1.3440069630473852,0.7829489510565996,0.7445603298209608
1789323818921297400,3.98829736328125,-1.1553449243664742,1.04776016343832,-0.1965413937538862
1789323818931260700,3.9982607421875,-0.9324886473998427,1.1612655465871096,-0.921161782221496
1789323818941223700,4.0082236328125,-0.6059083765864371,0.9437421550810337,-1.3082786470621823
1789323818951185700,4.018185546875,-0.3212202050849795,0.20628712722063064,-1.4836865057639776
1789323818961148700,4.028148681640625,-0.04438800778090954,-1.032303066587448,-1.5123942754626274
1789323818971111700,4.038111572265625,0.33140023831576104,-2.3560481628507373,-1.3553640772335231
1789323818981074700,4.04807470703125,0.3018602555766702,-3.0644641432315107,-1.2207076233759522
1789323818991036700,4.05803662109375,-0.48448505991995333,-3.2615760303497314,-1.2132910635091363
1789323819000999700,4.067999755859375,-1.7717621277466415,-3.8059798446595665,-1.3677835599541663
1789323819010962700,4.077962646484375,-2.76144039683342,-4.469906694972515,-1.0905912971660494
1789323819020925700,4.08792578125,-2.7614766371905803,-4.295646691131592,-0.6311017084233462
1789323819030887700,4.0978876953125,-1.627564669214189,-2.66710733166635,-0.7606877271488308
1789323819040850700,4.1078505859375,-0.30342984298095105,-0.4993564658373594,-1.2273581673063336
1789323819050813700,4.117813720703125,0.5205462611213326,0.36759587955176826,-1.3511429524071514
1789323819060776700,4.127776611328125,1.2007473698869346,0.46231823629736896,-1.347657302248478
1789323819070739700,4.13773974609375,1.940295132242888,0.7296580903738736,-1.2060650577783585
1789323819080701700,4.14770166015625,2.836078873710334,1.142629819700122,-0.6979451475098729
1789323819090664700,4.157664794921875,3.5973777184948323,1.3418489082306622,-0.0962453285291791
1789323819100627700,4.167627685546875,3.7255437874197956,1.4631395384281873,0.6757720402769744
1789323819110590700,4.1775908203125,3.2143978073284027,1.478638136333227,1.6084601557716727
1789323819120552400,4.187552490234375,2.2646175411269067,1.304134971386194,2.5117484276503323
1789323819130515500,4.197515380859375,1.3589267381511627,0.8733096054613589,3.008162994816899
1789323819140478700,4.207478759765625,1.096564380226284,0.34832536189258095,2.9220468461140987
1789323819150441700,4.217441650390625,1.2653731329239903,0.14445640172958374,2.190580245013535
1789323819160403700,4.22740380859375,1.4057707607820629,0.2690729614794254,1.3976608118236065
1789323819170366700,4.23736669921875,1.1289691047467292,0.42553661186695096,0.4791672258980572
1789323819180329500,4.24732958984375,0.6825425573252141,0.6392535968273878,-0.41484862911403175
1789323819190292500,4.25729248046875,0.21557057693786918,0.6809107183396815,-1.022891971902549
1789323819200255700,4.267255859375,-0.16971344645246864,0.24898937387168407,-1.4854862486623226
1789323819210217700,4.2772177734375,-0.30814474267363545,-0.1235480537354946,-1.689697300261259
1789323819220180700,4.2871806640625,-0.17290610501393675,-0.15566343992054463,-1.7247532699428498
1789323819230143500,4.2971435546875,0.14362769582048057,0.06494096646606921,-1.5043316727772353
1789323819240106500,4.3071064453125,0.5743455097176134,0.4191039484709501,-0.7642446889780461
1789323819250068700,4.31706884765625,0.8124327466290444,0.452086765140295,0.09577171966806053
1789323819260031700,4.32703173828125,0.884412014234066,0.39772973653078075,1.1636689544670282
1789323819269994800,4.336994873046875,1.0569862569451332,0.07425356921255588,2.133726723413169
1789323819279957800,4.346957763671875,1.2844085266530514,-0.19432137961685655,2.6967005058974025
1789323819289920500,4.35692041015625,1.4835200631558894,-0.18525135345458985,2.530827806651592
1789323819299882800,4.3668828125,1.5784557703912256,0.2618465173572302,2.2900779994674028
1789323819309845800,4.376845703125,1.5465665941774844,0.9528636191695928,2.142453927487135
1789323819319808800,4.386808837890625,1.1545382841587066,1.2621587009221316,1.797302519455552
1789323819329771800,4.396771728515625,0.4706301375687122,1.0458119519799947,1.4280962820976972
1789323819339733500,4.4067333984375,-0.1259527676565107,0.764217947101593,0.9932171107374131
1789323819349696500,4.416696533203125,-0.4326841455340385,0.5918044479101896,0.33971418541371823
1789323819359659800,4.42665966796875,-0.6107008350273594,0.35645606137812136,0.11112038770839572
1789323819369622800,4.436622802734375,-0.44713005604837086,0.49709904229938984,-0.4952567754335701
1789323819379584500,4.44658447265625,-0.38377193832695483,0.8183306455612183,-1.0884079617775977
1789323819389547500,4.456547607421875,-0.6038087739586829,0.7560293799489736,-0.8541352416530251
1789323819399510500,4.466510498046875,-0.7064390542846173,0.6869868233829737,-0.5059492882311344
1789323819409473500,4.4764736328125,-0.775610790188238,0.6497492718786001,-0.3651939329765737
1789323819419435800,4.486435791015625,-0.812234009186551,0.6926806511104107,-0.02480425945408642
1789323819429398800,4.496398681640625,-0.7405435684602707,0.6432230849802494,0.3999382794257253
1789323819439361500,4.506361572265625,-0.5418447044115513,0.574550530770421,0.7904106652393936
1789323819449324500,4.516324462890625,-0.33421792608499523,0.5977069499522447,1.090361726193875
1789323819459287600,4.52628759765625,-0.3008709522783756,0.5988280629366636,1.2973350821129976
1789323819469249800,4.536249755859375,-0.4615040703702718,0.6168126324385405,1.4977175153344868
1789323819479212800,4.546212890625,-0.670684580944851,0.4310854781657457,1.4669016674406825
1789323819489175600,4.556175537109375,-0.9154980573713779,0.19858722036778925,1.4234607312515377
1789323819499138600,4.566138671875,-1.234285190090537,0.02993862666785717,1.4784154334932564
1789323819509100800,4.576100830078125,-1.5283314109154045,0.005562310302257538,1.4776915031328797
1789323819519063800,4.586063720703125,-1.7680735023617744,-0.06647416738271712,1.4901380199909209
1789323819529026800,4.59602685546875,-1.7055140242047606,0.0014577975928783415,1.546215004260838
1789323819538989600,4.605989501953125,-1.431657189449668,0.02830897963941097,1.6484310777626932
1789323819548951600,4.61595166015625,-1.3107773320101201,-0.12554185790121555,1.4887269841492174
1789323819558914600,4.62591455078125,-1.2272095526158808,-0.01099368770122528,1.9614339279919861
1789323819568877800,4.6358779296875,-1.1496676093824207,-0.15137889446914196,2.3684297977790236
1789323819578840800,4.6458408203125,-0.9939690981484949,-0.48143268661201,2.7903073026165366
1789323819588802600,4.655802490234375,-0.9393845443934201,-1.03914372626245,3.0383412754595276
1789323819598765600,4.665765625,-0.987977602648735,-1.9449895736694334,3.1225264560997483
1789323819608728600,4.675728515625,-0.7210423838503658,-3.152686032041907,3.244380857659876
1789323819618691600,4.685691650390625,-0.1590301398746669,-3.5836487606108185,3.2622806714877486
1789323819628654600,4.695654541015625,0.05642506705522537,-4.022832789558172,3.124256056371331
1789323819638616600,4.705616455078125,0.20669702319577335,-4.478796688392758,2.7639532564371825
1789323819648579600,4.71557958984375,0.6518190638899802,-4.6641912497103215,2.0296027704633772
1789323819658542600,4.72554248046875,0.982860844156891,-4.380183753949403,0.5424203854076564
1789323819668505600,4.735505615234375,0.8879140310056507,-3.2353707449913025,-0.3569845787642523
1789323819678467800,4.7454677734375,0.06079254154972732,-1.386329854992032,-0.1913775812499225
1789323819688430600,4.7554306640625,-0.8358855914741754,0.10476444281041622,-0.26487083361446856
1789323819698393600,4.7653935546875,-1.2972259226500986,0.9686848731577395,-0.5617050046574324
1789323819708356600,4.775356689453125,-1.6845774730294942,1.044255954709649,-0.6194824361696839
1789323819718318600,4.785318603515625,-2.247498356282711,0.38003742797374723,-0.8622476017642766
1789323819728281900,4.79528173828125,-2.484946929964423,-0.26154841119349004,-1.1173624727789313
1789323819738244900,4.805244873046875,-1.6372539963185786,-0.9674678985834121,-1.8316376275166868
1789323819748207600,4.81520751953125,-0.849998872500658,-1.7751427100956438,-2.67922067104727
1789323819758169600,4.825169677734375,-0.005963365383818745,-2.6497867790311576,-3.642259355011582
1789323819768132600,4.835132568359375,1.1275369530517607,-3.153078246229887,-4.631892031390965
1789323819778095600,4.845095703125,2.096694046831131,-2.885566542717814,-3.773619836063683
1789323819788059000,4.855058837890625,2.120072730461508,-2.3386270724505183,-1.5202309604376554
1789323819798020600,4.8650205078125,1.8119393859647213,-1.915676385423541,0.44035058850869535
1789323819807983600,4.874983642578125,1.5181003781497477,-1.7669687559902667,1.2606029959127307
1789323819817946600,4.884946533203125,1.3263561555445194,-1.7903601529717443,0.7099876136116683
1789323819827909600,4.89490966796875,1.2296303500220178,-1.7162462844908237,0.20079379050135612
1789323819837871600,4.90487158203125,1.311285719923675,-1.161602231195569,-0.10771262509152292
1789323819847834600,4.914834716796875,1.0784675825215875,-0.3822293850600719,0.9176232328318059
1789323819857797600,4.924797607421875,1.0817772915914654,-0.19086685524880884,1.0712763558432459
1789323819867760600,4.9347607421875,1.3632880021005869,0.4220014234781265,0.3377443466454744
1789323819877723600,4.9447236328125,1.4732237100690602,1.2131325119465588,-0.23749796578139065
1789323819887686000,4.954685791015625,1.5831673090830445,1.4909288781076668,-0.6274003696873783
1789323819897648600,4.964648681640625,1.4886121255978941,1.708945606088638,-0.9467974509984254
1789323819907611600,4.974611572265625,1.388437348665297,1.7855583056479691,-1.0494071999929844
1789323819917574700,4.98457470703125,1.319017775480449,1.3179448855519293,-1.288155896487832
1789323819927536600,4.99453662109375,1.3493059462383388,1.2589227877408264,-1.530243966538459
1789323819937499400,5.00449951171875,1.55285049675256,1.8262106340318918,-1.79759565718323
1789323819947462400,5.01446240234375,1.651211210000515,2.389373509347439,-2.0394588324367997
1789323819957425400,5.02442529296875,1.6687684940010308,2.923027381584048,-1.963178579702228
1789323819967387100,5.03438720703125,1.734822974666953,3.290039908289909,-1.817073387852311
1789323819977350100,5.04435009765625,1.8183447229623793,3.6074814716190096,-1.509302739188075
1789323819987313200,5.054313232421875,1.826370500768721,3.922055370557308,-1.5628184946678578
1789323819997276400,5.0642763671875,1.5795502876296639,4.212084610825777,-1.1459218469828367
1789323820007238400,5.07423828125,1.2591808541551233,4.391979990205169,-0.44628114760145543
1789323820017201200,5.084201171875,0.8592699741929769,4.566002678158879,0.07844955959767103
1789323820027164200,5.0941640625,0.34826427935510873,4.455364959400892,0.38316330490931866
1789323820037127200,5.104127197265625,-0.28487638754993677,4.473790258407592,0.412284769975394
1789323820047089400,5.11408935546875,-1.1724018576294184,4.0060535041928285,1.0601296695373952
1789323820057052400,5.124052490234375,-2.0831857459604737,2.8046716357946395,2.1042875707000492
1789323820067015200,5.13401513671875,-2.4990458902046084,1.3221435062855482,2.8926959562063215
1789323820076978200,5.143978271484375,-2.1948338108047842,-0.26023908216059205,4.008240785104036
1789323820086940400,5.1539404296875,-1.8384756568431853,-2.156514017021656,5.244243300506472
1789323820096903400,5.1639033203125,-2.080729584980011,-4.1645770097196095,5.817406760832667
1789323820106866400,5.173866455078125,-2.908564556467533,-4.998068984055519,3.4919767313465475
1789323820116829400,5.183829345703125,-3.83470471162349,-3.2401439507424827,0.8354125671349465
1789323820126791200,5.193791259765625,-4.011244058573245,-1.186686403569579,-0.7759121842876077
1789323820136754200,5.203754150390625,-3.5921705052405595,-0.9572609773457049,-2.0867088055200873
1789323820146717200,5.21371728515625,-2.628132873366773,-1.96125857142508,-1.8188088333427905
1789323820156680400,5.223680419921875,-0.5201262821435928,-3.7409436011254784,-0.861498463897407
1789323820166643500,5.2336435546875,2.0918343318402766,-5.324637856692076,-0.2251604622557759
1789323820176605200,5.243605224609375,3.684505966849625,-6.253641292324662,0.09987433268129825
1789323820186568200,5.253568115234375,2.8079651243820787,-5.214086647173762,-0.588428980127722
1789323820196531200,5.26353125,0.15134528446048498,-3.3285943876117465,-1.7160998617574572
1789323820206494200,5.273494140625,-2.0762237979933618,-2.31924724919796,-1.3508577057249844
1789323820216456200,5.283456298828125,-2.1372958140715954,-1.4280068502485752,-1.289176910098642
1789323820226419200,5.293419189453125,-0.5829886887699365,-0.29265958877205844,-2.690351136870682
1789323820236382200,5.30338232421875,0.5736734556749463,0.2476461425691843,-3.2009473741248247
1789323820246345200,5.31334521484375,1.4499346044182777,-0.033082769912481304,-2.942919830533862
1789323820256307500,5.323307373046875,2.2162243893578646,-0.13505378261208534,-2.244099946016073
1789323820266270500,5.3332705078125,2.7640461954176425,0.009935703080892562,-1.2950614380925893
1789323820276233200,5.343233154296875,3.20754925660789,0.6316448753893376,-0.29995559099912644
1789323820286196200,5.3531962890625,3.626229426708817,1.3706465481698513,0.2575688400380313
1789323820296158200,5.363158203125,4.03881887871921,1.833858518436551,0.30415304268896576
1789323820306121500,5.37312158203125,4.249753247223794,1.9958874017357826,0.6639338645756244
1789323820316084500,5.38308447265625,4.3228222828269,1.7875912727802992,1.6868300742618738
1789323820326047200,5.393047119140625,4.444190362174809,1.3813047203063964,2.634139712566137
1789323820336009200,5.40300927734375,4.046648549431562,0.8773188411027193,2.3990002926096317
1789323820345972200,5.41297216796875,2.8156957186341285,0.5370101969271898,1.441732447131723
1789323820355935200,5.422935302734375,1.1801929498970507,0.4690618653386831,0.27175489403977987
1789323820365898500,5.4328984375,-0.23873262214288113,0.49217970607578754,-0.9038269088000058
1789323820375860200,5.442860107421875,-1.0669091005444526,0.2380430324435234,-1.7425579528331756
1789323820385823200,5.4528232421875,-1.2272935776375233,-0.1712666672438383,-1.6073774751015006
1789323820395786200,5.4627861328125,-0.9301835853278636,-0.4487012143552303,-0.8764354823969304
1789323820405749200,5.472749267578125,-0.2793991251826286,-0.21308920845091342,-0.006171674372255802
1789323820415711500,5.48271142578125,0.7899779729105532,0.3302893544644117,0.6177678873367607
1789323820425674200,5.49267431640625,1.7063104352794587,0.7025970649689436,0.6006222528770566
1789323820435637200,5.50263720703125,2.388257072538137,1.300746497991681,-0.23851211125999688
1789323820445600300,5.512600341796875,2.6387340546190736,1.8208359552562237,-0.8050529385760427
1789323820455563300,5.522563232421875,2.4296190104961393,1.4749462960779667,-0.2655747441001236
1789323820465525500,5.532525390625,2.0411060151219367,1.026452586993575,0.6565883241184055
1789323820475488300,5.54248828125,1.4644260711073875,0.7043868709951638,1.2451574433691799
1789323820485451300,5.552451171875,0.6331763227403163,0.5006792388737201,1.4644295782387255
1789323820495414300,5.562414306640625,-0.5297264696598053,0.43418169061541556,1.1576840348385273
1789323820505376300,5.572376220703125,-1.4542092129975557,0.5930313593566418,0.8516922324150801
1789323820515339300,5.58233935546875,-1.270104691490531,0.8693003698199987,0.43149946579411624
1789323820525302300,5.59230224609375,-0.732428724130988,1.1066279474705456,0.18629735537618397
1789323820535265300,5.602265380859375,-0.43467265247013415,1.1091548355996608,0.3477173860620707
1789323820545227300,5.612227294921875,-0.33753271318878975,1.1673697086811066,0.47137905623987314
1789323820555190300,5.622190185546875,-0.21200725843310356,1.2097580670773982,0.4742437249559909
1789323820565153300,5.6321533203125,-0.16232282474450765,1.2748691294133663,0.5202451592829078
1789323820575116300,5.6421162109375,-0.3136106068640947,1.252728024753928,0.9267829100389033
1789323820585078300,5.652078369140625,-0.5575561413496732,0.9967477690815925,1.5544737140402196
1789323820595041300,5.662041259765625,-0.8468284988362341,0.7115998711138963,2.073052766741812
1789323820605004300,5.67200439453125,-0.9714993460565805,0.6309323432058096,2.4334857689268885
1789323820614967300,5.68196728515625,-1.0123188477009535,0.5725099648535251,2.437457595167309
1789323820624929300,5.69192919921875,-1.4216441833488642,0.269482126802206,2.393456248616427
1789323820634892300,5.701892333984375,-1.6907469554446637,-0.011887421670556068,2.2647462820731104
1789323820644855300,5.711855224609375,-1.6857539694629609,0.07575988212227822,2.2824457510232925
1789323820654818300,5.721818359375,-1.7411786273039875,-0.26792203787863256,1.7562885181523857
1789323820664780300,5.7317802734375,-1.7524632607758044,-0.2681184372335672,1.4488951783679425
1789323820674743300,5.741743408203125,-1.784694966816902,-0.3855103064268827,1.363755911873281
1789323820684706300,5.751706298828125,-1.7108904565460978,-0.4600736722409725,1.2567597644880413
1789323820694669300,5.76166943359375,-1.498831467925757,-0.7128717907458544,1.5437788631550966
1789323820704631300,5.77163134765625,-1.0489940891474485,-1.2652671883314848,1.5058572749093173
1789323820714594300,5.78159423828125,-0.8813089336521923,-1.7486720517992973,1.8339510190255939
1789323820724557300,5.791557373046875,-1.0651667869217694,-2.5677356878101825,2.611416716365516
1789323820734520300,5.801520263671875,-1.0932663615942,-3.3407465976983306,3.149021664315462
1789323820744482300,5.811482421875,-0.7725164043694734,-3.79105349368453,3.192793293763697
1789323820754445300,5.8214453125,-0.35527459650859233,-4.204102379900217,3.190966955119371
1789323820764408300,5.831408203125,0.23183482545316217,-4.346039492285251,3.338884310957789
1789323820774371300,5.841371337890625,0.9439854623176157,-4.279226886728406,3.1782652944564815
1789323820784333300,5.851333251953125,1.364426212350279,-3.5581595145672558,2.446171793629229
1789323820794296300,5.86129638671875,1.2727876469641923,-2.180831296676397,1.276630293866992
1789323820804259300,5.87125927734375,0.6441588314604014,-0.645521425050497,0.13543036083951593
1789323820814222300,5.881222412109375,-0.3832856161147356,0.4954185418665409,-0.3743780139725655
1789323820824185300,5.891185302734375,-1.5556997487038373,1.0300620096623896,-0.7300754390031099
1789323820834147300,5.901147216796875,-2.7694395788937807,0.5587783766210079,-1.375178930902481
1789323820844110300,5.9111103515625,-2.9026608853816986,-0.41795068678259845,-2.127828605285287
1789323820854073300,5.9210732421875,-2.025907276946306,-1.3886439771533012,-2.8188097590014336
1789323820864036400,5.931036376953125,-0.6461386071007699,-2.627773100143671,-3.8497479669764636
1789323820873998000,5.940998046875,1.0919430040359497,-4.102705952218175,-6.007493863880634
1789323820883961000,5.950961181640625,2.542657360655069,-4.476250511041283,-6.1688768504917615
1789323820893924400,5.96092431640625,2.863516623473167,-3.8309821839690206,-3.7518949109897015
1789323820903887400,5.970887451171875,2.216139925944805,-2.9674907926887273,-0.8426243982098996
1789323820913849300,5.980849365234375,1.6999357856810091,-2.575748898395896,0.8681300108663738
1789323820923812400,5.990812255859375,1.4179612570524214,-2.5019647002607583,1.0646133908227084
1789323820933775400,6.000775390625,1.009993181232363,-2.211477779352665,1.1296489037044346
1789323820943738400,6.01073828125,0.8848816775724291,-1.7917314413249492,0.7248360770449042
1789323820953700400,6.020700439453125,0.9339479062974453,-0.7185498363822698,1.2355633933328092
1789323820963663400,6.030663330078125,0.814753956118226,-0.1840676966279745,1.6474739231683313
1789323820973626400,6.04062646484375,0.8731777957752347,0.1731535039037466,1.1893315112508833
1789323820983589400,6.05058935546875,1.1329989447847009,0.7072726555645465,0.43621524226963515
1789323820993551600,6.060551513671875,1.479492707335949,1.0998849029511213,-0.21432707968279718
1789323821003514400,6.070514404296875,1.7547671538040042,2.1142723736196753,-0.6279724704869091
1789323821013477400,6.080477294921875,1.9159946575924753,2.6658698988258838,-0.6173248197443783
1789323821023440400,6.0904404296875,1.9866326666563747,2.8216508276462555,-0.7116055702023207
1789323821033402400,6.10040234375,1.9753727292343972,2.7991701157689093,-0.8858343021221459
1789323821043365400,6.110365478515625,1.8507465248733759,2.7231320012271403,-1.0429000100560486
1789323821053328600,6.12032861328125,1.6947917007908224,2.8381635710299014,-1.2879577435672283
1789323821063291400,6.13029150390625,1.685536381189525,3.3110832808405157,-1.8936632910579443
1789323821073253400,6.14025341796875,2.0683336292654273,3.835573018890619,-1.900034579655528
1789323821083216400,6.15021630859375,2.3833365672707556,4.1901346448242665,-1.7970052900746463
1789323821093179400,6.160179443359375,2.5136133447393774,4.461492502370477,-1.5135698951132595
1789323821103142400,6.170142333984375,2.5042761920735237,4.616404247140884,-1.2317438350446521
1789323821113104400,6.1801044921875,2.337527586776018,4.730440960687399,-0.9454197329044342
1789323821123067400,6.1900673828125,2.109498583346605,4.767449964132905,-0.6543646567195653
1789323821133030400,6.200030517578125,1.8385703493893146,4.73073614424169,-0.3680361706651747
1789323821142993400,6.209993408203125,1.4043684927687048,4.623941072386503,-0.18334420465901494
1789323821152956400,6.219956298828125,0.712934042327106,4.333043817111849,0.0754303579069674
1789323821162918400,6.22991845703125,-0.4124345537096262,3.56050169377923,0.34152795683741566
1789323821172881400,6.23988134765625,-1.9192577510416506,2.103697203591466,1.004336762905866
1789323821182844400,6.249844482421875,-3.5805458261594176,0.03200315798223018,1.9580591908618807
1789323821192807400,6.259807373046875,-4.517383608679473,-2.5056647238224743,2.818559291371703
1789323821202769400,6.269769287109375,-4.455230519366264,-4.9587294918358324,4.233889615398645
1789323821212732400,6.279732421875,-4.09316538593471,-6.60385524444282,4.8718160552755
1789323821222695400,6.2896953125,-4.4768157437086105,-6.271224879810213,3.3235108007371426
1789323821232658400,6.299658447265625,-5.42052867269516,-3.5283068126171826,1.3648007447510957
1789323821242620400,6.309620361328125,-5.430015462964773,-0.6279185483425855,-0.20983283700346944
1789323821252583400,6.31958349609375,-4.305457014267146,0.8331465218991041,-1.5949768432117997
1789323821262546200,6.329546142578125,-2.764187065193057,0.6128717858582735,-2.4958336501598355
1789323821272509400,6.339509521484375,-1.0333408852025865,-0.7070452765494585,-2.6322183891147373
1789323821282471400,6.349471435546875,1.3804308600813149,-3.6360569932401177,-1.323255559180677
1789323821292434400,6.359434326171875,4.826728959314525,-5.564721455052495,1.5075108873352407
1789323821302397400,6.3693974609375,6.768544871383905,-6.273295840865373,1.8930942589983344
1789323821312360400,6.3793603515625,4.112010956180096,-6.370744992226362,-1.3249611940547823
1789323821322322400,6.389322509765625,-0.9733923201963305,-7.21848702571094,-2.3352466362319886
1789323821332285400,6.399285400390625,-3.9378140807032582,-7.059304764014482,0.321180165335536
1789323821342248400,6.40924853515625,-2.272699433034658,-3.932540524214506,0.0899609875626862
1789323821352211500,6.41921142578125,0.43072307459414005,0.4459913708746433,-3.514410096950829
1789323821362174500,6.429174560546875,0.8235553944721817,1.7991092766165733,-4.277457538968324
1789323821372136400,6.439136474609375,1.1320961507260798,0.4522089302152395,-3.530378358194232
1789323821382099500,6.449099365234375,1.87871355920732,0.22019933271706102,-2.014116593648493
1789323821392062500,6.4590625,2.976877337454259,0.498562685111165,-0.25212182667851446
1789323821402025500,6.469025390625,4.4992681062743065,1.3252356270819903,0.8810372771039605
1789323821411987200,6.4789873046875,6.224782277587056,2.3674381563931703,1.2022909460671245
1789323821421950500,6.488950439453125,7.720125465005636,3.393904771912098,1.0512876069121062
1789323821431913500,6.49891357421875,7.546047247472405,3.691468499338627,0.5188524628154934
1789323821441876500,6.50887646484375,6.003870412686466,2.755479442602396,-0.23464696026444434
1789323821451838500,6.51883837890625,4.820803368657827,1.1661404591470956,-0.37661622135341166
1789323821461801200,6.52880126953125,3.3895337172210214,-0.06555120731890202,0.033883711031824346
1789323821471764200,6.53876416015625,1.488318841739744,-0.4590542660653591,0.2922001545667648
1789323821481727500,6.5487275390625,-0.39399113452434537,-0.32650632879436015,-0.15484664364494383
1789323821491690500,6.5586904296875,-1.8446692507863043,-0.27586452131569383,-0.9242970115073025
1789323821501652500,6.568652587890625,-2.147900356324762,-0.21811083600521086,-0.755262560294941
1789323821511615500,6.578615478515625,-1.4016869985997675,-0.13687339925467967,0.22539638990350067
1789323821521578200,6.588578125,-0.49711497052088377,0.17996435296237467,1.0178055354837328
1789323821531541200,6.598541259765625,0.47662974330969154,0.877770676523447,0.9612689708780496
1789323821541503500,6.60850341796875,1.508038418340683,1.9771651656091211,0.3292955941867083
1789323821551466500,6.618466552734375,2.1224539265096185,2.448732876288891,-0.5501020990166813
1789323821561429500,6.628429443359375,2.3027403510332105,1.7840075690746307,-1.4878805964529513
1789323821571392300,6.638392333984375,2.169360639113188,0.9932079045176505,-0.9640299600239842
1789323821581354500,6.6483544921875,1.825128684014082,0.35981121702492236,-0.3023657208807766
1789323821591317500,6.6583173828125,1.1303098518311976,0.08369125964343548,-0.21819442263543604
1789323821601280500,6.668280517578125,0.230313314974308,0.11051438463926315,0.18045447456687688
1789323821611243500,6.678243408203125,-0.46921676363945003,0.2944873887211084,0.5729561011858284
1789323821621206500,6.68820654296875,-0.8979039484918117,0.570745877790451,0.9855414615429937
1789323821631168300,6.698168212890625,-0.9109615829855203,0.800589237165451,1.1379545944307
1789323821641131500,6.708131591796875,-0.6586059475511312,1.083560960137844,1.0296415922932327
1789323821651094500,6.718094482421875,-0.24047928314711897,1.3774685031443834,1.0353970140147954
1789323821661057500,6.7280576171875,0.08293963755853474,1.4937620557069777,1.091281179126352
1789323821671019300,6.738019287109375,0.10454999634213745,1.581448522466421,1.0705663809429853
1789323821680982300,6.747982177734375,-0.19876900667548178,1.5655097795784472,1.1025413357440381
1789323821690945300,6.7579453125,-0.6548943796820939,1.4746277316480874,1.299676676803082
1789323821700908500,6.767908447265625,-1.0671692127853631,1.2874994784057139,1.683113099565357
1789323821710871600,6.77787158203125,-1.4427806410104036,0.9804635737568139,1.9605941161669789
1789323821720833300,6.787833251953125,-1.7593354846328495,0.6772399208724499,2.253485029476881
1789323821730796300,6.79779638671875,-1.9856933399796484,0.13559446536004544,2.466436583022773
1789323821740759300,6.80775927734375,-1.9043612106829881,-0.46210020963251586,2.51075503269881
1789323821750722300,6.817722412109375,-1.5249755246162413,-0.6767419082224368,2.3480131788246332
1789323821760685600,6.827685546875,-1.2010909956928342,-0.5367354716390371,2.13457822567597
1789323821770647600,6.8376474609375,-1.064795469391346,-0.19787293461859226,1.900607849498838
1789323821780610300,6.8476103515625,-1.07391240343526,0.03340425695180893,1.8173972129791973
1789323821790573300,6.8575732421875,-1.0355383952468633,0.002756605231761932,1.9794867404244838
1789323821800536300,6.867536376953125,-0.8843120609909295,-0.20384557928740976,2.1145301477730274
1789323821810498600,6.87749853515625,-0.814780990255624,-0.48200317997634406,2.229506041865796
1789323821820461600,6.887461669921875,-0.911402312490344,-0.8608750713020563,2.4524355301991103
1789323821830424300,6.89742431640625,-1.3172365911521018,-1.7673849355757236,2.97710910038352
1789323821840387300,6.90738720703125,-1.632791317821294,-2.805451387995481,3.363942764368653
1789323821850350300,6.917350341796875,-1.4826717757634817,-3.4032886863291263,3.540215277075767
1789323821860312600,6.9273125,-0.9188204797923565,-3.8490281282693144,3.3969419476509093
1789323821870275600,6.937275634765625,-0.22619367776103316,-4.104502187985181,3.2548335703521967
1789323821880238300,6.94723828125,0.2970818621937185,-4.266566142597794,3.2960093380883335
1789323821890201300,6.957201416015625,0.5647954449534416,-4.154293516114354,3.250811767490208
1789323821900163300,6.967163330078125,0.8074164528369903,-3.3754642753362654,2.2854497551448643
1789323821910126300,6.977126220703125,0.7067599568020552,-1.965798552942276,0.9065535572849214
1789323821920089600,6.987089599609375,0.0862554841082543,-0.5297703088015318,-0.07838007455803453
1789323821930052600,6.997052490234375,-1.0334826317608357,0.41862697860896586,-0.5346912524603307
1789323821940014800,7.007014892578125,-2.234994848540425,0.683056498196721,-1.245211950035393
1789323821949976800,7.016976806640625,-3.1320974175214764,-0.06093699152171612,-2.0057582228869197
1789323821959939800,7.02693994140625,-2.702339388567209,-1.3283867845892905,-2.724773630954325
1789323821969903000,7.036903076171875,-1.3381950618982315,-2.673441210862994,-3.5863983515799043
1789323821979866000,7.0468662109375,0.6224677355907857,-4.064953436928987,-5.2021676613211625
1789323821989828900,7.056828857421875,2.346903317886591,-5.106159940940142,-6.7310647432953115
1789323821999790800,7.066790771484375,3.0924247478246687,-4.79838052444756,-5.475330522462725
1789323822009753900,7.07675390625,2.878143699240684,-3.7940643659383055,-2.6974785045325755
1789323822019716900,7.086716796875,2.0228093109309673,-3.0671190416544674,-0.6247860955357551
1789323822029680000,7.09668017578125,1.3027579839445649,-2.6850410477638245,0.045810734060406685
1789323822039641900,7.106641845703125,0.9539011455237865,-2.2579221351414915,0.8164838486507534
1789323822049604900,7.11660498046875,0.8207051196075975,-2.108144830650091,1.060798800970614
1789323822059567900,7.12656787109375,0.9014499505355954,-1.6849100659847258,1.2461959926366806
1789323822069531000,7.13653076171875,0.8013529150143265,-0.9553653728574514,1.6491449251204728
1789323822079494000,7.146493896484375,0.7558350264206528,-0.45806642407178877,1.9295945822693406
1789323822089455900,7.156455810546875,0.9865832256808876,-0.12072656657397747,0.9488051375590264
1789323822099419000,7.1664189453125,1.3909206899136304,0.3975461966574192,0.03752718210071325
1789323822109382000,7.1763818359375,1.7704712111532688,1.3984475782871246,-0.6016290918320417
1789323822119345000,7.186344970703125,2.1291680371955035,2.563293905970454,-0.7986911484591662
1789323822129308000,7.196307861328125,2.3203239385187624,3.0878619699537753,-0.8350739828303456
1789323822139270000,7.206269775390625,2.3420219755858183,3.374711411142349,-1.0665082646586
1789323822149233000,7.21623291015625,2.255103278328478,3.6313042457550764,-1.3682934091724455
1789323822159196000,7.22619580078125,2.0770114412397147,3.486231173431873,-1.6925154264219104
1789323822169159000,7.236158935546875,1.9602491021215915,3.359306921261549,-2.040857154927403
1789323822179121000,7.246120849609375,2.1490584403187034,3.4618975271642207,-2.1564441666558385
1789323822189084000,7.256083984375,2.5477687123194337,3.581908054423332,-1.844327743872255
1789323822199047000,7.266046875,2.780568875673413,4.312020902827382,-2.2997265561699867
1789323822209010000,7.276010009765625,2.867988800451159,4.947116795453429,-2.0122518226899206
1789323822218973000,7.285972900390625,2.7343980761289597,4.927673843836784,-1.4472213999368249
1789323822228935000,7.295934814453125,2.3979028527617454,4.882745153307915,-1.1153712258964776
1789323822238898000,7.30589794921875,2.0104586556628345,4.908382867911458,-0.5791742450483143
1789323822248861000,7.31586083984375,1.5953253643885255,4.780734393119812,-0.09121770962551236
1789323822258824000,7.325823974609375,0.9102060884431004,4.383262430742382,-0.12837328193485736
1789323822268787000,7.335786865234375,-0.1207341653585434,3.726110773652792,0.13414908885732293
1789323822278749000,7.3457490234375,-1.4443401454120874,2.5704706657320258,0.7078770511984824
1789323822288712000,7.3557119140625,-2.844786496300995,0.9023445612877606,1.2800284118726848
1789323822298675000,7.365675048828125,-3.748787300363183,-1.3405389946758746,1.9130242634795604
1789323822308638000,7.375637939453125,-3.7317183844015,-3.8584897840976713,3.4873479025021195
1789323822318600000,7.385599853515625,-3.5844334812477228,-5.900776533436775,4.390834035040438
1789323822328563000,7.39556298828125,-4.19147086186409,-6.720329998791217,4.020783455812931
1789323822338526000,7.40552587890625,-5.1191071007966995,-4.989409876781702,1.1079426833309232
1789323822348488700,7.41548876953125,-5.4599546741545195,-2.1316285820901393,-0.6826726134456693
1789323822358452000,7.425451904296875,-4.94523229688108,-1.1430652885079384,-2.320479859732836
1789323822368414000,7.4354140625,-4.119513879156113,-2.0311399169027804,-3.4046678657278417
1789323822378377000,7.445376953125,-1.29060270511806,-5.239177249288558,-2.1639706166379153
1789323822388340000,7.455340087890625,3.299831526724994,-7.525915144547819,0.04374415691941976
1789323822398302700,7.465302734375,5.614257931637764,-7.683813796174526,0.6491323090240358
1789323822408265000,7.475264892578125,4.367156806854903,-6.121199153515696,-0.24600743545144796
1789323822418228000,7.48522802734375,1.0498939605966209,-4.5173973449438805,-2.1369873326443134
1789323822428191000,7.49519091796875,-1.9483049818277358,-2.8926620539367196,-1.2579950053714215
1789323822438154000,7.505154052734375,-1.4779486927643417,-0.26985446724593637,0.18608035162463782
1789323822448117000,7.515116943359375,0.33008097241073847,1.5698533617407082,-2.2875604636885223
1789323822458079000,7.525078857421875,0.8231628880232572,1.7644290083795784,-3.704923900978267
1789323822468042000,7.5350419921875,1.2843734553396702,0.9962158541619777,-3.375957611811161
1789323822478005000,7.5450048828125,2.3844483279049395,0.20326573357284067,-2.436242228028178
1789323822487968000,7.554968017578125,3.1079782907873392,-0.053119011247158045,-1.1468193803444504
1789323822497931000,7.564930908203125,3.6007767132833597,0.5462853902727365,0.4128812745638191
1789323822507892700,7.574892822265625,4.468535114358366,1.597366222566366,1.2854223798707127
1789323822517856000,7.58485595703125,5.331398436868191,2.596707515272498,1.3905942344382405
1789323822527819000,7.594819091796875,5.985878244400024,2.933997688409686,1.336751146700233
1789323822537782000,7.604781982421875,5.9806046879112715,2.4283599503457545,1.3780292057670651
1789323822547743700,7.61474365234375,5.67795562004447,1.3698404924839733,1.1534762078851462
1789323822557706800,7.624706787109375,4.751576103174687,0.2728916429847479,0.6671385058358311
1789323822567669800,7.634669677734375,2.8220307668745517,-0.1460088918685913,0.4362996326174587
1789323822577633000,7.644633056640625,0.510837206403166,0.016631985849142075,0.053272594373673196
1789323822587596000,7.654595947265625,-1.4483283382654188,0.06892448314428329,-0.6181709882449359
1789323822597558000,7.66455810546875,-2.1994952267445624,-0.2743547012746334,-0.7683046318933368
1789323822607520800,7.674520751953125,-1.9249791974283754,-0.645128041818738,-0.37684104308523236
1789323822617483800,7.68448388671875,-1.1868109067320822,-0.6483247920334338,0.6422164652209729
1789323822627446800,7.69444677734375,-0.3486382272340357,-0.021043957072496414,1.5052463034041226
1789323822637409000,7.704408935546875,0.6293851137638091,0.6631798313379287,1.684890338370949
1789323822647372000,7.7143720703125,1.7670798151493072,1.3723358164310455,1.4857161118954418
1789323822657334800,7.724334716796875,2.667243525266647,2.121280206555128,0.30693682818859813
1789323822667297800,7.7342978515625,3.2036323754251,2.134613150858879,-0.6770681445021182
1789323822677260800,7.7442607421875,3.108177612751722,1.7763140919625757,-0.027103110980987548
1789323822687223000,7.75422314453125,2.47378080830574,1.1858908692777157,0.9846997500218451
1789323822697186000,7.76418603515625,1.3421101895153522,0.7076730530589819,1.3646693734563886
1789323822707148800,7.774148681640625,0.026571214327681808,0.6528641890287399,0.9617235097125172
1789323822717111800,7.78411181640625,-1.214521920478344,0.8406430151343345,0.43968774068579075
1789323822727073800,7.79407373046875,-1.6402385650873184,0.9421721292853354,0.23847806285992262
1789323822737037000,7.804037109375,-1.3467998086363075,1.231924306178093,0.10138517563566565
1789323822747000000,7.814,-0.9174602973550557,1.4703227279305457,0.027715470725670457
1789323822756963000,7.823963134765625,-0.5206103028008714,1.6350269679188727,0.190366796772182
1789323822766925800,7.83392578125,-0.33059622845649717,1.5843120952039955,0.5610201641984284
1789323822776887800,7.8438876953125,-0.30629414637088775,1.3366928406417369,0.8034872236292808
1789323822786850800,7.853850830078125,-0.49534891069643194,0.9964368034362793,1.0298476362593472
1789323822796814000,7.86381396484375,-0.8360784106325357,0.6723498107433319,1.4461968791946769
1789323822806777000,7.873777099609375,-1.2090537182003258,0.4237789545446634,1.9505714654549955
1789323822816739800,7.88373974609375,-1.53374335296154,0.1795189472824335,2.3947012802414593
1789323822826701800,7.893701904296875,-1.8333463311307132,-0.021460721179842948,2.6430180155485865
1789323822836664800,7.903664794921875,-1.9612503881186245,-0.16267244189977645,2.8153803690746426
1789323822846627800,7.9136279296875,-1.7503749101944266,-0.30546646337509153,2.9271038372427225
1789323822856591000,7.923591064453125,-1.3163923954129217,-0.5211451037973165,3.097315442475676
1789323822866552800,7.933552734375,-1.0145278289873152,-0.6233101777642965,3.2922233898088336
1789323822876515800,7.943515869140625,-0.8954290828108787,-0.5127671515524387,3.3751267139449714
1789323822886478800,7.953478759765625,-0.8691704598300158,-0.29332302111685277,2.9596511851042506
1789323822896441900,7.96344189453125,-0.8593769416987895,-0.21173779384195804,2.4111352593004702
1789323822906404000,7.973404052734375,-0.6648954030841588,-0.5067325475633144,2.4007027126133442
1789323822916366800,7.983366943359375,-0.5902445051170885,-1.5379513260453939,2.681800166146457
1789323822926329900,7.993329833984375,-0.5046915432550013,-2.9157904160678383,3.2230294420734045
1789323822936293000,8.003293212890625,-0.015309212812781333,-3.478672720876336,3.558379587058723
1789323822946256100,8.013256103515625,-0.004217325434088707,-4.121146448794007,3.2170518289685246
1789323822956218400,8.02321826171875,0.12604805385768414,-4.7079245929747815,2.987924801169336
1789323822966181400,8.033181396484375,0.6586638152182102,-5.43242661575973,2.546706343784928
1789323822976144400,8.043144287109374,1.222335370708257,-5.574450237384438,1.7013867151416837
1789323822986107100,8.053107177734375,1.1520360190141945,-4.651687157446146,0.4725230021106079
1789323822996069000,8.063069091796875,0.604993015307188,-3.1542303388744592,-0.36338728541340676
1789323823006032100,8.0730322265625,-0.08452712594568729,-1.3573597810953855,-0.6502939001493155
1789323823015995400,8.082995361328125,-0.7745242370605468,0.03329787396788597,-1.1834474216483533
1789323823025958400,8.09295849609375,-1.5255080240577459,0.5915232928812504,-1.8468714370056987
1789323823035921200,8.102921142578126,-2.4026737204253674,0.46943011412918567,-2.318608951294422
1789323823045883100,8.112883056640625,-2.576662506109476,-0.3575052781701088,-2.707403101697564
1789323823055846100,8.12284619140625,-1.8815514129817486,-1.519523104429245,-3.38869668187499
1789323823065809200,8.13280908203125,-0.3711608785569668,-2.5337457399249077,-4.557727894027531
1789323823075772200,8.142772216796875,1.2092658265810459,-3.3303193117082115,-6.260199043405056
1789323823085734100,8.152734130859375,1.990895584797859,-3.3001240799307823,-6.242907132342458
1789323823095697200,8.162697265625,2.2321593328535556,-2.4689514884531496,-4.116505344989895
1789323823105660200,8.17266015625,1.6468622210107742,-1.9425597161740062,-1.8370668129585683
1789323823115623200,8.182623046875,0.9860757145501673,-1.6447762085169553,-0.5405323797039687
1789323823125586200,8.192586181640625,0.8194728013336658,-1.3919149616479873,-0.3970926076710224
1789323823135548200,8.202548095703126,0.916820245885849,-1.2168015558481216,-0.06878112915083766
1789323823145511200,8.21251123046875,1.1739268752396106,-1.0812608665019272,-0.09583543255403637
1789323823155474200,8.22247412109375,1.5174328541517257,-0.4993810157567262,0.30410321219787
1789323823165437200,8.232437255859375,1.6070017736569047,0.046366029855608934,0.8543465463161468
1789323823175399400,8.2423994140625,1.6599229242444038,0.26441490654051303,1.0255746351152657
1789323823185362200,8.252362060546876,1.800685439892113,0.6755857239246368,0.40744332129359245
1789323823195325200,8.2623251953125,1.7778493387058376,1.1760469361335038,-0.32583617444783447
1789323823205288200,8.2722880859375,1.7390581280186772,1.9655138907819985,-0.5227312039449811
1789323823215251200,8.282251220703126,1.599946009926498,2.1624451606363055,-0.3617079905569553
1789323823225213200,8.292213134765625,1.3317737966790795,2.0580372761785983,-0.6712365888044237
1789323823235176200,8.30217626953125,1.2683262836411595,2.0196008702784773,-0.8561537418685853
1789323823245139200,8.31213916015625,1.198835106524825,1.8693693922787904,-1.1140715414747595
1789323823255102200,8.322102294921875,0.9596841128394007,2.1197370687663555,-1.4347234451524913
1789323823265064200,8.332064208984375,0.9849588393494486,2.729910117059946,-1.781850975562632
1789323823275027200,8.342027099609375,1.3233435297250746,3.1773224606484174,-1.5980711559653282
1789323823284990200,8.351990234375,1.7057912337109447,3.5027076764583587,-1.437765589327365
1789323823294953200,8.361953125,2.0153245081335305,3.9158331350415945,-1.2952395711384712
1789323823304916200,8.371916259765625,2.132289091825485,4.298585082671046,-1.0828973816625773
1789323823314878200,8.381878173828126,2.030511848132312,4.59317476272285,-0.8553557233586907
1789323823324841200,8.39184130859375,1.8436822855755686,4.775111877062916,-0.4828983752503991
1789323823334804200,8.40180419921875,1.5881322380140424,4.78036380624175,0.19497341378480196
1789323823344767000,8.41176708984375,1.2392939581632614,4.780844867756962,-0.08434753159508108
1789323823354729200,8.421729248046875,0.5546200878977775,4.627720006403327,0.05607990687936544
1789323823364692200,8.431692138671876,-0.6086509532928467,3.691618721464276,0.7287960667170584
1789323823374655200,8.4416552734375,-1.8511016219213603,2.1118606363028287,1.5769164319947362
1789323823384618200,8.4516181640625,-2.7694188283666965,0.07780161708295345,2.491336338740587
1789323823394581200,8.461581298828126,-3.177893538534641,-2.14816996704638,3.7660154985398053
1789323823404543200,8.471543212890625,-3.316674524976313,-4.133237284082174,4.8520139149576424
1789323823414506200,8.48150634765625,-3.539854042547941,-5.309843023142219,3.9983220331579443
1789323823424469200,8.49146923828125,-4.672878706295788,-4.6343268573224545,2.349297227285802
1789323823434432300,8.501432373046875,-5.551855543738603,-2.339913020607829,1.1932014845520258
1789323823444394000,8.51139404296875,-5.072692555624246,-0.3684305768102407,-0.30569355012923477
1789323823454357200,8.521357177734375,-4.0084667028144,0.16287819360494613,-1.571968746459484
1789323823464320300,8.5313203125,-2.6708240141019224,-1.2428928594380617,-2.1627358141459525
1789323823474283300,8.541283203125,0.05959522152394056,-3.757300861686468,-1.2719032653450966
1789323823484246300,8.551246337890625,4.043541523326933,-6.028728959611058,0.10148293692171573
1789323823494208000,8.5612080078125,6.123142688798904,-6.531061226388812,-0.2615798292450607
1789323823504171000,8.5711708984375,4.587362569312751,-5.042814134711027,-2.5024346558600663
1789323823514134300,8.58113427734375,0.9456199316516518,-5.008171275874972,-3.464647702655196
1789323823524097300,8.59109716796875,-2.75240398067981,-5.911552778995037,-1.6306944916725157
1789323823534059300,8.601059326171875,-3.8136654307261106,-5.055110137182474,-0.02520370710045099
1789323823544022000,8.61102197265625,-0.9322723743006587,-2.0300462764471767,-1.9792704673252999
1789323823553985000,8.620985107421875,1.1143097341448067,1.153287991836667,-4.002813791619241
1789323823563948000,8.630947998046874,0.904362038590014,1.374632402935624,-4.040827295932173
1789323823573911300,8.640911376953126,1.1192471905469894,0.7893138099133968,-3.1124907997757196
1789323823583873300,8.650873291015625,1.950410137413442,0.7467506794720887,-1.55326565342471
1789323823593836300,8.660836181640626,3.3657156192600723,1.2170680978298187,-0.5664766760386526
1789323823603799000,8.670799072265625,5.007774385511875,2.123143662339449,0.16632526531890035
1789323823613762000,8.680761962890625,7.023902611243725,3.0665970636069773,0.3548645544029772
1789323823623724300,8.690724365234376,7.998148625659942,3.5405841103881595,0.15326587725952268
1789323823633687300,8.700687255859375,6.486675556695461,3.0163229203969237,-0.5686892375215887
1789323823643650300,8.710650390625,4.953826522225142,1.6553203988850116,-0.44739729214981194
1789323823653613000,8.720613037109375,3.8015117593348022,0.04719605093896389,0.30410189702361823
1789323823663576000,8.730576171875,1.9050049154140054,-0.6341612421244383,0.984657445250079
1789323823673538300,8.740538330078126,-0.22176512072905896,-0.435154335039854,0.9378058968998492
1789323823683501300,8.750501220703125,-1.8955539271101354,-0.319537074303627,-0.15252528802528975
1789323823693464300,8.76046435546875,-2.414467034071684,-0.25550854650735855,-0.6042036915604024
1789323823703427300,8.77042724609375,-1.6397368991754948,-0.05541150609850883,0.2022949888445437
1789323823713389000,8.78038916015625,-0.5983995353262871,0.21683833185136317,1.1724491308372467
1789323823723352300,8.790352294921876,0.28439686040468515,0.6952063701957464,1.6728163080871103
1789323823733315300,8.8003154296875,1.2852818023562431,1.4727426485538482,1.6922694888368248
1789323823743278300,8.8102783203125,2.0833540882647035,1.9201736968427896,0.9648251289896667
1789323823753241300,8.820241455078126,2.565666480320692,1.5041992785692213,-0.3195597975920886
1789323823763203000,8.830203125,2.730575302970409,1.0707546700567006,-0.8154927917867898
1789323823773166000,8.840166015625,2.3257155684292314,0.850136819666624,0.018258125746250152
1789323823783129000,8.850129150390625,1.4325602757692337,0.4878747023582458,0.7165949759874493
1789323823793092400,8.86009228515625,0.2749257791608572,0.32329964170753955,0.6983421840034425
1789323823803054000,8.87005419921875,-0.879199248021841,0.5349450810909271,0.5970726706366986
1789323823813017000,8.88001708984375,-1.3113105621039867,0.7357979083031415,0.6184308812901377
1789323823822980000,8.88997998046875,-1.2221323954820633,0.8737988502830266,0.5248111520241946
1789323823832943000,8.899943115234375,-1.0403267985671758,1.0182231033086777,0.5248311718989164
1789323823842906000,8.909906005859375,-0.7870218995839356,1.0767430968165397,0.6638272623959929
1789323823852868400,8.919868408203126,-0.5632014537602663,1.273189213502407,0.8415005087465047
1789323823862831000,8.9298310546875,-0.5106973595410585,1.3998270499467849,0.7955820765279233
1789323823872794000,8.939794189453124,-0.6510036558538675,1.4338584988862275,0.8117628845434636
1789323823882757000,8.949757080078125,-0.8432529053717851,1.2503086886525154,1.1476133072011172
1789323823892719400,8.95971923828125,-1.0616636011064051,0.9545721766531466,1.7016988498307763
1789323823902682400,8.969682373046876,-1.2524861788220703,0.9296820655465126,2.2563182070761916
1789323823912645000,8.97964501953125,-1.4636352129906416,0.8926005813866853,2.5598411351680754
1789323823922608000,8.989608154296874,-1.707015514808893,0.6091998193472623,2.680399943959713
1789323823932571100,8.999571044921876,-1.7292215013980865,0.08122457726895808,2.824186191342771
1789323823942533600,9.00953369140625,-1.2889404709942638,-0.3751373809725046,2.923926668511331
1789323823952496600,9.01949658203125,-0.8418411388777196,-0.3978045553326606,2.8146710517615077
1789323823962459600,9.029459716796875,-0.6816789262332021,-0.19042378765642642,2.7306866543903947
1789323823972422700,9.039422607421875,-0.8247374438636005,-0.13351824360787867,2.581803960651159
1789323823982384600,9.049384521484376,-1.022098629567772,-0.0907785875558853,2.010830411584675
1789323823992347600,9.05934765625,-1.039437156251073,-0.33689737442731854,1.6502173766575752
1789323824002310700,9.069310546875,-0.9637316346645355,-1.0438134716391563,1.8066545774295926
1789323824012273700,9.079273681640625,-0.9986731841862201,-2.1599264558136464,2.357927546856552
1789323824022236700,9.089236572265625,-0.7558456939451396,-3.3102970988988876,3.0026290338262913
1789323824032198700,9.09919873046875,-0.24733926857709884,-3.7963288037389513,3.2144811016976833
1789323824042161700,9.10916162109375,-0.04694105326458811,-4.228637101697921,3.375267291459441
1789323824052124700,9.119124755859374,0.035602643778920175,-4.7781017065286635,3.4338407687202093
1789323824062087700,9.129087646484376,0.426875093929097,-4.944893274185061,2.8753260114714503
1789323824072049700,9.139049560546875,0.7558487626850604,-4.694613275980949,1.660261946940422
1789323824082012700,9.1490126953125,0.7734750933337956,-3.7308319569557904,0.10619261245001106
1789323824091975700,9.1589755859375,0.5125327582746744,-2.219184115946293,-0.8362713028561324
1789323824101938700,9.168938720703125,-0.16017941950764505,-0.635670477643609,-1.2254803907357155
1789323824111901700,9.178901611328126,-1.2322867097496986,0.259718857678771,-1.8079406717173754
1789323824121863700,9.18886376953125,-2.3316513882189986,0.0993143607109785,-2.517502753393352
1789323824131826700,9.19882666015625,-2.655895617300272,-0.5485387221574783,-3.022273937755823
1789323824141789700,9.208789794921875,-2.2364789496183395,-1.511536781850457,-3.4067806200981137
1789323824151752700,9.218752685546875,-1.2898714682340622,-3.0836002208560704,-4.891388770751655
1789323824161714400,9.22871435546875,0.5337023875534535,-3.908228505256772,-6.293323314371705
1789323824171677700,9.238677734375,2.041015998750925,-3.9255116484910246,-6.710334089955687
1789323824181640700,9.248640625,2.093176394098997,-3.3336113389909268,-4.687414304387569
1789323824191603700,9.258603759765625,1.4527254041805862,-2.6060832463830708,-1.885695527049154
1789323824201566700,9.268566650390625,1.1436651540972291,-2.305675819963217,-0.6821132259972393
1789323824211528400,9.278528564453126,0.8530057992316782,-2.0036083513766525,0.14785408134385944
1789323824221491500,9.288491455078125,0.7804458821944892,-1.7058038009315728,0.47916912559419866
1789323824231454700,9.298454833984374,1.1687750454343855,-1.196546703326702,0.7708492018096148
1789323824241417700,9.308417724609376,1.354822371572256,-0.6215250479131936,1.153693503897637
1789323824251379700,9.318379638671875,1.4617384394586086,-0.05423895518779754,1.4549483409270643
1789323824261342700,9.3283427734375,1.6851169867336748,0.48673254658579823,0.9176860689349472
1789323824271305500,9.338305419921875,1.822330869989097,1.1692238121151923,-0.06193374747410416
1789323824281268500,9.3482685546875,1.9051751574143767,2.095287102642655,-0.5302627684935927
1789323824291230700,9.358230712890625,1.8982672777220606,2.754005862918496,-0.36969592057093975
1789323824301193700,9.36819384765625,1.782261309929192,2.671364989110827,-0.5285298072211444
1789323824311156700,9.37815673828125,1.4700865810871124,2.256076799535751,-0.7572862481422722
1789323824321119500,9.388119384765625,1.1068322378709912,2.0785592552036047,-1.1431890610180795
1789323824331082500,9.39808251953125,0.7777610270246863,2.481314126420021,-1.6743961246244607
1789323824341044700,9.408044677734376,0.7796157149806618,2.9641163478195667,-1.9075787114247678
1789323824351007700,9.4180078125,1.1108894043073057,3.247221926304698,-2.1882954950772224
1789323824360970800,9.427970703125,1.6487012730062007,3.745737849664688,-2.4030630120038983
1789323824370933800,9.437933837890625,2.191980759461224,4.2326071743726725,-2.1558980770803986
1789323824380896500,9.447896484375,2.5261191905692217,4.349260207897425,-1.8093962773531673
1789323824390858800,9.457858642578126,2.6154165996566414,4.436450415572524,-1.3755648614801466
1789323824400821800,9.46782177734375,2.4889406757757064,4.55253587834239,-0.802265938206017
1789323824410784800,9.47778466796875,2.257432890319824,4.666639227384328,-0.3520028813615441
1789323824420747800,9.487747802734376,1.885800594858825,4.791321253585815,0.049945203516632314
1789323824430709500,9.49770947265625,1.2809665695056318,4.744815522998571,0.42432431346774097
1789323824440672500,9.507672607421876,0.3884785085827112,4.3445144746750595,0.5436560646824539
1789323824450635800,9.5176357421875,-0.974993325652182,3.6249797189086674,0.7117401563674212
1789323824460598800,9.527598876953125,-2.534022803300619,2.279397469368577,1.3444285494603216
1789323824470561800,9.537561767578126,-3.66943670027256,0.23559973094463346,2.3218149077288803
1789323824480523500,9.5475234375,-4.383687378156185,-2.384877951493859,3.889956350985169
1789323824490486500,9.557486572265624,-4.366850809645652,-5.225825015762448,4.899636082354188
1789323824500449500,9.567449462890625,-4.140280772852897,-7.141252394860983,5.362028552931547
1789323824510412800,9.577412841796875,-4.5050411367177965,-7.2561501091510054,3.6726065624803303
1789323824520374800,9.587374755859376,-5.639082576292753,-4.791323591673374,1.2328132178418338
1789323824530337500,9.597337646484375,-5.891733979803323,-1.3845669369727371,-0.18171075823828578
1789323824540300500,9.607300537109374,-4.710369355778396,0.39895723249912257,-1.9683605123847723
1789323824550263600,9.617263671875,-2.8714871639609334,0.2040051537632942,-2.9537586199343204
1789323824560226600,9.6272265625,-0.3673381053984165,-2.0215590186089276,-3.082800594910979
1789323824570188800,9.637188720703126,2.8269819595411416,-4.846171034148335,-2.022383632864803
1789323824580151600,9.647151611328125,5.544809716880321,-6.043504503938555,-0.7643696305319666
1789323824590114600,9.657114501953124,5.979559562772512,-6.136937405395507,-1.8925133903704583
1789323824600077600,9.66707763671875,3.6757989287808535,-6.507328468623757,-3.119291127440333
1789323824610039800,9.677039794921875,-1.123901153832674,-6.225870657345652,-1.84494295316115
1789323824620002800,9.6870029296875,-4.3282121591717,-4.618177686554193,0.4223597353965044
1789323824629965600,9.696965576171875,-3.231279091763496,-2.237326506358385,-0.4371018158458173
1789323824639928600,9.706928466796874,0.24121698630452154,0.6836573866993189,-2.5795272478908298
1789323824649891600,9.7168916015625,1.4336530394420026,2.2436066095411777,-3.1996149564772844
1789323824659853800,9.726853759765625,1.4388009237244725,1.5092185680359602,-2.6084359469890592
1789323824669816800,9.73681689453125,1.6695141978017984,0.6379682331919669,-1.253828679472208
1789323824679779800,9.74677978515625,2.3589617122098803,0.22774375674724578,0.19844810415804384
1789323824689742600,9.75674267578125,4.293178255191445,0.7855956661731004,1.6111130083680152
1789323824699704600,9.76670458984375,7.233699207890034,2.387407177710533,2.341665271102637
1789323824709667600,9.77666748046875,9.185103909298777,3.847966636517644,1.5049509737193583
1789323824719630600,9.786630615234374,8.096342457908392,3.9791660817891357,-0.5621273947879671
1789323824729593900,9.79659375,6.269564253121614,2.8246014941453934,-1.9417717806667087
1789323824739556600,9.806556640625,4.716851995795965,1.232052900993824,-1.853710489245504
1789323824749518600,9.8165185546875,2.8430162717580796,0.07151449963748455,-1.450145762950927
1789323824759481600,9.826481689453125,0.9067210228063166,-0.021303484791517256,-0.9343849094752221
1789323824769444600,9.836444580078124,-0.9801003664676099,0.2725233941942453,-1.1807543831720948
1789323824779407600,9.84640771484375,-2.345027002620697,0.534216182294488,-1.5980559583961962
1789323824789371000,9.856370849609375,-2.5253052438378334,0.6591039602011441,-1.4513684366136788
1789323824799332600,9.86633251953125,-1.6908394560337066,0.4344453099876642,-0.6039391954053193
1789323824809295600,9.876295654296875,-0.6777495508950203,-0.05462766224443912,0.5155250719584524
1789323824819258600,9.886258544921875,0.4503799612224102,0.026546646142005918,1.641806691186875
1789323824829221600,9.8962216796875,1.5640531510293483,0.4347551065891981,1.933320032533258
1789323824839183600,9.90618359375,2.533226684486866,0.7038380049407482,1.0074437890104948
1789323824849146600,9.916146728515624,3.19723536786437,0.42276597810983657,-0.7589471670918166
1789323824859109600,9.926109619140625,3.277158214884996,0.3092465664356947,-1.3729219457559287
1789323824869072600,9.93607275390625,2.357826862961054,0.2788783161789179,-0.4237230596389621
1789323824879035600,9.94603564453125,1.0348679486393928,-0.04300795159935951,0.49777672236524517
1789323824888997600,9.95599755859375,-0.017084405791759488,-0.13203297348618506,0.6525165446348488
1789323824898960600,9.965960693359374,-0.9948433967649936,-0.019365210205316542,0.5100038973841816
1789323824908923600,9.975923583984375,-1.4121259750276802,0.147594699755311,0.3472825017761439
1789323824918886700,9.98588671875,-1.2091174310863018,0.4130138149023056,0.2540284640174359
1789323824928849700,9.995849609375,-0.8556734110057354,0.6587462328046559,0.485391580305621
1789323824938811400,10.005811279296875,-0.6208031633794308,0.9128279613792896,0.8743014660429209
1789323824948774400,10.0157744140625,-0.5783868209976702,1.2177175016492605,0.8836416874486952
1789323824958737400,10.0257373046875,-0.6494646097183228,1.4640660056233405,0.8496379302337765
1789323824968700400,10.035700439453125,-0.7427659937500953,1.6154624357491731,1.0016892440717666
1789323824978662100,10.045662109375,-0.8514742057502269,1.5981985817372797,1.4073296806618572
1789323824988625400,10.05562548828125,-0.9125328508902341,1.4269395132780074,1.9280787708789109
1789323824998588400,10.06558837890625,-0.9637569152362644,1.0094231262594462,2.340407233865559
1789323825008551400,10.075551513671876,-1.1814293598242103,0.48276305843293665,2.5153303777903315
1789323825018514400,10.085514404296875,-1.5190987415373325,0.12652560824155806,2.5485803209632634
1789323825028476200,10.09547607421875,-1.7754063294678926,-0.29279402880668637,2.491043493273854
1789323825038439200,10.105439208984375,-1.7409686378151177,-0.5204723191022873,2.419774492830038
1789323825048402400,10.11540234375,-1.652141768848896,-0.5962608427971601,2.1887593131966887
1789323825058365400,10.125365478515626,-1.7065578341692684,-0.4598334337443113,1.6082352609746158
1789323825068328400,10.135328369140625,-1.7809272848464548,-0.20894319468736647,1.259654901407659
1789323825078290200,10.145290283203124,-1.7280992193698883,-0.05840834982693195,1.2790193809606134
1789323825088253200,10.155253173828125,-1.6239543697625398,-0.15001403585672377,1.5068975777424871
1789323825098216200,10.16521630859375,-1.5042461864508687,-0.3162421244114637,1.8002441258653998
1789323825108179500,10.175179443359376,-1.3508775794692336,-0.7877081282824278,2.155718044338375
1789323825118141400,10.185141357421875,-1.298968966925144,-1.5542583177238702,2.697307239618897
1789323825128104200,10.195104248046874,-1.4175281263321637,-2.5499194606125353,3.2481247203633186
1789323825138067200,10.205067138671875,-1.1680530147701502,-3.481837322387099,3.5681267818301916
1789323825148030200,10.2150302734375,-0.5878192507315426,-3.9263451767057176,3.4806448977321383
1789323825157993200,10.2249931640625,-0.07095277410149574,-4.172644580841064,3.534421203844249
1789323825167955500,10.23495556640625,0.4186380845248699,-4.428529559445381,3.7685438479736444
1789323825177918500,10.24491845703125,1.150228092809394,-4.416517050090432,3.363769453628361
1789323825187881200,10.254881103515626,1.6304770495295524,-3.622048341631889,2.2749767303168773
1789323825197844200,10.26484423828125,1.6071172167301178,-2.0515596045970916,0.6583934007789939
1789323825207807200,10.27480712890625,0.8990817600995301,-0.4692284540772438,-0.5447047334851697
1789323825217769500,10.28476953125,-0.4011801692456007,0.4416729231536388,-1.0717542024880646
1789323825227732500,10.294732421875,-1.491008957606554,0.416450219091773,-1.6497762087613344
1789323825237695200,10.3046953125,-2.115745953303575,-0.31891865014433857,-2.55628899564445
1789323825247658200,10.314658203125,-1.7474889794945716,-1.1476578769952057,-3.4346965087667107
1789323825257621200,10.324621337890624,-1.1547392866235227,-2.353258824393153,-4.543326443709433
1789323825267583500,10.33458349609375,0.2926956829987466,-3.228657511088252,-5.427441813084483
1789323825277546500,10.34454638671875,2.0014637405633926,-3.437483801397681,-5.515824445414543
1789323825287509500,10.354509521484376,2.464636547863483,-3.1616485061764714,-4.137879556930065
1789323825297472300,10.36447216796875,1.9552889954961836,-2.4930010570824144,-1.7225979916051029
1789323825307434200,10.374434326171874,1.2704782009780407,-1.9742308657228946,-0.283311695516482
1789323825317397200,10.384397216796875,0.9250596664428711,-1.6757196283131837,0.15010880146808922
1789323825327360500,10.394360595703125,0.6755716953992843,-1.4999229164242744,0.8591535082064569
1789323825337323500,10.404323486328124,0.7311296242311597,-1.420119896391034,1.0261644177019595
1789323825347286300,10.414286376953125,0.9192948193058371,-1.0914578508675097,1.1952033258937298
1789323825357248300,10.424248291015624,0.9459101467698812,-0.7285054132074117,1.4992368338562547
1789323825367211300,10.434211181640626,1.1253846703886985,-0.24581308192312715,1.4734242010772227
1789323825377174300,10.44417431640625,1.453835703510046,0.3194675161987543,0.7262392218410968
1789323825387137500,10.454137451171874,1.7589926625445484,0.9609317748129367,0.12562690583616495
1789323825397100300,10.464100341796875,2.0451964993059635,1.7019973943859337,-0.47833413607478137
1789323825407062300,10.474062255859375,2.3216212848529216,2.388396188747883,-0.5748389923229813
1789323825417025300,10.484025390625,2.384609363685548,2.49698165115118,-0.5526315444290638
1789323825426988300,10.49398828125,2.2193094958916304,2.492061730405688,-0.7739398613013326
1789323825436951300,10.503951416015624,2.0426938688352703,2.5091449671536683,-0.896662277867645
1789323825446914600,10.51391455078125,1.8187062497511506,2.468814710330963,-1.3198381519526243
1789323825456876300,10.523876220703125,1.6299544869601725,2.7000182521432636,-1.7900655539393424
1789323825466839300,10.53383935546875,1.7691139513254164,2.9354712680935857,-1.9189080608211457
1789323825476802300,10.54380224609375,2.1881290524691344,3.1157489247888326,-1.894351127191633
1789323825486765300,10.553765380859375,2.4922350411459804,3.4215205085903406,-1.832928690240532
1789323825496727300,10.563727294921875,2.499988139490783,3.713351829844713,-1.5907796837829054
1789323825506690300,10.573690185546875,2.3130688528239727,3.8206595273971558,-1.204527472947538
1789323825516653300,10.5836533203125,2.021644066543877,3.8416462013244628,-0.7528437356501817
1789323825526616300,10.5936162109375,1.7446338823243974,3.796362706008553,-0.31421850962936876
1789323825536579300,10.603579345703125,1.4041627410635351,3.711714584031701,-0.26432386725619433
1789323825546541300,10.613541259765626,0.9461769810125231,3.5844454639464614,-0.18106003924459219
1789323825556504300,10.62350439453125,0.34800796650648114,3.240041074889898,0.025857640964537857
1789323825566467300,10.63346728515625,-0.4230982788041234,2.532728671836853,0.34887685829550025
1789323825576430300,10.643430419921875,-1.4451342183992266,1.4732348159849642,0.5762853917390107
1789323825586392300,10.653392333984375,-2.639611714236438,0.052859483528137206,1.077357721583545
1789323825596355300,10.663355224609376,-3.715328682875633,-1.6576947268009186,1.3575851142838598
1789323825606318300,10.673318359375,-4.158398028823733,-3.1657571105390785,1.7112142816729843
1789323825616281300,10.68328125,-3.9982328935697673,-3.8673336002886294,2.5012720418214798
1789323825626244400,10.693244384765626,-3.5441754128783938,-3.310897987401485,2.6492805830746886
1789323825636206300,10.703206298828125,-3.3437928335264324,-1.9715853196501731,1.7877200137265026
1789323825646169300,10.71316943359375,-3.2448131115972996,-0.8251970241993665,0.8953471036158501
1789323825656132000,10.723132080078125,-2.633549053196609,-0.224414320063591,0.315289499861747
1789323825666095400,10.733095458984375,-1.7963710838243365,-0.20403730246722698,-0.4579999347068369
1789323825676057300,10.743057373046875,-1.1952695229977368,-1.1332979277312756,-1.2337244874678552
1789323825686020400,10.753020263671875,0.5096162863060831,-3.7024271157264708,-0.8177344332337378
1789323825695983400,10.7629833984375,3.026251316954195,-7.624644398847222,1.3501618324153124
1789323825705946000,10.772946044921875,3.7475045670762657,-8.902947009840608,1.1675498875536023
1789323825715909000,10.7829091796875,2.0713804496154187,-7.187019874301552,0.011353314793854952
1789323825725871400,10.792871337890626,-1.0638266243591905,-5.269769371429086,-1.214858897347748
1789323825735834400,10.80283447265625,-3.563718902260065,-3.8646161580234764,-1.782884410263598
1789323825745797400,10.81279736328125,-3.3458906825885175,-1.4280810845285654,-1.8445469395808876
1789323825755760400,10.822760498046875,-0.8415119069233536,0.9959510657459497,-3.306575448027253
1789323825765723100,10.83272314453125,0.6708467127040029,1.7788824811458586,-4.097460160519183
1789323825775685400,10.842685302734376,1.2051909052923322,1.3953770848006009,-3.482143611857295
1789323825785648400,10.8526484375,2.0498013627529144,0.911801540941,-2.5306334531232713
1789323825795611400,10.862611328125,2.9427605483189225,0.820817201679945,-1.2517691165938973
1789323825805574400,10.872574462890626,3.915941271591186,1.1112836643218993,0.13899988988935946
1789323825815536400,10.882536376953125,5.11867572364211,1.8715993432879448,1.0161329991616308
1789323825825499400,10.89249951171875,6.489712732434272,2.9047067119956016,1.237255291942507
1789323825835462400,10.90246240234375,6.695990507304668,3.104541886597872,1.3168766717985272
1789323825845425400,10.91242529296875,5.386054740685224,1.9286638772904872,0.7981096953094005
1789323825855387100,10.92238720703125,4.59032054233551,0.7568652462512254,0.744486972323805
1789323825865350100,10.93235009765625,3.7721149844586845,0.1979319713294506,0.715032548976317
1789323825875313400,10.9423134765625,2.1343055462144314,-0.027072131320834157,0.09101773007400334
1789323825885276400,10.9522763671875,0.272099761954695,0.049396775853633876,-0.6680954412344843
1789323825895239400,10.962239501953125,-1.3452211611427365,0.23465981974601743,-1.5604804071091114
1789323825905201400,10.972201416015626,-2.161236807759851,0.19856500853598116,-1.9569899541951714
1789323825915164200,10.9821640625,-1.9668468929514287,-0.1310772801965475,-1.6206553282171487
1789323825925127200,10.992127197265624,-1.1609549462679774,-0.3383592636734247,-0.7124427516788244
1789323825935090200,11.002090087890625,-0.309444573225826,-0.2354547695159912,0.6344902548830956
1789323825945053000,11.012052978515625,0.6961095295805484,-0.21601707859635352,1.5849644216328858
1789323825955016000,11.022015869140626,1.8714649032533168,0.024794249516725538,2.0034446852475405
1789323825964979000,11.03197900390625,2.7484266014814374,0.47292029433250427,1.2531463962964713
1789323825974942000,11.04194189453125,3.1326433609664437,0.9210194511413574,-0.4479002001706511
1789323825984905000,11.051905029296876,2.935010664844513,1.3539695541352033,-0.8858776298072188
1789323825994867000,11.061866943359375,2.1667560095727443,1.3578899424493311,0.04970693778134882
1789323826004830000,11.071829833984374,1.0246855773210526,0.8671791398823261,0.63797203258425
1789323826014793000,11.08179296875,-0.012450311683746985,0.5611871913284063,0.6346689724508673
1789323826024756000,11.091755859375,-0.8156184639930725,0.5352297432512044,0.44229288168288766
1789323826034717700,11.1017177734375,-1.3329063078403471,0.6420066949278116,0.2277972405001521
1789323826044681000,11.111680908203125,-1.0318716894328595,0.8404600597828626,0.021622049221396444
1789323826054644000,11.12164404296875,-0.6611661534279585,1.0182809709757565,-0.051410015372186896
1789323826064607000,11.13160693359375,-0.5264543161213397,0.9829694190979004,0.14028561885096133
1789323826074569000,11.14156884765625,-0.406375399801135,1.009206853160262,0.48737939312197265
1789323826084532000,11.151531982421876,-0.3939415232289582,1.0463771846473215,0.7813751989338547
1789323826094494700,11.16149462890625,-0.43643509556539356,0.9793880534797906,0.8757720500521361
1789323826104457700,11.171457763671874,-0.6123387018948793,0.9586568156182765,1.057516126038134
1789323826114421000,11.1814208984375,-0.9082850572526454,0.8738362596839666,1.432232943511009
1789323826124383000,11.191383056640625,-1.1310386044971643,0.7456617151916026,1.8212797535009682
1789323826134346000,11.201345947265626,-1.3476099559754133,0.4967027364581823,2.2176443391583858
1789323826144308700,11.211308837890625,-1.4938450578153133,0.14378010990321635,2.620694832320511
1789323826154271700,11.221271728515624,-1.5053139618128537,-0.15865853008329867,2.849956592415273
1789323826164234000,11.23123388671875,-1.4322656767368316,-0.3968430168241262,2.928204784221947
1789323826174197000,11.241197021484375,-1.3302641227684915,-0.40970249839723105,2.984593026398122
1789323826184160000,11.251159912109374,-1.2818494898200035,-0.3525193064510822,2.7330101289018986
1789323826194122800,11.261122802734375,-1.3919419957853854,-0.23160043217539786,2.304917987333238
1789323826204085800,11.271085693359375,-1.5538650806225835,0.08674187938570976,1.9219439213857055
1789323826214048000,11.281048095703126,-1.6412626474380492,0.2833773811638355,1.6510621569186448
1789323826224011000,11.291010986328125,-1.695717291203141,0.20996084729731082,1.6367732270643114
1789323826233974000,11.30097412109375,-1.7023656431764362,-0.23507892194092272,1.7275046144776045
1789323826243937000,11.31093701171875,-1.7022177591383456,-0.8446978434830904,1.819259207458794
1789323826253898800,11.320898681640625,-1.7211913396775722,-1.326386550682783,2.295158225341141
1789323826263862000,11.330862060546876,-2.0539614050418136,-3.2491029177457094,3.522233337922394
1789323826273825000,11.340824951171875,-1.9996962924994528,-3.24143691316247,3.5387875823602077
1789323826283788000,11.3507880859375,-1.4983020372241735,-4.166939647197723,3.418216498608887
1789323826293749800,11.360749755859375,-0.10555369349196553,-4.313974374982714,3.1895646871060133
1789323826303712800,11.370712646484375,1.178278567643091,-3.895219386079907,3.3034263363465666
1789323826313675800,11.38067578125,1.6565519865065812,-3.614862814041972,3.491945751686394
1789323826323639000,11.39063916015625,1.4422890581011771,-3.3789608852803705,3.146487177401781
1789323826333602000,11.40060205078125,1.490354293090105,-2.6003432414263483,1.5267618235111236
1789323826343563800,11.410563720703125,1.2533049478590488,-1.36964175504148,-0.4252458852920681
1789323826353526800,11.42052685546875,0.08700900588929653,-0.4611614674776792,-1.4571912975482642
1789323826363489800,11.43048974609375,-1.1282575954765082,-0.04791092121005058,-2.0661682679250837
1789323826373452800,11.440452880859375,-2.114685630595684,-0.6107137310415506,-3.063097531053424
1789323826383415000,11.4504150390625,-1.9674048190951345,-1.4522154088318346,-4.056482253442704
1789323826393378000,11.4603779296875,-1.0873686087924987,-2.469247256529331,-4.714549856333434
1789323826403340800,11.4703408203125,0.35399580874443054,-3.5203058769911526,-5.187412575259804
1789323826413303800,11.4803037109375,2.017742675191164,-4.175945960474014,-5.947331948384642
1789323826423266000,11.49026611328125,2.684642403835058,-4.117482081067562,-5.339557777926325
1789323826433229000,11.50022900390625,2.289305992181599,-3.2741327295839784,-3.2995418961286545
1789323826443192000,11.510192138671876,1.7656230404697357,-2.3612609290629623,-0.9770932205408811
1789323826453154800,11.52015478515625,1.1001403390169142,-2.0347581073999406,-0.35201793280020355
1789323826463117800,11.530117919921874,0.6749860044658184,-1.8341952030450104,-0.250645616646111
1789323826473079800,11.540079833984375,0.5276841501772404,-1.544139074769616,0.5698837080031633
1789323826483043000,11.55004296875,0.5326315434515476,-1.2695885586619375,0.7144239886239171
1789323826493006000,11.560006103515626,0.5723100583672524,-0.5417483313649892,1.417780201397091
1789323826502969000,11.569968994140625,0.5653475258782505,-0.23751345561146736,1.6484302009798586
1789323826512930800,11.579930908203124,0.9402814932331442,0.21186405057013033,1.3613408135555685
1789323826522893800,11.589893798828125,1.4305840072602032,0.8421703708320856,0.22280279321372506
1789323826532856800,11.59985693359375,1.900051238529384,1.410397543799877,-0.3687066172726452
1789323826542820000,11.609820068359374,2.469954528015852,1.7989824353665111,-0.801806065609306
1789323826552781800,11.61978173828125,2.871420820726454,1.8886019160151482,-0.8734009370066225
1789323826562744800,11.629744873046874,3.1731761546239254,1.935254946118593,-0.7304284902244805
1789323826572707800,11.639707763671876,3.2628456118941305,2.1595272273629904,-0.7745017329677939
1789323826582670800,11.6496708984375,3.026158377973735,2.671954771697521,-1.1232936894588172
1789323826592633000,11.659633056640626,2.530154729695618,3.3004911596775055,-1.5743080030620098
1789323826602595800,11.669595947265625,2.158793067869544,3.8121734386026858,-2.0290283315762876
1789323826612558800,11.679558837890625,2.14248198453784,4.047458112248778,-2.2792247431501744
1789323826622521900,11.68952197265625,2.2809552202045915,4.145243363696337,-2.093803293825686
1789323826632484900,11.69948486328125,2.2790555240631103,4.254536682108045,-1.9855873953871428
1789323826642447000,11.709447021484374,2.1468249821782113,4.4206449436753985,-1.670236228466034
1789323826652409900,11.719409912109375,1.9464625688314436,4.446239403659105,-1.2525161355689167
1789323826662372900,11.729372802734375,1.7046660290732978,4.390597595936059,-0.8417267187178135
1789323826672336000,11.7393359375,1.4740312270596623,4.340796915456653,-0.567347029132396
1789323826682297900,11.7492978515625,1.143712938761711,4.159818417015671,-0.42728418618664143
1789323826692260900,11.7592607421875,0.5743892027288675,3.722546359169483,-0.305878697437793
1789323826702224100,11.76922412109375,-0.16436171016097068,2.952879499012232,-0.07359978147894143
1789323826712187000,11.779186767578125,-1.255665539510548,1.7820032435148954,0.2673413153812289
1789323826722148900,11.78914892578125,-2.5727301350966094,0.07923486475646495,0.6993975382752716
1789323826732112000,11.79911181640625,-3.6743349937081335,-2.1408149281084534,1.585521470993757
1789323826742075000,11.809074951171874,-4.265433046914636,-4.483432531499862,2.822628732767701
1789323826752038000,11.819037841796876,-4.036586589622497,-5.711217838177085,3.8889077187150716
1789323826762000000,11.828999755859375,-3.867627030277252,-4.760884029746055,3.312794760933518
1789323826771963000,11.838962890625,-4.481233267889917,-2.312223634171486,1.6520637351766227
1789323826781926000,11.84892578125,-4.5379611172839995,-0.6523042170584201,1.186074409151077
1789323826791889000,11.858888916015625,-3.4405689079314468,0.00945171895623207,0.46819998781234023
1789323826801852000,11.868851806640626,-1.90851657679677,0.44768473078906534,-0.2853274923183024
1789323826811814000,11.87881396484375,-0.6526479159295558,0.36433892358243464,-0.9846572260543703
1789323826821777000,11.88877685546875,0.2842185081630945,-0.9123679426521062,-1.5934338515534996
1789323826831740000,11.898739990234375,1.4918018615499138,-3.3644173961430788,-0.7838418082430958
1789323826841703000,11.908702880859375,3.423156877620518,-5.258430815812945,0.66837608480677
1789323826851665000,11.918664794921876,3.8081153953835365,-6.090918581542373,-0.15684534318149088
1789323826861628000,11.9286279296875,1.6850953594237565,-6.578406914931535,-1.783675999032706
1789323826871591000,11.9385908203125,-1.7614426860451697,-7.445708804410695,-2.186322587569058
1789323826881554000,11.948553955078125,-4.903824181693792,-7.514971725729107,-0.7912040075741708
1789323826891516000,11.958515869140625,-4.423779442308843,-3.794572315460443,-1.883718674018234
1789323826901479000,11.96847900390625,-1.0506111689552664,1.419465231874585,-3.953149012479186
1789323826911442000,11.97844189453125,0.6836521260023116,3.1360312498390672,-4.5330426578432315
1789323826921405000,11.988405029296874,1.0081155507922173,1.5921774217516182,-4.0006382011458275
1789323826931367000,11.998366943359375,1.5808081787362693,0.8691688523948192,-2.725547830197215
1789323826941329400,12.008329345703125,2.479301325292885,0.6692068365424871,-0.9903596754796803
1789323826951292400,12.01829248046875,3.7672994008705016,0.5353688594609499,0.3614304887898266
1789323826961255400,12.02825537109375,5.626975958913564,0.9895289237439632,1.0074623475804925
1789323826971218400,12.038218505859374,7.4126260344982144,2.103957900354266,1.6056614649638532
1789323826981180400,12.048180419921875,7.84774062204957,2.9332892478793857,1.725974336170405
1789323826991143400,12.058143310546875,6.192917066770792,2.601681212031841,0.9750071349818259
1789323827001106400,12.0681064453125,4.557306453745067,1.8391332439690826,0.5912381192643195
1789323827011069200,12.078069091796875,3.7831355601668357,0.8801309759140015,0.2928653404772281
1789323827021031400,12.088031494140624,2.586640294766426,0.08618541454672812,-0.16425488878563047
1789323827030994400,12.097994384765625,0.8101835794627666,-0.34409166984558104,-0.3699040834289044
1789323827040957400,12.10795751953125,-1.0282030839227139,-0.6086679044276475,-0.919866262518242
1789323827050920400,12.11792041015625,-2.100277312145382,-0.9416717785477637,-1.3497358620882034
1789323827060883500,12.127883544921875,-2.0421897187054157,-1.3257476682573557,-1.0823578679583965
1789323827070845400,12.137845458984375,-1.3998480927348136,-1.3448060044705867,-0.312732143529132
1789323827080808400,12.147808349609376,-0.5732708662234246,-0.7332604987800121,0.6874976224493234
1789323827090771500,12.157771484375,0.3616613018710166,0.09737316351532936,1.1794018725845963
1789323827100734500,12.167734375,1.4821161877073348,0.979721230956912,0.9772026722647249
1789323827110696200,12.1776962890625,2.396053425502777,2.0269249295562504,-0.14606610194854439
1789323827120659500,12.187659423828125,2.828973717880249,2.448952656519413,-1.7293917433984576
1789323827130622500,12.19762255859375,2.7180291251301765,2.083359348961711,-1.64333127040565
1789323827140585500,12.20758544921875,2.376304768937826,1.322184422817826,-0.3310772899717092
1789323827150547500,12.21754736328125,1.859742901277542,0.46126025167703627,0.28747824061140415
1789323827160510200,12.22751025390625,1.0713643263876438,0.24047581254839895,0.24119324010275303
1789323827170473200,12.23747314453125,0.09627834488279186,0.429255340129137,0.23725341643579304
1789323827180436500,12.2474365234375,-0.875579303959012,0.5909054532438516,0.27693872641846534
1789323827190398500,12.2573984375,-1.210247311899066,0.7576274627953767,0.44690249437019225
1789323827200361500,12.267361572265624,-1.1211176605939865,0.958325976228714,0.6783361186113208
1789323827210324500,12.277324462890626,-0.9138345080733299,1.0699661500275135,0.8775234237641095
1789323827220287200,12.287287353515625,-0.673850862956047,1.112796991494298,1.0854852061986922
1789323827230249500,12.29724951171875,-0.5290905098438262,1.0785112755328417,1.1805634637098759
1789323827240212500,12.30721240234375,-0.5581037652950733,1.0648942535907029,1.1705135596647858
1789323827250175500,12.317175537109375,-0.7940635617237538,1.1470534813612698,1.261312897747755
1789323827260138500,12.327138427734376,-1.004842812731862,1.1724795990407466,1.4501865333527326
1789323827270101200,12.337101318359375,-1.0871983667921274,0.9886310981214046,1.7130492420151828
1789323827280063500,12.3470634765625,-1.1569997058361767,0.7427817758411168,1.9554272349230943
1789323827290026500,12.357026611328125,-1.231479338889569,0.3730325176477432,2.148888344448805
1789323827299989500,12.366989501953125,-1.2796318137705325,-0.013325345519185065,2.468844520947337
1789323827309952500,12.376952392578126,-1.3399199859946966,-0.4045224654108286,2.740020007663965
1789323827319914200,12.386914306640625,-1.4420429743856191,-0.6621253538489341,2.864752887269854
1789323827329877500,12.39687744140625,-1.6446804930575192,-0.6997253089249134,2.773523341076076
1789323827339840500,12.406840576171875,-1.840138037097454,-0.5357055440694093,2.346003738698363
1789323827349803500,12.416803466796875,-1.8647901016645132,-0.2359130346775055,1.8240422039516269
1789323827359766500,12.4267666015625,-1.7029811447262764,0.004295651367306709,1.3351264681078492
1789323827369728300,12.436728271484375,-1.518566242095828,0.1114180554807186,1.0548197265610098
1789323827379691300,12.446691162109374,-1.4046575388431548,-0.09198679430186749,1.4033663299888373
1789323827389654300,12.456654296875,-1.425496913254261,-0.5662859757721423,2.055737620934099
1789323827399617500,12.466617431640625,-1.4644710792928932,-0.9834878900140523,2.6031860636368394
1789323827409579500,12.47657958984375,-1.4279456215806305,-1.45964702013731,2.9987083532512187
1789323827419542300,12.486542236328125,-1.5065794517040252,-2.2609698322743177,3.2992925975427028
1789323827429505300,12.49650537109375,-1.4880306724481285,-3.104251963740587,3.571749940763414
1789323827439468300,12.50646826171875,-1.0285931061536073,-3.7341158009320496,3.4479698318377134
1789323827449430500,12.516430419921875,-0.13947744427323341,-3.91578520424664,3.29791838658005
1789323827459393500,12.5263935546875,0.7155084959249943,-3.9285704515397546,3.32151027456969
1789323827469356300,12.536356201171875,1.1870552368819713,-3.8769519079834223,3.051316492366791
1789323827479319300,12.5463193359375,1.3483335940748453,-3.474275947222113,2.199478129479289
1789323827489281500,12.556281494140626,1.3257231183379887,-2.448276949214935,0.6969731606725603
1789323827499244500,12.56624462890625,0.7771060702472925,-1.0695376954823732,-0.40998584538325666
1789323827509207600,12.57620751953125,-0.22076869357023388,-0.01790215191543102,-0.8271182015202939
1789323827519170600,12.586170654296875,-1.4773013347715138,0.34728549745082854,-1.2243844121925531
