time,seconds_elapsed,z,y,x
1789757392817375200,0.049375244140625,0.3710235159128904,0.15732392047867177,0.14953575082048773
1789757392827389000,0.059388916015625,0.4491249927252531,0.1517141908381134,0.09978753118067979
1789757392837403100,0.069403076171875,0.9049147040367126,0.453600238443166,-0.28134686171691864
1789757392847417000,0.0794169921875,0.726813222336769,1.3152305120266974,-0.6501016655128449
1789757392857431300,0.089431396484375,1.7766431777864693,1.006456385408342,-0.07322760543199255
1789757392867446300,0.0994462890625,1.6084475885510443,0.09733400054872035,0.050026876750984224
1789757392877460000,0.1094599609375,0.3638993631213903,-0.5456577598936856,0.22979356541652232
1789757392887474200,0.11947412109375,0.09232406343221664,-2.8676190903559324,0.4411253722734749
1789757392897488100,0.129488037109375,-2.647862532970309,-2.36793353869468,-0.009188337046001105
1789757392907502000,0.139502197265625,-2.595831316959858,-0.42765038915053005,-0.6930174087841063
1789757392917517300,0.149517333984375,-2.1996488098710776,0.9979409243889152,-0.5427738019552082
1789757392927531000,0.159531005859375,-2.090153246885538,1.1843693587988615,-0.11073358034789561
1789757392937545000,0.169544921875,-2.1299568494856356,1.2916453460387884,0.11454415161199867
1789757392947559200,0.17955908203125,-1.6905413498699664,1.5195530611760912,-0.5467465780436992
1789757392957573000,0.189572998046875,-0.9786725986868142,0.8518326637990772,-0.8869843489401041
1789757392967588000,0.199588134765625,-0.4782511339664459,-0.031511428942531346,-0.5143614350065588
1789757392977602000,0.20960205078125,-0.19605214893221853,-0.7291518944174051,-0.19297449505254624
1789757392987616000,0.219615966796875,0.08092121040821075,-0.6769004597850143,-0.47568347543552514
1789757392997630200,0.229630126953125,0.48254035559296604,-0.06913681072071194,-0.7049941892385483
1789757393007644200,0.23964404296875,0.6250707576960325,0.1474840789876878,-0.660416357973963
1789757393017659100,0.2496591796875,0.22072715598344803,0.17686624081656335,-0.48579292764812704
1789757393027673000,0.259673095703125,-0.2634323252439499,0.5291666438199579,-0.020802695662528275
1789757393037687000,0.26968701171875,-0.686031130093336,0.6099738724596798,0.7160806697897613
1789757393047701200,0.279701171875,-1.3129226734757422,0.22979235984012483,1.0073203087612985
1789757393057715200,0.289715087890625,-1.6594944696992635,0.5983972703039646,0.1908556032024324
1789757393067730000,0.29972998046875,-1.909745826330781,0.837879980161786,-0.4682093401625752
1789757393077744000,0.309744140625,-1.843823447611928,0.8493775257319212,-0.6012292788594961
1789757393087758000,0.319758056640625,-1.4378940380126237,0.791678200957179,-0.5644340642951429
1789757393097772000,0.32977197265625,-0.9466507360041141,0.5832419328786432,-0.2882373884156346
1789757393107786200,0.3397861328125,-0.3453478073865175,0.4478530730932951,0.48289800992421805
1789757393117801000,0.349801025390625,-0.8176192824214696,0.5075732361711561,1.6059730151310563
1789757393127815000,0.35981494140625,0.3292974208176136,0.29855478429049254,2.3716145652949807
1789757393137829000,0.3698291015625,-0.05538754070103168,0.7807916268922388,2.095337956047058
1789757393147843000,0.379843017578125,-0.3716197282403707,1.7561983556509018,1.9128107668593526
1789757393157857300,0.389857177734375,-0.952684170949459,1.2642623952031136,2.2121517330914733
1789757393167872000,0.3998720703125,-1.7861825750261544,0.8540855572924018,2.3888280042938885
1789757393177886000,0.409885986328125,-2.787285032185912,0.7859609923541545,2.367312922578305
1789757393187900200,0.419900146484375,-2.740864641794562,0.6223501005604862,1.9698437366798518
1789757393197914000,0.4299140625,-2.0991046151041983,0.5608306329756975,1.29844976535663
1789757393207928000,0.439927978515625,-1.015685693785548,-0.038842940874397755,0.6927024245508014
1789757393217943000,0.449943115234375,-0.34835166537761686,-0.650941112011671,0.5566768742971122
1789757393227957000,0.45995703125,-1.103552193287015,-0.0213037770524621,1.2605441053323447
1789757393237971000,0.469970947265625,-1.8153326816648243,0.7073708552420139,2.410466566258669
1789757393247985200,0.479985107421875,-2.1675515438646076,0.37394291049093004,2.9390502956241367
1789757393257999000,0.4899990234375,-2.6020664119571446,-0.013023732224106788,2.627981482197344
1789757393268014000,0.50001416015625,-2.473511343714595,-1.0022346760600804,3.025409313172102
1789757393278028000,0.510028076171875,-1.0633300730139017,-3.098710988487303,4.486708192169666
1789757393288042000,0.5200419921875,-0.3250081991910934,-2.6900723199293015,3.401558501535654
1789757393298056200,0.53005615234375,-0.5383908376306296,-2.297373271042108,3.586895195186138
1789757393308070100,0.540070068359375,-0.9895873759329319,-2.601073309266567,3.816982007928192
1789757393318084900,0.5500849609375,-1.1401339112311601,-2.747913391262293,3.2538147486984728
1789757393328099000,0.56009912109375,-0.8711322614222764,-2.735070860823989,2.3606603328213094
1789757393338113000,0.570113037109375,-1.6839210549473762,-1.0927551972016691,0.3637871349185705
1789757393348127200,0.580127197265625,-2.4988982984274624,0.8408063890025019,-2.215386477228999
1789757393358141200,0.59014111328125,-2.302803479397297,1.537218335595727,-3.9301743796050546
1789757393368156200,0.60015625,-1.3795640141189098,0.9294558555752038,-4.6420618354886765
1789757393378170400,0.61017041015625,-0.17186989383399487,-0.6222171218305825,-4.220408787056804
1789757393388184300,0.620184326171875,0.4086240555107593,-2.1843615166291594,-2.6093121453016996
1789757393398198000,0.630197998046875,0.032898645517230034,-2.8907170573487875,-0.6244482418835162
1789757393408212200,0.640212158203125,-1.5961270361602304,-2.966030364747345,0.5594254423528909
1789757393418227200,0.650227294921875,-2.755460737901926,-2.8371967718243596,0.8942191224992275
1789757393428241200,0.6602412109375,-2.5635136862009764,-1.6686182718753815,-0.17698504489064215
1789757393438255400,0.67025537109375,-2.1894582552462816,-0.8987766396731137,-0.5669295343726873
1789757393448269000,0.68026904296875,-1.573218454259634,-1.705040707604587,-0.5814122332334518
1789757393458283300,0.690283203125,-0.5919195987224578,-2.5539681514814494,-1.1245435433894395
1789757393468298200,0.70029833984375,0.023006781578063965,-2.987185380978882,-1.3081371927648782
1789757393478312200,0.710312255859375,0.2809118678331375,-2.801197529943287,-2.0562182440578938
1789757393488326400,0.720326416015625,0.06430091499686241,-2.147412134416401,-2.2396143250346183
1789757393498340000,0.730340087890625,-0.8848901531398295,-1.8928852924227713,-2.3050749314606187
1789757393508355000,0.74035498046875,-1.8144582369178532,-2.160071124981344,-2.7739152630031105
1789757393518369300,0.750369384765625,-2.4921713282600044,-1.63183343257457,-2.3833219542235136
1789757393528383200,0.76038330078125,-2.540024089542031,-1.1541595139741896,-2.241598776850104
1789757393538397400,0.7703974609375,-2.12967890932709,-1.691901532307267,-1.7063672800332306
1789757393548411100,0.7804111328125,-0.9816986685097217,-2.0623741363391277,-0.5947229657053947
1789757393558426000,0.790426025390625,0.42786680838018654,-1.9413395267292857,0.02032031897306442
1789757393568440300,0.8004404296875,1.965501615822315,-1.7461068774864077,0.2881131775140762
1789757393578454300,0.810454345703125,3.45649011516273,-1.500730725675821,0.5619663590073585
1789757393588468000,0.820468017578125,4.037871368736028,-0.9234450708530842,0.67019000236094
1789757393598482200,0.830482177734375,3.7797824503466484,-0.22175215164963155,0.7024000810921192
1789757393608497200,0.8404970703125,3.4483822120308876,0.3858314646726474,0.5184872827649116
1789757393618511000,0.850510986328125,3.4774531159535047,0.5269701932216063,0.6832832926899194
1789757393628525300,0.860525390625,3.4176112261921165,0.20955783772068096,1.1375257745593785
1789757393638539000,0.8705390625,3.597859656792879,0.5903140997545794,0.7476859144955873
1789757393648553200,0.88055322265625,4.317346189503372,1.0450674902882426,0.5149082552343607
1789757393658568200,0.890568115234375,4.995894562625884,1.032634052107483,0.6829518687784671
1789757393668582100,0.90058203125,5.420090281277894,1.02940639529787,0.681430358299613
1789757393678596400,0.910596435546875,5.791432946142554,1.4121744903445244,0.5958218668580055
1789757393688610000,0.920610107421875,6.094149818548559,1.615924792563915,1.0440718303143977
1789757393698624300,0.930624267578125,5.7306824171036475,0.8508592887222767,2.0003560715824364
1789757393708639200,0.94063916015625,4.588857484045625,0.4105924329742789,2.139436040970683
1789757393718653200,0.950653076171875,3.851798762026429,1.3109816224105655,2.268110351678729
1789757393728667100,0.960667236328125,3.7338138953760263,1.608632881990075,2.2992589386582374
1789757393738681000,0.97068115234375,2.833736402237415,1.5022726944208145,2.4804122091442347
1789757393748695000,0.980695068359375,2.1167600987821817,1.314464496090263,3.3987522119432687
1789757393758710300,0.990710205078125,1.5694659698583184,1.1502972855880855,3.9469150865256784
1789757393768724200,1.00072412109375,1.3604010484874247,1.180923894520104,4.583977895310521
1789757393778738200,1.01073828125,1.949801211734861,1.4491206576868891,5.275958289197087
1789757393788752100,1.020752197265625,2.676893104882538,1.1887614562779665,5.725304231196642
1789757393798766000,1.03076611328125,3.241133546301722,0.8708832550972699,6.395585418972373
1789757393808781000,1.040781005859375,3.9820442675739525,0.5886725796252489,7.0752511056870215
1789757393818795300,1.050795166015625,4.4423365510016675,0.34449498994946476,7.706132010966539
1789757393828809200,1.060809326171875,4.534078430631756,0.15206336960196495,8.254989882075787
1789757393838823200,1.0708232421875,4.311474959382415,0.030154607506096363,8.570822256642579
1789757393848837000,1.080837158203125,3.967097458332777,0.2503910573631525,8.525158822098375
1789757393858852000,1.09085205078125,3.686038875505328,0.8413646074071526,7.871100454849004
1789757393868866300,1.1008662109375,3.5609143662333484,1.315621995562315,6.98704032279253
1789757393878880300,1.11088037109375,3.4092262596845626,1.6437980111345647,6.044429217568039
1789757393888894200,1.120894287109375,3.365454922497272,1.9499191390261053,5.298263059985637
1789757393898908200,1.130908203125,3.508641158160567,2.1466373506516216,4.602268754282593
1789757393908923100,1.140923095703125,3.7906425747960806,2.2256901368394493,3.9394676931291817
1789757393918937000,1.15093701171875,4.114329169994592,2.250445223389566,3.3284172774791716
1789757393928951300,1.160951416015625,4.314098878145217,2.2445134952530266,2.8377748639732596
1789757393938965000,1.170965087890625,4.37289885763824,2.167984090062976,2.509436059054732
1789757393948979200,1.180979248046875,4.294226302939653,2.05398712400496,2.2535995957672594
1789757393958994200,1.190994140625,4.112647500517964,2.0063161490306256,1.9222645316421985
1789757393969008000,1.201008056640625,3.791467919704318,1.932961282223463,1.5417746837258337
1789757393979022300,1.211022216796875,3.272044817394018,1.8542647621273993,1.112698207294941
1789757393989036000,1.2210361328125,2.6996055796891447,1.7231436427891254,0.6583207008689641
1789757393999050200,1.23105029296875,2.2154490210711955,1.6410557266891002,0.29246143585145473
1789757394009065200,1.241065185546875,1.8164163852483033,1.512085355643928,0.047402387166023255
1789757394019079200,1.2510791015625,1.5306949251763522,1.3570935313746333,-0.17426643358170985
1789757394029093400,1.26109326171875,1.2320721902161835,1.235126317089796,-0.32908407032787795
1789757394039107000,1.271107177734375,0.7599358858682215,1.090511802189052,-0.4693506191521883
1789757394049121000,1.28112109375,0.3204559427142143,0.9674088618725538,-0.6076613577336073
1789757394059136300,1.29113623046875,-0.09206380506083368,0.838769622477889,-0.7888929541528225
1789757394069150200,1.301150146484375,-0.4013375517643988,0.7367176534965634,-1.0833628072172403
1789757394079164200,1.3111640625,-0.6630582507848739,0.6395113709807395,-1.3734697888970375
1789757394089178000,1.32117822265625,-0.7999369107365608,0.538956947080791,-1.590975060224533
1789757394099192000,1.331192138671875,-0.8555430626243352,0.43469884635731576,-1.5421785883516073
1789757394109207000,1.34120703125,-0.8641958862878382,0.47944034375101324,-1.54674253526628
1789757394119221200,1.35122119140625,-0.8374386661350727,0.29016294965073464,-1.286330434626341
1789757394129235200,1.361235107421875,-0.9935079103775322,0.11661270151436329,-1.253938569587469
1789757394139249200,1.371249267578125,-0.9803070680208503,0.08266907698884605,-1.156491756314039
1789757394149263000,1.38126318359375,-0.7684722435452044,0.1078609475210309,-0.8548755386263132
1789757394159278000,1.391278076171875,-0.4898382575161755,0.13096563651561735,-0.43748423929214475
1789757394169292300,1.401292236328125,-0.3690678518004715,0.06117240771278738,-0.026911972323060033
1789757394179306200,1.41130615234375,-0.38780645454004403,-0.1617910559553653,0.3856616975963115
1789757394189320200,1.4213203125,-0.5117853009082377,-0.6391982133783399,0.6998346145182848
1789757394199334100,1.431334228515625,-0.6162701961249113,-0.9575739888176321,0.6434013641566038
1789757394209349000,1.44134912109375,-0.6573357814848423,-1.0988296948097647,0.39774727218747136
1789757394219363300,1.45136328125,-0.6778566645313054,-1.3168202654361725,0.015749357795715332
1789757394229377300,1.461377197265625,-0.7400444598317146,-1.5823279356494544,-0.3535930731624365
1789757394239391000,1.471390869140625,-0.8541238434761762,-1.816185499101877,-0.7253565937876701
1789757394249405200,1.4814052734375,-1.1357721358250825,-2.336376517044753,-0.9172849407881498
1789757394259420200,1.491420166015625,-1.4028729935139417,-2.6336694647058843,-1.2360212201029062
1789757394269434000,1.50143408203125,-1.3866273766338824,-2.6356927872270344,-1.5074790308922528
1789757394279448300,1.5114482421875,-1.2071154436141251,-2.716232012580335,-1.6413398043274878
1789757394289462000,1.5214619140625,-1.0922077924519777,-2.964950460556149,-1.7114473597764968
1789757394299476200,1.531476318359375,-1.033603043270111,-3.2930066491410135,-1.7078887905120848
1789757394309491200,1.5414912109375,-0.9095265817463397,-3.564876840123534,-1.7419231620609759
1789757394319505200,1.551505126953125,-0.6753215200304985,-3.7399499139130112,-1.818141893866658
1789757394329519400,1.561519287109375,-0.44733927835226056,-3.910297128224373,-1.7823738303929566
1789757394339533000,1.571532958984375,-0.27263036170005794,-4.199942629872262,-1.6831863109320402
1789757394349548500,1.581548583984375,-0.17932196340560913,-4.501836787718534,-1.482052913212776
1789757394359562500,1.5915625,-0.11261281822323799,-4.83225795186907,-1.1643898160874844
1789757394369576400,1.601576416015625,-0.15932079338431357,-5.063021640959382,-0.9488532144844531
1789757394379590400,1.61159033203125,-0.20021281227562576,-5.21092029209733,-0.9136685038566589
1789757394389604600,1.6216044921875,-0.21731007754895834,-5.1846846116006375,-1.0475181713759898
1789757394399619600,1.63161962890625,-0.21454295092318207,-5.352468112903833,-1.1491267805039882
1789757394409633300,1.64163330078125,-0.48165538945198055,-5.5731888391464945,-1.3827344608485699
1789757394419647500,1.6516474609375,-0.6212310334026813,-5.6022039212286465,-1.6013094072341918
1789757394429661400,1.661661376953125,-0.5848083054125308,-5.590921479713916,-1.7949083177953957
1789757394439675600,1.671675537109375,-0.5103998013665899,-5.526916917315125,-1.8911954396396875
1789757394449690600,1.681690673828125,-0.49965632556676864,-5.388697364148498,-1.8954104269862173
1789757394459704300,1.691704345703125,-0.46406365519259124,-5.196813440811634,-1.7129752999961376
1789757394469718500,1.701718505859375,-0.347418731909059,-5.119139834022522,-1.2541443212926386
1789757394479732500,1.711732421875,-0.4642155212860554,-5.128806657034159,-0.7062322066009045
1789757394489746700,1.72174658203125,-0.6199532685518264,-4.90127274364531,-0.24230127440989016
1789757394499761700,1.73176171875,-0.7435176889002323,-4.644672310248017,0.16504150911867618
1789757394509775400,1.741775390625,-0.7698468928992748,-4.455258284156024,0.3436246368557215
1789757394519789600,1.75178955078125,-0.7219722120463847,-4.157088699790835,0.3657446987271309
1789757394529803500,1.761803466796875,-0.6256066912036389,-3.8994314508169885,0.4093956244051456
1789757394539817500,1.7718173828125,-0.5083060439577326,-3.735762983617186,0.44458267312049865
1789757394549832700,1.781832763671875,-0.3623930136790499,-3.5169457529082893,0.3864215760529041
1789757394559846400,1.791846435546875,-0.20142741222977636,-3.328603447701037,0.20695465121865272
1789757394569860400,1.8018603515625,-0.010716624325513839,-3.1468536726266145,-0.12208324187994003
1789757394579874600,1.81187451171875,0.15287822964880615,-2.908407320079207,-0.47116906675100323
1789757394589888500,1.821888427734375,0.2978384161820635,-2.657797651529312,-0.7129980474740266
1789757394599903500,1.831903564453125,0.3721603744557127,-2.3577834622107443,-0.8289888176977634
1789757394609917400,1.84191748046875,0.31348606716897337,-2.0926330810025333,-0.8759715181469917
1789757394619931400,1.851931396484375,0.20195110731031746,-1.876513857205957,-0.8245604798614978
1789757394629945600,1.861945556640625,0.062453862358070905,-1.5430886889338493,-0.7498878084540367
1789757394639959600,1.87195947265625,-0.06685293756723404,-1.1416881549358366,-0.8052075446158647
1789757394649974500,1.881974609375,-0.08496032973118126,-0.7726344777911901,-0.9493027118176222
1789757394659988500,1.891988525390625,-0.005962123274803161,-0.49770694506466384,-1.0604717609733343
1789757394670002400,1.90200244140625,0.166944127869606,-0.2537158178716898,-1.1898749704778193
1789757394680016600,1.9120166015625,0.3757025405745953,-0.04242226066589355,-1.2788988233208656
1789757394690030600,1.922030517578125,0.6186322490811348,0.15479688621908425,-1.3302946640372275
1789757394700045600,1.932045654296875,0.9043664955694228,0.39283231987804174,-1.36322604278028
1789757394710059500,1.9420595703125,1.113290912491083,0.6276125511333346,-1.3742366816163063
1789757394720073500,1.952073486328125,1.3343921624839306,0.8118822000741958,-1.272222998818755
1789757394730087400,1.96208740234375,1.545556540352106,1.0353329358026384,-1.0878817459464072
1789757394740101600,1.9721015625,1.7623007641792297,1.2721847126349806,-0.9023200113683938
1789757394750116600,1.98211669921875,1.9348866973280905,1.595089217545092,-0.7633686367958784
1789757394760130300,1.99213037109375,2.0491583886742593,1.9543384167730806,-0.6110054074645042
1789757394770144500,2.00214453125,2.0674960093975066,2.2446827143400907,-0.47860769231915473
1789757394780158500,2.012158447265625,1.9802548021875321,2.453982467380166,-0.30310557946264743
1789757394790172700,2.022172607421875,1.8998446100413797,2.6186805698886513,-0.06898761150836945
1789757394800187600,2.032187744140625,1.8386381539285181,2.75383956644088,0.141216396895051
1789757394810201300,2.042201416015625,1.723019431887567,2.8624773435533046,0.30627135001718997
1789757394820215600,2.052215576171875,1.642132416009903,2.9630417043253776,0.37422552682459354
1789757394830229500,2.0622294921875,1.5675931617237626,3.029835897442698,0.4081260428607464
1789757394840243500,2.072243408203125,1.5156654060877859,3.0367174736499782,0.5340191984176635
1789757394850258700,2.0822587890625,1.4548926652170717,3.0034166770726443,0.7334785254448651
1789757394860272400,2.0922724609375,1.4491571903049945,2.930162640291452,1.0580933414041995
1789757394870286600,2.10228662109375,1.442636264103651,2.8376491917669773,1.427656721636653
1789757394880300500,2.112300537109375,1.4122177449643611,2.8061779487043617,1.6749316928058862
1789757394890315500,2.1223154296875,1.3569501773811876,2.7508213876634833,1.9217852236926554
1789757394900329500,2.13232958984375,1.3487984351076185,2.680187177991867,2.1812860547065736
1789757394910343400,2.142343505859375,1.4339679506100713,2.6859710220903157,2.3522020088165996
1789757394920357400,2.152357421875,1.570084101756662,2.7745500537753105,2.4516128156393764
1789757394930371600,2.16237158203125,1.7811083405017851,2.8273259506732225,2.5822417675465346
1789757394940386600,2.172386474609375,1.982545251212269,2.7956623999089003,2.642483762541413
1789757394950400500,2.182400390625,2.162364204354584,2.794963311728835,2.6631495339512825
1789757394960414500,2.19241455078125,2.2716778349019586,2.6831623944103717,2.605622643133998
1789757394970428400,2.202428466796875,2.338179182552546,2.351576570394635,2.332156415131688
1789757394980442600,2.212442626953125,2.3685341349363327,2.021832574853301,1.7218962730765341
1789757394990457600,2.22245751953125,2.3673734205938874,1.9247990185558794,0.9795464589118957
1789757395000471600,2.232471435546875,2.3394917264558375,2.0383499944120644,0.4278630089879036
1789757395010485500,2.242485595703125,2.2712122632168232,2.0987708531051874,0.12083937929868697
1789757395020499500,2.25249951171875,2.0918238104462623,1.9448861132949589,0.28426000921726224
1789757395030513400,2.262513427734375,1.6857611298561095,1.2434452326238155,1.1902087324768305
1789757395040528600,2.272528564453125,1.1616777806498109,0.17752631216049194,2.574816001459956
1789757395050542600,2.28254248046875,0.7132641510643064,-0.6303788009762764,4.030138728657365
1789757395060556300,2.292556396484375,0.47877033553496,-0.8741419646322727,5.503513245373964
1789757395070570500,2.302570556640625,0.3738670687757432,-0.6707908908635377,6.991621220842004
1789757395080584400,2.31258447265625,0.15690569506660104,-0.056259647360444066,8.140729881167411
1789757395090599400,2.322599365234375,-0.19438611541613934,0.9946727163732051,8.434981123045086
1789757395100613600,2.332613525390625,-0.4941103088121861,2.098534706261754,8.188238066795467
1789757395110627300,2.34262744140625,-0.9538006077587604,2.6293273438483475,7.668865233367681
1789757395120641500,2.3526416015625,-0.9179403359569609,2.8087060058772564,6.687205143302679
1789757395130655500,2.362655517578125,-0.28043036792650816,2.549659348371625,5.840891096794605
1789757395140670500,2.37267041015625,0.35047800988182426,1.8461790708273649,5.113582784417272
1789757395150684700,2.3826845703125,0.7404794171828776,1.1820382855027913,4.409334445109963
1789757395160698400,2.392698486328125,0.9070482819993049,0.701975133678317,3.900272577816248
1789757395170712600,2.402712646484375,0.7846142539203167,0.20732816070616245,3.6457816839188335
1789757395180726500,2.4127265625,0.3518844426136464,-0.2227460945904255,3.6269600790709253
1789757395190741500,2.422741455078125,-0.2508545466890558,-0.5482441231250763,3.7162078037977215
1789757395200755700,2.432755615234375,-0.7963935390412807,-0.8379027765154838,3.8432302556455133
1789757395210769400,2.442769287109375,-1.250266603076458,-1.1267723253548145,3.8900884529322384
1789757395220783400,2.452783447265625,-1.5808113936066626,-1.3804092327713966,3.7922237065076825
1789757395230798600,2.462798583984375,-1.7784534420788287,-1.4009072463989256,3.387475615647435
1789757395240812500,2.4728125,-1.829455315041542,-1.4178022670984267,3.0353181282460686
1789757395250826500,2.482826416015625,-1.9904794052124022,-1.3500228623360395,2.359247251152992
1789757395260840400,2.49284033203125,-1.9276444711148737,-1.0392512782901524,1.71015439735651
1789757395270854400,2.5028544921875,-1.848765580189228,-0.841902659806609,1.3756477174580097
1789757395280869400,2.512869384765625,-1.806959405595064,-0.8672714943408966,1.145298162126541
1789757395290883600,2.522883544921875,-1.8530115471959112,-0.9754396081149578,1.0584855555921793
1789757395300897500,2.5328974609375,-1.9250258130490778,-1.1750187621295451,1.090789742347598
1789757395310911500,2.542911376953125,-1.9955776051342486,-1.386881935916841,1.069873795568943
1789757395320925400,2.552925537109375,-2.080348476707935,-1.5294897871702908,0.9355109178304671
1789757395330940400,2.5629404296875,-2.131257995212078,-1.676890133397281,0.6769423992305994
1789757395340954600,2.57295458984375,-2.18129189992547,-1.7956886545181274,0.3681172730773687
1789757395350967800,2.5829677734375,-2.2007132242321967,-1.8919389514833687,-0.06911445275843144
1789757395360982000,2.59298193359375,-2.1986042692542074,-1.9622724246427417,-0.5451701225072145
1789757395370996000,2.602995849609375,-2.1785048995554446,-2.0025429141022264,-0.9701379945755004
1789757395381011000,2.613010986328125,-2.1381132679343224,-2.036658241932839,-1.3763549889445303
1789757395391025000,2.62302490234375,-2.1543945406496525,-2.0195630224861203,-1.8042472240269183
1789757395401038800,2.633038818359375,-2.18856569032073,-2.0288949144549666,-2.1997341500669716
1789757395411053000,2.643052978515625,-2.185938848948479,-2.0528096046581865,-2.6025346139907835
1789757395421067000,2.65306689453125,-2.1837422156870363,-2.141700917162746,-2.898687305575609
1789757395431082000,2.66308203125,-2.111878756481409,-2.348987722945213,-3.0674709238320585
1789757395441096000,2.673095947265625,-2.032470288723707,-2.4526006576329467,-3.192968942591548
1789757395451110000,2.68310986328125,-2.022353383857012,-2.570176066699624,-3.2796962089300155
1789757395461123800,2.693123779296875,-2.0319711070299147,-2.655111481185257,-3.4381986716687676
1789757395471138000,2.703137939453125,-2.037617588484287,-2.6542721077516673,-3.6385832968473433
1789757395481153000,2.713153076171875,-2.037225958818197,-2.6823604303777215,-3.8202491930305955
1789757395491166700,2.723166748046875,-2.045596312278509,-2.771038830783963,-4.109908430942893
1789757395501181000,2.733180908203125,-2.037392547556758,-2.8505484208285807,-4.466448078951239
1789757395511195000,2.74319482421875,-2.04723589617908,-2.9500811004653573,-4.824549569448829
1789757395521209000,2.753208984375,-2.057500685083866,-3.1100141805291175,-5.058479905876517
1789757395531224000,2.76322412109375,-2.0475380939960477,-3.2103909097746013,-5.182251831495762
1789757395541237800,2.77323779296875,-2.037364490506053,-3.2096444753214715,-5.149304086139798
1789757395551252000,2.783251953125,-2.0650527078986167,-3.2345567982599137,-4.908374100083113
1789757395561266000,2.793265869140625,-2.075753550133109,-3.2421801327452062,-4.596225382465124
1789757395571281000,2.803281005859375,-2.183693115848303,-3.175962862733006,-4.2598686907857655
1789757395581295000,2.813295166015625,-2.379614916399121,-3.1801515465945003,-3.8975948830395937
1789757395591308800,2.823308837890625,-2.537364514943957,-3.186751967772841,-3.659244392082095
1789757395601323000,2.833322998046875,-2.667255215704441,-3.4562212350934742,-3.181578949049115
1789757395611337000,2.8433369140625,-2.9494723209172484,-3.6998306694924827,-2.747668476590514
1789757395621352000,2.85335205078125,-2.9176240612357853,-3.8296120646595955,-2.2906050920814276
1789757395631366000,2.863365966796875,-2.830191861498356,-4.193181172913313,-1.652624583929777
1789757395641379800,2.8733798828125,-2.891493594679236,-4.539803822541237,-1.1282464895606041
1789757395651393800,2.883393798828125,-2.855709749114513,-4.406781253495812,-0.8922592206031084
1789757395661408000,2.893407958984375,-2.834927073326707,-4.288176793642342,-0.4262245941311121
1789757395671423000,2.903423095703125,-3.0375626923024655,-4.310828770433366,0.30171266379952427
1789757395681437000,2.91343701171875,-3.2207974452376362,-4.3861312641769645,1.474296892258525
1789757395691451000,2.923450927734375,-3.319595088598132,-4.415957370381057,2.768629431554675
1789757395701464800,2.93346484375,-3.45926951674819,-4.335751322504878,3.9651299576520915
1789757395711479000,2.94347900390625,-3.6778397869586943,-4.210263240617514,4.952885441982746
1789757395721494000,2.953493896484375,-3.8152398404359817,-3.973235522696376,5.513102911496162
1789757395731508000,2.963508056640625,-3.635055122721195,-3.7148882456317542,5.6758536793291565
1789757395741522000,2.97352197265625,-3.2812451919376846,-3.668196344822645,5.543510324719548
1789757395751535900,2.983535888671875,-2.796848394823074,-3.7395430866777897,5.063447757416963
1789757395761550800,2.99355078125,-2.083946208938956,-3.855931331786513,4.404016464957595
1789757395771565000,3.00356494140625,-1.251952364206314,-3.894631941580772,3.7021190726906057
1789757395781579000,3.0135791015625,-0.5192296255648136,-3.8192251106798647,2.9757874963909385
1789757395791593000,3.023593017578125,0.05565291363894939,-3.559934999807179,2.3622452639251947
1789757395801607000,3.03360693359375,0.4275000574270263,-3.269762259414792,1.8236258782356976
1789757395811622000,3.043621826171875,0.6002624796539545,-2.904149954895675,1.331765321111679
1789757395821635800,3.0536357421875,0.5315484243899583,-2.4812758402362465,0.8468564828217029
1789757395831650000,3.063650146484375,0.25398703602850436,-2.11454841408208,0.36609482733905313
1789757395841663700,3.073663818359375,-0.038520540519617494,-1.815097996126115,0.05492693745195865
1789757395851678000,3.083677978515625,-0.22528408863544463,-1.6336530492171644,-0.09190671480298042
1789757395861693000,3.09369287109375,-0.28075114257978273,-1.5936331735178828,-0.24665420892238615
1789757395871707000,3.103706787109375,-0.3666927932322025,-1.550824105491489,-0.4737403785437345
1789757395881721000,3.11372119140625,-0.4618254843443632,-1.5547849719464777,-0.8837123415321111
1789757395891734800,3.12373486328125,-0.48986324582695956,-1.466637025155127,-1.4850135165840386
1789757395901749000,3.1337490234375,-0.43559623358845706,-1.2192092015117406,-2.038928671082854
1789757395911764000,3.143763916015625,-0.3023895218814723,-1.055398549362272,-2.458099839571118
1789757395921778000,3.15377783203125,0.041378304570913314,-0.8577605194780975,-2.6611756035298106
1789757395931792100,3.163792236328125,0.38279870938062666,-0.6601341800317168,-2.641009013813734
1789757395941805800,3.173805908203125,0.5667816138019784,-0.5901795501220971,-2.5724615472882983
1789757395951819800,3.18381982421875,0.6282698459982872,-0.5954634088091552,-2.381653144228458
1789757395961835000,3.1938349609375,0.6775204913794994,-0.5473389909788966,-2.030215787795186
1789757395971849000,3.203848876953125,0.4323346745092422,-0.4330607968267053,-1.7471271604448555
1789757395981863000,3.21386279296875,0.38142979564759877,-0.2381179243106395,-1.52262808470726
1789757395991876900,3.223876953125,0.8007014653682708,-0.01520947876535356,-1.1818605908483266
1789757396001891800,3.233891845703125,1.0151496872127055,-0.011039499604329466,-0.7883785748898983
1789757396011905800,3.24390576171875,1.2573475012481212,0.2760985492672771,-0.8533587043225764
1789757396021920000,3.253919921875,1.735454842829704,0.5596074478562921,-0.9241250159412622
1789757396031934000,3.263933837890625,1.9525889427572487,0.7797855185896158,-1.2058137133657931
1789757396041948000,3.273947998046875,2.0096786112010476,1.0311734049703924,-1.4611702841818333
1789757396051963000,3.283962890625,2.131993323749304,1.2961552246786654,-1.658812917175889
1789757396061976800,3.293976806640625,2.302178040975332,1.5294854032561183,-1.7838421493798493
1789757396071991000,3.303990966796875,2.3768244088977575,1.7089486748285592,-1.7976731063336133
1789757396082005000,3.3140048828125,2.4322780005723237,1.9404522225007415,-1.7288737108737229
1789757396092019000,3.32401904296875,2.3930033902823924,2.2101877395421266,-1.6670102521568535
1789757396102034000,3.334033935546875,2.381597614648938,2.5098025542795654,-1.6042898843497038
1789757396112047900,3.3440478515625,2.4195500364243983,2.7232673180446025,-1.5857301453083752
1789757396122062000,3.35406201171875,2.362214284265041,2.8774294134914875,-1.592327059355378
1789757396132076000,3.364075927734375,2.278865554448962,2.9228251370102165,-1.6472247707128524
1789757396142089700,3.37408984375,2.129215675729513,2.971788197621703,-1.6605939553737639
1789757396152105000,3.38410498046875,1.9095640400230884,3.045466597294807,-1.6088713669210672
1789757396162119000,3.394118896484375,1.6238450641691684,3.0964032960668204,-1.5731202545821665
1789757396172132900,3.4041328125,1.309023327949643,3.1099171498954292,-1.4920201804757118
1789757396182147000,3.41414697265625,1.0038525595854968,3.052423576825857,-1.347865976563096
1789757396192162000,3.424162109375,0.7486983064085244,2.948516627627611,-1.1964987725317477
1789757396202175700,3.43417578125,0.6262999341648071,2.8218872667506334,-0.9582879823058843
1789757396212190000,3.44418994140625,0.5254273111611605,2.643196002463996,-0.6394476580947637
1789757396222204000,3.454203857421875,0.4408814805150032,2.412473522166908,-0.23814999994933603
1789757396232218000,3.464218017578125,0.21576452860739082,2.129763226609677,0.10941197635531424
1789757396242233000,3.474233154296875,-0.14049509688317774,1.682894488378614,0.4354425043314695
1789757396252246800,3.484246826171875,-0.5195879009505734,0.9259349879726767,0.8842875110715627
1789757396262261000,3.494260986328125,-0.8493056295394897,0.03213394475504756,1.3220061436414718
1789757396272275000,3.50427490234375,-1.0687609389562158,-0.6777260969541966,1.5703326696902513
1789757396282289200,3.5142890625,-1.0999684895813464,-1.1276456010580063,1.8921528864949941
1789757396292304100,3.52430419921875,-1.0751298164010048,-1.5080195675097405,2.466556117749214
1789757396302317800,3.53431787109375,-1.1059832198262214,-1.8547135288082062,3.98439872174561
1789757396312332000,3.54433203125,-1.4642606514126062,-2.219030386689305,5.9648091528862714
1789757396322346000,3.554345947265625,-1.8620254592567682,-2.067572874026,7.283700963899493
1789757396332360000,3.56435986328125,-2.1822645443499087,-2.269844628125429,8.988279606950282
1789757396342375200,3.574375244140625,-3.563815932893753,-2.6716780005827543,9.991036261057854
1789757396352388400,3.584388427734375,-4.586927977287769,-1.5333689666911958,9.321068377014994
1789757396362402600,3.594402587890625,-4.4753906793415545,-0.09191051419526337,7.625786554619669
1789757396372416500,3.60441650390625,-3.7508652756810186,0.3079512659281492,6.04381254697442
1789757396382431500,3.614431396484375,-3.131971745315194,-0.08084259221404791,4.660391272905469
1789757396392445400,3.624445556640625,-2.095367766663432,-0.7103484097480773,3.4582033488214012
1789757396402459400,3.63445947265625,-0.8402081308484077,-1.1281637797132134,2.5368138953238724
1789757396412473300,3.644473388671875,0.23421024934761225,-1.2739654585719107,1.7289765867263078
1789757396422487600,3.654487548828125,0.887580707398057,-1.279164780780673,1.18140641734004
1789757396432502500,3.66450244140625,1.1238462087750434,-1.3141872865840791,0.7599585360914468
1789757396442516500,3.6745166015625,1.0870416418604552,-1.2169310274466871,0.3099555914878845
1789757396452530400,3.684530517578125,0.8516178520046174,-1.031924588663876,-0.19648294156491755
1789757396462544400,3.69454443359375,0.5678969181001186,-0.7373857620164752,-0.6989484793335199
1789757396472558600,3.70455859375,0.3874450738817453,-0.44122824812605976,-1.2344172920376062
1789757396482573600,3.714573486328125,0.2018928377844393,-0.22847499363124368,-1.720757039913535
1789757396492587500,3.72458740234375,0.03176218883320689,0.00018383213430643082,-2.2224410719156262
1789757396502601500,3.7346015625,-0.07212050270661712,0.2402269523538649,-2.670955823788047
1789757396512615400,3.744615478515625,-0.04212181641459465,0.4969666480913758,-2.941295444202423
1789757396522630400,3.75463037109375,0.04525938378795981,0.7320118138931692,-3.1794553810238835
1789757396532644600,3.76464453125,0.11485255997404456,0.8076334565885365,-3.322109701767564
1789757396542658600,3.774658447265625,0.1838233664780855,0.7503449045717716,-3.0054747786462306
1789757396552672500,3.784672607421875,0.2387830371558666,0.6847577491566539,-2.241044650098681
1789757396562686500,3.7946865234375,0.2787095354832709,0.7831548488922416,-1.4260779280126095
1789757396572701400,3.804701416015625,0.17231690694913268,0.8036639684356749,-0.607928484237194
1789757396582715400,3.81471533203125,-0.14829787958860396,0.7407181213095784,-0.007080898171663284
1789757396592729600,3.8247294921875,-0.4614391153752804,0.6708322457872331,0.40431496013998985
1789757396602743300,3.834743408203125,-0.7375865452855825,0.72104866746068,0.5709551366269588
1789757396612757500,3.844757568359375,-1.059896006911993,0.7193819032922387,0.5128869785398245
1789757396622772500,3.8547724609375,-1.2712708126604557,0.7029274659670889,0.3904465937852859
1789757396632786400,3.864786376953125,-1.4096112157277763,0.6799769446209073,0.2941232315838337
1789757396642800600,3.874800537109375,-1.469481016409397,0.5699478592805564,0.2664151404470205
1789757396652814300,3.884814453125,-1.3791320524424313,0.34427257937043904,0.6026736324489116
1789757396662828500,3.89482861328125,-1.4070020561426877,0.16436740924939514,0.8148445570111275
1789757396672843500,3.904843505859375,-1.3206588206857441,0.08601619545966387,0.5847182890415191
1789757396682857500,3.914857421875,-1.131632478737086,0.03834945826902986,0.21299919207990167
1789757396692871700,3.92487158203125,-0.9293851284265517,-0.05870061077177524,-0.2052992852270603
1789757396702885400,3.934885498046875,-0.7228356239426881,-0.19770240035727618,-0.6229150409668683
1789757396712900400,3.944900390625,-0.503984783225134,-0.2405254969090223,-1.007310079628229
1789757396722914600,3.95491455078125,-0.2949930001556873,-0.2756194605134427,-1.3113041323632002
1789757396732928500,3.964928466796875,-0.13347213944382966,-0.3247143308110535,-1.573447586840391
1789757396742942500,3.9749423828125,-0.01102481349185109,-0.34799905254766345,-1.7259914334356783
1789757396752956400,3.984956298828125,0.05041252876743674,-0.44587578167095776,-1.7415888155400752
1789757396762971400,3.994971435546875,0.06031374505683779,-0.5891888585843146,-1.7504489983439444
1789757396772985300,4.0049853515625,0.023607085558772084,-0.8758097517140209,-1.6735457914054392
1789757396782999600,4.01499951171875,-0.028276246413588522,-1.2055220369428397,-1.5971657315582035
1789757396793013500,4.025013427734375,-0.12511398787796496,-1.5205381266906857,-1.6401859581172464
1789757396803027500,4.03502734375,-0.2697581672646105,-1.7659981573924421,-1.6408569892466067
1789757396813042400,4.04504248046875,-0.45860447647124525,-2.152562795177847,-1.4817875402748584
1789757396823056400,4.055056396484375,-0.669333677792549,-2.627338508118689,-1.1546546040147543
1789757396833070600,4.065070556640625,-0.8809364470779896,-3.0834266178548333,-0.7681728222072124
1789757396843084500,4.07508447265625,-1.134992895080894,-3.5183377917885776,-0.34468320599794383
1789757396853099500,4.085099609375,-1.464786282721907,-3.9994729567587375,0.16686989358961582
1789757396863113500,4.095113525390625,-1.7490477532438933,-4.404406925579905,0.6887474033147096
1789757396873127400,4.10512744140625,-1.9080401914566754,-4.67924327289164,1.1106441973745822
1789757396883141600,4.1151416015625,-1.9836387455374,-4.862198039841652,1.514351254749298
1789757396893155600,4.125155517578125,-1.8952035062372683,-4.973580439487099,1.9043717320770024
1789757396903170600,4.135170654296875,-1.7075865926951168,-5.138361836364865,2.1963193731874227
1789757396913184500,4.1451845703125,-1.4721012819103896,-5.348529604411125,2.34237268871963
1789757396923198500,4.155198486328125,-1.2285457696557045,-5.536340579220652,2.237134783178568
1789757396933212400,4.16521240234375,-0.9174567902237176,-5.662054286557436,1.9268062667250632
1789757396943226600,4.1752265625,-0.598577960633114,-5.875777701258659,1.6801450435400007
1789757396953241600,4.18524169921875,-0.29923597148768605,-6.192355925756693,1.5767401986449956
1789757396963255300,4.19525537109375,0.08221409976296126,-6.305899302828312,1.5091671301096676
1789757396973269500,4.20526953125,0.6421089131932706,-5.9436371855199335,1.674993652126193
1789757396983283500,4.215283447265625,1.1183557946652174,-5.191434670382738,2.1519494855850936
1789757396993298400,4.22529833984375,1.2304887204170227,-4.3513451974779365,2.6807828057974574
1789757397003312600,4.235312744140625,1.2060679073225706,-3.4361291719183322,3.16523220988214
1789757397013326300,4.245326416015625,1.282849606773257,-2.3409338880881667,3.4366175399571657
1789757397023340500,4.255340576171875,1.365648886013031,-1.2735849348217247,3.4681694470405575
1789757397033354500,4.2653544921875,1.416723824211955,-0.5273869207963348,3.423593223211169
1789757397043369500,4.275369384765625,1.5754817230165004,-0.050291094344854355,3.3017426210433243
1789757397053383700,4.2853837890625,1.8860569077074527,0.29546558610349893,2.9808319202989337
1789757397063397400,4.2953974609375,2.3443074561744925,0.7777791472032666,2.4660727181464432
1789757397073411600,4.30541162109375,2.6009400382757186,1.2516402295172213,1.6817986559659241
1789757397083426600,4.315426513671875,2.7399294067710636,1.7328119271054863,0.7399971135586499
1789757397093440500,4.3254404296875,2.690359027916193,2.2419924523428083,-0.14333587326705455
1789757397103454500,4.335454345703125,2.433461072877049,2.650671452911198,-0.8350970714449882
1789757397113468400,4.345468505859375,2.0077748234063386,3.006736761406064,-1.3894728291928766
1789757397123482400,4.355482421875,1.548864934247732,3.304167802363634,-1.8568688071459531
1789757397133497600,4.36549755859375,1.145294654995203,3.6184859729751944,-2.290280097910762
1789757397143511600,4.375511474609375,0.8373147474944591,3.934809638190269,-2.6298569206804037
1789757397153525500,4.385525390625,0.5711503669381142,4.172641950492561,-2.8543595035493374
1789757397163539500,4.39553955078125,0.42748073167204853,4.361299312998354,-2.856470796614885
1789757397173553400,4.405553466796875,0.3425590534508228,4.53162869939208,-2.711505860841274
1789757397183568400,4.415568359375,0.3365221113741398,4.67855353706181,-2.3358055852890014
1789757397193582600,4.42558251953125,0.40304187146425247,4.784408697718382,-1.84074243273139
1789757397203596500,4.435596435546875,0.4163455896735191,4.7877167993530625,-1.3691630316138266
1789757397213610500,4.445610595703125,0.5239186601638793,4.719753562456369,-0.9424111987382173
1789757397223625500,4.45562548828125,0.7768670007944106,4.672316980759799,-0.5519371324241161
1789757397233639400,4.465639404296875,0.9767664728045463,4.609940311823785,-0.2568301504999399
1789757397243653600,4.475653564453125,1.1015420225083827,4.51294211910069,-0.05111585473120212
1789757397253667600,4.48566748046875,1.189566342920065,4.417375712746382,0.010924129596352576
1789757397263681500,4.495681640625,1.1898130111575127,4.315173813900351,0.07950082221627235
1789757397273696500,4.505696533203125,1.138301508172229,4.232287148638069,0.22631927690207956
1789757397283710500,4.51571044921875,1.1053998669803142,4.1733030447497965,0.4523492154687643
1789757397293724400,4.525724365234375,1.02994978145957,4.0574239182069896,0.6446405505627394
1789757397303738600,4.535738525390625,0.8758359090685844,3.836905144277215,0.8720651583582162
1789757397313752300,4.54575244140625,0.7438368378520012,3.441808678859472,1.2607406508177519
1789757397323767300,4.555767333984375,0.6827332575917243,3.005152707085013,1.7461363958418368
1789757397333781500,4.565781494140625,0.6879039382278919,2.551239018778503,2.275579372385144
1789757397343795500,4.57579541015625,0.7334487148284912,2.1253730288267136,2.7444951072514057
1789757397353810000,4.585809814453125,0.776034641623497,1.7482687316954135,3.086198420655727
1789757397363825000,4.595824951171875,0.7417477566182613,1.4525187756925821,3.3642467157512903
1789757397373838800,4.6058388671875,0.6976835739642381,1.1941510403618216,3.5722067446202037
1789757397383852800,4.615852783203125,0.6562059006720781,0.985763725991547,3.745214118051529
1789757397393866800,4.62586669921875,0.5850760164380073,0.8423924891501665,3.8819513237059113
1789757397403881000,4.635880859375,0.49681441667173054,0.6488900247007608,3.974734236821532
1789757397413896000,4.64589599609375,0.32194998066425323,0.3711129477620125,4.055104827609658
1789757397423910000,4.655909912109375,0.09836568168401717,0.07128156766444445,4.023697297433018
1789757397433923800,4.665923828125,-0.033304888230562206,-0.12331862889379262,3.8446693485379217
1789757397443937800,4.675937744140625,0.0010567790439352392,-0.24318624055087565,3.4926141524672505
1789757397453952800,4.685952880859375,0.14158990638256072,-0.32928806846737857,3.011442162618041
1789757397463966700,4.695966796875,0.34439269861876964,-0.5444450231030583,2.6268209139853713
1789757397473981000,4.70598095703125,0.5690764102082699,-0.9828946002960205,2.3922587093949317
1789757397483994600,4.71599462890625,0.7668845359623432,-1.517548004963994,2.297595973882079
1789757397494008800,4.7260087890625,0.8948970948260278,-1.9425711143508553,2.278744558417797
1789757397504023800,4.73602392578125,1.0530102659862488,-2.323881923261285,2.342397238638997
1789757397514037800,4.746037841796875,1.3084616024136542,-2.4976275478392838,2.4321651878476143
1789757397524052000,4.756052001953125,1.5855857684016226,-2.2458789383873343,2.39123638060987
1789757397534065700,4.766065673828125,1.7459236298739909,-1.469658418802917,2.4210820682972667
1789757397544080600,4.77608056640625,1.681478337970376,-0.5409036972343921,2.6941461452394724
1789757397554094800,4.7860947265625,1.5492758531361817,-0.0222340436398983,3.203330177608132
1789757397564108800,4.79610888671875,1.3045751163691282,0.11580635356754064,3.788979610019922
1789757397574123000,4.806123046875,1.0279839612793176,0.16154694500118494,4.107054210555553
1789757397584136700,4.81613671875,0.8877735265564173,0.010554419501125812,4.063712496957183
1789757397594151700,4.826151611328125,0.8603769855868071,-0.31488223423510786,3.5645676280438896
1789757397604166000,4.836165771484375,0.9046802376937121,-0.6443526735320687,2.5852187375307083
1789757397614179800,4.846179931640625,1.001987423300743,-0.8231865611597895,1.2718676095098256
1789757397624193800,4.85619384765625,1.0612127885989844,-0.8143485901877283,-0.07324059277772903
1789757397634207700,4.866207763671875,1.0473724792949854,-0.7413019125469028,-1.1421680474072695
1789757397644222700,4.87622265625,0.9683844289064407,-0.6540206655874848,-1.8765069890737534
1789757397654236700,4.886236572265625,0.8463267598591745,-0.5787297161512076,-2.2913380825310945
1789757397664251000,4.8962509765625,0.6538286501467228,-0.4596041550330817,-2.428819384551048
1789757397674264800,4.906264892578125,0.5160981956712901,-0.37151933660581704,-2.4364853891342877
1789757397684279800,4.91627978515625,0.4544001566492021,-0.316631415989995,-2.465620298203826
1789757397694293800,4.926293701171875,0.40698213352262974,-0.2708782573357224,-2.490407533457875
1789757397704307700,4.9363076171875,0.10944529410302638,-0.30327655211538074,-2.612887081179023
1789757397714322000,4.946322021484375,0.5034545488059521,-0.2194951299704611,-2.747349912160635
1789757397724335900,4.9563359375,0.6486169068478047,-0.18789310013502836,-2.9690462054371833
1789757397734350800,4.966350830078125,0.6601582915596663,-0.2318950312077999,-3.2795079928815363
1789757397744364800,4.97636474609375,0.4522556919664144,-0.3561184999868274,-3.4620974336504933
1789757397754378800,4.986378662109375,0.43352278831526636,-0.48671764127761125,-3.563489185157418
1789757397764393000,4.99639306640625,0.4465246009685099,-0.552479130346328,-3.5074481489837166
1789757397774408000,5.006407958984375,0.27743688519895077,-0.7012788219772279,-3.3869659125596283
1789757397784422000,5.016421875,0.058032502251863474,-0.8340317803010344,-3.378258874490857
1789757397794435800,5.026435791015625,-0.13395663502514363,-0.9143867351286112,-3.424945806863904
1789757397804449800,5.03644970703125,-0.33304654421806335,-1.0437096459385007,-3.512278053358197
1789757397814463700,5.046463623046875,-0.5028389011256397,-1.1637812557350844,-3.676303663432598
1789757397824479000,5.05647900390625,-0.7030079838573933,-1.3457166895747183,-3.80714830391705
1789757397834493000,5.066492919921875,-0.8548765615396201,-1.5695366970069706,-3.860584126028418
1789757397844506600,5.076506591796875,-0.9536030393600463,-1.765168428570032,-3.872716462370753
1789757397854520800,5.086520751953125,-0.9879137436322867,-2.030069949583709,-3.701671913444996
1789757397864534800,5.09653466796875,-1.0004214891582728,-2.335782935065776,-3.2981559947282073
1789757397874549800,5.1065498046875,-1.0109842380963265,-2.695574716737866,-2.7876234703600407
1789757397884564000,5.11656396484375,-1.0814053164739161,-3.0846035526797175,-2.347716387835145
1789757397894577700,5.12657763671875,-1.2030074968386442,-3.4881440213158723,-1.9108295299142597
1789757397904592000,5.136591796875,-1.349012808510661,-3.914763167722523,-1.5351725089818238
1789757397914606800,5.14660693359375,-1.4589876794457435,-4.363215960274636,-1.2138327691704034
1789757397924620800,5.156620849609375,-1.5242460412979124,-4.796970657649636,-0.9595850363790989
1789757397934635000,5.166635009765625,-1.5757272222101688,-5.1842339452236885,-0.7018570602566003
1789757397944648700,5.176648681640625,-1.6183230858772992,-5.610757230040431,-0.42133682208955286
1789757397954663000,5.186662841796875,-1.6361515880346298,-6.102686176225543,-0.12085048521459102
1789757397964678000,5.196677978515625,-1.6187287440687417,-6.5190674217343325,0.25912381439507004
1789757397974691800,5.20669189453125,-1.6464058555454015,-6.838396406245232,0.7110486669719219
1789757397984706000,5.2167060546875,-1.6340858876764774,-6.926809433713555,1.1573919200241565
1789757397994719700,5.2267197265625,-1.5696557933419941,-6.885170432379842,1.58904087729156
1789757398004734700,5.236734619140625,-1.4152742099255322,-6.892042656236886,1.878990038061142
1789757398014749000,5.2467490234375,-1.1937778231352567,-6.896345906388759,1.9621254173874854
1789757398024763000,5.256762939453125,-0.973587258246541,-6.826485603699088,1.8253952259957789
1789757398034776800,5.26677685546875,-0.7232739422947168,-6.760817492002248,1.6296873604565858
1789757398044790800,5.276790771484375,-0.4738765721440315,-6.637488049453497,1.465609143412113
1789757398054805800,5.2868056640625,-0.22365444160699843,-6.269146319970488,1.3134107492536307
1789757398064819700,5.29681982421875,-0.07996259450912475,-5.616479114818572,1.1242951215863226
1789757398074834000,5.306833984375,-0.004870227251714095,-4.806445757481455,0.9018243368059397
1789757398084847900,5.316847900390625,0.05653029012852348,-3.8884059066727756,0.7158756487369536
1789757398096115000,5.328114990234375,0.14338205049633979,-3.113499100035429,0.6882008753478527
1789757398106129000,5.33812890625,0.19443185425400733,-2.670034325028956,0.9704033675134182
1789757398116142800,5.348142822265625,0.21674890000224112,-2.4856571240603924,1.4413801265627144
1789757398126157800,5.35815771484375,0.2838040821433067,-2.19893510864377,1.696064497205615
1789757398136171800,5.368171875,0.4203986279239878,-1.7367355302900074,1.6271774234622716
1789757398146186000,5.37818603515625,0.623003303772211,-1.2356693379253147,1.1917261513024568
1789757398156200000,5.388199951171875,0.7694283752262592,-0.7485474997609853,0.47742286644876003
1789757398166214700,5.398214599609375,0.842878226840496,-0.34291794989109037,-0.3492711183100939
1789757398176228900,5.408228759765625,0.8461609017729759,0.0009416647642850875,-1.0916314538687466
1789757398186242800,5.418242919921875,0.8692799115538596,0.3105979810446501,-1.6254916623324154
1789757398196256800,5.4282568359375,0.8698059081893413,0.5931877189621328,-1.941767689013481
1789757398206271000,5.43827099609375,0.8242693879604339,0.8394488369137049,-2.0274264493376015
1789757398216285700,5.44828564453125,0.7244084992825984,1.107809850731492,-2.017726308578253
1789757398226299600,5.458299560546875,0.5489185883205384,1.3987947842895985,-1.9164590602338314
1789757398236313900,5.46831396484375,0.3744084821760654,1.6969748900488018,-1.8036206165611743
1789757398246327800,5.478327880859375,0.2623381002664566,1.920478817269206,-1.6431056449562311
1789757398256342800,5.4883427734375,0.17527714499421418,2.060073750442266,-1.4753256507843733
1789757398266356700,5.498356689453125,0.20005495483279226,2.1461384612187744,-1.4158295057207344
1789757398276370700,5.50837060546875,0.3881307180583477,2.2263328186571596,-1.499302738699317
1789757398286385000,5.518385009765625,0.7218973932445049,2.2194307841837406,-1.6259464203625917
1789757398296398800,5.52839892578125,1.1425263593256474,2.163880746397376,-1.634838167348504
1789757398306413800,5.538413818359375,1.5513631808042525,2.1520278115183116,-1.569241951844096
1789757398316427800,5.548427734375,1.9230444299735128,2.230637237852812,-1.5097048902481793
1789757398326441700,5.558441650390625,2.261301402316242,2.3682494727760552,-1.3503840968638658
1789757398336456000,5.5684560546875,2.429147885853052,2.5495292922511696,-1.1091197642862796
1789757398346471000,5.578470947265625,2.3904887771129606,2.664423791670799,-0.7467512639939785
1789757398356485000,5.588485107421875,2.301123417355865,2.643532687072456,-0.5077046074658632
1789757398366499000,5.5984990234375,2.3108698814749715,2.636889011274278,-0.40491117246747016
1789757398376513300,5.60851318359375,2.4402784978069363,2.7618916477322575,-0.34685938099324704
1789757398386527200,5.61852734375,2.636463771599531,2.847267791722715,-0.2667068168699741
1789757398396542200,5.628542236328125,2.8865935476779936,2.8588164829581975,-0.03986088574528694
1789757398406556200,5.63855615234375,3.0849218248486516,2.793935722246766,0.3364461235284805
1789757398416570000,5.648570068359375,3.275497003674507,2.7100504013359545,0.780538382783532
1789757398426584300,5.658584228515625,3.301349237811565,2.6080866951599715,1.2592962972283364
1789757398436599300,5.668599365234375,3.1459634457886216,2.3678648573726413,1.780983837339282
1789757398450368300,5.6823681640625,2.7395862924218175,1.972950762784481,2.510499888893962
1789757398460382200,5.69238232421875,2.4825159034252167,1.7951672609925269,2.97729556286633
1789757398470397200,5.702397216796875,2.2722132569529117,1.729118041023612,3.447251162174344
1789757398480411400,5.712411376953125,2.041940712380409,1.7553192347288131,3.888748144239187
1789757398490425000,5.722425048828125,1.8315432272315024,1.8477625406265257,4.4123166757911445
1789757398500439000,5.73243896484375,1.6251998397789895,1.882447485038638,5.003929400521517
1789757398510453200,5.742453369140625,1.4306559034526347,1.8347656964093446,5.589778154897689
1789757398520468200,5.75246826171875,1.2392355059742928,1.737786500647664,6.0649716548591845
1789757398530482200,5.762482177734375,1.041540850532055,1.4826906265944242,6.387351259112358
1789757398540496100,5.77249609375,0.9694190326511859,1.1681319252252578,6.501756221449375
1789757398550510000,5.782510009765625,1.0421816326536237,0.84833532320261,6.425462670841813
1789757398560525000,5.792525146484375,1.249495180312544,0.5424287148445844,6.332061918088794
1789757398570539300,5.802539306640625,1.6161458879686892,0.1784200461298227,6.360740315562486
1789757398580553200,5.81255322265625,2.0328898293100295,-0.1938631144553423,6.5206362784862515
1789757398590567200,5.822567138671875,2.4316402871906755,-0.3878384571135044,6.738660020729899
1789757398600582100,5.83258203125,2.692421221143007,-0.3096124771386385,6.864511090710759
1789757398610596000,5.84259619140625,2.754719564145803,0.05299976878166198,6.823302882009744
1789757398620610300,5.8526103515625,2.5911680013239384,0.5559586430251598,6.685341687518358
1789757398630624300,5.862624267578125,2.3081565308630467,1.025077791509032,6.4209437321126455
1789757398640638200,5.87263818359375,2.0801357107400893,1.3837941990345715,6.036525312575698
1789757398650653200,5.882653076171875,1.8956196858227252,1.521087869527936,5.508764590030908
1789757398660667100,5.892667236328125,1.7046704129874706,1.533262291446328,4.813499767646193
1789757398670681300,5.902681396484375,1.5090180770277977,1.5262158800661563,3.9616561440616844
1789757398680695300,5.9126953125,1.2970236780762672,1.448018541663885,3.168238405960798
1789757398690710300,5.922710205078125,1.011488315160945,1.1951631400138139,2.5590853483647105
1789757398700724200,5.93272412109375,0.6615945349078625,0.8891618391096592,2.133718247845769
1789757398710738200,5.94273828125,0.34194172527007755,0.6699339817732572,1.7831547516375779
1789757398720752000,5.952752197265625,0.1336299238214269,0.5986392623662948,1.399009888345003
1789757398730766300,5.962766357421875,0.07389646287057548,0.6360653221800923,0.9793214179843663
1789757398740781300,5.97278125,0.10709964429233222,0.6969634429961442,0.5307353544414043
1789757398750795000,5.982794921875,0.18181315916683524,0.6839630916476249,0.09111059598922729
1789757398760809200,5.992809326171875,0.36015195675399153,0.6370929116621613,-0.3171095548957586
1789757398770823200,6.0028232421875,0.6382476346552372,0.5793009401679039,-0.7411638192504644
1789757398780838100,6.012838134765625,0.8917407496869564,0.48896191307306286,-1.1875824756264686
1789757398790852400,6.022852294921875,1.061769984090328,0.3773705468520522,-1.6612649865031242
1789757398800866000,6.032865966796875,1.182076279425621,0.2842649776533246,-2.139959772583842
1789757398810880300,6.04288037109375,1.2498024926960467,0.2290542548239231,-2.592280346480012
1789757398820894200,6.052894287109375,1.2395377037912607,0.17100100204497576,-3.022749738574028
1789757398830909200,6.0629091796875,1.1523054105401038,0.06130757839977741,-3.3725019183993337
1789757398840923400,6.07292333984375,1.0200783757865428,-0.07486702493578196,-3.6514217356324195
1789757398850937000,6.08293701171875,0.8561065417259931,-0.3356520505413413,-3.8148482107698913
1789757398860951300,6.092951416015625,0.6758475897312164,-0.655987874007225,-3.875355578702688
1789757398870966300,6.10296630859375,0.4584779274821281,-0.9490417227938771,-3.905941855624318
1789757398880980200,6.112980224609375,0.2141016003638506,-1.1904352347090839,-3.9238691419810054
1789757398890994400,6.122994384765625,-0.004923391344211995,-1.4571031808733939,-3.868751650393009
1789757398901008100,6.133008056640625,-0.1977770547623746,-1.7036895852565765,-3.826464998805523
1789757398911022000,6.14302197265625,-0.288156432133913,-1.9556268491484223,-3.9037902305483816
1789757398921037300,6.153037353515625,-0.2889619215642102,-2.2728679214693606,-3.905579452052712
1789757398931051300,6.16305126953125,-0.22302315796613692,-2.6394436641931533,-3.8686780006349086
1789757398941065200,6.173065185546875,-0.17022680280208585,-3.0457582737177606,-3.672930972129106
1789757398951079200,6.1830791015625,-0.07642741525345481,-3.4459868413269517,-3.3122570007950065
1789757398961094100,6.19309423828125,0.004413715655868873,-3.8292572598725556,-2.8951445184022186
1789757398971108000,6.203108154296875,0.053291440638038326,-4.251490154018998,-2.447794134134054
1789757398981122300,6.213122314453125,0.044945637097093274,-4.64160941554606,-2.0825293278783557
1789757398991136300,6.22313623046875,-0.03464578144550323,-5.031131880223751,-1.7493652947604654
1789757399001151000,6.23315087890625,-0.18459668893814085,-5.546566205158829,-1.4513503164350985
1789757399011165200,6.243165283203125,-0.3827449333667755,-5.976232464176416,-1.2788041307747364
1789757399021179100,6.25317919921875,-0.5312719455361365,-6.318876273301243,-1.1542191352069378
1789757399031193300,6.263193359375,-0.6282604936480521,-6.631372196921705,-1.0340922880917787
1789757399041207000,6.27320703125,-0.6808896755516529,-6.787005826225877,-0.9042816668301821
1789757399051222000,6.283221923828125,-0.6903717896461486,-6.796383310902118,-0.793330644339323
1789757399061236200,6.293236328125,-0.668694210845232,-6.745246997904777,-0.5176052392333745
1789757399071250200,6.303250244140625,-0.6829904472231865,-6.708115829384327,-0.008346972584724426
1789757399081264400,6.313264404296875,-0.6748913119196891,-6.622867987948656,0.5877139637261629
1789757399091279400,6.323279296875,-0.6867839942872523,-6.383932390579581,1.2067916184872387
1789757399101293000,6.33329296875,-0.7818985652208328,-6.0333309004485605,1.622081561627984
1789757399111307300,6.343307373046875,-0.8699088571071624,-5.6317842359781265,1.8082646429747342
1789757399121321200,6.3533212890625,-0.9745897132873534,-5.285692332226038,1.9586784918040037
1789757399131335200,6.363335205078125,-1.0768529869318009,-4.992859140452742,1.916245125222206
1789757399141350100,6.37335009765625,-1.0725543398898094,-4.4897079585075375,1.5968483361721038
1789757399151364000,6.383364013671875,-0.8724924438595771,-3.823791980203986,1.106929560765624
1789757399161378000,6.3933779296875,-0.5535235248327255,-3.197993200494349,0.6010217735886574
1789757399171392300,6.403392333984375,-0.2417992431718856,-2.5784543579623103,0.30918285354971886
1789757399181407200,6.4134072265625,0.014692469153925776,-2.1548121815398336,0.3795487676739692
1789757399191421200,6.423421142578125,0.3288824102759361,-1.9010352811306714,0.580119270813465
1789757399201435100,6.43343505859375,0.675557739939168,-1.7389657735601067,0.7923983319252729
1789757399211449000,6.443448974609375,0.8723439752995967,-1.5253627703681587,1.0011796140491962
1789757399221464000,6.453464111328125,1.0272457831978796,-1.2275757555797695,0.945394013941288
1789757399231478300,6.463478271484375,1.1574655697822571,-0.8239873561486601,0.5505313572794198
1789757399241492200,6.4734921875,1.19699795422554,-0.4280070936337113,-0.10129998157024384
1789757399251506200,6.483506103515625,1.1432640259504319,-0.1757289073497057,-0.783481450498104
1789757399261520100,6.49352001953125,1.0295569827497004,0.10489771380126475,-1.4037030145972966
1789757399271535000,6.50353515625,0.9473066426295786,0.5598080119296908,-2.0045897636294363
1789757399281549300,6.51354931640625,0.8714064752537757,1.0297831927210093,-2.429862171602249
1789757399291563300,6.523563232421875,0.8031845874208956,1.3712234712749718,-2.5947943751275537
1789757399301577200,6.5335771484375,0.7418483674485236,1.62942754047662,-2.539934657692909
1789757399311592200,6.54359228515625,0.7508744814038276,1.8827397459834814,-2.3783611169457433
1789757399321606100,6.553606201171875,0.8036625801961869,2.1397879231482744,-2.290175468492508
1789757399331620000,6.5636201171875,0.8987223522026091,2.3630603797003626,-2.3379420127958057
1789757399341634300,6.57363427734375,1.017593134842068,2.489455055038631,-2.351203645429015
1789757399351648000,6.58364794921875,1.175619650632143,2.5807147041097283,-2.3627251563966274
1789757399361663200,6.593663330078125,1.3758581453382968,2.7486399519711733,-2.4776743086129427
1789757399371677400,6.603677490234375,1.6239830113351343,2.867207586945593,-2.6025550722569224
1789757399381691100,6.613691162109375,1.868001026535034,2.8849057407215235,-2.7310879286676646
1789757399391705300,6.623705322265625,2.0557038647949692,2.97626972694993,-2.8730262100964783
1789757399401720300,6.63372021484375,2.137105698326975,3.101298374632001,-2.9038386969894168
1789757399411734300,6.643734375,2.1486066048979757,3.155013890467584,-2.719969737803936
1789757399421748500,6.65374853515625,2.0990110916018483,3.1921044347167014,-2.3493396051228044
1789757399431762200,6.66376220703125,2.0027775996409356,3.213740804724395,-1.8955916287720203
1789757399441776400,6.6737763671875,1.935273650819063,3.1541604885086416,-1.317736795759201
1789757399451791400,6.683791259765625,1.9368132814764976,3.070063278412819,-0.6052554656356572
1789757399461805300,6.693805419921875,2.0198409626446665,2.934314791534841,0.0637871202558279
1789757399471819500,6.703819580078125,2.145709714412689,2.71838656026572,0.6930985842615366
1789757399481833200,6.713833251953125,2.1022937665343284,2.465467153468728,1.289015728187561
1789757399491848200,6.72384814453125,2.004699507614225,2.1376894895642993,1.971065095168352
1789757399501862400,6.7338623046875,2.0095804115235802,1.8125260998114943,2.7158541191786525
1789757399511876400,6.74387646484375,2.10665429983139,1.582431688284874,3.5167414625078437
1789757399521890300,6.753890380859375,2.086495162769407,1.4614444249480962,4.2952036235392095
1789757399531905500,6.763905517578125,1.9096587325692176,1.3191133448094128,4.9280590437620875
1789757399541919200,6.773919189453125,1.7076294089235364,1.1089677885949611,5.484913758844137
1789757399551933200,6.78393310546875,1.4624550632953643,0.8600462192624807,6.015101416274905
1789757399561947400,6.793947509765625,1.1452594375513494,0.5657429549366235,6.5257134356200694
1789757399571961300,6.80396142578125,0.9097614134155213,0.21416005255281925,7.011724682193994
1789757399581976300,6.813976318359375,0.6864426335036754,-0.04688391624987125,7.361458741840719
1789757399591990300,6.823990234375,0.5211363359689712,-0.03734744161963462,7.483166720667481
1789757399602004200,6.834004150390625,0.4701775714956224,0.11669628814458846,7.432614345037937
1789757399612018400,6.844018310546875,0.5942741259593516,0.21108020671606062,7.309242232391238
1789757399622033400,6.854033447265625,0.9071851331867277,0.12237550282478332,7.192929390606284
1789757399632047400,6.86404736328125,1.3847533994555472,-0.09966624288856983,7.136390926304459
1789757399642061300,6.874061279296875,1.9009587087631223,-0.27484453061819075,7.01566786686182
1789757399652075300,6.8840751953125,2.4357681807756424,-0.14126315864622593,6.796611858960985
1789757399662089500,6.89408935546875,2.9478923582494256,0.3552595450699329,6.484049884366989
1789757399672104400,6.9041044921875,3.31827465364933,0.9464689496964216,6.207836988005042
1789757399682118400,6.914118408203125,3.390709775263071,1.40112293497622,5.981529986062646
1789757399692132400,6.92413232421875,3.186825033009052,1.718315491980314,5.711816388592124
1789757399702146300,6.934146240234375,2.7205145122051237,1.814984891140461,5.311382069277763
1789757399712161300,6.944161376953125,2.103649857318401,1.638898256394267,4.757776711380481
1789757399722175200,6.95417529296875,1.5692998195111751,1.3416221137374638,4.06043508272171
1789757399732189400,6.964189453125,1.2125789697170257,1.0461153188407422,3.1664240500152108
1789757399742203100,6.974203125,0.9330430664122105,0.762045279237628,2.1777514508396387
1789757399752217300,6.98421728515625,0.6102549178907647,0.5661445214748382,1.1904361114919184
1789757399762232300,6.994232421875,0.3906593232205137,0.39038755707442757,0.3399678679138422
1789757399772246300,7.004246337890625,0.05765139397978782,0.2600947052538395,-0.4159276565223932
1789757399782260500,7.014260498046875,-0.23672552010416983,0.22617256190776824,-0.9860767374634742
1789757399792274200,7.024274169921875,-0.5016168119847774,0.257337223239243,-1.4500018244355917
1789757399802289200,7.0342890625,-0.7374047589778899,0.38363983637988563,-1.8282611368209123
1789757399812303400,7.044303466796875,-0.9162836547911166,0.57481356562078,-2.0794541582167145
1789757399822317300,7.0543173828125,-0.9848784675896167,0.7684720974147319,-2.237192066323757
1789757399832331500,7.06433154296875,-0.9491092350721358,0.9401777405977249,-2.3002543794363737
1789757399842346500,7.074346435546875,-0.8327963932871818,1.0827151569634674,-2.31738145532608
1789757399852360200,7.084360107421875,-0.6024386546492576,1.1987392449349163,-2.3666730172395707
1789757399862374400,7.09437451171875,-0.27694179515838624,1.2375655269354582,-2.4446897383779285
1789757399872388400,7.104388427734375,0.050681518434546886,1.1794456386610865,-2.594706112322211
1789757399882402300,7.11440234375,0.3657400590846315,1.0386299315214156,-2.7754946411490438
1789757399892417500,7.12441748046875,0.6800888805627823,0.8620011527225374,-2.951619854339957
1789757399902431200,7.13443115234375,0.9986065486907958,0.6142240772500633,-3.111298375120759
1789757399912445200,7.144445068359375,1.2701041069686412,0.25491993296444415,-3.14710443251729
1789757399922459400,7.15445947265625,1.394078861683607,-0.24053134212791918,-3.0802222688555716
1789757399932474400,7.164474365234375,1.4038567438542842,-0.7647285269722343,-2.9851532906293867
1789757399942488300,7.17448828125,1.3609002301812172,-1.2167121239989995,-2.997892360693216
1789757399952502300,7.184502197265625,1.1825509112000465,-1.691390660175681,-3.126712801873684
1789757399962516200,7.19451611328125,0.8791934028029441,-2.220237716652453,-3.2026971404016016
1789757399972530400,7.204530517578125,0.5594622672319411,-2.7024282358944416,-3.2426176473796366
1789757399982545400,7.21454541015625,0.26585575299859043,-3.2462142105668783,-3.125738988405466
1789757399992559400,7.224559326171875,-0.015396311140921897,-3.9639644210040568,-2.845557772934437
1789757400002573300,7.2345732421875,-0.3599053250491619,-4.737715920126438,-2.633078805336356
1789757400012587300,7.244587158203125,-0.6153916597247123,-5.394743074053526,-2.5274679748296736
1789757400022602200,7.254602294921875,-0.7569044092178344,-5.904710950276256,-2.416025369429588
1789757400032616400,7.264616455078125,-0.7899556149482727,-6.225305424678325,-2.2526830654442307
1789757400042630400,7.27463037109375,-0.73419690284729,-6.507310932967067,-2.023410199433565
1789757400052644400,7.284644287109375,-0.6969055753290653,-6.929547918766737,-1.6228168901652096
1789757400062658300,7.294658203125,-0.7272586280167103,-7.457761645776033,-1.0285106885671615
1789757400072673300,7.30467333984375,-0.7812532530546188,-7.912428490537405,-0.5689291837573051
1789757400082687500,7.3146875,-0.8177168975770474,-8.13981919606328,-0.2588116797059774
1789757400092701400,7.324701416015625,-0.8446692019104957,-8.22281136752665,0.051715574190020555
1789757400102715100,7.334715087890625,-0.9222235662341117,-8.182939375865459,0.24340368269383905
1789757400112730400,7.34473046875,-0.9164134186506271,-8.006364665341376,0.281269010707736
1789757400122744300,7.354744384765625,-0.851957020831108,-7.75991620812416,0.24576281304061412
1789757400132758300,7.36475830078125,-0.7008499290406703,-7.552133873909711,0.33825580329895016
1789757400142772500,7.3747724609375,-0.38381811555624007,-7.232677463626861,0.402373178422451
1789757400152786200,7.3847861328125,-0.052956514161825174,-6.634038201260567,0.286179579102993
1789757400162801200,7.39480126953125,0.22231354839205741,-5.852689671137929,0.12554594955444334
1789757400172815400,7.4048154296875,0.4865244567930698,-5.063089445498585,-0.06822305687665939
1789757400182829300,7.414829345703125,0.6771417211949825,-4.218431934025883,-0.1741810933858156
1789757400192843500,7.424843505859375,0.7581178766608238,-3.422295584616065,-0.09749065241515636
1789757400202858200,7.434858154296875,0.6551226354800165,-2.749411813126504,0.24185879133939742
1789757400212872200,7.4448720703125,0.4518471111655235,-2.129534532420337,0.4925543846070766
1789757400222886400,7.454886474609375,0.2959608953397721,-1.5147233029320835,0.45050329534113404
1789757400232900400,7.464900390625,0.23631401669383048,-0.919050781416893,0.15090543173849583
1789757400242914300,7.474914306640625,0.29162725004963574,-0.4631865435644984,-0.4450789322048425
1789757400252929300,7.48492919921875,0.4404746532797813,0.02871463783085346,-1.1269582033157348
1789757400262943200,7.494943115234375,0.7189524988990277,0.6549485940873623,-1.9188772272914647
1789757400272957400,7.50495751953125,1.0092810874402522,1.2528800004452467,-2.6524294024944304
1789757400282971400,7.514971435546875,1.2615947834290564,1.7492007518485186,-3.2470565066099164
1789757400292986400,7.524986328125,1.3907657916128635,2.1731018714681265,-3.665462535944581
1789757400303000300,7.535000244140625,1.5489257245242596,2.541337510228157,-3.844571733382344
1789757400313014300,7.54501416015625,1.679838754069805,2.804463253740966,-3.7265439043730497
1789757400323028200,7.5550283203125,1.6886334704220294,2.9644828430444,-3.4337831933140754
1789757400333042400,7.56504248046875,1.6125965249240397,3.1376071208536622,-3.20290464567244
1789757400343057400,7.575057373046875,1.4301695812404156,3.4097315788581963,-2.983858574643731
1789757400353071000,7.585071044921875,1.1969792495250702,3.742878368580341,-2.7794734816521403
1789757400363084500,7.59508447265625,0.9761667533457279,3.9850633231341837,-2.590439102527499
1789757400373098500,7.605098388671875,0.862616508141905,4.081218343031406,-2.3116642467230557
1789757400383113700,7.61511376953125,0.8671956526257097,4.075238684099912,-1.9769652591228484
1789757400393127700,7.625127685546875,1.013711909494549,4.094482898274064,-1.5944956355661153
1789757400403141400,7.635141357421875,1.2678022597670555,4.085019488880038,-1.0366641844063997
1789757400413155600,7.645155517578125,1.523548268292099,4.039344948419928,-0.47847442132830614
1789757400423169500,7.65516943359375,1.7623134775303304,4.035838986125588,0.033396658167243
1789757400433184500,7.6651845703125,1.916494277677685,3.891531052955985,0.6351292103737592
1789757400443198700,7.67519873046875,1.8850119286991656,3.6770372384041545,1.2639672116488219
1789757400453212400,7.68521240234375,1.7778969772398472,3.5390064858078953,1.877130089408159
1789757400463226600,7.6952265625,1.6197208238460123,3.396114849177003,2.401312953466177
1789757400473240600,7.705240478515625,1.3983223444722592,3.0893624376446005,2.8233775053083896
1789757400483255600,7.715255615234375,1.1236487865068017,2.6516344527244566,3.181478411284089
1789757400493269800,7.725269775390625,0.8351460251532494,2.2546330304682254,3.461031265723705
1789757400503283500,7.735283447265625,0.5721946152940393,1.8768594557732343,3.6361662988334893
1789757400513297700,7.745297607421875,0.5281671113885938,1.5401614033102988,3.971040058478713
1789757400523312600,7.755312744140625,0.6982431075431406,1.120900218451023,4.656240582966804
1789757400533326600,7.76532666015625,0.7635574373662471,0.575225653553009,5.451503656673431
1789757400543340800,7.7753408203125,0.7643478570915758,0.04036825074553489,6.257940450823306
1789757400553354500,7.7853544921875,0.7301276075817644,-0.4055722667247057,7.033575279474258
1789757400563368400,7.795368408203125,0.7394858030356466,-0.802927909246087,7.683304677608609
1789757400573383700,7.8053837890625,0.6046987085357308,-1.2996855907618998,8.095388518184423
1789757400583397600,7.815397705078125,0.5027228735305369,-1.5020359630554914,7.803093086549639
1789757400593411600,7.82541162109375,0.6806397924438119,-1.5245032309293747,7.660845593041181
1789757400603425500,7.835425537109375,0.868392461194843,-1.4020727830469608,7.320355747079849
1789757400613440500,7.8454404296875,1.2742061354599892,-1.1609966665178537,6.991116193929314
1789757400623454500,7.855454345703125,1.7544389447629452,-1.0306401018112896,6.788899677148461
1789757400633468700,7.86546875,2.137117534895241,-0.7678758850872516,6.553245001146197
1789757400643482600,7.875482666015625,2.4119667416885493,-0.2691431041061878,6.321436479178071
1789757400653496600,7.88549658203125,2.6377123103559015,0.3396481344401836,6.085730365249514
1789757400663511600,7.895511474609375,2.842354592978954,0.9246703748643398,5.935130053937435
1789757400673525500,7.905525390625,2.9339819063186643,1.300681616061926,5.909520980906486
1789757400683539700,7.915539794921875,2.9089643694400786,1.4513433021724222,5.824067387765646
1789757400693553700,7.9255537109375,2.7052888860225677,1.4962316606909036,5.407713030263781
1789757400703568400,7.935568359375,2.193017409032583,1.2991320485323667,4.882565120565891
1789757400713582600,7.94558251953125,1.6992378665447234,0.9644102645784616,4.235634997761249
1789757400723596500,7.955596435546875,1.2901695743978023,0.7563193028062581,3.3530706572204827
1789757400733610800,7.96561083984375,0.866076658533141,0.688720515307784,2.3712790497303007
1789757400743624700,7.975624755859375,0.5315584343273192,0.675229165571928,1.4320657702505588
1789757400753639400,7.985639404296875,0.2711877616763115,0.7369277891159057,0.6000403613358736
1789757400763653600,7.995653564453125,0.10999887286517769,0.8247212233811616,-0.054251814669370645
1789757400773667600,8.00566748046875,-0.09991349564790725,0.9272089534312487,-0.6020084465384483
1789757400783681500,8.015681640625,-0.18292729442119599,1.10745913759768,-1.0609890628457068
1789757400793696800,8.02569677734375,-0.23070841523911803,1.3347352768331766,-1.4796452675491572
1789757400803710500,8.03571044921875,-0.24678631086945532,1.5501830311089753,-1.8179507552087306
1789757400813724400,8.045724365234374,-0.23023966521620748,1.6568296344041824,-1.9423522109031677
1789757400823738600,8.055738525390625,-0.1829109095419757,1.65261932323277,-2.0128554876714944
1789757400833752600,8.065752685546874,-0.11493103203773498,1.6016601203680036,-2.08668060233891
1789757400843767600,8.075767578125,-0.02388822232140228,1.4981988691106438,-2.100242679223418
1789757400853781500,8.085781494140624,0.13281857090592383,1.3613339454233646,-2.223713576069474
1789757400863795500,8.09579541015625,0.3957026146173477,1.2555357756510377,-2.4659657506406307
1789757400873809700,8.1058095703125,0.6576455780863761,1.0996961023807525,-2.6857033110648394
1789757400883823600,8.11582373046875,0.8730079921662807,0.7629314144223928,-2.8424492855250834
1789757400893838600,8.125838623046874,1.0505249519765376,0.3667717036873102,-3.0266333020091056
1789757400903852500,8.1358525390625,1.1790654071718454,-0.032518998549878594,-3.1553520363807674
1789757400913866500,8.145866455078124,1.2356699224472045,-0.47560441884994503,-3.2763743710309265
1789757400923880700,8.155880615234375,1.2195780348241327,-0.9857982127830386,-3.362844447737932
1789757400933895700,8.165895751953125,1.094027409094572,-1.459326117619872,-3.43992944098413
1789757400943909600,8.17590966796875,0.8490554541707038,-1.9323133397087453,-3.523302136197686
1789757400953923600,8.185923583984374,0.48853112044036384,-2.408166472622752,-3.6031723762482404
1789757400963937500,8.1959375,0.15373744029402733,-2.8117177549138663,-3.6436382421493527
1789757400973951500,8.205951416015624,-0.13851356767714024,-3.205714150135219,-3.6545991966247557
1789757400983966500,8.215966552734375,-0.4766740939080715,-3.6345562332883476,-3.539378826251626
1789757400993980700,8.225980712890625,-0.7803635376732796,-4.156656445853412,-3.3009389034450054
1789757401003994400,8.235994384765625,-1.058163484030962,-4.657837204508483,-2.996148731896281
1789757401014008600,8.246008544921875,-1.3122078032046556,-4.960781163668632,-2.7371190255254505
1789757401024023600,8.2560234375,-1.4788684379577637,-5.10183506347835,-2.4668372727781533
1789757401034037500,8.26603759765625,-1.5258809490233658,-5.307830514276027,-2.100056216740608
1789757401044051700,8.2760517578125,-1.4347510638117789,-5.581842101201414,-1.612293742585182
1789757401054065400,8.2860654296875,-1.311690501332283,-5.926439382481575,-1.0720634145677088
1789757401064079600,8.29607958984375,-1.2603583735018968,-6.259076761376857,-0.6001075813531875
1789757401074094600,8.306094482421875,-1.2121452544748783,-6.450736812829971,-0.2225444345384836
1789757401084108500,8.316108642578126,-1.146724980059266,-6.568008270514011,0.1259673898369074
1789757401094122800,8.326122802734375,-1.0822761810243129,-6.6705158743083475,0.4657406119614839
1789757401104136400,8.336136474609376,-1.024162430229783,-6.6186734588682645,0.6618325083822012
1789757401114151400,8.3461513671875,-1.0128571923613547,-6.3384320376425975,0.6881564516842364
1789757401124165600,8.35616552734375,-0.9899778365552425,-6.062307404085994,0.7219388942986726
1789757401134179600,8.3661796875,-0.8501999480307102,-6.020262160038948,0.9018371962875127
1789757401144193500,8.376193603515626,-0.5838473514258862,-5.8792439160645005,0.9884230083286761
1789757401154207500,8.38620751953125,-0.2146644766773097,-5.480733258289098,0.8829659070789814
1789757401164222500,8.396222412109376,0.23707155706286429,-4.8172214185178275,0.6767384010910987
1789757401174236400,8.406236328125,0.7770353430986404,-3.9247938556104898,0.4545008405447006
1789757401184250600,8.416250732421876,1.2903496071398257,-3.2130425933271645,0.27901509430110455
1789757401194264600,8.4262646484375,1.5494985559761523,-2.8835481886327265,0.13911796331107615
1789757401204278500,8.436278564453126,1.4977870734393597,-2.6709096465587616,-0.07713876926004887
1789757401214293500,8.44629345703125,1.0795476328432558,-2.4050436644271014,-0.36221535555720324
1789757401224307500,8.456307373046876,0.5491010322153568,-2.0787056779369713,-0.7200859599083662
1789757401234321700,8.46632177734375,0.1427870254789479,-1.6002812332302332,-1.239264732068777
1789757401244335600,8.476335693359376,-0.08580194992078467,-1.0476292305350303,-1.879580989691615
1789757401254350600,8.4863505859375,-0.22142270049955695,-0.558750319570303,-2.4421406384170052
1789757401264364500,8.496364501953124,-0.29516484959125516,-0.19634382535517214,-2.892223662519455
1789757401274378500,8.50637841796875,-0.33267475176360456,0.09088146340847014,-3.1826445324540136
1789757401284392700,8.516392822265624,-0.3559188492288813,0.32250381515473125,-3.3183319367945194
1789757401294406700,8.52640673828125,-0.3561000510146841,0.5627490338176488,-3.3358570720911023
1789757401304421600,8.536421630859374,-0.39260110493805256,0.803353148920834,-3.2737294094800946
1789757401314435600,8.546435546875,-0.3600479118576273,1.0591998413413763,-3.140948247975111
1789757401324449500,8.556449462890624,-0.24571086365766823,1.348878660736978,-2.8977392110705376
1789757401334463500,8.56646337890625,-0.14002579887099564,1.513318112309277,-2.4693191527217624
1789757401344477700,8.576477783203124,0.007749518148228525,1.6938818924695251,-2.145463630697131
1789757401354493200,8.5864931640625,0.14098909094519912,1.8358078989386557,-1.8956454047858713
1789757401364507100,8.596507080078124,0.30271460738368333,1.8444035855874419,-1.839531887897849
1789757401374521300,8.606521240234375,0.5214250897824764,1.7974901509821415,-2.106229936939478
1789757401384535300,8.616535400390624,0.8219594305176288,1.8204101310595868,-2.4446470682799815
1789757401394550300,8.62655029296875,1.2341665321469306,1.9109104861959814,-2.5755332098186017
1789757401404564200,8.636564208984375,1.7520424050152301,2.0486314421907066,-2.63751065030396
1789757401414578200,8.646578125,2.2539280970692634,2.321723576183617,-2.602854931986332
1789757401424592400,8.65659228515625,2.626557294613123,2.5802213676348327,-2.3770400974750516
1789757401434606300,8.6666064453125,2.69763749448657,2.733593774008751,-2.075969238710403
1789757401444621300,8.676621337890625,2.497586046785116,2.7705741358816622,-1.9049100767374039
1789757401454635300,8.68663525390625,2.1966695017993447,2.8920211256846784,-1.823365765994787
1789757401464649200,8.696649169921875,1.812908669388294,3.0119243931770323,-1.66393975867033
1789757401474663200,8.7066630859375,1.360404555618763,2.966979920557141,-1.31753338214159
1789757401484678100,8.71667822265625,1.0142414132613689,2.783679701170325,-0.7679705776333808
1789757401494692400,8.7266923828125,0.8271815490800887,2.5947104962363836,-0.097881113037467
1789757401504706000,8.7367060546875,0.7650491372287272,2.4888772551506757,0.6287772109985351
1789757401514720300,8.74672021484375,0.660135641336441,2.390650689676404,1.4214490991681814
1789757401524734200,8.756734130859375,0.48898536701388656,2.1461066047757864,2.475418638640642
1789757401534749200,8.766749267578126,0.39965164450407026,1.844942222508788,3.756632753166556
1789757401544763400,8.776763427734375,0.27929866048283875,1.5327484967052936,4.997764448150992
1789757401554777000,8.786777099609376,0.08122041255049407,1.2419073555320501,6.147880824214219
1789757401564791300,8.796791259765625,-0.13005970065183936,0.9528718024760484,7.051477431389689
1789757401574805200,8.80680517578125,-0.3199439746040851,0.671540247926116,7.809473727497458
1789757401584820200,8.8168203125,-0.4212649258971214,0.3358832289487123,8.465071140882372
1789757401594834400,8.82683447265625,-0.3552875290554017,0.01004910032749176,8.88350931892097
1789757401604848000,8.83684814453125,-0.13619484240598975,-0.18576807080507277,8.984511778849363
1789757401614862000,8.846862060546876,0.3066015318196267,-0.22715689677000045,8.845700105008483
1789757401624877300,8.856877197265625,0.9082874684054404,-0.3316986367404461,8.695622356265783
1789757401634891300,8.866891357421874,1.6807634676992893,-0.36122166834473607,8.618760650381445
1789757401644905200,8.8769052734375,2.5426643749177456,-0.06889701061546802,8.564207806938887
1789757401654919200,8.886919189453126,3.3797043971240517,0.46829672618508333,8.474060503023862
1789757401664933000,8.89693310546875,4.077434148317575,1.0362795690029858,8.3874916421175
1789757401674948000,8.906947998046874,4.520702816230059,1.4504945763885975,8.328246841466427
1789757401684962300,8.91696240234375,4.537283364152908,1.6960148128449917,8.162090064582229
1789757401694976300,8.926976318359374,4.078603192096948,1.745457181406021,7.744279663053154
1789757401704990200,8.936990234375,3.232262257581949,1.5368290440171957,7.0718421740263695
1789757401715004200,8.947004150390624,2.286718606036901,1.2046288874953985,6.180621648821234
1789757401725019100,8.95701904296875,1.400901401180029,0.9936246686249971,4.9928229000955815
1789757401735033300,8.967033447265624,0.6045219637293369,1.0171101736307144,3.67549760774672
1789757401745047300,8.97704736328125,-0.03402618824243545,1.199379880926013,2.335669976210594
1789757401755061200,8.987061279296874,-0.4679249702632427,1.4381149872869252,1.1663579012900591
1789757401765076200,8.997076171875,-0.7521534152984619,1.680478221017122,0.20371172377467153
1789757401775090200,9.007090087890624,-0.8736369377195835,1.8660978232622145,-0.5403226824760436
1789757401785104400,9.0171044921875,-0.7984240950208157,2.0158920788884163,-1.080246721023321
1789757401795118300,9.027118408203124,-0.5772048812041058,2.1018355013728143,-1.4905945315867661
1789757401805132000,9.037132080078125,-0.2687222848782316,2.134178266572952,-1.8301801221847533
1789757401815147300,9.047147216796875,0.0698737466931343,2.134023368272185,-2.102730988907814
1789757401825161200,9.0571611328125,0.41378889092803,2.098999401164055,-2.3216648317337034
1789757401835175200,9.067175048828124,0.7444248668730259,2.0152967433437703,-2.5265409231126306
1789757401845189400,9.077189453125,1.0323369688570498,1.8769035871759057,-2.7229619053572414
1789757401855203000,9.087203125,1.2542413519263267,1.7046242357581853,-2.9233734185427425
1789757401865218000,9.097218017578125,1.4434814827561377,1.5144418556421995,-3.1045366259008644
1789757401875232300,9.107232177734375,1.5709890877723693,1.3135454815492034,-3.2679204309403893
1789757401885246200,9.11724609375,1.703634640198946,1.0896566466644406,-3.3876574019551273
1789757401895260400,9.127260498046875,1.7606863147199152,0.8205027289032936,-3.5147459047764538
1789757401905275400,9.137275390625,1.7024807939887046,0.5554729053348303,-3.6219524800419807
1789757401915289000,9.1472890625,1.528475057169795,0.2608846865877509,-3.701809276089072
1789757401925303300,9.15730322265625,1.29515320802927,-0.06923895592093467,-3.7329409119337793
1789757401935317200,9.167317138671875,1.0800573359310626,-0.44833968756645914,-3.7115713761687275
1789757401945331500,9.17733154296875,0.9187707954317331,-0.8587447812750935,-3.577373918125033
1789757401955346400,9.187346435546875,0.8392366554677486,-1.373677294167876,-3.24490546605587
1789757401965360000,9.197360107421876,0.7236649874389172,-2.0919918604895473,-2.6379858666002747
1789757401975374300,9.207374267578125,0.7359937231361866,-2.886275275509059,-1.7209575309216976
1789757401985388300,9.21738818359375,0.7582499786078929,-3.7398616511076685,-0.5505716892898083
1789757401995402200,9.22740234375,0.6785854902625084,-4.707625902289152,0.645021658834815
1789757402005417500,9.23741748046875,0.6121113228797912,-5.620071586352586,1.6073212148696183
1789757402015431200,9.24743115234375,0.604338350790739,-6.264374283263087,2.0090484966039655
1789757402025445000,9.257445068359376,0.6389665965795517,-6.743726071947813,1.690342612427473
1789757402035459300,9.267459228515625,0.5619324567377567,-7.061719423940778,1.0741776302427053
1789757402045474300,9.277474365234376,0.45561143213510513,-7.344919694972038,0.43016427166759963
1789757402055488300,9.28748828125,0.2096995660126209,-7.693042812290788,-0.04664835392832756
1789757402065502200,9.297502197265626,-0.16357258734358474,-7.85033180758655,-0.3547977727770805
1789757402075516200,9.30751611328125,-0.5586871546735986,-7.88918088594079,-0.47488487240374083
1789757402085530400,9.3175302734375,-0.9427104739457368,-7.919128864958882,-0.2984258972138166
1789757402095545300,9.32754541015625,-1.23636842610538,-7.882963911122083,-0.08789689463973045
1789757402105559300,9.337559326171874,-1.4077519977271555,-7.607108157634735,-0.11174538773894309
1789757402116199200,9.34819921875,-1.5489707327097653,-7.187548282089829,-0.3467085743457079
1789757402126213400,9.35821337890625,-1.568266969332099,-6.694560182240605,-0.7431476865440607
1789757402136227000,9.36822705078125,-1.3318202661693095,-6.227264157530665,-1.1785299851208924
1789757402146242000,9.378241943359376,-1.0328992789149283,-5.640613439121842,-1.5241513487517833
1789757402156256300,9.38825634765625,-0.838340583410859,-5.085025382974743,-1.7904612752586602
1789757402166270200,9.398270263671876,-0.6475608219236135,-4.548399801450968,-1.9889953041344879
1789757402176284400,9.408284423828125,-0.42577217418849467,-4.177075549025833,-2.1194529911279676
1789757402186298000,9.418298095703125,-0.3023217356085777,-3.9295296519607303,-2.2376035697340964
1789757402196313000,9.42831298828125,-0.3313531843036413,-3.670217913778126,-2.3589906460434196
1789757402206327300,9.438327392578126,-0.5201484939754009,-3.2199241695344445,-2.661281401991844
1789757402216341200,9.44834130859375,-0.8521411452263593,-2.7182892373710867,-3.0152246037662027
1789757402226355200,9.458355224609376,-1.2442875286668538,-2.3374001610040662,-3.2124230001240965
1789757402236369200,9.468369140625,-1.7001193255543707,-1.992561179922521,-3.4455133785963055
1789757402246384000,9.478384033203126,-2.1281816565066576,-1.4542036600396036,-3.8844431405216455
1789757402256398000,9.488398193359375,-2.464109309118986,-0.8612810217544435,-4.308986065176129
1789757402266412300,9.498412353515626,-2.6686159826636313,-0.41823476442098617,-4.555824398493766
1789757402276426200,9.50842626953125,-2.683027954375744,-0.1955117584452033,-4.608358887851238
1789757402286441200,9.518441162109376,-2.5158733986258506,0.090574004894495,-4.564305811113119
1789757402296455200,9.528455078125,-2.3517899208843707,0.3356076268777251,-4.362932174897193
1789757402306469000,9.53846923828125,-2.2664450488150116,0.4443552941054105,-3.963904215249419
1789757402316483300,9.5484833984375,-2.0639339330017568,0.5640367355406284,-3.4958372061669825
1789757402326497300,9.558497314453126,-1.5923837579786777,0.7897621382027864,-3.0534225247353315
1789757402336512300,9.56851220703125,-0.9290214827459305,0.7760854950278997,-2.5988135476410386
1789757402346526200,9.578526123046874,-0.7983189541459083,1.0394748579129576,-2.0876082385778427
1789757402356540400,9.58854052734375,-0.4479832753442228,1.3553773751065135,-1.9748031126528978
1789757402366554600,9.5985546875,0.7728421291925013,1.4567384392142295,-1.7346487871438263
1789757402376568600,9.608568603515625,1.282069416180998,1.6629273667573927,-1.25033733022511
1789757402386583300,9.618583251953124,1.9175484629057347,1.7390069823533296,-1.2064362291783093
1789757402396597500,9.628597412109375,3.3735096341371533,1.581198931619525,-0.8579857796013355
1789757402406611500,9.638611572265624,3.981248733282089,2.10807176541388,-0.15583879648745058
1789757402416625400,9.64862548828125,3.731283792376518,2.5375042156755923,0.3863070097625255
1789757402426640400,9.658640380859374,3.671193773072958,2.4298797072589395,0.8097510332643986
1789757402436654300,9.668654296875,3.7031834870517253,2.415194179302454,1.1875023961275815
1789757402446668300,9.678668212890624,3.7494390422701835,2.4871353799194096,1.3006021210849283
1789757402456682500,9.6886826171875,3.742977737301588,2.500670568796992,1.3475696239650248
1789757402466696400,9.698696533203124,3.6984979595839973,2.2994909938484427,1.5077444038301706
1789757402476710700,9.708710693359375,3.4890368785023687,1.8507266511291265,1.8258061448842287
1789757402486725400,9.718725341796874,3.1383862885326144,1.4133897113531828,2.2884715871840715
1789757402496739300,9.7287392578125,2.7135867587685585,0.885128053548932,3.017309593346715
1789757402506753500,9.73875341796875,2.3626187734127044,0.31819618108868597,3.7817262778908014
1789757402516767500,9.748767578125,2.0680703021541236,-0.016127543458342553,4.40577821393311
1789757402526781400,9.758781494140624,1.7287144286587834,-0.2800876919686794,5.013592716401815
1789757402536796400,9.76879638671875,1.3889666332364081,-0.4685580074697733,5.535397745412588
1789757402546810400,9.778810302734374,1.0630255371093749,-0.6852560540676117,6.06994242900908
1789757402556824300,9.78882421875,0.7757306902408599,-0.9562433247357607,6.745899908855557
1789757402566838500,9.798838623046874,0.5796721115678548,-1.2539584433317184,7.528343248477578
1789757402576853500,9.808853515625,0.4850175593614578,-1.3226613926798105,8.199154013085364
1789757402586867500,9.818867431640625,0.605849047614634,-0.992849008077383,8.599211315780877
1789757402596881400,9.82888134765625,0.8707947000309825,-0.7044102518707513,8.999682459974288
1789757402606895400,9.838895263671875,1.2606520957514642,-0.6080605861842632,9.457097726660967
1789757402616909600,9.84890966796875,1.7515058139204978,-0.33118776460886,9.737309921792148
1789757402626924500,9.858924560546875,2.3211706184759735,0.37762101448178287,9.80334862036705
1789757402636938200,9.868938232421876,2.8529882151961323,1.2940952234089373,9.839947873967885
1789757402646952400,9.878952392578125,3.134811352655291,2.024581581300497,9.983107806146144
1789757402656966400,9.88896630859375,3.09048296610713,2.4641332745164632,10.094890603286027
1789757402666980600,9.898980712890625,2.736629488442838,2.72831787943244,9.967546664398908
1789757402676995600,9.90899560546875,2.211315574528277,2.885716180321574,9.369165176185964
1789757402687009300,9.91900927734375,1.56181209410429,2.8718337854415177,8.444369713637233
1789757402697023500,9.9290234375,1.068741868929565,2.6412708796203135,7.408169639611244
1789757402707037400,9.939037353515625,0.7175931201793253,2.3927479542165995,6.226306710675359
1789757402717052400,9.949052490234376,0.46908846108466384,2.178293302631378,4.959042211046815
1789757402727066600,9.959066650390625,0.3480643728688359,2.0029969414800406,3.7813206196993585
1789757402737080300,9.969080322265626,0.42949733219146724,1.8244021233052015,2.8119062632232903
1789757402747094300,9.97909423828125,0.5818225676000118,1.6941203774005174,1.96754393530488
1789757402757108500,9.9891083984375,0.6933643955908715,1.6570312944561243,1.214354162696004
1789757402767123500,9.99912353515625,0.7294388946652411,1.6280653122127056,0.6032569852948189
1789757402777137400,10.009137451171876,0.7735152061484754,1.6333166568696498,0.06746843911707401
1789757402787151400,10.0191513671875,0.8330966914080082,1.6958564074128866,-0.49168052438199517
1789757402797165300,10.029165283203126,0.8966472264289855,1.789832914227247,-0.9787631995797157
1789757402807180300,10.03918017578125,0.9738346571363509,1.8508651828169822,-1.359205116701126
1789757402817194500,10.049194580078124,1.0451311301089823,1.8244313493996858,-1.6408429607212542
1789757402827208400,10.05920849609375,1.1064146700460462,1.7016969501346348,-1.8078063778132198
1789757402837222400,10.069222412109376,1.1724889513909815,1.530257848933339,-1.9875760849863289
1789757402847236400,10.079236328125,1.2295920638382434,1.3688479743152857,-2.165799731761217
1789757402857251300,10.089251220703124,1.287381258853525,1.1671174874857067,-2.2829753278553486
1789757402867265500,10.099265625,1.315307376655191,0.8755304963812232,-2.409423194685578
1789757402877279500,10.109279541015624,1.344756904631853,0.5572597887516021,-2.5644863306254146
1789757402887293400,10.11929345703125,1.3594821800768375,0.2051858879804611,-2.742873643529415
1789757402897307400,10.129307373046874,1.3725275396108627,-0.17253829461485146,-2.9467127930760384
1789757402907322400,10.139322265625,1.3870494014382362,-0.6175877084642648,-3.1232834119468924
1789757402917336600,10.149336669921874,1.336235744524002,-1.2204475111350417,-3.2299691782087088
1789757402927350500,10.1593505859375,1.3145523205041885,-2.0303817920118568,-3.333673882833123
1789757402937364200,10.1693642578125,1.3782874183118343,-2.859465886777639,-3.5089199751019478
1789757402947379500,10.17937939453125,1.4214052600264548,-3.6293688937783237,-3.6130940508037805
1789757402957393400,10.189393310546874,1.6139736584961413,-4.410490044885874,-3.729407477110624
1789757402967407400,10.199407470703125,1.8775228881180286,-5.294177251976728,-3.7753421298116443
1789757402977421600,10.209421630859374,2.0612603298783303,-6.189536192160844,-3.7714749329894777
1789757402987435300,10.219435302734375,2.1430980706095695,-6.888578194996714,-3.720675889122486
1789757402997450200,10.2294501953125,2.1457611523389817,-7.269951840010285,-3.628796062326431
1789757403007464400,10.23946435546875,1.8684721511781215,-7.517230902832746,-3.433802482536435
1789757403017478400,10.249478515625,1.1956943973463028,-7.6341078082412475,-3.1413515680789947
1789757403027492600,10.25949267578125,0.3898644099831581,-7.762748216679692,-2.6766689407378434
1789757403037506300,10.26950634765625,-0.41024435018897054,-7.9898034066408865,-2.1459160506397486
1789757403047521300,10.279521240234375,-1.0983423496842384,-8.16596602923274,-1.6202151832342147
1789757403057535500,10.289535400390625,-1.5590765316605566,-8.227179499608278,-1.1213929704040289
1789757403067549400,10.299549560546875,-1.8748060303747653,-8.359820375859737,-0.6190975285053253
1789757403077563600,10.309563720703125,-2.1623656656593084,-8.414600598317385,-0.289544087100029
1789757403087578600,10.31957861328125,-2.4536457827717064,-8.2148682995677,-0.1608668537825346
1789757403097592300,10.32959228515625,-2.751307125353813,-7.883803869077563,-0.09613923780620097
1789757403107606500,10.3396064453125,-2.8808231475830075,-7.517089448535442,-0.06267477509975433
1789757403117620500,10.349620361328125,-2.8444951121389863,-7.064473691084981,-0.15402444054186343
1789757403127634400,10.359634521484375,-2.800871074467897,-6.4875067468225955,-0.3611030104011297
1789757403137649700,10.369649658203125,-2.6572633985221383,-5.808624319440126,-0.6929033539503813
1789757403147663400,10.379663330078126,-2.4170167185544966,-5.013675718510151,-1.0110714779883623
1789757403157677300,10.38967724609375,-2.112728651309013,-4.321031600017846,-1.1806073759168385
1789757403167691500,10.39969140625,-1.7819290092349052,-3.9860020652890205,-1.116433886691928
1789757403177706500,10.40970654296875,-1.5208710119068622,-3.790902394776046,-0.8721534211635589
1789757403187720400,10.419720458984376,-1.4686217692315577,-3.4708667233005164,-0.6005331132888794
1789757403197734400,10.429734375,-1.5072271019577979,-2.9932103403568266,-0.6360428180873393
1789757403207748400,10.439748291015626,-1.5266858356654642,-2.457196168729663,-0.9504045355796813
1789757403217762600,10.449762451171875,-1.5607961950600147,-1.9577251366019248,-1.4133125544637442
1789757403227777500,10.459777587890626,-1.5989678125441074,-1.5095318717688322,-1.9191952071994542
1789757403237791500,10.46979150390625,-1.5256220058262346,-1.1030252468034625,-2.469338441944122
1789757403247805400,10.479805419921876,-1.440055015438795,-0.8171820600479841,-2.8234634300261736
1789757403257819400,10.4898193359375,-1.4668893924809991,-0.6196773742198943,-3.0430151124894618
1789757403267834400,10.49983447265625,-1.5609458326637744,-0.325064897814393,-3.2422844699025153
1789757403277848600,10.5098486328125,-1.6648235557675362,0.05408084201663732,-3.4649282731622457
1789757403287862500,10.519862548828126,-1.6916858437299727,0.293799990978837,-3.516016070842743
1789757403297876500,10.52987646484375,-1.51144281995669,0.39082448718696833,-3.4058863016068934
1789757403307890400,10.539890380859376,-1.0728105796732008,0.44533816766291856,-3.2666526029616594
1789757403317905400,10.549905517578125,-0.5199195075251162,0.44638533862829205,-3.194275933536887
1789757403327919400,10.55991943359375,0.046581718432903284,0.41453678668588395,-2.918403813436627
1789757403337933600,10.56993359375,0.5756627297960222,0.49051937164813275,-2.4857471404314038
1789757403347947300,10.579947265625,1.2237678877294063,0.5688450126051903,-2.00491884945333
1789757403357960700,10.589960693359375,1.9753367811381817,0.865484026402235,-1.4352724573373794
1789757403367975700,10.5999755859375,2.4637130032777783,1.1171388200908898,-0.932847836101055
1789757403377989600,10.60998974609375,3.3994448703825473,1.327391928333044,-0.7671428946375847
1789757403388003600,10.620003662109376,4.161880025720596,1.8274755394011735,-0.683662647396326
1789757403398017500,10.630017578125,4.6124794749125835,2.2389783652186392,-0.7647486929774284
1789757403408032800,10.64003271484375,4.997400291013717,2.4103327107459305,-0.9628636196583509
1789757403418046700,10.650046630859375,5.26036149161458,2.6179566395282743,-1.0463637406438588
1789757403428060400,10.660060302734376,5.322323150008916,2.8138901305168864,-1.0442939486324787
1789757403438074600,10.67007470703125,5.200404743301868,3.010388269650936,-1.1597750157684088
1789757403448088600,10.680088623046874,4.982413734284043,3.111546212401986,-1.2635948712050915
1789757403458103600,10.690103515625,4.666097667853534,2.9483798495054243,-1.1818985847711563
1789757403468117800,10.70011767578125,4.302617114666104,2.6663684959977862,-0.9776280580699444
1789757403478131500,10.71013134765625,4.0280888103902335,2.4499808305233715,-0.6553788021981716
1789757403488145700,10.720145751953124,3.759769882148504,2.2080688476920125,-0.22294892368614672
1789757403498160600,10.73016064453125,3.4796783907875417,1.9083774605870245,0.29107144279778
1789757403508174600,10.740174560546874,3.1935306681275364,1.6500626244872807,0.8741746978580951
1789757403518188800,10.750188720703125,2.7837457521438598,1.3799334319531917,1.5382394953370093
1789757403528202500,10.760202392578124,2.140467429845035,1.0302589935392141,2.301637358227372
1789757403538216700,10.770216796875,1.4435644848644733,0.6135761347353458,3.156681239157915
1789757403548231700,10.780231689453124,0.8192837085023522,0.24719956784546374,4.070923743510246
1789757403558245600,10.79024560546875,0.22978856044784188,0.014922843843698502,4.957665661996603
1789757403568259800,10.800259765625,-0.34500323173254727,-0.11497253309190272,5.783272436040639
1789757403578273500,10.8102734375,-0.7461039060011506,-0.0662578942835331,6.569207709431648
1789757403588287500,10.82028759765625,-0.9061175039552152,0.1436421627372503,7.2628393776565785
1789757403598302700,10.830302734375,-0.9557397591277956,0.2594493930876255,7.787717822763323
1789757403608316700,10.840316650390625,-0.9332008873224258,0.2881868272721767,8.16279733606875
1789757403618330600,10.85033056640625,-0.8430182198330759,0.18924480700492857,8.322561197045445
1789757403628344600,10.860344482421874,-0.5310220624282955,-0.09604746786952018,8.318470128339529
1789757403638359600,10.870359619140626,0.04984305831640958,-0.5107721783429384,8.10281603783667
1789757403648373500,10.88037353515625,0.9750479784488677,-0.9326561129212378,7.642543043631314
1789757403658387700,10.8903876953125,2.2791557695671916,-1.0583148752003908,6.909592341452837
1789757403668401700,10.900401611328125,3.5774645190179344,-0.7845131316334009,6.025259237673878
1789757403678415600,10.91041552734375,4.131157555198669,-0.44263563070595263,5.247246573975682
1789757403688430600,10.9204306640625,3.499990818715095,-0.195821847307682,4.760457328766584
1789757403698444500,10.930444580078126,1.6973334942281246,0.20952304040193556,4.430903302839398
1789757403708458800,10.940458740234375,-0.48600291713699695,0.6697533645093441,4.374440241861343
1789757403718472700,10.95047265625,-2.500853524148464,1.002203696399927,4.416418850412964
1789757403728487400,10.9604873046875,-4.23798360671401,1.2356973949760197,4.2314521591186525
1789757403738501600,10.970501708984376,-5.460087945145368,1.3669453555643558,3.9118116244405505
1789757403748515600,10.980515625,-6.057692603766918,1.5318950947463512,3.496890514612198
1789757403758529500,10.990529541015626,-5.901131922745704,1.6647411381810902,3.053310881054401
1789757403768543700,11.000543701171875,-5.295444495433569,1.6224755293816326,2.7546155192494393
1789757403778558500,11.010558349609376,-4.457950884240866,1.3688503124028444,2.664447757068276
1789757403788572700,11.02057275390625,-3.642229544395208,0.9534873040258884,2.6603520121872424
1789757403798586600,11.030586669921876,-2.878025625818968,0.4516816914707422,2.7439064937084914
1789757403808600600,11.0406005859375,-2.1271499753713607,-0.019308511582016945,2.8937060100317
1789757403818614800,11.05061474609375,-1.427460906803608,-0.4150356761187315,3.0279350322574374
1789757403828629500,11.06062939453125,-0.8547522775728255,-0.8276350650012493,3.1421669761151074
1789757403838643500,11.0706435546875,-0.48713820477724074,-1.2186603354573249,3.1742280017644164
1789757403848657700,11.08065771484375,-0.3242166834872216,-1.5158867937535048,3.061222384831309
1789757403858671600,11.090671630859376,-0.31493454894423484,-1.6600947736799716,2.8060253884911535
1789757403868686600,11.1006865234375,-0.45283378411531444,-1.697187363755703,2.419151977017522
1789757403878700500,11.110700439453124,-0.6263572903752327,-1.7177514283567665,1.9614251601636408
1789757403888714500,11.120714599609375,-0.789458771342039,-1.6947268188610671,1.4736644395738838
1789757403898728700,11.130728759765624,-0.9566951601564884,-1.7194155621767042,0.9153063341915607
1789757403908742700,11.14074267578125,-1.0662474217653275,-1.7687673298448323,0.35123218924999233
1789757403918757600,11.150757568359374,-1.1699544644773006,-1.7733754081621764,-0.24934417865872383
1789757403928771600,11.160771484375,-1.1939572713553905,-1.7174635513260958,-0.8933686431497335
1789757403938785500,11.17078564453125,-1.2124480368137358,-1.6675222933322191,-1.4906290183782576
1789757403948799500,11.180799560546875,-1.2329063029527663,-1.6987936299085615,-1.9663252071648836
1789757403958814700,11.190814697265624,-1.263701838710904,-1.7087918768316506,-2.420462475094199
1789757403968828700,11.20082861328125,-1.37040630967319,-1.6961700034067033,-2.8344471808552743
1789757403978842600,11.210842529296874,-1.4723007500052452,-1.7157582087129353,-3.1791420772910115
1789757403988856600,11.220856689453125,-1.584233184748888,-1.7281342906832693,-3.4796699152201414
1789757403998870500,11.23087060546875,-1.718039597648382,-1.8242150763005016,-3.7019331947296856
1789757404008885500,11.240885498046875,-1.8553034575253724,-1.9099448560342192,-3.9109804343134162
1789757404018899700,11.250899658203124,-1.9096353516936302,-1.9380689806260167,-4.0537177571654315
1789757404028913400,11.260913330078125,-1.9239426939874886,-2.0087243792161344,-4.086767793852091
1789757404038927600,11.270927734375,-1.9568547835081815,-2.1699612353548408,-4.053551752948761
1789757404048942600,11.280942626953125,-2.0541554663091897,-2.320858776047826,-4.063014577820897
1789757404058956500,11.29095654296875,-2.156349181848764,-2.4186034032240507,-4.136465598478913
1789757404068970800,11.300970703125,-2.2609031967788935,-2.504531628139317,-4.2799440950870515
1789757404078984400,11.310984375,-2.3575170663595197,-2.5065491054415703,-4.493376417887211
1789757404088998700,11.32099853515625,-2.4174954419821497,-2.5522473190382122,-4.640382504099607
1789757404099013600,11.331013671875,-2.4009663319855927,-2.5714190524980425,-4.724500464722514
1789757404109027600,11.341027587890625,-2.3714795407384632,-2.5043419507861135,-4.738403902390599
1789757404119041800,11.351041748046875,-2.3656097719222307,-2.4933015013337134,-4.642952646848559
1789757404129055500,11.361055419921875,-2.2698341067314147,-2.5272812200859187,-4.466585441595315
1789757404139069400,11.3710693359375,-2.215891504141688,-2.534212480653822,-4.321827426570653
1789757404149084700,11.381084716796876,-2.1926070746660233,-2.492659111776948,-4.158562279474735
1789757404159098600,11.3910986328125,-2.1852993820011615,-2.421426936212182,-3.9062159963905807
1789757404169112600,11.401112548828126,-2.1571359483122823,-2.380291646616906,-3.596199614626169
1789757404179126500,11.41112646484375,-2.058250626668334,-2.3147195426404474,-3.2556460557788607
1789757404189141500,11.4211416015625,-1.9456629428863523,-2.245337963378429,-2.951290183994174
1789757404199155500,11.431155517578125,-1.8027835812151431,-2.2425050780400633,-2.7530215280562635
1789757404209169700,11.441169677734376,-1.6059955192238091,-2.2710504967838525,-2.4912585973292587
1789757404219183600,11.45118359375,-1.436444423726201,-2.3103043565467,-2.196438031131029
1789757404229197600,11.461197509765626,-1.3348860834807157,-2.397759352637827,-1.8900486076921224
1789757404239212500,11.471212646484375,-1.3371318165808916,-2.4744626530900597,-1.5173644650906324
1789757404249226500,11.4812265625,-1.4554197578310966,-2.533549048309028,-1.1498667852163313
1789757404259240700,11.49124072265625,-1.6036872422814368,-2.679215994872153,-0.8374906885832548
1789757404269254700,11.501254638671876,-1.8375076885938644,-3.004199936404824,-0.42678807323276996
1789757404279269600,11.51126953125,-2.076632086533308,-3.4309605371087786,-0.08867781588435172
1789757404289283600,11.52128369140625,-2.2583231171578166,-3.5840970889002084,-0.059016252592206
1789757404299297500,11.531297607421875,-2.4204525382220745,-3.413085273200273,-0.32401743458807464
1789757404309311700,11.541311767578126,-2.5259143156468866,-3.1709380203083155,-0.5624468360006809
1789757404319325700,11.55132568359375,-2.5109043780416247,-3.1251150112882256,-0.4508177681177854
1789757404329340700,11.561340576171874,-2.4058079267978667,-3.1429674788430333,0.017837854507565497
1789757404339354600,11.571354736328125,-2.3010183495461938,-3.101037385608256,0.6255307764232159
1789757404349368600,11.58136865234375,-2.3665245486795903,-3.205449361719191,1.2977882327079773
1789757404359382500,11.591382568359375,-2.4265280587434765,-3.4546593926042317,1.9842267745584248
1789757404369397800,11.601397705078124,-2.416841361987591,-3.7819311528131365,2.4550404520004987
1789757404379411700,11.61141162109375,-2.302262212127447,-4.057112075778842,2.641490075328946
1789757404389425700,11.62142578125,-2.1174375596523283,-4.254687488755583,2.434177696713805
1789757404399440000,11.63143994140625,-1.8061866676568983,-4.391478178162872,1.9135802899271248
1789757404409453600,11.64145361328125,-1.473738673853874,-4.4535368671908975,1.2549620674163102
1789757404419468500,11.651468505859375,-1.173627600032091,-4.455059838974476,0.6125315941184759
1789757404429482800,11.661482666015624,-0.9720137253195047,-4.362295630559325,0.0005173018723726272
1789757404439496700,11.67149658203125,-0.9299749110132455,-4.1955414723038675,-0.5863128647565842
1789757404449510700,11.6815107421875,-1.0850894848793744,-3.9798534795314073,-0.9948451503306627
1789757404459524600,11.691524658203125,-1.3191419863820075,-3.777279819875955,-1.3427303672403097
1789757404469539600,11.70153955078125,-1.5129758747428654,-3.5847450314149256,-1.6822580901712179
1789757404479553800,11.7115537109375,-1.6877981886416673,-3.4280250681787727,-1.9530413626998662
1789757404489567700,11.721567626953124,-1.6770903321444988,-3.2685748031958934,-2.258122626149654
1789757404499581700,11.731581787109375,-1.2895429669320582,-3.211719528029859,-2.4491116464734075
1789757404509596700,11.7415966796875,-0.5829027640521526,-3.101096130058169,-2.529561732238531
1789757404519610600,11.751610595703125,0.12348485230617225,-2.8979408711224792,-2.6738305024415254
1789757404529624600,11.76162451171875,0.6591641659557819,-2.5814135000288485,-2.8335084387004374
1789757404539638800,11.771638671875,0.990839275690168,-2.302381162331998,-2.8660914423972366
1789757404549652500,11.781652587890624,1.1139210270881652,-2.1558625673756002,-2.6141104854941366
1789757404559667700,11.791667724609376,1.1419969286240637,-1.9718626752868293,-2.094116305297613
1789757404569681700,11.801681640625,1.1257095184288919,-1.6544785412333904,-1.5618068334072828
1789757404579695600,11.811695556640625,1.0915044664882123,-1.308766138318181,-1.1461199999034404
1789757404589709800,11.821709716796875,1.1361749444723128,-1.0782767361246048,-1.0434954917311667
1789757404599724800,11.831724853515626,1.3712591271102428,-0.9888386033922433,-1.193980652230978
1789757404609738500,11.841738525390625,1.8471954082630573,-0.9878102832578122,-1.4311638529747723
1789757404619752700,11.851752685546876,2.534214526480436,-1.0534444926850497,-1.7101988210201262
1789757404629766700,11.8617666015625,3.293182882490754,-1.0847349723532795,-1.9648861142724752
1789757404639780900,11.87178076171875,3.9926629844829438,-1.072987397544831,-2.191218250656128
1789757404649795800,11.8817958984375,4.582606022435426,-1.0404802355632186,-2.255995550993085
1789757404659809500,11.8918095703125,5.100396555107832,-0.9166650553241371,-1.9939491271495817
1789757404669823700,11.90182373046875,5.446899962270259,-0.6681007749967277,-1.673085772678256
1789757404679837700,11.911837646484376,5.507677379316092,-0.29944340369328853,-1.4734271236866712
1789757404689852700,11.921852783203125,5.295657261401415,0.07925386171787976,-1.3404676830053328
1789757404699867000,11.931866943359376,4.786607669067383,0.3028846301883459,-1.2519786676913498
1789757404709880600,11.941880615234375,4.143364710342884,0.4452306156352162,-1.098740409091115
1789757404719894500,11.95189453125,3.570134614521265,0.5450093789875508,-0.8628951789528131
1789757404729908700,11.96190869140625,3.06185425299406,0.681301471222937,-0.6920259865939616
1789757404739923700,11.971923828125,2.6653520124316215,0.741865830039978,-0.4535334568172693
1789757404749937700,11.981937744140625,2.522352239251137,0.7042272965192794,-0.006786299139261246
1789757404759951600,11.99195166015625,2.4700480515182015,0.5917930497333407,0.4324848235696554
1789757404769965600,12.001965576171875,2.4067175889886916,0.0019067104041576384,1.0899030226409434
1789757404779979800,12.011979736328126,2.4269899771668015,-0.90826722933501,1.7972575112700462
1789757404789994800,12.021994873046875,2.4252304201483725,-1.528271643552184,2.1207482916355134
1789757404800008700,12.0320087890625,2.2886638948857785,-1.6571166346520185,2.0523072080940006
1789757404810022700,12.042022705078125,1.733632449708134,-1.3471063903674483,2.047140619111061
1789757404820036600,12.05203662109375,0.3872131648220122,-0.8234677161887287,2.3935499182492492
1789757404830051600,12.062051513671875,-1.357799779947847,-0.11573270380944013,3.1778280720829963
1789757404840065800,12.072065673828124,-3.240426859337091,0.9079653237789869,4.668199900829792
1789757404850079700,12.082079833984375,-5.000855984425544,2.036131733840704,6.320055838474631
1789757404860093700,12.09209375,-6.408692153304815,2.8802988314479587,7.959842568141221
1789757404870107600,12.102107666015625,-7.060950777655839,3.357248819687962,8.8944007152915
1789757404880122600,12.11212255859375,-6.72756053456664,2.8698183539658784,9.981461792504787
1789757404890136800,12.12213671875,-5.913865147590637,2.2123083849579093,10.194248803138732
1789757404900150800,12.13215087890625,-4.02263171402812,2.313586739218235,8.880010955411196
1789757404910164500,12.14216455078125,-1.8266157077014444,2.159199310582876,7.7968398713737725
1789757404920179700,12.1521796875,-0.11494520669355988,1.6681038926124572,6.635900488001107
1789757404930193700,12.162193603515625,1.2217793442606926,1.6569839481830595,5.351301407212019
1789757404940207600,12.17220751953125,2.174634487862885,1.8430396037578582,4.4911073039114475
1789757404950221800,12.182221923828125,2.385161444610357,1.8094021225720642,4.249961629277467
1789757404960235500,12.192235595703124,1.9319792854487894,1.5360399394661188,4.5757951733767985
1789757404970250500,12.20225048828125,1.0111036997575311,1.4964309826552866,4.7676761741042135
1789757404980264700,12.2122646484375,-0.022147534400224683,1.6486995194405316,4.786898760968446
1789757404990278700,12.222278564453125,-0.9726817607741802,1.8904010743916033,4.653175934699178
1789757405000292900,12.23229296875,-1.5768144329249858,2.1989830394387244,4.29296432017982
1789757405010307800,12.242307861328126,-1.9562708461403846,2.444468789103627,3.7791421066164967
1789757405020321500,12.252321533203125,-2.091835500884056,2.5186837798714636,3.2963053984254596
1789757405030335700,12.262335693359375,-2.014218008196354,2.3226515046834946,2.8781045362740754
1789757405040349700,12.272349609375,-1.755143878161907,1.9240560912340878,2.493323128643632
1789757405050364000,12.282364013671875,-1.291803897601366,1.733437073266506,2.0292577564179894
1789757405060379000,12.29237890625,-1.0273206019997596,1.3459279942378402,1.4214929383099077
1789757405070392600,12.302392578125,-0.877071661408618,1.099120640580356,0.73658409024477
1789757405080406800,12.31240673828125,-0.8387971680719405,0.8794166901648044,0.15140461343228817
1789757405090420700,12.322420654296875,-0.859081100557372,0.5995253975510597,-0.4081459166049957
1789757405100435700,12.332435791015625,-1.0088567245483397,0.354289530993998,-0.9198515764057635
1789757405110449700,12.34244970703125,-1.1598012461882083,0.1128209080159664,-1.3701122951626776
1789757405120463600,12.352463623046875,-1.2987199606001376,-0.18992898987680673,-1.7182196303904056
1789757405130477600,12.3624775390625,-1.3762883534491062,-0.5211603013664484,-1.907123076611757
1789757405140491800,12.37249169921875,-1.4477005617558956,-0.8757029303386807,-2.096295402902365
1789757405150506800,12.3825068359375,-1.5280208836615086,-1.1623691239148377,-2.311039392822981
1789757405160520700,12.392520751953125,-1.545584597402811,-1.363744805957377,-2.5408845057636498
1789757405170534700,12.40253466796875,-1.5772024093292654,-1.6497765010222791,-2.7177245892256496
1789757405180548600,12.412548583984375,-1.6440052241444587,-2.0068705680429932,-2.83574131231904
1789757405190563600,12.4225634765625,-1.6708885548949242,-2.3596958717033267,-2.952959578511119
1789757405200577800,12.432577880859375,-1.7741805870652199,-2.740764396290481,-3.0368682802975178
1789757405210591700,12.442591796875,-1.9519009604930877,-3.1929838478997348,-3.0943343808382746
1789757405220605700,12.452605712890625,-2.118395006507635,-3.662410454897582,-3.1570401355981823
1789757405230619600,12.46261962890625,-2.26615044978261,-4.111972962257266,-3.190206492140889
1789757405240634600,12.472634521484375,-2.3700609061121938,-4.530284883567691,-3.2425919284164904
1789757405250648800,12.48264892578125,-2.3623721051752566,-4.848320028875768,-3.3133968184798954
1789757405260662800,12.492662841796875,-2.161438029420376,-5.028077753350138,-3.4324329477488993
1789757405270676700,12.5026767578125,-1.8430618155896663,-5.148374111813307,-3.4013983425378798
1789757405280691700,12.512691650390625,-1.489050809276104,-5.259119967120886,-3.3278982220411297
1789757405290705700,12.52270556640625,-1.077104331344366,-5.309109448170662,-3.244712573832273
1789757405300719600,12.5327197265625,-0.7531481984894722,-5.515422294354439,-2.8131735066801307
1789757405310733800,12.54273388671875,-0.5665676787903532,-6.0225347811460495,-1.8653952279508113
1789757405320747500,12.55274755859375,-0.43718843468334523,-6.484957646861672,-1.1097282515734435
1789757405330762800,12.5627626953125,-0.3778092670628801,-6.326711789232492,-1.056876366829872
1789757405340776700,12.572776611328125,-0.44807694497704503,-5.6034097898870705,-1.5319155530124902
1789757405350790700,12.582790771484374,-0.5602887446513399,-4.701520863412321,-2.1092367175400257
1789757405360805000,12.59280517578125,-0.5182639223378152,-3.8599119258552785,-2.640060919308662
1789757405370820000,12.602820068359375,-0.1848994347443804,-3.25994667558223,-2.8814029932975767
1789757405380834000,12.612833984375,0.2617617616832256,-2.933978399187326,-2.727280353078246
1789757405390848300,12.62284814453125,0.6462602607190608,-2.683831087452173,-2.4022727384090423
1789757405400862200,12.6328623046875,0.9274995338756591,-2.4026991471275685,-2.0638474237620827
1789757405410876200,12.642876220703124,1.1697475437283515,-2.0496970255956053,-1.754963260897994
1789757405420891100,12.65289111328125,1.2546984480440615,-1.9089149284645914,-1.1705272959291935
1789757405430905000,12.662905029296875,1.2199030289947985,-1.8713064978212117,-0.42106735749840735
1789757405440919000,12.6729189453125,1.0656149690806864,-1.6832152447655797,0.15521628067493437
1789757405450933200,12.682933349609375,0.8583633076768368,-1.3260121644124387,0.42012569273412226
