time,seconds_elapsed,z,y,x
1789757497158937000,0.03993701171875,-1.4147849651038646,0.7796604309052229,-0.6227445797707886
1789757497168951300,0.049951416015625,-1.154425471433997,0.7040630458682775,-0.3818406049381941
1789757497178966300,0.05996630859375,-0.9373170904695988,0.616859978711605,-0.44905930707789954
1789757497188980200,0.069980224609375,-0.5229600442647934,0.5867205687746405,-0.6789545427706092
1789757497198994200,0.079994140625,-0.36284663919806476,0.5654825504347681,-1.001761797851324
1789757497209008000,0.090008056640625,-0.3526449786573648,0.5393184738695621,-0.9992721729926765
1789757497219022300,0.100022216796875,-0.5207943906635045,0.4876861940488219,-1.3200076633006335
1789757497229037300,0.110037353515625,-0.5588479347258806,0.6117018652960657,-1.7203215711057185
1789757497239051000,0.120051025390625,-0.5466963091611862,0.5773576971456408,-1.7542394766680895
1789757497249065200,0.130065185546875,-0.9369839129924774,0.595763122408092,-1.58363711855188
1789757497259079200,0.1400791015625,-0.927502967941761,0.5693813114389776,-1.6167646043889223
1789757497269094100,0.15009423828125,-1.101010107588768,0.6996127884611487,-0.984424586342275
1789757497279108400,0.1601083984375,-1.0716840598613022,0.757552351732552,-0.8305608162548392
1789757497289122000,0.1701220703125,-1.2572726824462412,0.777606713245809,-0.6057113927096128
1789757497299136300,0.18013623046875,-1.1192676488131283,0.8312097086176276,-0.522435216673091
1789757497309150200,0.190150146484375,-1.124656356114149,0.8461044954106212,-0.5008248578894883
1789757497319165200,0.200165283203125,-0.924179376477003,0.8069044116616249,-0.5174038714423775
1789757497329179400,0.210179443359375,-0.8032336141943931,0.7646490319952368,-0.5951878798034042
1789757497339193000,0.220193115234375,-0.6193991418004036,0.8345169334694743,-0.787631263653934
1789757497349207000,0.23020703125,-0.6727747581571341,0.981245079523325,-0.8267661001469939
1789757497359221200,0.24022119140625,-0.6783908444732427,1.0003937243685126,-0.789026590469852
1789757497369236200,0.250236328125,-0.567985765427351,1.1546309308782219,-0.6547072596121579
1789757497379250200,0.260250244140625,-0.8533306472718715,1.0008622186630964,-1.1068756386213003
1789757497389264100,0.27026416015625,-0.8595353471308946,1.0206462388023734,-1.0823751844193785
1789757497399278000,0.280278076171875,-0.7069453233063221,0.6183247905671596,-1.0807236178200692
1789757497409292300,0.290292236328125,-0.713547498050332,0.635623715892434,-1.0797644173990935
1789757497419307300,0.300307373046875,-0.7289438046246767,0.8665367503255605,-1.222223142505437
1789757497429321200,0.3103212890625,-0.6129331606566906,0.7069020686864852,-0.987930110245198
1789757497439335200,0.320335205078125,-0.5099795666605234,0.5714554873645306,-0.6630397652801125
1789757497449349000,0.33034912109375,-0.2919137388408184,0.5402759207248687,-0.4340354870777577
1789757497459364000,0.340364013671875,-0.30267829396128654,0.5647147809326648,-0.4648701127372682
1789757497469378300,0.35037841796875,0.42232174147367474,0.618105887119472,0.050208165301755064
1789757497479392300,0.360392333984375,0.6958084277421236,0.6166834531009197,0.3691530458658933
1789757497489406200,0.37040625,0.6866273424208164,0.6366188644096255,0.3214406063700095
1789757497499420200,0.380420166015625,0.9196142605185508,0.530051463830471,0.9211865513365716
1789757497509435100,0.39043505859375,0.95180563454926,0.42184447935074565,1.1571693633146583
1789757497519449300,0.400449462890625,0.9510884261906146,0.42154140475094315,1.126929196416959
1789757497529463300,0.41046337890625,0.9087287093669175,0.34898382580131293,1.2994510513536632
1789757497539477000,0.42047705078125,0.5818038628995418,0.40834553083032366,1.282865827255696
1789757497549492200,0.4304921875,0.33216450068652625,0.5236299063503742,1.1697732626914978
1789757497559506200,0.440506103515625,0.3421376131683588,0.49542701743394135,1.1470951285459101
1789757497569520000,0.45052001953125,0.10774141279458999,0.6045853112891316,1.0619577617473899
1789757497579534300,0.460534423828125,0.02227846730351448,0.5715785292223096,1.0589753118705003
1789757497589548000,0.470548095703125,0.010434884774684905,0.5485837303429841,1.2565854308344424
1789757497599563000,0.48056298828125,0.24591361968815326,0.5470189652442932,1.3128027003578842
1789757497609577200,0.4905771484375,0.24163082780241965,0.5585758397862315,1.278107088421285
1789757497619591200,0.500591064453125,0.4928606740772724,0.4879501056820154,1.2965041842468081
1789757497629605400,0.51060546875,0.77528294647336,0.3233881967738271,1.3383416307620704
1789757497639619000,0.520619140625,1.5001906274497507,0.04172609509527683,1.0915210522968322
1789757497649634000,0.530634033203125,2.0316864448696372,-0.01935965724736452,0.7191697949115187
1789757497659648300,0.540648193359375,2.0317741231530904,-0.019637012884020803,0.7286657914008945
1789757497669662200,0.550662109375,2.3889631749808786,0.007592354825139046,0.3967555577363819
1789757497679676400,0.560676513671875,2.5538965475499626,0.021159400145709512,0.26195136597119273
1789757497689691100,0.570691162109375,2.928984828683734,-0.064460197211802,0.6698628892984241
1789757497699705000,0.580705078125,2.6546874105542897,-0.09016922348588705,1.025237804376334
1789757497709719300,0.59071923828125,2.6729420291692016,-0.13677081566303967,0.9930771177448332
1789757497719733200,0.600733154296875,2.28485631929636,-0.08332447215765715,1.344947897159308
1789757497729747200,0.610747314453125,1.090961007261276,0.5415837884530424,1.3820591919355094
1789757497739762200,0.62076220703125,1.1036831261903046,0.5090498845949769,1.4009659908488392
1789757497749776100,0.630776123046875,-0.0571557194173336,0.781277218452096,0.5426553997399285
1789757497759790000,0.6407900390625,-0.0573953733921051,0.7808692221730947,0.6041082318292931
1789757497769804300,0.65080419921875,-0.45051440125703807,1.054431604026258,-0.6299393135804683
1789757497779818000,0.66081787109375,-0.6751373956352472,1.2055889646992086,-1.1343574467215687
1789757497789833000,0.6708330078125,-0.925184754127264,1.2861091930910944,-1.4211395948275922
1789757497799847200,0.68084716796875,-1.1448667849719523,1.3054264725014566,-1.503856748741865
1789757497809861000,0.690861083984375,-1.1549971338421106,1.3318915778398512,-1.4933631195172667
1789757497819875300,0.700875244140625,-1.5294143838465213,1.128427106824517,-1.2391282462075353
1789757497829890300,0.710890380859375,-1.7071622298032045,1.0039768435522913,-0.9440936719324439
1789757497839904000,0.720904052734375,-1.8984096088021993,0.8584650875508785,-0.6403392001070082
1789757497849918200,0.730918212890625,-2.1099884126901625,0.6440998678147792,-0.3672335490453988
1789757497859932200,0.74093212890625,-2.1125456959575413,0.6502654047071933,-0.40237555304262784
1789757497869946400,0.7509462890625,-2.6721418187022206,0.6974845442607999,-0.1225092030738946
1789757497879961300,0.76096142578125,-2.973235473820567,0.7479115399450064,-0.04172492148492019
1789757497889975000,0.77097509765625,-2.969190582343936,0.7372901926875114,-0.04019068395523354
1789757497899989200,0.7809892578125,-3.6448639845520256,0.7664125345364212,-0.04787497768041212
1789757497910003200,0.791003173828125,-3.6362422866791486,0.7441063024431467,-0.03449623517328873
1789757497920017200,0.80101708984375,-3.9064217480957506,0.9069894644841551,-0.43459553211331364
1789757497930032000,0.8110322265625,-3.61799994302392,0.9945692559987306,-0.5382958162909374
1789757497940046000,0.821046142578125,-3.6100124514013525,0.9741825937911868,-0.549516298485361
1789757497950060000,0.83106005859375,-3.2246932836323974,0.9960708927333355,-0.4281278339365497
1789757497960074200,0.84107421875,-3.2162562946766613,0.9749056473687291,-0.43240280784200874
1789757497970089200,0.851089111328125,-2.7368805405944583,1.185963057731092,-0.633758798803389
1789757497980103200,0.861103271484375,-2.5073639289557934,1.5144281193777918,-0.8268165151599794
1789757497990117000,0.8711171875,-2.496319387850165,1.4878227287858723,-0.7955470782797783
1789757498000131000,0.881131103515625,-1.8360270946472883,2.2890289288058874,-1.0273946170840411
1789757498010145300,0.891145263671875,-1.8279846579670904,2.2707407001823188,-0.9926328811086713
1789757498020160300,0.90116015625,-0.8470131346881389,3.2015973624661562,-2.2275617759302255
1789757498030174200,0.91117431640625,0.3855763574004173,3.39584012388885,-2.0702273340575394
1789757498040188200,0.921188232421875,1.5473498535096644,3.743978438776731,-2.295285066591203
1789757498050202000,0.9312021484375,2.494298111155629,4.022500488863885,-2.475137191350758
1789757498060216000,0.941216064453125,2.496930213224888,4.015545555159449,-2.485049513556063
1789757498070231300,0.951231201171875,4.741349892714619,4.009391708704829,-2.245366312690079
1789757498080245200,0.961245361328125,5.6496974938094615,3.898037366110086,-1.8435997218586504
1789757498090259200,0.97125927734375,6.497655800393224,3.727456635303795,-1.349949943230301
1789757498100273200,0.981273193359375,7.177369417902827,3.392882150866091,-0.7732805206097662
1789757498110288100,0.9912880859375,7.212512042954564,3.3146921189874408,-0.864268951524049
1789757498120302000,1.001302001953125,6.168154381436109,3.5113854884326456,-0.6027786271933466
1789757498130316300,1.01131640625,5.621209065949916,2.998441226747632,0.012083382634073495
1789757498140330000,1.021330078125,5.07841210231483,2.9229759436577556,-0.17381669878652317
1789757498150344200,1.03134423828125,4.623859239321947,3.1927178904399276,-0.47597164472714065
1789757498160359200,1.041359130859375,4.652945048552751,3.1344869430065154,-0.46115255351886153
1789757498170373000,1.051373046875,4.869695117598772,2.8333886117130516,-0.5012505359556526
1789757498180387300,1.06138720703125,4.738946923226118,1.7389803866073488,-0.10219610842606053
1789757498190401000,1.071401123046875,4.7252954144924875,1.768577652491629,-0.15605158072160555
1789757498200416000,1.081416015625,4.34333841663301,-1.0043439232990146,0.8328815142873675
1789757498210430200,1.09143017578125,4.325727356618643,-0.965489291986823,0.7868759152419864
1789757498220444200,1.101444091796875,3.893214475998282,-2.023833685542643,0.9803134977616369
1789757498230458400,1.111458251953125,1.8658610918968914,-3.3917107689991592,0.6016803470952437
1789757498240472000,1.12147216796875,0.6887210998296738,-3.613148119078576,0.07523421428035944
1789757498250487000,1.131487060546875,-0.5703881503939628,-3.6141403449863194,-0.4641376337442547
1789757498260501200,1.141501220703125,-0.5399333908975124,-3.6767610518112774,-0.4156764582403004
1789757498270515200,1.15151513671875,-2.892394927433133,-3.6841131681397554,-1.0669115847624837
1789757498280529200,1.161529052734375,-3.664229194757342,-3.8338510174036022,-1.0289780138179658
1789757498290543000,1.171543212890625,-3.6372067477971313,-3.8840710923388597,-1.0339217538304626
1789757498300558000,1.18155810546875,-4.402008632266521,-3.9620805069535967,-0.49834575442485507
1789757498310572000,1.191572021484375,-4.393763951012492,-3.9745822611302133,-0.5506008423190564
1789757498320586200,1.201586181640625,-4.403064278799295,-4.322965198428928,0.21491054212655872
1789757498330600200,1.21160009765625,-4.4119957732737065,-4.35118913013339,0.3729825775587931
1789757498340615200,1.221615234375,-4.428969704428315,-4.313300713504851,0.30510552110821004
1789757498350629000,1.231629150390625,-3.959349620684981,-4.759910508538782,0.7216081279743463
1789757498360643000,1.24164306640625,-3.979683968183398,-4.716325049312412,0.6800336432442069
1789757498370657300,1.2516572265625,-4.037932743534445,-4.8641865833103655,0.7501625337421893
1789757498380671200,1.261671142578125,-4.175456131130456,-4.82532201512605,0.6641818479873239
1789757498390686200,1.271686279296875,-4.190689356097579,-4.794890636505186,0.6596721885431558
1789757498400700200,1.2817001953125,-3.983710739481449,-4.36424384201765,0.22366342863105237
1789757498410714000,1.291714111328125,-3.9953193442106243,-4.339789199718833,0.21386669562943278
1789757498420728300,1.301728271484375,-3.781782976514101,-3.894236512522399,0.019299597623199223
1789757498430743300,1.311743408203125,-3.4552398228406904,-3.404655883029103,0.2506388946443796
1789757498440757500,1.321757568359375,-3.2787720798224207,-3.266644419655204,0.5218749524418265
1789757498450771500,1.331771484375,-3.168574506047368,-3.0056632869556545,0.7620549238488078
1789757498460785400,1.341785400390625,-3.165481800729036,-3.008601970756054,0.7421189280182122
1789757498470799400,1.35179931640625,-2.5632372073471545,-1.8570768969386815,0.9213615425772964
1789757498480814300,1.361814453125,-2.006692288866639,-0.9881579276517033,0.8464131960336119
1789757498490828500,1.37182861328125,-2.008251208746433,-0.9783648479118943,0.8101645825013518
1789757498500842500,1.381842529296875,-0.01338788936138153,0.5187935722351074,0.6378974329780787
1789757498510856400,1.3918564453125,-0.031016485032439232,0.5675608180135489,0.5770926895339041
1789757498520871400,1.401871337890625,2.7492046001166104,1.375602124750614,0.9459312626231461
1789757498530885400,1.411885498046875,4.374048027673363,1.4218614793613553,1.4478160048291087
1789757498540899600,1.421899658203125,4.328538322386145,1.5487240644723177,1.3541706296652554
1789757498550913500,1.43191357421875,7.247820087701082,0.6505468519970774,3.075144527199864
1789757498560927500,1.441927490234375,7.19610743612051,0.788048904544115,3.034937312234938
1789757498570942500,1.4519423828125,8.984300181925295,0.43166649292409415,3.1345196762323377
1789757498580956400,1.461956298828125,9.338180255335569,0.8822218107134103,2.477024320271611
1789757498590970600,1.471970703125,9.297365429866314,0.9754290867209434,2.521471364763379
1789757498600984600,1.481984619140625,8.560925716528295,1.6456868936210869,0.9972507501676678
1789757498610998300,1.491998291015625,8.531986622291804,1.718768788705766,1.0223745969649403
1789757498621013500,1.502013427734375,6.777837015864253,1.643407550512254,0.20395868427306413
1789757498631027500,1.51202734375,6.104017132568359,1.8160434602826834,-0.06194302675910294
1789757498641041400,1.52204150390625,6.0864504962176085,1.8811007466048002,-0.09199885006584227
1789757498651055600,1.5320556640625,4.882690208250284,1.7268951042771339,0.40723143210858104
1789757498661070600,1.542070556640625,4.866682491779327,1.807617869503796,0.34025004585608837
1789757498671084300,1.552084228515625,4.150891598716378,1.3416282512173057,0.8319356848046183
1789757498681098500,1.562098388671875,3.3473809211462733,0.3103264706268906,1.8810010856226085
1789757498691112400,1.572112548828125,3.1162381696105,-0.16164982085376978,2.3679398223049937
1789757498701126700,1.582126708984375,3.092107352438569,-0.06374620372354983,2.3552558434292674
1789757498711141600,1.5921416015625,1.7837901269316672,-0.8300994092881679,2.2407490281529725
1789757498721155300,1.6021552734375,0.7777274170160293,-0.7086617718353867,1.6592336268059908
1789757498731169500,1.61216943359375,-0.3945224649220705,-0.46454716439321636,0.9223043763853609
1789757498741183500,1.62218359375,-0.4044306954741478,-0.4733383736141026,1.0111937891937792
1789757498751198500,1.632198486328125,-2.7402888877332208,-0.18726546975597738,-0.29804164713658393
1789757498761212700,1.642212646484375,-3.597189794707298,0.008346680323779582,-0.7195993454352021
1789757498771226400,1.652226318359375,-4.0675533902943135,0.2505046007402241,-0.9211484112832695
1789757498781240600,1.662240478515625,-4.338727123445272,0.4968029819622636,-0.995350907895714
1789757498791254500,1.672254638671875,-4.330806267318129,0.46261458889544005,-0.98449487509951
1789757498801269500,1.68226953125,-4.694450778895616,0.5182026206046343,-0.9348186247173697
1789757498811283500,1.692283447265625,-4.690474276480079,0.33159926801919937,-0.7811603140741586
1789757498821297400,1.70229736328125,-4.646973572927713,0.11938888822942971,-0.672359893745929
1789757498831311400,1.712311279296875,-4.654912549233436,-0.11217267324030399,-0.6432295877862722
1789757498841326600,1.72232666015625,-4.646582527783512,-0.13390695066452027,-0.6639166211798787
1789757498851340500,1.732340576171875,-4.63340331273675,-0.4237982437670231,-0.942276612573117
1789757498861354200,1.742354248046875,-4.617742802268267,-0.4788990764811635,-1.0979142604652792
1789757498871368400,1.752368408203125,-4.527440015530586,-0.5534656571656466,-1.125231014196947
1789757498881382400,1.76238232421875,-4.377515996044874,-0.5837924063682556,-1.0354553931385277
1789757498891397400,1.7723974609375,-4.362631146124005,-0.6207058404847979,-1.068026925593242
1789757498901411600,1.78241162109375,-3.8723353540986776,-0.45744595408588645,-0.9131300861310213
1789757498911425300,1.79242529296875,-3.7980034589529037,-0.3228206260189414,-0.9373599066980183
1789757498921439500,1.802439453125,-3.7801258569568392,-0.36917467317581176,-0.9632676704145967
1789757498931454500,1.812454345703125,-3.2761171813994645,-0.1308779582321644,-0.8164533073820174
1789757498941468400,1.822468505859375,-3.2633582375913854,-0.17584201233536004,-0.8040650965824723
1789757498951482600,1.832482666015625,-2.77507261634469,0.1495125160753727,-0.8677627849891781
1789757498961496300,1.842496337890625,-1.3284329618185757,1.4111618061706424,-1.4475696288526056
1789757498971510500,1.852510498046875,-0.33399113159179683,2.0895763237804172,-1.6925030053317547
1789757498981525500,1.862525390625,0.7258627897441386,2.700584361593425,-1.8801549901872872
1789757498991539500,1.87253955078125,0.7269312957584857,2.68758605607152,-1.8516811753749847
1789757499001553400,1.882553466796875,3.3986125112116334,3.31750103892833,-2.1025006872832774
1789757499011567400,1.8925673828125,4.462828134888411,3.206928202100098,-1.9323951727733015
1789757499021582300,1.902582275390625,5.346925091823935,2.902671114514768,-1.6883428169123826
1789757499031596500,1.912596435546875,6.223642459902167,2.676156315040588,-1.4264230881884694
1789757499041610500,1.922610595703125,6.224580617535114,2.665936242060363,-1.4040414527714251
1789757499051624400,1.93262451171875,7.390243522298336,2.515124918346107,-1.0428628929160535
1789757499061638400,1.942638427734375,7.482639481922984,2.2260645231097937,-0.4601100587286055
1789757499071653400,1.9526533203125,6.965198493340611,1.8049375443786382,0.16691855503693223
1789757499081667300,1.962667236328125,6.196927471455932,1.6494269569322466,0.5143162806905806
1789757499091681500,1.972681640625,6.197369370004535,1.6273904816910623,0.6049387278366833
1789757499101695500,1.982695556640625,4.827852118125557,1.971896869817376,0.1540957522124052
1789757499111709400,1.99270947265625,4.2414065669000145,1.8477616638436913,-0.16434735284205526
1789757499121724400,2.002724365234375,3.643109834361076,1.4571689395859837,-0.4555263476675376
1789757499131738400,2.01273828125,3.1116993571370837,0.9527230416551232,-0.8443461074359715
1789757499141752600,2.022752685546875,3.0991999410480258,0.9803399473771452,-0.7633481054645032
1789757499151766500,2.0327666015625,2.749570510819554,-0.22986001824885605,-1.5266929960586129
1789757499161781500,2.042781494140625,2.8638457092970606,-0.7957873898416757,-1.4688234292834996
1789757499171795500,2.05279541015625,2.851759550184011,-0.761851217970252,-1.4124424936309457
1789757499181809400,2.062809326171875,2.408397943291068,-2.0072996071100233,-0.7017888173259794
1789757499191823400,2.0728232421875,1.8164806826561688,-2.3850673365861175,-0.20836937685478477
1789757499201838600,2.082838623046875,1.8353163160294292,-2.440284196895361,-0.2153560208717361
1789757499211852500,2.0928525390625,-0.38485213477909563,-2.6604940510064363,0.41238516160994765
1789757499221866500,2.102866455078125,-1.5751660811960697,-2.5049203351959584,0.47887248073518274
1789757499231880400,2.11288037109375,-2.694520823770761,-2.2075214429423213,0.4152060642495751
1789757499241894400,2.122894287109375,-3.611746143326163,-1.9462962723538277,0.28985899826809763
1789757499251909400,2.132909423828125,-3.571596503767371,-2.034738233655691,0.17300602172445506
1789757499261923600,2.142923583984375,-4.791024900987744,-2.0023308787867427,0.2600308827700093
1789757499271937300,2.152937255859375,-4.968986681956053,-2.1525179331228137,0.322360241965577
1789757499281951500,2.162951416015625,-4.869186583554744,-2.26094645139873,0.3193264272276312
1789757499291966500,2.172966552734375,-4.862894205412268,-2.2625690841645003,0.252387491877377
1789757499301980400,2.18298046875,-4.44100734822452,-2.3168775974571703,0.21335436219312248
1789757499311994600,2.19299462890625,-4.380346251034736,-2.3020786722540856,0.10116115762144326
1789757499322008300,2.20300830078125,-4.381064043915272,-2.2207196549504995,-0.005956570316851139
1789757499332022500,2.2130224609375,-4.420893950000405,-2.149497708518803,-0.14515607443153858
1789757499342037500,2.22303759765625,-4.418064864054322,-2.1532140986934305,-0.15746647075451908
1789757499352051500,2.233051513671875,-4.521494843390584,-2.1266873262956736,-0.3662047905195504
1789757499362065700,2.243065673828125,-4.496843217214941,-2.024713390986621,-0.4635802190572023
1789757499372079400,2.253079345703125,-4.723372921997308,-1.7936355213806032,-0.6023235038369894
1789757499382094300,2.26309423828125,-5.0483670926630495,-1.4446645550608634,-0.804830235736072
1789757499392108500,2.273108642578125,-5.032806535437703,-1.0627391213834285,-0.9626623979978263
1789757499402122500,2.28312255859375,-4.53905095834732,-0.6261360488399863,-0.923266499415785
1789757499412136400,2.293136474609375,-3.523171203294396,-0.27871815718114373,-0.5845687245029956
1789757499422150400,2.303150390625,-3.5299633476525543,-0.257566648080945,-0.606780629376322
1789757499432165400,2.313165283203125,-0.45953123592734335,0.018095920921862123,0.4516458895049989
1789757499442179300,2.323179443359375,0.7382938167721033,0.07994827372282742,1.0786954729933291
1789757499452193500,2.333193603515625,0.7522106984436512,0.07254793433845043,0.9923363093148916
1789757499462207500,2.34320751953125,2.5484891355484725,0.010305120915174484,2.237421198904514
1789757499472222500,2.353222412109375,3.0895658512622117,0.019370470902323723,2.6622856105983255
1789757499482236700,2.363236572265625,3.47795609703958,-0.0013689502656459808,2.9881650396659967
1789757499492250400,2.37325048828125,3.500890397903323,-0.049504035620391365,2.979130961599946
1789757499502264600,2.3832646484375,4.163496228745579,-0.35252544393092394,2.971985766020417
1789757499512278500,2.393278564453125,4.630462583109736,-0.37090544249117374,2.5784073039501902
1789757499522293500,2.40329345703125,5.298151416304707,-0.13485153803825378,1.900541652394831
1789757499532307700,2.4133076171875,5.888765777647495,0.1280003569692373,1.1438117960263043
1789757499542321400,2.4233212890625,5.885853689593076,0.10662702181190252,1.2566586422011254
1789757499552335600,2.433335693359375,5.801675523215532,0.7573352018505335,0.1925475748773664
1789757499562350600,2.4433505859375,5.381604191017151,1.1107815600186586,0.12548048310279847
1789757499572364500,2.453364501953125,5.393785042676329,1.0747589372619986,0.1853746145080775
1789757499582378800,2.463378662109375,3.458521328729391,1.7358669307619332,0.5102938202414662
1789757499592392400,2.473392333984375,3.468497363820672,1.7109256739899514,0.5392534458093344
1789757499602406400,2.483406494140625,2.563992994150519,2.4723010911419987,0.6755686997245997
1789757499612421600,2.493421630859375,2.545444361025095,2.5100994913995263,0.6787816704217344
1789757499622435600,2.503435546875,2.54731892272532,1.775862256541848,1.474002000965178
1789757499632449500,2.513449462890625,3.4581466501981017,1.1217422222331166,1.7350775339499116
1789757499642463500,2.52346337890625,3.404503322815895,1.2388088049948214,1.7504042824193835
1789757499652478500,2.533478515625,4.129237985312939,-0.10017010075747966,1.8856826675675809
1789757499662492400,2.543492431640625,3.693801326200366,-0.5063619606852531,1.435269534727931
1789757499672506600,2.553506591796875,2.899464719688892,-0.7546177595853805,0.9670097795523702
1789757499682520600,2.5635205078125,1.8221826936900614,-0.8263175526618957,0.5419159430168569
1789757499692535600,2.57353564453125,1.8229437411904335,-0.8349614623665809,0.6235022662702947
1789757499702549500,2.583549560546875,-0.7853145111441612,-0.9123886931791901,0.13597133584842086
1789757499712563500,2.5935634765625,-1.9028104741096497,-0.9438885778144002,0.15913849561996757
1789757499722577700,2.60357763671875,-2.807103831377625,-0.9795815302252769,0.37992001213915644
1789757499732591600,2.613591552734375,-3.6055794373899697,-0.9551257188826798,0.5555480529302731
1789757499742606600,2.623606689453125,-3.5757355032682416,-1.0208347471117973,0.5125592809554189
1789757499752620500,2.63362060546875,-4.971413616842031,-1.344266783027351,0.6919313671130687
1789757499762634500,2.643634521484375,-5.314213493311405,-1.6108432515159248,0.6447863887742161
1789757499772648400,2.6536484375,-5.3370881729424,-1.8092428403571248,0.5441153892898932
1789757499782663700,2.66366357421875,-5.123698520240187,-1.9412144390448927,0.4297286567293107
1789757499792677600,2.673677734375,-5.1301475502491,-1.9235899350270629,0.39383298482056706
1789757499802691600,2.683691650390625,-4.4201381631970404,-2.4747835556074977,0.47746513468790797
1789757499812705500,2.69370556640625,-4.083463491609693,-2.670789235049486,0.472628727507405
1789757499822719500,2.703719482421875,-4.090004291555285,-2.6540003050729633,0.454096534060128
1789757499832734500,2.713734375,-3.75280238122344,-2.7012498397648335,0.388842336926423
1789757499842748700,2.723748779296875,-3.7456694606035947,-2.715489962041378,0.3763130006231367
1789757499852762400,2.733762451171875,-4.185944791918993,-2.649484873475134,0.1573565441066399
1789757499862776600,2.743776611328125,-4.220373131221533,-2.4667674224123357,-0.025347682148404417
1789757499872791600,2.75379150390625,-4.247378042525053,-2.257228015397489,-0.218726045294106
1789757499882805500,2.763805419921875,-4.342818776673078,-1.960514767320454,-0.438785019692406
1789757499892819700,2.77381982421875,-4.317169371631741,-2.014378167194128,-0.4375243886394426
1789757499902833400,2.78383349609375,-4.070884580543637,-1.4092565570712088,-0.7082366782911121
1789757499912847600,2.79384765625,-3.9503877310723063,-0.8382365385144949,-0.8628700445115566
1789757499922862600,2.803862548828125,-3.6283383816868064,-0.2744382879048586,-0.9717237293969839
1789757499932876500,2.81387646484375,-3.09432444396615,0.1442509422853589,-1.012158907898888
1789757499942890800,2.823890869140625,-3.0764404122292994,0.11023790578544139,-1.0199954467434436
1789757499952904400,2.833904541015625,-1.4305892679572105,0.7904106652393936,-1.1606757640004157
1789757499962919400,2.84391943359375,-0.5068178877592087,1.3890665864795446,-1.3283948217652737
1789757499972933600,2.85393359375,0.3379793244451284,1.9998484143212436,-1.5111030666083096
1789757499982947600,2.863947509765625,1.0333651428610087,2.3962556700766084,-1.6796289107114075
1789757499992961500,2.87396142578125,1.0316232676297425,2.4004963763862848,-1.6862762397713957
1789757500002976800,2.883976806640625,2.2673042959928513,2.7261490109607576,-1.8257161285132169
1789757500012990500,2.893990478515625,2.8063170649141074,3.003136691087484,-1.896099286033213
1789757500023004400,2.90400439453125,3.3691666364967823,3.3606089437708255,-1.921625941477716
1789757500033018600,2.9140185546875,3.962104472351074,3.6796824922159312,-1.8263138021454215
1789757500043032600,2.924032470703125,3.9385482401967047,3.7225495740398764,-1.7933726326607167
1789757500053047600,2.934047607421875,5.039586989358067,4.1261087473765015,-1.1490221510857344
1789757500063061500,2.9440615234375,5.492845720887184,4.2340117804735895,-0.7920665426876395
1789757500073075500,2.954075439453125,5.4609746648520225,4.2968610353574155,-0.757916947261244
1789757500083089700,2.964089599609375,5.749723217660188,4.421281488013268,-0.6018497488453984
1789757500093104600,2.974104736328125,6.203523800981045,4.406834444987774,-0.5944395091215148
1789757500103118600,2.98411865234375,6.555332328814267,3.5273315378442405,-0.4439736013114452
1789757500113132500,2.994132568359375,6.516673220074177,3.614816344551742,-0.44082258993461726
1789757500123146500,3.004146484375,6.47130964525938,1.800527034460008,-0.18237510389853268
1789757500133160700,3.01416064453125,6.066437635758519,0.8802221613287925,-0.1209630787435919
1789757500143175700,3.02417578125,6.044924892130494,0.9321586847931146,-0.11565635063759983
1789757500153189600,3.034189697265625,5.416019670838117,0.0662140551418066,-0.0971095441430807
1789757500163203600,3.04420361328125,4.482427153849602,-0.5253276501789689,-0.16652564672920853
1789757500173217500,3.054217529296875,1.7695336380422115,-1.1247042869091033,-0.3684513273373246
1789757500183232500,3.064232421875,0.18073592185676096,-1.268925710839033,-0.3779195590369403
1789757500193246700,3.074246826171875,0.20598726749122143,-1.330491355653107,-0.3525212061472237
1789757500203260700,3.0842607421875,-1.2892811011254788,-1.3893518331617116,-0.2178298819056712
1789757500213274400,3.0942744140625,-2.516641460388899,-1.3740496346116065,-0.03836975213838741
1789757500223289600,3.10428955078125,-4.099374761968851,-1.5036302465096114,0.5813417618131265
1789757500233303600,3.114303466796875,-4.098281706035137,-1.506227277265489,0.5845350414291024
1789757500243317500,3.1243173828125,-4.295110100036859,-1.6323042649567125,0.8466345836993306
1789757500253331700,3.134331787109375,-4.312269324630499,-1.7245511714994906,0.9339062591128051
1789757500263345400,3.144345458984375,-3.5351048021942373,-2.060497236551344,0.5718597207838669
1789757500273360400,3.1543603515625,-3.271660201990604,-2.107204919451475,0.5586123724043369
1789757500283374600,3.16437451171875,-3.3944437010943886,-2.2456728944212196,0.6492470945101231
1789757500293388500,3.174388427734375,-3.4110604893743988,-2.2056088873192667,0.6573582125123589
1789757500303402800,3.18440283203125,-3.4343595318973064,-2.5332310684010384,0.6257836552057415
1789757500313417500,3.19441748046875,-3.4874405492216347,-2.6197227724179624,0.29635818756166843
1789757500323431400,3.204431396484375,-3.490118243998289,-2.6132532841429112,0.30475678073577583
1789757500333445600,3.214445556640625,-3.885605170038342,-2.671296600049734,0.07447387916604056
1789757500343459600,3.22445947265625,-3.8801626867234704,-2.684873582242429,0.08145351805347018
1789757500353474600,3.234474609375,-3.9638428404510018,-2.765928940424323,0.1408614094449207
1789757500363488500,3.244488525390625,-4.2313732486635445,-2.632854933452606,-0.00940413065457251
1789757500373502500,3.25450244140625,-4.26502709646225,-2.5323016785964367,-0.0692771233737003
1789757500383516700,3.2645166015625,-4.187880143895745,-2.4449548190549013,-0.04236508711855858
1789757500393530600,3.274530517578125,-4.16748559064269,-2.4929139633208512,-0.04747844807691872
1789757500403545600,3.284545654296875,-4.14010833889544,-2.3018925020322203,0.17218011056063695
1789757500413559600,3.2945595703125,-4.113818882384896,-2.05594468781352,0.2598882228963077
1789757500423573500,3.304573486328125,-3.937556891071796,-1.7243553566664456,0.3844199173742905
1789757500433587500,3.31458740234375,-3.5351644234269854,-1.4620114111810922,0.6231231307595968
1789757500443602000,3.324601806640625,-3.51314957549572,-1.5059183574467896,0.551565595697984
1789757500453615900,3.334615966796875,-2.5362936708420514,-0.7956415516301989,0.8164910821091383
1789757500463630000,3.344630126953125,-1.6431307793974876,-0.32541970260143277,0.7167737666204571
1789757500473643800,3.354643798828125,-0.5037339502692222,0.013148819908499717,0.6895638342641294
1789757500483658800,3.36465869140625,0.8911398611843585,0.31265286774784323,0.8029599848847836
1789757500493673000,3.3746728515625,0.8745125515103339,0.3606584815040231,0.721070879292488
1789757500503687000,3.38468701171875,3.876487213081121,0.8584311852812766,1.4441902155473827
1789757500513700900,3.394700927734375,5.25228515266478,1.0065966706618665,1.7526373021684587
1789757500523714800,3.40471484375,6.491781939923763,1.3129162437349557,1.7626441707894205
1789757500533729800,3.414729736328125,7.486285729470849,1.6721952535793185,1.4914485180675983
1789757500543743700,3.42474365234375,7.451779064235091,1.7833640104740858,1.3948157976560294
1789757500553758000,3.434758056640625,8.389948972141742,1.2792550894126296,1.3204267654955386
1789757500563771600,3.444771728515625,8.544371472090482,1.1561156164780257,1.553146410959214
1789757500573786600,3.45478662109375,8.503300626033544,1.296255324052274,1.4839971791483462
1789757500583800800,3.46480078125,9.022858168378471,1.0949980076923966,2.090080181649327
1789757500593814800,3.474814697265625,8.987298194697498,1.2242866509065031,2.0432984105996788
1789757500603829000,3.4848291015625,8.425410746145248,1.0775158347547054,2.547993460986018
1789757500613844000,3.494843994140625,8.403339784112573,1.167335221889615,2.5150983226001262
1789757500623857700,3.504857666015625,5.770542133805155,0.7927458301886916,2.8911668469429013
1789757500633872000,3.514871826171875,3.9332612397044895,0.47714375724643465,2.821974068251252
1789757500643885800,3.5248857421875,3.911167481318116,0.5316989387765526,2.863831680771708
1789757500653900800,3.53490087890625,1.5982786612361668,-0.18702829999923706,2.042467074342072
1789757500663915000,3.5449150390625,0.5331459227144718,-0.4436337018325925,1.5464748242408037
1789757500673928700,3.5549287109375,-0.5717115079522133,-0.11959697802215814,0.7313269734341651
1789757500683943000,3.56494287109375,-1.3127327038615941,0.088189593975991,0.27587723466679454
1789757500693956900,3.574956787109375,-1.331981594210863,0.11108780061304568,0.40728886138424275
1789757500703971800,3.584971923828125,-2.3995646484941244,0.17245836124643682,0.11989493805542588
1789757500713985800,3.59498583984375,-2.7062480864435434,0.37514717171415685,0.1328372025411576
1789757500723999700,3.604999755859375,-2.942951394715905,0.44149157523736354,0.20361447394527493
1789757500734013700,3.615013671875,-3.2195997598856687,0.38361426354721184,0.22193587418608365
1789757500744029000,3.62502880859375,-3.2208161499381065,0.40071620499566196,0.18399682334885
1789757500754043000,3.63504296875,-3.6250627210170028,0.13456366100758313,0.024700433753430843
1789757500764056800,3.645056884765625,-3.7967625189810987,0.01023994672447443,-0.13718999092318115
1789757500774070800,3.65507080078125,-3.796579563629627,0.028905191966891286,-0.18665515583790837
1789757500784085800,3.665085693359375,-3.9223511386334895,-0.2630520937547087,-0.3727538468368351
1789757500794099700,3.675099609375,-3.922819925189018,-0.2481159520380199,-0.4025473659455776
1789757500804114000,3.685114013671875,-4.050964659065008,-0.40299847071394324,-0.4725244999479502
1789757500814127900,3.6951279296875,-4.169501606640219,-0.3632685178719461,-0.5507681617099791
1789757500824141800,3.705141845703125,-4.167303219813109,-0.3743058985844254,-0.5470834818478674
1789757500834156800,3.71515673828125,-4.580427509352565,-0.28598478718325493,-0.5603520556785166
1789757500844170800,3.725170654296875,-4.574741864931583,-0.31419089097008107,-0.5502446492925286
1789757500854185000,3.73518505859375,-4.96733248500824,-0.23022841316983103,-0.5193410500500351
1789757500864199000,3.745198974609375,-5.110915026512742,-0.16547186335995792,-0.524380870848149
1789757500874214000,3.7552138671875,-5.102737565276026,-0.19915712921023368,-0.5219656994652003
1789757500884227800,3.765227783203125,-5.095995105278492,-0.22349603617489336,-0.564505156769976
1789757500894241800,3.77524169921875,-5.0888364656955,-0.2523589964352548,-0.5619293879978359
1789757500904255700,3.785255859375,-4.703859827753901,-0.3057505410134792,-0.6537494474306702
1789757500914271000,3.79527099609375,-4.398875010415911,-0.291032279831171,-0.7986322578787803
1789757500924285000,3.805284912109375,-4.3890755009353155,-0.32952129270136354,-0.7935892222102731
1789757500934299000,3.815298828125,-3.7400346695870157,0.011354337707161903,-0.872840380514413
1789757500944312800,3.825312744140625,-3.724643039187789,-0.04209463614672422,-0.877851778935641
1789757500954327800,3.835327880859375,-3.254817788261175,0.5911287406057119,-0.6856175808563828
1789757500964341800,3.845341796875,-2.9820278520852326,0.9897840675488114,-0.5139582610331476
1789757500974356000,3.85535595703125,-2.9639135187238455,0.928301132582128,-0.5112308088306338
1789757500984369700,3.86536962890625,-1.9354197812914846,2.1718711606293915,-0.5846924239479006
1789757500994384600,3.875384521484375,-1.9217939915210007,2.1251684461653233,-0.5754113853834569
1789757501004398800,3.88539892578125,-0.24305998382270336,3.3353310023903844,-1.1167390071183443
1789757501014412800,3.895412841796875,0.7214654315680264,3.599539864964783,-1.3516150999635457
1789757501024427000,3.905427001953125,0.726184861305356,3.587286240330338,-1.3591225529842077
1789757501034440700,3.915440673828125,2.713291575214267,3.7716564270362256,-1.4390240649558603
1789757501044455700,3.92545556640625,2.7129198192924258,3.7752185034319754,-1.4465125210151075
1789757501054470000,3.935469970703125,4.251993427366018,4.014944958917797,-1.407238495247066
1789757501064483800,3.94548388671875,4.802244798660278,4.190721212540566,-1.412566704532504
1789757501074498000,3.955498046875,4.79647849021852,4.20211909712851,-1.3918620624169706
1789757501084513000,3.965512939453125,5.826431194287538,4.186221563033759,-0.9853986920714378
1789757501094526700,3.975526611328125,5.81827828297019,4.204694208313525,-0.9616831046368927
1789757501104541000,3.985541015625,6.298298180174827,3.559158754737675,-0.3856242881953716
1789757501114555000,3.995554931640625,6.306343539464473,3.0453961624071,-0.07220810792483388
1789757501124569900,4.00556982421875,6.30010143020451,3.0554268502950666,-0.0365654974617064
1789757501134584000,4.015583984375,5.3178977347820995,2.0316542961657045,0.3383618940219283
1789757501144597800,4.02559765625,5.312480970430374,2.033114431846142,0.4028180726457387
1789757501154611700,4.03561181640625,4.43516972811222,1.7675807504087686,-0.14821177220772952
1789757501164626000,4.0456259765625,4.142957298585772,1.4445666476443408,-0.2518975894685834
1789757501174641000,4.055640869140625,4.1403678666144605,1.4428759180784225,-0.19468513489533215
1789757501184654800,4.06565478515625,3.710923725914955,0.8464452716723084,-0.08126943932399153
1789757501194668800,4.075668701171875,3.7110172494173046,0.8468500530809163,-0.08577577429991215
1789757501204682800,4.085682861328125,3.2281635900914667,0.03965776438862085,0.43298535697031765
1789757501214697700,4.09569775390625,2.9222692566931245,-0.3508767999410629,0.5586809075959026
1789757501224712000,4.1057119140625,2.9309651888459918,-0.3702452250167727,0.5134476080972701
1789757501234726000,4.115725830078125,1.9519933149516582,-0.9309303120419382,0.6072872637242078
1789757501244739800,4.12573974609375,1.9690140078574419,-0.9742118198856711,0.5607688928510993
1789757501254754800,4.1357548828125,0.7929121266663074,-1.0145637040182947,0.5731806306567043
1789757501264768800,4.145768798828125,0.3794844702661037,-0.9843681799799203,0.4371670631017536
1789757501274783000,4.155782958984375,0.4010112424194813,-1.0345277568995952,0.383293726355955
1789757501284797000,4.165796875,-0.35118367393314837,-0.9593427520558238,0.3372800170693546
1789757501294811600,4.175811767578125,-0.5073457110255957,-1.1830129757538437,0.34315132025554773
1789757501304825900,4.185825927734375,-0.6214063899695873,-1.3795502778545021,0.3610490151915699
1789757501314839800,4.19583984375,-0.6800210760235786,-1.503095993502438,0.33738450035713613
1789757501324854000,4.20585400390625,-0.6663596304178238,-1.5329197616189718,0.3110595341417938
1789757501334869000,4.215868896484375,-1.0298550889134406,-1.5559554770305752,0.28888942258358
1789757501344882700,4.225882568359375,-1.2705442519515753,-1.5003174686998129,0.046758317108824846
1789757501354897000,4.23589697265625,-1.5038918200552462,-1.4371145780727266,-0.2330981233872473
1789757501364910800,4.245910888671875,-1.733614183399081,-1.3783172289282082,-0.5224357281297445
1789757501374924800,4.2559248046875,-1.723476235744357,-1.4103744551852344,-0.5038361685346812
1789757501384940000,4.26593994140625,-2.0910668545991182,-1.4751459103032947,-1.0082760020509363
1789757501394953700,4.27595361328125,-2.2689877190351484,-1.4962854367047547,-1.2002300680145621
1789757501404967700,4.2859677734375,-2.459726563990116,-1.4982389088600874,-1.3574103422388433
1789757501414982000,4.29598193359375,-2.7477777821838854,-1.4913415505617855,-1.445691706151515
1789757501424996900,4.305996826171875,-2.7375498181581497,-1.5192457487925886,-1.4367115502297878
1789757501435010800,4.3160107421875,-3.2937674043804406,-1.4166013668760657,-1.4153893607378005
1789757501445025500,4.326025634765625,-3.5165351262807842,-1.3391186064839362,-1.2596914340257643
1789757501455039500,4.33603955078125,-3.70431219882071,-1.2640966832473874,-1.0476388751462102
1789757501465054500,4.346054443359375,-3.816617558529973,-1.246111529223621,-0.8437687459394335
1789757501475068400,4.356068359375,-3.80671984937191,-1.2597709290027617,-0.8817786700557917
1789757501485082400,4.366082275390625,-4.122571513161063,-1.214460253418982,-0.5014565799217671
1789757501495096300,4.376096435546875,-4.122499616968631,-1.2417083258286117,-0.4218926293414086
1789757501505111600,4.386111572265625,-4.073039712750911,-1.3272764852598309,-0.4507609233640134
1789757501515125500,4.39612548828125,-4.010142234811187,-1.4164777404963969,-0.5106755861006677
1789757501525139500,4.406139404296875,-4.0133080053657295,-1.4073194515287875,-0.5157308236636221
1789757501535153400,4.4161533203125,-3.7863790721327066,-1.490538709746301,-0.6455717669982463
1789757501545168400,4.42616845703125,-3.670383625733852,-1.3813894759804008,-0.707335564732924
1789757501555182300,4.436182373046875,-3.5529485019207,-1.2365303386688231,-0.7539465823255479
1789757501565196500,4.446196533203125,-3.353775006097555,-1.154962939311564,-0.7846278440542519
1789757501575210200,4.456210205078125,-3.364834744772315,-1.1295476352870464,-0.7785692746676505
1789757501585224400,4.466224365234375,-2.8286440475344654,-0.8216250109314918,-0.6408529948480427
1789757501595239400,4.476239501953125,-2.498953243485093,-0.6857920606404543,-0.4482650879602879
1789757501605253400,4.48625341796875,-2.3396949939429756,-0.5088102306202054,-0.3132073598254472
1789757501615267600,4.496267578125,-2.3590806624144314,-0.46312195389568805,-0.2991216974582523
1789757501625281300,4.50628125,-2.1595026774436232,-0.4175046965807676,-0.19959354786612094
1789757501635296300,4.516296142578125,-1.702356875348091,-0.35724078201502557,-0.08854476408921182
1789757501645310500,4.526310546875,-1.472649709573388,-0.2744721901744604,0.038134719539806246
1789757501655324400,4.536324462890625,-1.032871806386113,-0.2183832232058048,0.08927717001698911
1789757501665338600,4.546338623046875,-0.1608580859541893,-0.05645780028104782,0.004463336084410548
1789757501675353600,4.556353515625,-0.19549685313701629,0.02738748088032007,0.0755316263243556
1789757501685367300,4.5663671875,0.8305313709646462,0.2530772277072072,0.0360936421662569
1789757501695381500,4.576381591796875,1.3395949918240309,0.14455430914610623,-0.00519325779415667
1789757501705395500,4.5863955078125,2.136594095543027,0.14623539410084485,-0.0437612907173112
1789757501715410400,4.596410400390625,2.6865666498959064,0.3457461590543389,-0.11649218040723353
1789757501725424600,4.606424560546875,2.6753818235367537,0.37245296419411894,-0.043620347876660526
1789757501735438300,4.616438232421875,2.714116920122504,0.45491818917393684,0.1814990151837468
1789757501745452300,4.626452392578125,2.620797415912151,0.33256782079041003,0.37136473056599495
1789757501755467500,4.636467529296875,2.3644015651762484,0.30180297243148085,0.503160972686857
1789757501765481500,4.6464814453125,1.946762428560853,0.36639468706846234,0.48060748783424495
1789757501775495400,4.656495361328125,1.9590029014527797,0.324691972848773,0.5187615696616471
1789757501785509400,4.66650927734375,1.185513268136978,0.713829237601161,0.333972463423945
1789757501795523300,4.6765234375,0.8919593608736991,1.009217959076166,0.24759755418710408
1789757501805538300,4.686538330078125,0.5600701699972153,1.3479454715400934,0.26660956704057753
1789757501815552500,4.696552490234375,0.4471159909904003,1.6417597833052278,0.4926495886098593
1789757501825566500,4.70656640625,0.4471802883982658,1.6417366946905851,0.4749655729571357
1789757501835580400,4.716580322265625,1.3582634519368408,2.433700434590876,1.205439034834504
1789757501845595400,4.726595458984375,1.89400698992908,2.378480067150295,1.6163748744189739
1789757501855609300,4.736609375,2.8421435805767774,1.5499793252304195,2.269229126575589
1789757501865623600,4.74662353515625,3.9745390065103767,0.3777291510313749,2.9713097664549943
1789757501875637500,4.756637451171875,3.942152986690402,0.5091226575702429,2.883871429237723
1789757501885652500,4.766652587890625,4.870500004240871,-1.2451049825295806,3.0156358149155973
1789757501895666400,4.77666650390625,4.73767325002849,-1.7510314744070172,2.3097106284372506
1789757501905680400,4.786680419921875,4.087023814439774,-1.82814876248762,1.368721571456641
1789757501915694600,4.796694580078125,2.9044091903537512,-1.4648738148748874,0.5090497019318864
1789757501925709600,4.80670947265625,2.9097400299876925,-1.4999381139934063,0.6452250724524259
1789757501935723500,4.8167236328125,0.748936206817627,-0.39464521451890466,-0.3693738855423406
1789757501945737500,4.826737548828125,0.7646148374646902,-0.455055844078958,-0.28819782359022644
1789757501955751400,4.83675146484375,-0.30206688406467436,0.4561798796728253,0.022804792732559143
1789757501965766400,4.846766357421875,-0.851701584765315,0.6079425127625465,0.573265094069764
1789757501975780600,4.856780517578125,-0.8376970248103142,0.5582590289220214,0.5000308945002034
1789757501985794600,4.866794677734375,-1.736995642530918,0.4004632531479001,1.659898082064092
1789757501995808300,4.876808349609375,-2.102109642139077,0.27099136232137677,2.0205071714684366
1789757502005822500,4.886822509765625,-2.145207025587559,0.02823006918430328,2.141815629583597
1789757502015837400,4.89683740234375,-2.1966040353477,-0.17487462860792874,2.0571001414589585
1789757502025851400,4.906851318359375,-2.198528281408548,-0.1669344832584262,2.0470728145718575
1789757502035865600,4.916865478515625,-2.1618998017132283,-0.4158651126801967,1.2956975440390408
1789757502045879300,4.92687939453125,-2.1884493704646824,-0.3952206763193011,0.7387623841319233
1789757502055894300,4.936894287109375,-2.138197439086437,-0.3260109464928508,0.19539852559538556
1789757502065908500,4.946908447265625,-2.141494727066159,-0.24058920979499815,-0.2673402011363767
1789757502075922400,4.95692236328125,-2.150294119593501,-0.17114713251739738,-0.629699367344752
1789757502085936400,4.966936279296875,-2.152511211121082,-0.13069617192447186,-0.8377638064362108
1789757502095951400,4.976951416015625,-2.17013922227025,-0.06934329307824373,-0.8886902030099183
1789757502105965300,4.98696533203125,-2.270489355769753,0.030361820515990255,-0.7949159407693892
1789757502115979500,4.9969794921875,-2.485744802343845,0.10971651225984096,-0.5788236415123567
1789757502125993500,5.006993408203125,-2.688414908111095,0.16111381428092716,-0.2882783049479127
1789757502136008400,5.017008544921875,-2.8849487030804157,0.2705687529951334,-0.06397847354288679
1789757502146022400,5.0270224609375,-3.1258570618271824,0.4522346491783857,0.054162821211665865
1789757502156036400,5.037036376953125,-3.297287395200133,0.6497668075352907,0.09512745781461708
1789757502166050600,5.047050537109375,-3.399311014869809,0.8474792908951639,0.08453288896619342
1789757502176064500,5.057064453125,-3.4328894593447443,1.081861755004525,0.0163785134115722
1789757502186079500,5.06707958984375,-3.236348650112748,1.2236354935213922,-0.038448242468386885
1789757502196093400,5.077093505859375,-2.9550667799234387,1.3355240891233087,-0.036251408277545125
1789757502206107400,5.087107421875,-2.5587755517631767,1.4498621237039566,-0.06095743152154609
1789757502216121300,5.097121337890625,-2.0877111144304275,1.544867973566055,-0.17974354981854557
1789757502226136300,5.10713623046875,-1.5768109257936476,1.643370433372259,-0.3112892147118225
1789757502236150500,5.117150634765625,-1.010821887141466,1.6925547355189918,-0.4986922297749668
1789757502246164200,5.127164306640625,-0.3714648299396038,1.7322066546887158,-0.7213471389506012
1789757502256178400,5.137178466796875,0.3989268373608589,1.7902999472171066,-0.8991230419579893
1789757502266193400,5.147193359375,1.1346353138148784,1.7527815329447387,-0.9673707218192518
1789757502276207400,5.157207275390625,1.7485078011482953,1.7223092377915978,-1.0426286457687615
1789757502286221600,5.1672216796875,2.2980986627072095,1.6760907997131347,-1.1271531413659452
1789757502296235300,5.1772353515625,2.7015812636762857,1.6449956964865327,-1.1796729446109384
1789757502306250200,5.187250244140625,2.8637527703166006,1.584151059423387,-1.1744329250656067
1789757502316264400,5.197264404296875,2.794090036025643,1.5778028594404458,-1.1368302665758878
1789757502326278400,5.2072783203125,2.602918060350418,1.6568196975320577,-1.1853297282636166
1789757502336292600,5.217292724609375,2.569844642788172,1.7194173157423733,-1.3508480611138045
1789757502346307600,5.2273076171875,2.997446955013275,2.039084153905511,-1.3716842206545172
1789757502356321300,5.2373212890625,3.816104348310828,2.3481907273486256,-1.1569019445501267
1789757502366335500,5.24733544921875,4.781582534381747,2.3033146437898275,-0.6845443986669182
1789757502376349400,5.257349365234375,5.825069258284568,2.005491973166168,-0.0005186535792425274
1789757502386363400,5.26736328125,5.826207906925678,2.02811004768759,-0.15054222444929183
1789757502396378600,5.277378662109375,7.551343015792965,0.8707631358489394,1.3765443740367889
1789757502406392300,5.287392333984375,7.813558950984477,0.05515577777177095,1.9172157238200305
1789757502416406300,5.29740625,7.427429051354527,-0.7649711035564541,2.114635069452226
1789757502426420500,5.30742041015625,6.641723495066166,-0.9240314924389124,1.689326128861308
1789757502436435200,5.317435302734375,4.281902243417501,-0.8003644884988665,0.27451113394536075
1789757502446449200,5.32744921875,4.3057068973749875,-0.8919900482729077,0.320120354084298
1789757502457716200,5.33871630859375,4.337455788335204,-1.0114762593969702,0.3916428178325295
1789757502467730200,5.348730224609375,3.0069606332898138,-1.0954147717997431,-0.10281140904650092
1789757502477744400,5.358744384765625,1.9832669896155595,-1.0297989748120306,-0.4597462669175118
1789757502487758300,5.36875830078125,1.1503963620483875,-1.00025840755105,-0.606136705449596
1789757502497773300,5.378773193359375,0.40365503492653365,-1.1156605642318724,-0.5631183055214584
1789757502507787300,5.388787353515625,-0.25700199993550776,-1.2392775915503502,-0.420464203973487
1789757502517801200,5.39880126953125,-0.8138888637214898,-1.3417685364708303,-0.2319550908319652
1789757502527815400,5.4088154296875,-1.3580308122247458,-1.4831778255894779,-0.007666808300837874
1789757502537829400,5.418829345703125,-1.9642068998366593,-1.6847858550831674,0.22091449524909257
1789757502547844400,5.42884423828125,-2.529679221138358,-1.8428826596304773,0.3970941420409828
1789757502557858300,5.4388583984375,-3.036433396011591,-1.9092212179347872,0.4750984420891851
1789757502567872300,5.448872314453125,-3.462204985678196,-1.9734718640491364,0.4563116893589496
1789757502577886500,5.458886474609375,-3.729868664881587,-2.0314742634236813,0.3622250001683831
1789757502587901400,5.4689013671875,-3.8019104032635687,-2.020297328110039,0.17158910413123665
1789757502597915400,5.478915283203125,-3.7540158486664295,-2.020351396384835,-0.07255546005778014
1789757502607929300,5.488929443359375,-3.5669624142259355,-2.002070474284887,-0.39398485091403124
1789757502617943300,5.498943359375,-3.305271379691362,-1.9979744371429085,-0.7235822775915265
1789757502627958300,5.508958251953125,-3.0788404591083527,-2.0699024860173463,-0.9787702138423919
1789757502637972500,5.518972412109375,-2.9041023163616657,-2.132960122954845,-1.1519747172810137
1789757502647986400,5.528986328125,-2.7223072408407925,-2.18484550075382,-1.1316500874590127
1789757502658000100,5.539000244140625,-2.6088889514535665,-2.239768346552551,-1.0101650306679308
1789757502668015400,5.549015380859375,-2.5226900929033755,-2.2880928169995545,-0.8504157096732408
1789757502678029300,5.559029296875,-2.459950435873866,-2.298028812341392,-0.6122421096526086
1789757502688043300,5.569043212890625,-2.345397589498758,-2.2766791503205894,-0.3209939951136708
1789757502698057500,5.579057373046875,-2.174430781984329,-2.1579899347931146,-0.05794862336069345
1789757502708072200,5.589072265625,-2.055494021436572,-2.027934691120684,0.130086953984946
1789757502718086100,5.599086181640625,-2.001322286266088,-1.9267451841875909,0.27574907824248074
1789757502728100400,5.609100341796875,-1.9104536823391913,-1.7799065634965896,0.3178046975530684
1789757502738114300,5.6191142578125,-1.9062626603901385,-1.6561565574482082,0.2699297244392335
1789757502748128500,5.62912841796875,-1.9377508545875548,-1.5575675884023308,0.2177498937383294
1789757502758143200,5.639143310546875,-1.9381559282571077,-1.4456363227024673,0.1854623658567667
1789757502768157200,5.6491572265625,-1.9862696785628795,-1.3579048477575182,0.043352819514274596
1789757502778171400,5.65917138671875,-1.956023593381047,-1.2656348526000976,-0.06494198937937617
1789757502789437200,5.670437255859375,-1.804452975732088,-1.1605530144035816,-0.1544743762664497
1789757502799451400,5.680451416015625,-1.659062508022785,-1.047864792856574,-0.23619959653392433
1789757502809466400,5.69046630859375,-1.4554945766329765,-0.9584832126170396,-0.24801848301291465
1789757502819480300,5.700480224609375,-1.1923083351045847,-0.8632821324437856,-0.171962832814455
1789757502829494300,5.710494384765625,-0.9025754474341868,-0.8040665578871965,0.005493190588802099
1789757502839508200,5.72050830078125,-0.6348673445671796,-0.7956696086809039,0.17420768913179635
1789757502849523200,5.730523193359375,-0.3954512702047825,-0.7804565497189759,0.294326791331917
1789757502859537400,5.740537353515625,-0.13973346486091612,-0.7640151180058717,0.4448408856652677
1789757502869551400,5.75055126953125,0.06655132427215575,-0.7365653855443001,0.5893555934533476
1789757502879565300,5.7605654296875,0.1284983696192503,-0.5943541323930025,0.60024289817065
1789757502889580300,5.770580322265625,0.2826017206162214,-0.3869049756556749,0.5101534619227052
1789757502899594200,5.78059423828125,0.4044961619257927,-0.08723784620910882,0.3708290162540972
1789757502909608400,5.7906083984375,0.5682791954159736,0.30145664321184157,0.26372707040682436
1789757502919622400,5.800622314453125,1.263623512777686,0.6441603658303618,0.4658504290115088
1789757502929636400,5.81063623046875,2.2301859869539737,0.6716749802216887,1.0778666940189898
1789757502939651300,5.8206513671875,3.151494776430726,0.29510172122716904,1.843194063667208
1789757502949665300,5.830665283203125,4.057039010542631,-0.1430062029212713,2.5712264525353907
1789757502959679500,5.840679443359375,4.938114573830366,-0.8216773256406188,3.047377983874082
1789757502969693200,5.850693115234375,5.621027279642224,-1.452582196317613,3.0471298543319105
1789757502979708200,5.860708251953125,5.816210244524479,-1.7715879402235148,2.6487010296210647
1789757502989722400,5.870722412109375,5.501462742584944,-1.8883730756953359,2.098672799558192
1789757502999736300,5.880736328125,4.7457899209886785,-1.9018261392474174,1.4955850333504377
1789757503009750300,5.890750244140625,3.6749925808340307,-1.709106349608302,0.9322978740680963
1789757503019765500,5.900765625,2.667635739454627,-1.2799191062793134,0.5170614877454937
1789757503029779200,5.910779296875,1.8771955558598041,-0.723689537358284,0.28023780449647456
1789757503039793200,5.920793212890625,1.2780080119609831,-0.2623521287918091,0.3327811712801456
1789757503049807400,5.930807373046875,0.790318603041768,0.09978782344162464,0.6438676664941012
1789757503059822300,5.940822265625,0.3175707426667213,0.33802871654480693,1.111510531880334
1789757503069836300,5.950836181640625,0.009677928927540779,0.33092326845377684,1.713741754323989
1789757503079850200,5.960850341796875,-0.07108370700478553,0.22910803083777426,2.2309411892354487
1789757503089864200,5.9708642578125,-0.10780804829001427,0.12975246133357285,2.602311618889868
1789757503099878400,5.98087841796875,-0.15794190624654292,-0.046163200759887696,2.9181588987648484
1789757503109893400,5.990893310546875,-0.3257821061730385,-0.30497166559547184,3.106722737768292
1789757503119907300,6.0009072265625,-0.523790649870038,-0.45273938383013007,3.001732084986567
1789757503129921300,6.01092138671875,-0.6813081932246685,-0.44693566598743195,2.5730045681238174
1789757503139935200,6.020935302734375,-0.8888596412926911,-0.371740432010591,1.9599067184247074
1789757503149950200,6.0309501953125,-1.0508908626794815,-0.2840247391566634,1.3960313109256326
1789757503159964400,6.04096435546875,-1.1345248391777276,-0.22391981454491613,0.9683537415072321
1789757503169978400,6.050978271484375,-1.212455051076412,-0.14916238746345042,0.6868965147510171
1789757503179992300,6.060992431640625,-1.228378596395254,-0.12779255943745374,0.5553242175791412
1789757503190007300,6.07100732421875,-1.1943576688498259,-0.16412468653470277,0.5748213836010545
1789757503200021200,6.081021240234375,-1.2762953628242015,-0.2306818560257554,0.6871819075636565
1789757503210035200,6.09103515625,-1.4359581015139817,-0.25091274314969775,0.8010542243286967
1789757503220049400,6.10104931640625,-1.6411597715854644,-0.26357144145369527,0.8779665644217282
1789757503230063000,6.11106298828125,-1.8443688065350055,-0.177983116017282,0.8243519516773521
1789757503240078300,6.121078369140625,-2.032583685970306,-0.068309566116333,0.7002577353011816
1789757503250092300,6.13109228515625,-2.1774702958106995,0.06669803926646709,0.6437894866913557
1789757503260106200,6.141106201171875,-2.280318675866723,0.17773381743133068,0.5514337129466236
1789757503270120400,6.151120361328125,-2.2917554311603308,0.2573965522110462,0.38820557339284567
1789757503280135400,6.161135498046875,-2.1472803247302767,0.3339204044431448,0.17034741524076089
1789757503290149000,6.171149169921875,-1.9374515793800353,0.3336310661077499,-0.0438512614225503
1789757503300163300,6.181163330078125,-1.7419518036335706,0.3238733499422669,-0.3211038852289319
1789757503310177300,6.19117724609375,-1.424157773604989,0.3413192825227976,-0.5474933778230101
1789757503320192300,6.201192138671875,-1.0878010819256305,0.3841925018265843,-0.725722212229669
1789757503330206500,6.21120654296875,-0.8010048322290182,0.42757337839156384,-0.9626229427702724
1789757503340220200,6.22122021484375,-0.5180956530988217,0.5070183787673711,-1.1095233766511081
1789757503350234400,6.231234375,-0.27378128530085083,0.5339660069257021,-1.1952134819615632
1789757503360249300,6.241249267578125,-0.05024140998423099,0.48758390271812674,-1.180201717725396
1789757503370263300,6.25126318359375,0.13113280977606773,0.42426732258349653,-1.0644983861409127
1789757503380277500,6.261277587890625,0.2771820336550474,0.3235363730728626,-0.8943702214077115
1789757503390291200,6.271291259765625,0.3585240998238325,0.18303396966606378,-0.6826068547330796
1789757503400305200,6.28130517578125,0.38119419679343697,0.060276774047315115,-0.4515677097022533
1789757503410320400,6.2913203125,0.4390302996903658,-0.11359306143224239,-0.204393239765428
1789757503420334300,6.301334228515625,0.42404432748258114,-0.28958938754647967,-0.03272781899496913
1789757503430348300,6.311348388671875,0.4210404694914818,-0.4000499961718917,0.03153395130159333
1789757503440362200,6.3213623046875,0.5190209512501954,-0.5092886617869138,-0.013697156239952891
1789757503450377200,6.331377197265625,0.7193740122467279,-0.576478868484497,-0.1520575974483043
1789757503460391200,6.34139111328125,1.1478174514710902,-0.6623170770287513,-0.22375667813876643
1789757503470405400,6.3514052734375,1.794605535456538,-0.8111220293566584,-0.10672992506395093
1789757503480419300,6.36141943359375,2.4477146391570566,-1.0959320736721156,0.18071137193739414
1789757503490434300,6.371434326171875,3.117956663966179,-1.5051704616889356,0.7028711326699704
1789757503500448300,6.3814482421875,3.6446494650185106,-1.9321321379229426,1.277960081166029
1789757503510462200,6.391462158203125,3.8765181927412744,-2.2427865253299473,1.7458024877123535
1789757503520476400,6.401476318359375,3.9428585046112534,-2.44226280349195,2.0283251517429948
1789757503530491400,6.411491455078125,3.703392745888233,-2.5190906071066856,2.0394132397294045
1789757503540505300,6.42150537109375,3.2585131356477737,-2.428623277457058,1.870023910664767
1789757503550519300,6.431519287109375,2.740283042514324,-2.330461593912542,1.7130892817646264
1789757503560533200,6.441533203125,2.2251526689618824,-2.3023750248521564,1.5774122526876628
1789757503570547500,6.45154736328125,1.7936001578062772,-2.3442764765143393,1.4917076073952018
1789757503580562400,6.4615625,1.3034382212936877,-2.344713114365935,1.3802110798507927
1789757503590576400,6.471576416015625,0.7752911297798156,-2.3395427259907127,1.1538013481862843
1789757503600590300,6.48159033203125,0.3042436435818672,-2.364144960066676,0.8625301450327039
1789757503610604300,6.491604248046875,-0.2323006893992424,-2.2872011288568377,0.5530621178660542
1789757503620619300,6.501619384765625,-0.7752069586277007,-2.170721406072378,0.20081123482650146
1789757503630633500,6.511633544921875,-1.1634329537540673,-2.062832986022532,-0.09718049048744141
1789757503640647400,6.5216474609375,-1.517682444998622,-1.9048191835835575,-0.3898124606002122
1789757503650661000,6.5316611328125,-1.7337211509048938,-1.819568711799383,-0.5503922045370564
1789757503660676400,6.54167626953125,-1.8016577920556067,-1.7453756406024097,-0.6267839913547039
1789757503670690300,6.551690185546875,-1.649957410547137,-1.7081062326550482,-0.6431065459284931
1789757503680704300,6.561704345703125,-1.412439863282442,-1.6790227615118025,-0.5899289728945121
1789757503690718500,6.571718505859375,-1.1404483840078115,-1.7379513358205556,-0.44718036146350204
1789757503700733200,6.581733154296875,-0.7980021432816982,-1.799286971271038,-0.2885892340606078
1789757503710747100,6.5917470703125,-0.5432827013254166,-1.8533727817237375,-0.1462046336364001
1789757503720761300,6.60176123046875,-0.43019115967452526,-1.9098212296545505,-0.04978101679771207
1789757503730775300,6.611775390625,-0.2615478266716003,-1.9379016612350939,0.019680472999834456
1789757503740789500,6.62178955078125,-0.05896189205646515,-1.8967504434183238,0.06396960068326443
1789757503750804200,6.63180419921875,0.16355623899698257,-1.863526803730428,0.08248928170884028
1789757503760818200,6.641818115234375,0.41039574135839935,-1.83419637208879,0.08294060567291453
1789757503770832400,6.651832275390625,0.688179832559824,-1.8085533967882395,0.11341211537476628
1789757503780846300,6.661846435546875,0.8956137917280197,-1.8481956713467835,0.18698097199248148
1789757503790861300,6.671861328125,0.9578846622020005,-1.9310197927668689,0.2615329944286495
1789757503800875300,6.681875244140625,0.9981745870143175,-1.970839469718933,0.3049051396979019
1789757503810889200,6.69188916015625,1.0442378345310688,-1.9780562692299484,0.3415164855953306
1789757503820903400,6.7019033203125,1.1234861432909964,-1.9813404054671524,0.36941772468406703
1789757503830918400,6.71191845703125,1.0349158794343472,-1.8516221386641263,0.4158123961122706
1789757503840932400,6.721932373046875,0.8260901736468076,-1.63844466740787,0.39625100574772804
1789757503850946300,6.7319462890625,0.7333014153122901,-1.4995216421470046,0.3788164713440463
1789757503860960300,6.741960205078125,0.735832395094633,-1.3364680919751524,0.4176852773120627
1789757503870975200,6.751975341796875,0.7216109775185584,-1.1558517048448325,0.43686015257705
1789757503880989400,6.761989501953125,0.850595669350028,-1.1261173685774206,0.4301565998177975
1789757503891003400,6.77200341796875,0.9545990646600723,-1.1621943518698215,0.4501559066755697
1789757503901017000,6.78201708984375,1.1602712748527526,-1.2453814613834022,0.4635996909426525
1789757503911031300,6.79203125,1.3857880032002925,-1.3707155217528342,0.4648298172594979
1789757503921046300,6.80204638671875,1.5260194807112215,-1.4666538301594554,0.5072815962808206
1789757503931060200,6.812060302734375,1.4842898784846066,-1.5479546875350176,0.5171639252066612
1789757503941074400,6.822074462890625,1.316259708943963,-1.5746936413787305,0.5310490965656935
1789757503951088000,6.832088134765625,1.0377589939057827,-1.5196362094148992,0.5563740188930183
1789757503961103000,6.84210302734375,0.6321387963861227,-1.3573206181287765,0.5261394049532712
1789757503971117300,6.852117431640625,0.2358861466705799,-1.127906882342696,0.4879402053425088
1789757503981131300,6.86213134765625,-0.05751403133571147,-0.9153633250758051,0.5380767301801592
1789757503991145500,6.8721455078125,-0.20700024392604827,-0.6911383901044726,0.5818291434712708
1789757504001160400,6.882160400390625,-0.26884149081110953,-0.5551715843006968,0.522201261786744
1789757504011174100,6.892174072265625,-0.1683247685730457,-0.5780626305446028,0.47859720745775847
1789757504021188400,6.902188232421875,-0.03533960892856121,-0.6691583212256431,0.4446751371769234
1789757504031202300,6.912202392578125,0.20503917298614976,-0.7591139019608497,0.40820360160898417
1789757504041216300,6.92221630859375,0.37470951094925403,-0.8737322147876023,0.3589198942083865
1789757504051231500,6.9322314453125,0.6160451551973819,-0.9408452645957469,0.35482013073936103
1789757504061245200,6.9422451171875,0.8484533966243266,-0.8500880120888352,0.37176845252867785
1789757504071259100,6.952259033203125,0.9989221905112265,-0.7819400662750006,0.39852760891020295
1789757504081273300,6.9622734375,1.0835586220502853,-0.7919652012050151,0.5254093371130526
1789757504091288300,6.972288330078125,1.0582225207418203,-0.775570238982141,0.696688863838464
1789757504101302300,6.98230224609375,1.023838020581007,-0.7931020962804556,0.8563847010802477
1789757504111316200,6.992316162109375,1.0145078821778297,-0.8663628550633787,0.9565391658771782
1789757504121330200,7.002330078125,1.0387684632092713,-0.926430662535131,1.013213166192174
1789757504131345200,7.01234521484375,1.0450707782238722,-1.0371031603455543,1.128273523698002
1789757504141359400,7.022359375,0.9131260675430297,-1.0858835578665136,1.2530316838756204
1789757504151373300,7.032373291015625,0.7088876895457505,-1.1391676965475082,1.3051435639068483
1789757504161387300,7.04238720703125,0.40723932315409184,-1.1313716358438133,1.325771049132943
1789757504171402200,7.05240234375,0.03470189554691314,-1.0507698666483163,1.2574779957599937
1789757504181416200,7.062416259765625,-0.2974555908769369,-0.9816454770177602,1.1354304827805608
1789757504191430400,7.072430419921875,-0.5489560707867145,-0.8259674240499735,1.0439686622008681
1789757504201444400,7.0824443359375,-0.7078583464980125,-0.6970137118786573,0.9554877571281045
1789757504211458300,7.092458251953125,-0.7604553796976804,-0.6801292125731706,0.9201000712741165
1789757504221473300,7.102473388671875,-0.7400023742556572,-0.6742784407183527,0.93241426698938
1789757504231487200,7.1124873046875,-0.7507143224060535,-0.7327481653437018,0.9130811324227601
1789757504241501400,7.12250146484375,-0.772573102992773,-0.7632143230170011,0.8136761708188801
1789757504251515400,7.132515380859375,-0.7297445996135473,-0.8214189669653773,0.7139759525954723
1789757504261530400,7.1425302734375,-0.7037520802229642,-0.8129924994036555,0.547409133605659
1789757504271544300,7.15254443359375,-0.7372808403372764,-0.7337400989905,0.37896285754479464
1789757504281558300,7.162558349609375,-0.6658265464544296,-0.6785498344272375,0.16651691543348132
1789757504291572200,7.172572265625,-0.5165478391349315,-0.6111646896794438,-0.12501074669919907
1789757504301587500,7.18258740234375,-0.17018822435736655,-0.5779097780704497,-0.41095118328407404
1789757504311601400,7.192601318359375,0.23565759861171245,-0.5255883469417691,-0.6337679319579154
1789757504321615000,7.202614990234375,0.5663602100521326,-0.5310068648591637,-0.7735561957459897
1789757504331629300,7.21262939453125,0.8250929793030023,-0.5633005302205681,-0.8982086305268109
1789757504341643300,7.222643310546875,0.996331004974246,-0.5206593661069869,-1.0910231127120553
1789757504351658200,7.232658203125,1.0969003341823815,-0.4667261158674955,-1.2175075852256267
1789757504361672400,7.24267236328125,1.1669839242339133,-0.3669435531228781,-1.226444705723226
1789757504371686100,7.25268603515625,1.182570784944296,-0.2619175367668271,-1.1473493225026874
1789757504381700400,7.262700439453125,1.169649928572774,-0.17370616935044525,-0.9987152697622775
1789757504391715300,7.27271533203125,1.1824766769200563,-0.12353168712258338,-0.8625866244602948
1789757504401729300,7.282729248046875,1.1900275306910275,-0.088069328597188,-0.7934011522922665
1789757504411743500,7.292743408203125,1.2187526899158954,-0.08400777824670076,-0.834794435236603
1789757504421757200,7.302757080078125,1.2148691264808178,-0.0731634358882904,-0.9724121500525623
1789757504431772200,7.312772216796875,1.1658481982022524,-0.06175093825310468,-1.110382404633239
1789757504441786400,7.322786376953125,1.1086959859162568,-0.0651812049627304,-1.198322188566625
1789757504451800600,7.332800537109375,1.0555997710227967,-0.0451674677208066,-1.202300152286887
1789757504461814500,7.342814453125,0.997015480107069,-0.05043664029538631,-1.0588104036323727
1789757504471829800,7.352829833984375,0.8482827162325381,-0.03796995743215084,-0.7600809203621
1789757504481843700,7.36284375,0.5126432329118251,-0.045509413026273246,-0.5174564053472132
1789757504491857400,7.372857421875,0.1052010806620121,-0.11733750865757464,-0.45189847602657973
1789757504501871600,7.38287158203125,-0.3794558286935091,-0.11746113503724336,-0.5390723901540041
1789757504511885600,7.392885498046875,-0.8911188183963298,-0.010754618248343468,-0.680706720200181
1789757504521900500,7.402900634765625,-1.2419430113673209,0.17970307167768476,-0.581142330250889
1789757504531914800,7.412914794921875,-1.5287521205455064,0.5797942766427994,-0.17844094278737901
1789757504541928400,7.422928466796875,-1.790023468363285,1.070030447435379,0.18081147131100295
1789757504551942700,7.432942626953125,-1.824076544612646,1.3993021492898463,0.3886560571067035
1789757504561957600,7.44295751953125,-1.737219514414668,1.7658797917097806,0.42948710305839777
1789757504571971600,7.4529716796875,-1.3604589161545038,2.123652196383476,0.1986671537362039
1789757504581985800,7.46298583984375,-0.831951174634695,2.232185051816702,0.049786213562637564
1789757504591999500,7.47299951171875,-0.33771745863854885,2.1402090711697936,-0.024734336023032665
1789757504602014500,7.483014404296875,-0.057138183760643,1.9607395159870384,-0.06701338882595301
1789757504612028700,7.493028564453125,-0.06416647496223449,1.7850930262237785,-0.12029752750694751
1789757504622042600,7.503042724609375,-0.12544482726752756,1.7375325258865952,-0.38485052734389896
1789757504632056600,7.513056640625,-0.0218330616235733,1.7385346886664628,-0.7174649637550116
1789757504642071600,7.523071533203125,0.05580255124270916,1.8453472961783408,-0.9602955227360129
1789757504652085500,7.53308544921875,0.08420973055958747,1.9307149646013975,-1.1389509850569068
1789757504662099700,7.543099609375,0.28674422724843024,1.8940183881059287,-1.1106897900819779
1789757504672113700,7.55311376953125,0.45462943536043166,1.7652455854594706,-0.8456066288910805
1789757504682127400,7.56312744140625,0.5764513959556817,1.5828426071733235,-0.4768883211806416
1789757504692142600,7.573142578125,0.6665086834996938,1.491221431313455,-0.19975275701582432
1789757504702156500,7.583156494140625,0.4364613259851932,1.421520703099668,-0.05583879159986972
1789757504712170500,7.59317041015625,0.09489712879061699,1.2496671758785842,-0.08684972367435694
1789757504722184700,7.603184814453125,-0.11563012021780013,1.0856719609424472,-0.28811200847029683
1789757504732199700,7.61319970703125,-0.15640286011099813,1.0600734093055129,-0.6052060735359788
1789757504742213400,7.62321337890625,-0.10831775137782096,0.9256351282432674,-0.8437083940543234
1789757504752227600,7.6332275390625,0.052422261154651636,0.6804580061361193,-0.8219609648875892
1789757504762241500,7.643241455078125,0.3454448380202055,0.5784095442861318,-0.6782504130892455
1789757504772256500,7.653256591796875,0.49052317104041576,0.6211743347793817,-0.45209334101155396
1789757504782270700,7.663270751953125,0.30913901440799235,0.647565498098731,-0.2082683641657233
1789757504792284400,7.673284423828125,0.0672732088059187,0.6358753525659442,-0.09761749366521835
1789757504802298600,7.683298583984375,-0.25346798059046266,0.6468550117418169,-0.12687851333245634
1789757504812313600,7.693313720703125,-0.629292174783349,0.5246396679148078,-0.12449687889292835
1789757504822327600,7.70332763671875,-1.1692875250011683,0.5146729851737618,-0.1631548185892403
1789757504832341800,7.713341796875,-1.220866321069002,0.5424038726642727,-0.08116700186282395
1789757504842355500,7.72335546875,-0.9969950218409299,0.568278318633139,0.21856091786026954
1789757504852369700,7.73336962890625,-0.8319973518639803,0.6867655818477273,0.604690086837858
1789757504862384600,7.743384521484375,-0.5168114585071801,0.710721919235587,1.1242669184051453
1789757504872398600,7.753398681640625,-0.5520639736741781,0.7946414346769451,1.5038912355333567
1789757504882412800,7.763412841796875,-0.5096820450186729,0.7024991575524211,1.6061460336104034
1789757504892426500,7.773426513671875,-0.45662382404804225,0.5677434811040759,1.4198919328540562
1789757504902441500,7.78344140625,-0.7090186224490403,0.44810324846208094,1.1044992648787795
1789757504912455700,7.79345556640625,-0.9528045824587345,0.308591317397356,0.8555986652690917
1789757504922469600,7.8034697265625,-1.2934756302058696,0.22353549140244722,0.6671716774530708
1789757504932483600,7.813483642578125,-1.4458669165879487,0.2113008637294173,0.4376493667259812
1789757504942498600,7.82349853515625,-1.2147341019243,0.30099954709410665,0.2855147585187107
1789757504952512500,7.833512451171875,-1.1713310135275126,0.4325982208162546,0.18945991106033325
1789757504962526500,7.8435263671875,-0.8941302751719951,0.2902010897040367,0.3132446961611509
1789757504972540700,7.853540771484375,-0.6565186198830604,0.2709665201410651,0.5058532805107534
1789757504982555600,7.8635556640625,-0.4264700933247804,0.21016630674153566,0.5787683676611631
1789757504992569600,7.873569580078125,-0.06284253288209438,-0.0885547740265727,0.5096626096658409
1789757505002583600,7.88358349609375,0.2406178513675928,-0.5753808441147208,0.42397254088800396
1789757505012597500,7.893597412109375,0.6243260768085718,-1.013457204081118,0.4349302439603954
1789757505022611700,7.90361181640625,0.22276538381278513,-0.433798536516726,0.2758244450336322
1789757505032626700,7.913626708984375,13.24331371718645,-4.760099309109151,3.61545464245528
1789757505042640600,7.923640625,35.201942333102224,-1.4408578562542795,-7.997634246397018
1789757505052654600,7.933654541015625,-0.3652770812153816,2.9158406849503518,-5.303258384054899
1789757505062668500,7.94366845703125,-0.5069844764977693,-0.47237025923430914,-1.983679954330623
1789757505072683500,7.95368359375,-2.417052958911657,-2.8109394640177485,3.563653143547475
1789757505082697700,7.96369775390625,-4.002809407705068,-3.214813110131025,3.52513139745146
1789757505092711700,7.973711669921875,-3.848143746650219,-3.064748805391788,3.932909649787843
1789757505102725600,7.9837255859375,-4.216794688212872,-2.5006875199317933,4.030969042001664
1789757505112740600,7.99374072265625,-3.358175871405005,-1.7028747617423534,4.2326352314233775
1789757505122754600,8.003754638671875,-3.538033841383457,-0.4646048859298229,4.433056681481004
1789757505132768500,8.0137685546875,-4.351479052990674,1.0172738397598267,4.22966527570188
1789757505142782700,8.02378271484375,-4.548500923737883,2.479825933688879,3.662310793915391
1789757505152797700,8.033797607421874,-5.188039182725548,3.765944771391153,2.503587333026528
1789757505162811400,8.043811279296875,-3.9467023205578324,4.159465365794301,1.3478051862865685
1789757505172825600,8.05382568359375,-2.151588835579157,3.269404532018304,0.7403940039217471
1789757505182839600,8.063839599609375,-0.48579672704041,2.5134055472075936,0.11533318309783935
1789757505192853800,8.073853759765624,0.20324995148181915,2.378930441266298,-0.2549006437420845
1789757505202868700,8.08386865234375,-0.7008534361720085,1.5998013407588003,-0.3205322228208184
1789757505212882400,8.09388232421875,-1.25018827714324,0.8639028946906327,0.04331511785238981
1789757505222896600,8.103896728515625,-3.074280019325018,0.6985907519370317,0.3834714940756559
1789757505232910600,8.11391064453125,-6.490024282601476,0.32738165032416583,0.9096171826392412
1789757505242925600,8.123925537109375,-5.577678551781177,0.4315808604672551,1.2469088170811533
1789757505252939800,8.133939697265625,-1.6006588343709707,-0.3192763775408268,1.713513060134649
1789757505262953500,8.143953369140625,1.6109616171985863,-2.3015818286478518,2.2039310172349214
1789757505272967700,8.1539677734375,1.3082640340149403,-3.2973078534662723,3.0198782747909423
1789757505282982700,8.163982666015626,0.7702285856932402,-1.689986346335709,3.0999633266359568
1789757505292996600,8.17399658203125,0.1751490616351366,0.3827642225891352,2.3726705040886995
1789757505303010800,8.1840107421875,0.97644264767766,0.37729514352828264,1.6897782565429806
1789757505313024500,8.1940244140625,2.0485715286970136,-0.8885171114653349,1.2041644848540425
1789757505323039500,8.20403955078125,2.7709616738945244,-1.1476964554399252,0.728905810701847
1789757505333053700,8.2140537109375,2.6800609212636948,-0.5699731398522854,0.05926145952492952
1789757505343067600,8.224067626953126,0.6889560776293278,-0.11887947740256785,-0.11862579490244388
1789757505353081600,8.23408154296875,-1.055751746714115,0.11308832678049802,0.2626651402637362
1789757505363095600,8.244095458984376,-0.3101391313612461,-0.056872810822725293,0.7802218641802668
1789757505373110500,8.254110595703125,0.5520797557651996,0.12713234196305273,0.028448972631990907
1789757505383124500,8.26412451171875,0.8093763547331094,-0.19222294603288173,-0.5024281283676624
1789757505393138700,8.274138671875,2.138986543637514,-1.1430647039860486,-0.645021658834815
1789757505403152600,8.284152587890626,3.461702296853065,-1.5373136126637459,-1.2352426369458436
1789757505413167400,8.29416748046875,4.113824143081903,-2.163123206028342,-1.5372816100902855
1789757505423181600,8.304181640625,3.9671728616565463,-2.973899782948196,-1.3722225653149187
1789757505433195500,8.314195556640625,3.8992584323376414,-3.549932076708972,-1.0959437641099095
1789757505443209700,8.324209716796876,4.054910181820392,-3.5804902965798973,-0.9720435359358787
1789757505453224400,8.334224365234375,3.5143490144133565,-3.442345562215149,-0.9428368768043816
1789757505463238100,8.344238037109376,2.563372231903672,-3.6146474177256223,-0.7067211591616273
1789757505473252400,8.35425244140625,1.6733663431853054,-3.6172973477125168,-0.6320230610519647
1789757505483266300,8.364266357421876,0.872597073277831,-3.2722251423969864,-0.7247286711476743
1789757505493281300,8.37428125,0.3223135532796383,-2.9647993616476653,-0.969278016745299
1789757505503295200,8.384295166015624,0.2619184135496616,-2.7672531747654077,-1.255514440602064
1789757505513309200,8.39430908203125,0.06493629029095173,-2.2962445592731235,-1.3872640671022236
1789757505523323400,8.404323486328124,-0.3978010482013225,-1.8618197075515985,-1.3581585302576422
1789757505533338400,8.41433837890625,-0.7322621353924273,-1.6339064394563436,-1.1239888321161269
1789757505543352300,8.424352294921874,-0.849127934885025,-1.2287880539789795,-0.7182784720949829
1789757505553366300,8.4343662109375,-1.3781295974016188,-0.514058944928646,-0.3778011933542788
1789757505563380200,8.444380126953124,-2.0180553944021464,0.2407441080957651,0.049952217779308555
1789757505573394200,8.454394287109375,-2.178697791779041,0.8642714357420802,0.5433651189118623
1789757505583409400,8.464409423828124,-2.0306816517412662,0.8103001915797591,0.7814275867082178
1789757505593423400,8.47442333984375,-1.4063906462460756,0.7231263505175709,0.7788008914664387
1789757505603437300,8.484437255859374,-0.5867278752982616,0.6923471813723444,0.46823659349568186
1789757505613451300,8.494451171875,0.024455226820707318,0.45636371180713176,-0.003503624206781387
1789757505623466200,8.50446630859375,0.2464204001665115,-0.07718962266445159,-0.6835858558330684
1789757505633480200,8.514480224609375,0.5761988824993372,0.3768640586346388,-0.9718225866615772
1789757505643494400,8.524494384765624,-0.02495850016772747,0.833161427207291,-1.5053949180945754
1789757505653508000,8.534508056640625,0.43226855047047136,0.30808599822372196,-1.5702321319252253
1789757505663523000,8.544523193359375,0.9727461312472819,0.5044102420955896,-1.6921879480332136
1789757505673537300,8.554537353515625,0.6025502983301878,1.2470759903416038,-2.140118762537837
1789757505683551200,8.56455126953125,0.2331879936277866,1.536479792188108,-2.1145093972459432
1789757505693565400,8.5745654296875,0.24659283412396907,1.4674524331912397,-1.9240430856220423
1789757505703580400,8.584580322265625,-0.2620586988031864,1.6457152429327369,-1.8530901653900742
1789757505713594000,8.594593994140626,-0.6751385646790266,1.7334847118005154,-1.70646679488495
1789757505723608300,8.6046083984375,-0.6803741272449493,1.830900545413792,-1.6344800015605985
1789757505733622300,8.614622314453126,-1.5936486633479594,2.4341230439171193,-2.0152549500286576
1789757505743636500,8.624636474609375,-2.0424404785960912,2.300445518094301,-1.7700129459917544
1789757505753651500,8.6346513671875,-2.430001872333884,2.009832924979925,-1.3155644201561807
1789757505763665200,8.6446650390625,-2.9297955605447292,2.251260339164734,-1.3336118257611989
1789757505773679400,8.654679443359376,-2.9684149217963216,2.9424253250151873,-0.940296325476095
1789757505783693300,8.664693359375,-2.8018670997679234,2.7625276075482366,-0.7041090769670904
1789757505793708300,8.674708251953126,-1.8340221845656632,2.419202245900035,-0.4928516139879822
1789757505803722500,8.684722412109375,-1.137472583067417,2.655723767864704,-0.3832102858562022
1789757505813736200,8.694736083984376,-1.187736204883456,2.5513237744525075,-0.25117102875970304
1789757505823750100,8.704750244140625,-0.9899971257776021,1.7557941587641834,0.1535161804924719
1789757505833765400,8.714765380859374,-1.0146002366364002,1.3138874268546699,0.38240664132311936
1789757505843779300,8.724779296875,-1.3671674738824366,0.9394181544020771,0.32990181645154953
1789757505853793300,8.734793212890626,-1.4692062911212442,0.647108694241941,0.15880506241451947
1789757505863807200,8.74480712890625,-1.7385720980674026,0.5568652364760637,-0.296758329327777
1789757505873822200,8.754822265625,-1.554553501278162,0.141774030777812,-0.8462074443284422
1789757505883836200,8.764836181640625,-1.3442244051903485,-0.030469957065582275,-1.5289681013837455
1789757505893850400,8.774850341796874,-1.517234701231122,0.016882161217927932,-2.067240281070769
1789757505903864300,8.7848642578125,-1.5657658001661299,-0.05783610289692878,-2.2362731979131696
1789757505913879300,8.79487939453125,-1.8226608325958251,-0.034191607937216754,-2.2803584233552217
1789757505923893200,8.804893310546875,-2.118698957890272,-0.055605567365884775,-2.0703534446552396
1789757505933907200,8.8149072265625,-2.32178290515542,0.016320435681939124,-1.7488059073120354
1789757505943921400,8.82492138671875,-2.6429490419656037,0.2052992852270603,-1.41810358813256
1789757505953935400,8.834935302734374,-2.850380078524351,0.396200042745471,-0.9778058988548815
1789757505963950300,8.844950439453125,-2.8389725493252276,0.5316127217978239,-0.5423743177762255
1789757505973964300,8.85496435546875,-2.786701094818115,0.7350064656645059,-0.23838274925928563
1789757505983978200,8.864978271484375,-2.762197352680564,0.9398124144166707,0.03327332404851913
1789757505993992400,8.874992431640624,-2.703695479351282,0.9347609762459993,0.38923360126633194
1789757506004007400,8.88500732421875,-2.380793897050619,0.8284481349498033,0.5715088980522006
1789757506014021400,8.895021484375,-1.8482354188352823,0.6348527315199375,0.5858093722138553
1789757506024035300,8.905035400390625,-1.3753303220719097,0.3757429456502199,0.521904251601547
1789757506034049300,8.91504931640625,-1.0513415290564299,0.1993584970012307,0.422229642743431
1789757506044064300,8.925064208984375,-0.6806067669570446,0.1604018666192889,0.3562950621301308
1789757506054078500,8.935078369140625,-0.46376551249623293,0.3475309966444969,0.19329923349488526
1789757506064092400,8.945092529296875,-0.6352122124820947,0.36319209163486954,0.11020341899394988
1789757506074106000,8.955106201171875,-0.8810837465941905,0.2605883339896798,0.2166123776083812
1789757506084121300,8.965121337890626,-1.170410391551256,0.2853539419338107,0.3341580856565386
1789757506094135300,8.97513525390625,-1.5406144077748058,0.4073053741276264,0.2934742661558091
1789757506104149200,8.985149169921876,-1.829927024206519,0.41153848165273665,0.23446663526147601
1789757506114163500,8.99516357421875,-2.037037742769718,0.39283319666087624,0.14593443839289247
1789757506124178400,9.005178466796876,-2.0555226630091665,0.4366106713280081,-0.0780206666611135
1789757506134192000,9.015192138671875,-2.0024860693484543,0.556691341213882,-0.36019254449270666
1789757506144206300,9.025206298828126,-2.1411323234945536,0.7066635837554931,-0.5947078412014991
1789757506154220300,9.03522021484375,-2.2163439240843057,0.6946364613533019,-0.7373707105778158
1789757506164235300,9.0452353515625,-2.2839830435931683,0.657864189273119,-0.8444406538516283
1789757506174249500,9.05524951171875,-2.5252520523458717,0.6668073741853237,-0.8632887813802808
1789757506184263200,9.06526318359375,-2.6984704381793736,0.7532751128047704,-0.8860497715037315
1789757506194277400,9.07527734375,-2.676653158646822,1.0105755111649632,-0.9849316590815782
1789757506204291300,9.085291259765626,-2.467311320030689,1.2061772859811781,-1.2232122996732593
1789757506214306300,9.095306396484375,-2.161801602035761,1.2408540470868348,-1.4172522320002316
1789757506224320500,9.105320556640624,-1.6957593767791985,1.15945586681664,-1.549192412636429
1789757506234334200,9.115334228515625,-1.3033172252625227,1.1814990640595555,-1.6259320995762943
1789757506244348200,9.12534814453125,-1.041906176713109,1.2642901599928735,-1.6158292232349514
1789757506254363400,9.13536328125,-0.4067547545075416,1.2334639368355274,-1.3787602965205907
1789757506264377300,9.14537744140625,0.09116378748118877,1.2613254649683832,-1.1049907016575335
1789757506274391300,9.155391357421875,0.17078502120673655,1.281928400275111,-0.8600715728994458
1789757506284405200,9.1654052734375,0.202023040035367,1.2206070856109261,-0.6670780078202486
1789757506294420200,9.175420166015625,0.4818991350799799,1.1763906350046396,-0.6151910956513136
1789757506304434200,9.18543408203125,0.5799076738893986,1.1385381664723158,-0.6048231021003797
1789757506314448400,9.195448486328125,0.6198457165241241,1.1135551163852213,-0.5526048390852287
1789757506324462300,9.20546240234375,0.7198579963713884,1.1449091628089547,-0.5028274298835546
1789757506334477300,9.215477294921875,0.5374117634654044,1.1847165648013354,-0.42303814611472185
1789757506344491300,9.2254912109375,0.3737701842725277,1.139705164425075,-0.09948464837712236
1789757506354505200,9.235505126953125,0.48465749387741086,1.1582166804105043,0.10944472784744574
1789757506364519400,9.24551953125,0.7699345711827278,1.131795706474781,0.19631832558773457
1789757506374534400,9.255534423828125,1.128169917193055,1.00974198295027,0.2520267322735861
1789757506384548000,9.265548095703124,1.3610966295361517,0.8885323090344667,0.19935334590207784
1789757506394562300,9.275562255859375,1.5250000745356083,0.8532134506329894,0.017070742592588065
1789757506404576300,9.285576171875,1.6195330461889506,0.925541020219028,-0.25569639722965654
1789757506414591200,9.29559130859375,1.691152175244689,1.052814816479385,-0.47037060984969137
1789757506424605400,9.30560546875,1.7306091563642023,1.2316527957603334,-0.5534131963260471
1789757506434619100,9.315619140625,1.3714385753303766,1.511094883301854,-0.500416167490743
1789757506444633300,9.32563330078125,0.8025181594014167,1.649696713784337,-0.3470909247267991
1789757506454648300,9.3356484375,0.5313946951329708,1.7097151291564106,-0.17717313307495786
1789757506464662300,9.345662353515625,0.7468868730723858,1.9024287813156842,-0.2343068963888101
1789757506474676200,9.35567626953125,1.6555027697145939,1.7918813711896537,-0.5168282269788905
1789757506484690200,9.365690185546875,2.175917221149802,1.4219488653838634,-0.7533306423842907
1789757506494704000,9.3757041015625,2.5624597932338715,0.7816349458485842,-0.8273862048067152
1789757506504719400,9.38571923828125,3.0408821921139952,0.10029957235604524,-0.8562158473193645
1789757506514733300,9.3957333984375,3.4071605593264103,-0.42401948530226946,-0.8377928133349866
1789757506524747000,9.4057470703125,3.5629286286652087,-0.7225760231584311,-0.9576333908546716
1789757506534761200,9.41576123046875,3.3611832365274426,-0.7616384520024061,-1.1113814256079495
1789757506544776200,9.425776123046875,2.910354362493753,-0.591964022386074,-1.263321314960718
1789757506554790100,9.4357900390625,2.489133275738358,-0.5086889423280954,-1.317056850671023
1789757506564804400,9.445804443359375,2.201007823264599,-0.5171954893887043,-1.2885820129454135
1789757506574818000,9.455818115234376,2.132670200097561,-0.4283431937202811,-1.2223204654000699
1789757506584833000,9.4658330078125,2.099201645737886,-0.3447714688032865,-1.0714303773611784
1789757506594847200,9.47584716796875,1.9112217441022394,-0.39323885485231874,-0.6965134342063218
1789757506604861200,9.485861083984375,1.7295324670433998,-0.4262909373655915,-0.20575285594714804
1789757506614875400,9.49587548828125,1.5956132414191961,-0.46069326544404027,0.271024351275526
1789757506624890400,9.505890380859375,1.4452169282466172,-0.5440723903983831,0.6447761596411467
1789757506634904000,9.515904052734374,1.091765309381485,-0.6644125880032777,0.8682697115980088
1789757506644918300,9.525918212890625,0.6150298406749963,-0.8350497251719236,0.9620855479579419
1789757506654932200,9.53593212890625,0.18644553167521952,-0.9424860175400972,0.9378049470517784
1789757506664947200,9.545947265625,-0.23160101669728755,-0.9845604876816272,0.7817309535689652
1789757506674961400,9.55596142578125,-0.7344137604683637,-1.0133873537153004,0.5817828566441312
1789757506684975000,9.56597509765625,-1.246388884860277,-1.0072457822203635,0.4139470040991902
1789757506694989300,9.5759892578125,-1.6990566647589205,-1.0052814964100718,0.2550783383965492
1789757506705004300,9.58600439453125,-1.9537065486103296,-1.079974626083672,0.09708612673487514
1789757506715018200,9.596018310546874,-2.041817378261685,-1.148636366638541,0.012581651012413203
1789757506725032400,9.606032470703125,-2.3007582373052835,-1.0769318973869084,-0.028185718585923312
1789757506735046100,9.616046142578124,-2.501316465485096,-1.0340689072161913,-0.02821830568127334
1789757506745061000,9.62606103515625,-2.5292332309365273,-1.0517077320203185,0.03854059692695737
1789757506755075300,9.636075439453125,-2.640777543145418,-1.008925113609433,0.12285152283869682
1789757506765089300,9.64608935546875,-2.757161696600914,-0.9727250884592532,0.2354432252086699
1789757506775103200,9.656103271484374,-2.804635395437479,-0.9185334795445204,0.3464510924533009
1789757506786369300,9.667369384765625,-2.7595623280018566,-0.8915756222531199,0.44014023369364436
1789757506796384300,9.67738427734375,-2.6771260368555785,-0.8522375913381576,0.5535328771829605
1789757506806398200,9.687398193359375,-2.528416069334745,-0.7921694916054606,0.6597035335294902
1789757506816412200,9.697412109375,-2.1643454412996768,-0.7039487718388437,0.7675394196745008
1789757506826426400,9.70742626953125,-1.6408488059401511,-0.5266948468789457,0.8060315743498504
1789757506836440300,9.7174404296875,-1.2310937005728482,-0.33180297389775515,0.8490296621423215
1789757506846455300,9.727455322265625,-0.952410030183196,-0.30115006148070095,0.9657163056757301
1789757506856469200,9.73746923828125,-0.6609305911064147,-0.2738759778469801,1.0528601169258356
1789757506866483200,9.747483154296875,-0.37290567639768124,-0.11083178002536297,1.0148776653382927
1789757506876497200,9.7574970703125,-0.12050035660266875,0.13549480437785386,0.8790594742249697
1789757506886512400,9.767512451171875,-0.10215046091973781,0.3561360356435179,0.7367335086528212
1789757506896526300,9.7775263671875,-0.18207564602792262,0.5429840106397867,0.5819818132823332
1789757506906540000,9.7875400390625,-0.2628548176169395,0.7051388584062457,0.4618364441297948
1789757506916554200,9.79755419921875,-0.29929625030755996,0.8425655076295137,0.3853854379381984
1789757506926569200,9.8075693359375,-0.29101065252125263,0.9469397820785641,0.3142970547582954
1789757506936583200,9.817583251953126,-0.18300269774496555,0.9124307787552476,0.34970666018314656
1789757506946597400,9.827597412109375,0.16780863574445246,0.8908490615442395,0.4250665101371705
1789757506956611000,9.837611083984376,0.7610872478604316,0.9686378191456199,0.37974111190829424
1789757506966626000,9.8476259765625,1.2862374956458806,1.0335448833420873,0.35559235722087323
1789757506976640300,9.85764013671875,1.816034692454338,0.954375777298212,0.4425578162293881
1789757506986654200,9.867654296875,2.1312433821648358,0.9535162378594279,0.610975523782894
1789757506996668200,9.877668212890624,2.204297512459755,0.9407716148376464,0.7800850860580801
1789757507006683100,9.88768310546875,2.1408359708964824,1.0300117407798766,0.9383687914796173
1789757507016697000,9.897697021484374,2.026491214314103,1.1569991213142872,1.0924462773829697
1789757507026711300,9.907711181640625,2.262369762200117,1.3113707678586244,1.1540252200700343
1789757507036725200,9.917725341796874,2.818719450369477,1.5318307973384857,1.0028167137317359
1789757507046740200,9.927740234375,3.2660961381226774,1.570090677627921,0.7031624437667429
1789757507056754200,9.937754150390624,3.5317034693181513,1.3130536063790321,0.39707675251476465
1789757507066768100,9.94776806640625,4.0540041728913785,0.8174386651575565,0.1750931667294353
1789757507076782300,9.9577822265625,4.515441534700989,0.35775954519212244,0.0006727846950292587
1789757507086797300,9.96779736328125,4.813176527041197,-0.1621320514127612,-0.1789890416568145
1789757507096811300,9.977811279296875,4.684265484967828,-0.6268693315505981,-0.2910403535397723
1789757507106825200,9.9878251953125,4.080478338319063,-0.97052114867419,-0.3369650328360498
1789757507116839200,9.997839111328124,3.2637837695270773,-1.188562718835473,-0.3680200963132083
1789757507126854100,10.007854248046876,2.438966684556007,-1.2951380104601382,-0.32145752097219227
1789757507136868400,10.017868408203125,1.576484178057313,-1.2860516176849603,-0.25414237272068857
1789757507146882300,10.02788232421875,0.6963333283990621,-1.1285831741690635,-0.12114457279033958
1789757507156896000,10.03789599609375,-0.005763970354199409,-0.988214334014058,0.09510478019192814
1789757507166911200,10.0479111328125,-0.4637392090111971,-0.9336839946642518,0.3316713834073394
1789757507176925200,10.05792529296875,-0.6634896279394626,-0.9997335068941116,0.6109442518617958
1789757507186939100,10.067939208984376,-0.7136135490238666,-1.1563824507206677,0.9133135529391467
1789757507196953300,10.077953369140625,-0.6279921981006861,-1.219747253911197,1.195683364495635
1789757507206967000,10.087967041015625,-0.46609307866096494,-1.3653051871418953,1.428148889067769
1789757507216982000,10.09798193359375,-0.2630576467126608,-1.7019833658605812,1.6098986641421913
1789757507226996200,10.107996337890626,-0.19832593908309937,-1.9180138884603977,1.685935609640181
1789757507237010200,10.11801025390625,-0.3446118943274021,-2.0475053607702254,1.6790934886604547
1789757507247024400,10.1280244140625,-0.5681780731290579,-2.1478893965393304,1.5642231007687746
1789757507257039400,10.138039306640625,-0.8791974944561719,-2.0967396395385265,1.3101675295487045
1789757507267053000,10.148052978515626,-1.2516606877833605,-1.8620956018835304,0.9790375595416874
1789757507277067300,10.1580673828125,-1.4750228684455156,-1.7021131297200918,0.7006843632154166
1789757507287081200,10.168081298828126,-1.5932202088028191,-1.5623279346719383,0.43781295978985724
1789757507297096200,10.17809619140625,-1.7766671431839465,-1.3880594552636145,0.2278910927960649
1789757507307110400,10.1881103515625,-1.9704899256289004,-1.3135001811027527,0.18892569458577782
1789757507317124000,10.1981240234375,-2.0847738919347525,-1.2731512195795773,0.2964660318503156
1789757507327138300,10.20813818359375,-2.0698492945253846,-1.1622072113513946,0.475110534385778
1789757507337153300,10.2181533203125,-2.09423437871933,-1.0283011374697089,0.6628449002951383
1789757507347167200,10.228167236328124,-2.181641444015503,-0.9830936299994587,0.8902067450527101
1789757507357181200,10.23818115234375,-2.1689806998848913,-0.9024909840211272,1.0623460304126142
1789757507367195100,10.248195068359376,-2.1318653134554624,-0.7756973724931479,1.1603586608752607
1789757507377210000,10.258210205078125,-2.0487012925565242,-0.6345189695209265,1.2474154514290392
1789757507387224300,10.268224365234374,-1.9164462007522582,-0.5159042805343866,1.2744642018742858
1789757507397238300,10.27823828125,-1.75023330976665,-0.45887247975766654,1.1963253887262195
1789757507407252200,10.288252197265624,-1.562805781316757,-0.41968613227307794,1.1100959158420562
1789757507417267200,10.29826708984375,-1.4464233814269303,-0.38230245029628274,0.9445118242792785
1789757507427281200,10.30828125,-1.237433424988389,-0.393040701931715,0.7658651297867297
1789757507437295000,10.318295166015625,-0.9652145666986703,-0.33745237796157596,0.5882350649908185
1789757507447309300,10.328309326171874,-0.8955541704952716,-0.2769949866503477,0.4405803786765784
1789757507457324500,10.338324462890625,-0.7631845124006271,-0.18303776905834673,0.41382023591436445
1789757507467338200,10.348338134765624,-0.6407675085216761,0.029899171440303324,0.36216062969528134
1789757507477352400,10.3583525390625,-0.5330500611245632,0.1919870914503932,0.2702711948206648
1789757507487366400,10.368366455078124,-0.3525064469695091,0.31537820105850695,0.1760733003405854
1789757507497381400,10.37838134765625,-0.10417349117994308,0.43446050755679605,0.10651570692453532
1789757507507395600,10.3883955078125,0.22185528323054313,0.5149500485494732,0.13019344656672327
1789757507517409300,10.3984091796875,0.6344640244632959,0.43332244343757625,0.23805105135319754
1789757507527423500,10.408423583984375,1.030799676287174,0.27894173680394885,0.3892864274321124
1789757507537438500,10.4184384765625,1.3952549197256565,0.10147300004959106,0.5511106184720993
1789757507547452400,10.428452392578125,1.4544465288847683,-0.14293021507561207,0.6278297010153532
1789757507557466600,10.438466552734376,1.6661983512520788,-0.4298068365320563,0.6743117584660648
1789757507567480300,10.448480224609375,1.7899521566927432,-0.5230488915920257,0.7049608714908361
1789757507577495300,10.458495361328126,1.6254168435305356,-0.42484512247145173,0.7446146903567016
1789757507587509500,10.468509521484375,1.605227457460761,-0.4215504648402333,0.9519843521170318
1789757507597523500,10.4785234375,1.3291501701772213,-0.4276148794457316,1.2154055714450775
1789757507607537400,10.488537353515625,0.7131622981250285,-0.23637597601413726,1.386012751866877
1789757507617551400,10.49855126953125,0.5695791720986366,0.11142360843867063,1.4008034937635063
1789757507627566300,10.50856640625,1.0003443322688341,0.5402393881067633,1.3009458199560642
1789757507637580300,10.518580322265626,1.4033844501674175,0.6784060420423745,1.2337689111314714
1789757507647594500,10.528594482421875,1.9070716386854647,0.3923042043507099,1.3259053430370986
1789757507657608400,10.5386083984375,2.521467857632041,-0.1652867160513997,1.590979882530123
1789757507667623400,10.54862353515625,3.149952223163843,-0.6242144331276417,2.0143160617433487
1789757507677637400,10.558637451171874,3.6758641029715537,-0.9769576114624738,2.3349115590587255
1789757507687651300,10.5686513671875,3.748216222476959,-1.180220130164921,2.5467919762417672
1789757507697665500,10.57866552734375,3.3301310956597328,-1.2635741206780076,2.6639380539804693
1789757507707680500,10.588680419921875,2.627883574780822,-1.2194324888736008,2.613382755741477
1789757507717694500,10.598694580078124,1.9331530054032802,-1.1057517491579054,2.4924323172837495
1789757507727708400,10.60870849609375,1.2722779438763856,-0.9831050281763076,2.310064994832873
1789757507737722400,10.618722412109374,0.7698246810674667,-0.8729077466621994,2.124047333180904
1789757507747737300,10.6287373046875,0.41280280250012874,-0.8000172824963927,1.9791285746365785
1789757507757751600,10.63875146484375,-0.022238135293126106,-0.757914170782268,1.9043454285919665
1789757507767765500,10.648765625,-0.3640127603679895,-0.735218939371407,1.8512211566478012
1789757507777779500,10.658779541015624,-0.44124037695527074,-0.8916764522790909,1.8469371957182883
1789757507787794400,10.66879443359375,-0.5093336699724197,-1.0462918444514273,1.8195286720499395
1789757507797808400,10.678808349609374,-0.614851561498642,-1.1550029790610075,1.7461054161816834
1789757507807822600,10.688822509765625,-0.6291916370183229,-1.1801131626591086,1.6690134086728095
1789757507817836500,10.69883642578125,-0.8651286370933056,-1.0701166644141078,1.5972104474827646
1789757507827851500,10.7088515625,-1.1675994257837534,-0.9704071669057011,1.4291080894887447
1789757507837865500,10.718865478515625,-1.4255197096079588,-0.8569377318531274,1.2051792879197747
1789757507847879400,10.72887939453125,-1.6714894433975218,-0.7318404028490185,1.001724023124203
1789757507857893400,10.738893310546874,-2.0808266156136987,-0.5908367719218135,0.8145658131349831
1789757507867908400,10.748908447265626,-2.4333184495359657,-0.4534843569785356,0.6520799067832529
1789757507877922600,10.758922607421875,-2.6806688240289684,-0.3260308202371001,0.5549066497541963
1789757507887936300,10.768936279296875,-2.770042805483937,-0.135522569167614,0.5094450944576412
1789757507897950500,10.778950439453125,-2.7161457956016064,0.11041443139612674,0.542348854541406
1789757507907965400,10.78896533203125,-2.821075073584914,0.4345169139191508,0.6022051381543279
1789757507917979400,10.7989794921875,-3.089208708387613,0.6861398511648178,0.6339907078631222
1789757507927993600,10.80899365234375,-3.1862218064188954,0.7655369207456707,0.7073748007647693
1789757507938007300,10.81900732421875,-3.187930948424339,0.9216925280973315,0.7514270007200539
1789757507948022300,10.829022216796876,-3.085350279393792,1.2363885921105742,0.7347190270252525
1789757507958036500,10.839036376953125,-2.8186510613083837,1.516421339021623,0.6855353824656456
1789757507968050400,10.849050537109376,-2.423179917359352,1.6922221425637602,0.7131565990366041
1789757507978064600,10.859064697265625,-1.9528619144797323,1.8489736699819563,0.6686168347600847
1789757507988079400,10.869079345703126,-1.4983318478405474,1.8830393134519456,0.5665976720698177
1789757507998093300,10.87909326171875,-0.9404805229365825,1.7965028935104608,0.38409941671565173
1789757508008107500,10.889107421875,-0.2842377973854542,1.7582915285378693,0.1909724345151335
1789757508018121500,10.89912158203125,0.18748247350752353,1.7290724483162163,0.013235621409118175
1789757508028136400,10.909136474609374,0.6593553046137094,1.589861253763735,-0.07295468850843607
1789757508038150400,10.919150390625,1.0912328099399804,1.524310338705778,-0.09921733007729053
1789757508048164400,10.929164306640626,1.4958178191930054,1.568046604579687,-0.24372180873230098
1789757508058178300,10.93917822265625,1.7471335901856422,1.5591905134290456,-0.4494396116323769
1789757508068193500,10.949193603515624,1.8654583563148974,1.4786691159933805,-0.595087999625504
1789757508078207500,10.95920751953125,1.840373014897108,1.5340408746033907,-0.6831988292768597
1789757508088221200,10.96922119140625,1.748782526436448,1.6475260917469858,-0.7434731191061437
1789757508098235400,10.9792353515625,1.6708692656725643,1.5541706394404171,-0.673667176952213
1789757508108250400,10.98925048828125,1.7445593557834624,1.5120865246877073,-0.5992234919950366
1789757508118264300,10.999264404296875,2.4630676911115645,1.7240429297164082,-0.5378785041943193
1789757508128278500,11.009278564453124,3.2931255993455646,1.9241271106436848,-0.5385415712129324
1789757508138292200,11.019292236328125,3.6516613896071908,1.8381085770964622,-0.410561964770779
1789757508148307200,11.02930712890625,3.662655077308416,1.2122566058948636,0.037978506064787504
1789757508158321400,11.0393212890625,3.8119244322776793,0.43701340691000223,0.6291662833813577
1789757508168335400,11.04933544921875,3.907528248032927,0.09243278450369834,1.112066412197426
1789757508178349600,11.059349609375,3.859753520423174,0.0773071115642786,1.3714844602987168
1789757508188364500,11.069364501953125,3.5357384239226577,-0.024590543638169763,1.5178011029422283
1789757508198378200,11.079378173828125,2.9932740532428026,-0.3683575115740299,1.657633205872029
1789757508208392400,11.089392333984375,2.4155337865203617,-0.7089557863458991,1.5614993748933077
1789757508218406400,11.099406494140625,2.0248551375448702,-0.928489640891552,1.1919950313717127
1789757508228421400,11.10942138671875,1.8848387640893458,-1.1812754844367503,0.8099212752647698
1789757508238435600,11.119435546875,1.5192086316525935,-1.3900886230036615,0.4491449395347386
1789757508248449300,11.12944921875,1.0334101510465143,-1.4803963781774043,0.13647435346711426
1789757508258463500,11.13946337890625,0.5669739580363035,-1.4519967976450918,-0.10624131042994558
1789757508268478500,11.149478515625,0.013591302978992461,-1.3342173904389143,-0.27255196270160376
1789757508278492400,11.159492431640626,-0.5143336702167988,-1.200052957881987,-0.33755536341201514
1789757508288506600,11.169506591796875,-1.0967127026557921,-1.0244228347316384,-0.30825127178803086
1789757508298520300,11.179520263671876,-1.588354648593068,-0.8054986365169287,-0.23749997507538645
1789757508308535300,11.189535400390625,-2.138082288274169,-0.7489525734305381,-0.03377659739553928
1789757508318549500,11.199549560546876,-2.4926854152619837,-0.866284236869216,0.2389812996743247
1789757508328563500,11.2095634765625,-2.5554268258571624,-0.7981304458364844,0.3047133982517756
1789757508338577400,11.219577392578126,-2.5877245828717945,-0.7421279881075025,0.3546597160132602
1789757508348592600,11.229592529296875,-2.4207319396853446,-0.6553887390702963,0.3165351890739053
1789757508358606300,11.2396064453125,-2.272788280361891,-0.6081850893467664,0.271369895043876
1789757508368620300,11.249620361328125,-2.0905793633431196,-0.5939762389913201,0.12170390543984248
1789757508378634500,11.259634521484376,-1.8123165487140416,-0.5540343969643116,-0.09159637021217494
1789757508388649500,11.2696494140625,-1.5856214242368936,-0.4623252505600452,-0.4196415259463712
1789757508398663400,11.279663330078124,-1.4261545003801583,-0.3819301098525524,-0.748146371614188
1789757508408677400,11.289677490234375,-1.243699499645829,-0.3233613087669015,-1.0036559410348533
1789757508418691300,11.29969140625,-1.1353642126113175,-0.23814415473043918,-1.2040345017988234
1789757508428706300,11.309706298828125,-1.0271598584800958,-0.16154694500118494,-1.286181527674943
1789757508438720500,11.319720458984374,-0.922907456845045,-0.11054594882130622,-1.3134455283060669
1789757508448734500,11.329734375,-0.8866361200243235,-0.10545680898874997,-1.271760642004013
1789757508458748200,11.339748046875,-0.9001742315113543,-0.09323211818784474,-1.1271062334842978
1789757508468763100,11.34976318359375,-0.9264940831601619,-0.012928455156087875,-0.9634082479290663
1789757508478777000,11.359777099609374,-0.9940624755203723,0.022545301546156405,-0.7931783763870597
1789757508488791000,11.369791015625,-1.0600023898959159,0.02731909181922674,-0.5163611209237948
1789757508498805000,11.379804931640624,-1.1096756446033715,0.0622317075073719,-0.37769006113000214
1789757508508820000,11.389820068359375,-1.0482277809500693,0.11115385158658027,-0.3285111292781308
1789757508518834200,11.399834228515624,-1.0295704267531633,0.12323270417600869,-0.2803150344511494
1789757508528848100,11.40984814453125,-1.1562556094706058,0.18312310925424097,-0.2525976822956465
1789757508538862000,11.419862060546874,-1.2954308559268712,0.2030351396873593,-0.1910349600910209
1789757508548877000,11.429876953125,-1.4619284090727567,0.218873344810307,-0.12441842509554699
1789757508558891000,11.43989111328125,-1.5899217517793178,0.305763985016942,-0.08359470393378288
1789757508568905200,11.4499052734375,-1.7440981680124996,0.3388946857243776,-0.06429974595308303
1789757508578919200,11.459919189453124,-1.6729653611689805,0.29704934816360473,0.06984028281494975
1789757508588934100,11.46993408203125,-1.5262205562412738,0.15109189422130584,0.1683749461240135
1789757508598948000,11.479947998046875,-1.4348486789673567,0.010023089103400707,0.1576345573304221
1789757508608962000,11.489962158203125,-1.357944302985072,-0.12913725204467771,0.17134919442813842
1789757508618976000,11.49997607421875,-1.38072019841671,-0.37582448645383115,0.23798951215799896
1789757508628991200,11.5099912109375,-1.3004875547945498,-0.605058189497888,0.2602755417134613
1789757508639005200,11.520005126953125,-1.167346327805519,-0.7141168223708868,0.2455813737927936
1789757508649019000,11.530018798828126,-0.7910065853059292,-0.7517156084030866,0.2634485639926977
1789757508659033000,11.540033203125,-0.3137415397673845,-0.7521276963353156,0.26686918609114363
1789757508669048000,11.550048095703126,0.06621288609802722,-0.6896554580703377,0.10932417934085242
1789757508679062000,11.56006201171875,0.5955120702564716,-0.5544871091678738,-0.11688312508673407
1789757508689076200,11.570076171875,1.201166179820895,-0.4503314459055662,-0.20995889280224217
1789757508699090000,11.58008984375,1.9853893885970115,-0.4805363222941756,0.003958528367429971
1789757508709105000,11.59010498046875,2.4944039096176622,-0.22448826208263634,0.5167857760766521
1789757508719119000,11.600119140625,2.6251439206838607,0.27563772682249543,1.0311786656673998
1789757508729133000,11.610133056640626,2.693486220026016,0.4348731800109148,1.472136791615188
1789757508739147300,11.620147216796875,2.6567951964884995,0.23779198029190302,1.920249392427504
1789757508749162200,11.630162353515624,2.6474907770484686,-0.08519669577032327,2.3665143195465204
1789757508759176000,11.640176025390625,2.7167548674106596,-0.46967941271513697,2.5441321093827485
1789757508769190100,11.650190185546874,2.6183225502312184,-0.8392796178266405,2.4687410605728624
1789757508779204000,11.6602041015625,2.430335634332895,-1.0417769973754882,2.3031093304760755
1789757508789219000,11.670218994140624,2.159313292351365,-0.9516343696355819,1.8109584121033548
1789757508799233300,11.6802333984375,1.9127175356179476,-0.5839636712819337,1.0309645114600658
1789757508809247000,11.6902470703125,1.6335598179757593,-0.28389409851431846,0.2948566604249179
1789757508819261200,11.70026123046875,1.1691034006059169,-0.16363865658342838,-0.3032008565306663
1789757508829276200,11.710276123046874,0.7629080335468054,0.06380231782495975,-0.7925053724963218
1789757508839290000,11.7202900390625,0.49368718802928924,0.3756456227555871,-1.1627489900778978
1789757508849304300,11.73030419921875,0.2224567562550306,0.5753989642933011,-1.2709227298751473
1789757508859318000,11.740318115234375,0.4250812693148851,0.5715130627706646,-1.0232602206930517
1789757508869333000,11.7503330078125,0.287080327335,0.6523983250826597,-0.9931991366893053
1789757508879347200,11.76034716796875,0.08688625629246234,0.6504802165016531,-0.7958178580451756
1789757508889361200,11.770361083984374,0.002177344039082527,0.4332815269052982,-0.4272740301188081
1789757508899375000,11.780375,-0.24992577793896198,0.23864041381478307,-0.09640599898360669
1789757508909390300,11.790390380859375,-0.5628565858453511,0.10809154140651225,0.2310389989003539
1789757508919404000,11.800404052734375,-0.9028770607292652,-0.00044482115805149076,0.42099480371885
1789757508929418000,11.81041796875,-1.1682388927310705,0.07460895852148533,0.43492085507754236
1789757508939432200,11.82043212890625,-1.3770154986798762,0.2717076938971877,0.31383900879248977
1789757508949447200,11.830447265625,-1.5712082834810017,0.39528292790055275,0.14265859505999834
1789757508959461000,11.840461181640626,-1.7387386868059633,0.4730056345283985,-0.01260539721418172
1789757508969475000,11.85047509765625,-1.8531208527892826,0.47847763619869943,-0.17326397854089737
1789757508979489000,11.860489013671875,-1.9929495947182176,0.4716232402592897,-0.27725493449447675
1789757508989504000,11.87050390625,-1.998463974225521,0.4174000671625137,-0.240456413728185
1789757508999518200,11.880518310546876,-2.189102865937352,0.41686435285061596,-0.11238324725106358
1789757509009532000,11.890531982421875,-2.467169281211495,0.47539428323060273,-0.027574765347037462
1789757509019546000,11.900546142578126,-2.608841020658612,0.5682932239413261,0.1926426692822948
1789757509029561000,11.91056103515625,-2.827929761785269,0.667591802561283,0.554841037172079
1789757509039575000,11.920574951171876,-3.091401834517717,0.8071382204174995,0.9028863400142639
1789757509049589200,11.93058935546875,-3.3117776928454634,1.042763962586224,1.140180672982335
1789757509059604200,11.940604248046874,-3.3475223754435777,1.2771134012088179,1.2208249661453068
1789757509069618000,11.950617919921875,-3.139880911004543,1.3872487234026192,1.1294476820439099
1789757509079632100,11.960632080078126,-2.624910696449876,1.393631410177052,0.9565394581381231
1789757509089646000,11.97064599609375,-2.2160031478226183,1.3522235872507093,0.7310219260729849
1789757509099661000,11.9806611328125,-1.6688573413282632,1.2623445788830518,0.5398442513093352
1789757509109675300,11.99067529296875,-0.8330126663863658,1.2833695389941333,0.30446408139951525
1789757509119689000,12.00068896484375,-0.040539515659213064,1.3548314316615462,-0.011510551182180643
1789757509129703200,12.010703125,0.5444347939699888,1.3698708876222372,-0.27590163845568894
1789757509139718100,12.02071826171875,1.0329244133561848,1.2718255239337681,-0.5337642007432878
1789757509149732000,12.030732177734375,1.7828092992007731,1.1132036725990473,-0.7384416277449578
1789757509159746000,12.04074609375,2.5297119543641804,0.9738511698797344,-0.8096396818444133
1789757509169760000,12.050760009765625,2.8022002772450447,0.9938041168451308,-0.6953465093187987
1789757509179775000,12.06077490234375,2.9434722037196157,0.8796211266957223,-0.46810774295162405
1789757509189789200,12.0707890625,2.8874142164111136,0.7313450205475092,-0.22689652880076316
1789757509199803100,12.08080322265625,2.554681560447812,0.7327963883996009,-0.0038559082431718706
1789757509209817000,12.090817138671875,1.9665426493078468,0.9307546632140874,0.23645379049070178
1789757509219832000,12.10083203125,1.4663444719493388,1.2363169881790876,0.435301963349618
1789757509229846000,12.110845947265625,1.2937848422855138,1.4772525271937251,0.6659225541748106
1789757509239860000,12.12085986328125,1.769993072247505,1.7231603016629815,0.8311411003608256
1789757509249874200,12.130874267578125,2.3780156645089385,1.8456953789636492,0.87949486996755
1789757509259889200,12.14088916015625,2.7732325414359567,1.5445087848648429,0.9109529612876475
1789757509269903000,12.150903076171875,3.399243210330605,0.8502090081200003,1.0054491080619394
1789757509279917000,12.1609169921875,4.091287317103148,0.17488135060966015,1.0203281127639114
1789757509289931000,12.170930908203125,4.527064167955517,-0.3310848887562752,0.921110125099495
1789757509299946000,12.180946044921875,4.668466442811489,-0.6653957538217306,0.755997961897403
1789757509309960200,12.190960205078126,4.366777159887552,-0.9073670656248927,0.5339641437621787
1789757509319974100,12.20097412109375,3.7969250160664316,-1.0402490571558476,0.18687358436156062
1789757509329988000,12.210988037109376,3.157330058455467,-1.133770513679087,-0.15972360203154384
1789757509340003000,12.221003173828125,2.3940455928117035,-1.1112623292729258,-0.49825504393409936
1789757509350017000,12.23101708984375,1.6791314825832844,-0.98973087605685,-0.7818925008062273
1789757509360031200,12.24103125,1.1495809540122748,-0.8919929708823561,-0.9284342574425041
1789757509370045200,12.251045166015626,0.84270287027359,-0.8229580131009221,-0.9343662778399884
1789757509380060200,12.26106005859375,0.6373205829381943,-0.8122183001607656,-0.8246290150530636
1789757509390074000,12.27107421875,0.4928437229424715,-0.862110166054964,-0.5802285033416003
1789757509400088000,12.281088134765625,0.4858107555657625,-0.9170938021302223,-0.2940260913522914
1789757509410103000,12.29110302734375,0.4947860891819,-0.9129597710654139,-0.002986578062735498
1789757509420117200,12.3011171875,0.2558142514556646,-0.8772215182080865,0.2085058261834085
1789757509430131200,12.311131103515624,-0.20910510725080966,-0.9143012488022446,0.34024851148612795
1789757509440145000,12.321144775390625,-0.7686959692984819,-0.9989520011276006,0.37028972174562513
1789757509450160000,12.33116015625,-1.3463836290508508,-1.0135174098357558,0.3724167238369584
1789757509460174000,12.341174072265625,-1.8453472961783408,-0.9006535394608974,0.25404570741318167
1789757509470188000,12.35118798828125,-2.3240035038143394,-0.7234034138932823,-0.0444984824180603
1789757509480202000,12.361201904296875,-2.7936545672178266,-0.5375467880219221,-0.4404861245218664
1789757509490217000,12.371217041015624,-3.0360622246116398,-0.4777048982605338,-0.8130079892337322
1789757509500231000,12.38123095703125,-3.1265193251281973,-0.5180047599449753,-1.0982529178351164
1789757509510245000,12.3912451171875,-3.2499785315364598,-0.46159459819793697,-1.3687377919390797
1789757509520259000,12.401259033203125,-3.17780235311985,-0.40662879004031416,-1.5933675083190202
1789757509530274000,12.411274169921874,-2.9535727419734,-0.4697223750740289,-1.6912587043590843
1789757509540288000,12.4212880859375,-2.642144155323505,-0.5496028442576527,-1.6871081605508922
1789757509550302000,12.431302001953124,-2.376198385953903,-0.5599100109994412,-1.705069495307654
1789757509560316200,12.441316162109375,-2.05870480017662,-0.5120438057139516,-1.7376225422576068
1789757509570331100,12.4513310546875,-1.737493655180931,-0.5182789007112384,-1.7371752368815243
1789757509580345000,12.461344970703125,-1.4624468799889088,-0.5734095440417528,-1.656445895783603
1789757509590359000,12.471359130859375,-1.2129554018139839,-0.6418877447232604,-1.5305376887880264
1789757509600373000,12.481373046875,-0.9006476942420005,-0.655109337607026,-1.3976158036381006
1789757509610388000,12.491387939453125,-0.5893628999769688,-0.6337298649698495,-1.2664869393847882
1789757509620402200,12.501402099609376,-0.41948973291814323,-0.5739554874867201,-1.1746275708548723
1789757509630416100,12.511416015625,-0.39250118822753427,-0.5413455957829952,-1.0970490950033067
1789757509640430000,12.52143017578125,-0.45536067224442955,-0.5371992897585034,-0.9936701152019202
1789757509650445000,12.531445068359375,-0.5550877054095268,-0.595214840875566,-0.7845306672900915
1789757509660459000,12.541458984375,-0.5896767882317304,-0.5904618011295795,-0.5850999818354845
1789757509670473200,12.55147314453125,-0.5646200883865357,-0.4539432066619396,-0.4763143937502056
1789757509680487200,12.561487060546876,-0.39405426288843154,-0.3383949195086956,-0.4427947667904198
1789757509690502100,12.571502197265625,-0.10565408512651919,-0.25258739836364985,-0.41459085496068
1789757509700516000,12.58151611328125,0.14625906723737717,-0.2147539267927408,-0.43720432637222106
1789757509710530000,12.591530029296875,0.4313730629354715,-0.22943273274749515,-0.46159817839451134
1789757509720545000,12.601544921875,0.828597772553563,-0.37672611146867274,-0.3809711286272853
