time,seconds_elapsed,z,y,x
1789665970018596600,0.0525966796875,-0.5142763870716095,-0.6113251409381628,0.3297275558631867
1789665970028549400,0.06254931640625,-0.41235739682018757,-0.7126128475487232,0.2938559954823926
1789665970038501400,0.07250146484375,-0.3980126451253891,-0.7637991371676325,0.22528101989552377
1789665970048454400,0.082454345703125,-0.4362929836809635,-0.7144006077483296,0.17922957241442053
1789665970058406700,0.09240673828125,-0.5786790088772773,-0.6358052099391818,0.21872779885977506
1789665970068359700,0.102359619140625,-0.9104659084230661,-0.4893301618635654,0.29800007301717996
1789665970078311400,0.1123115234375,-1.4088304406136274,-0.2893827590584755,0.3440015804093331
1789665970088264400,0.122264404296875,-1.9384411749392747,-0.05638298147916793,0.3399193160643801
1789665970098216400,0.132216552734375,-2.3595693227142096,0.20838059236854314,0.2788799236141145
1789665970108169700,0.142169677734375,-2.620930686903,0.38147827443182464,0.08840771197238936
1789665970118122000,0.1521220703125,-2.804556484982371,0.44881899551600213,-0.06909077962189912
1789665970128075000,0.162074951171875,-2.789133290401101,0.5078425546318293,-0.178718882945925
1789665970138027000,0.172027099609375,-2.576770642659068,0.5409466595932841,-0.25588391915839165
1789665970147980000,0.18197998046875,-2.3172633819043633,0.5562319070085883,-0.3350030851133168
1789665970157931800,0.191931884765625,-2.0839000317096708,0.4888175361663103,-0.33748430746980007
1789665970167884800,0.201884765625,-1.8773071995407342,0.42918899689465756,-0.2538711180312559
1789665970177836800,0.2118369140625,-1.585810809329152,0.4568319138407707,-0.25243123968755826
1789665970187789800,0.221789794921875,-1.2297346871793269,0.5719666517570614,-0.3499728733712807
1789665970197742000,0.2317421875,-0.9359013784527778,0.6599746055558323,-0.46085386283323165
1789665970207694800,0.24169482421875,-0.7659925555586814,0.6395826826512813,-0.33847583925779906
1789665970217646800,0.251646728515625,-0.6116501351088285,0.6481257623299956,-0.21822651654044165
1789665970227600000,0.261599853515625,-0.45072015296220774,0.6669324618697166,-0.22426829918902366
1789665970237551900,0.2715517578125,-0.322599384483695,0.7696747512027621,-0.31510102808494117
1789665970247505000,0.2815048828125,-0.2815419824302196,0.9483297751322388,-0.5111141967136412
1789665970257457000,0.291456787109375,-0.4258323799431324,1.1177990375652909,-0.5778689346034079
1789665970267410000,0.301409912109375,-0.713556850400567,1.1959566284790635,-0.5304456507798284
1789665970277362000,0.31136181640625,-1.1005950970470906,1.2169988319858909,-0.5624371183242649
1789665970287315000,0.32131494140625,-1.343902918151021,1.2196835410252214,-0.7191365502290428
1789665970297267000,0.331266845703125,-1.2262830854207276,1.2233385564014314,-0.9312583749525248
1789665970307220000,0.341219970703125,-0.8291770337462425,1.172978488473594,-1.0884330962188542
1789665970317171700,0.351171630859375,-0.3133645231485367,0.9868743175819515,-1.019540177256614
1789665970327124700,0.361124755859375,0.33334172777235505,0.7111158869892359,-0.734462056589499
1789665970337077000,0.371076904296875,1.0481225670099257,0.5076823956340552,-0.5595701845858245
1789665970347030000,0.381030029296875,1.7167402054876089,0.42979222348481416,-0.5504824766363948
1789665970356981800,0.390981689453125,2.171178502190113,0.3793143743962049,-0.6186367060605437
1789665970366934800,0.400934814453125,2.422111411345005,0.36743250568360086,-0.6562575577940791
1789665970376886800,0.41088671875,2.5728566840857265,0.4422223737299442,-0.7070633236628026
1789665970386839800,0.42083984375,2.53819862768054,0.6324886327371001,-0.7060520277284086
1789665970396791800,0.430791748046875,2.231065692397952,0.8808486226640642,-0.7378278066955506
1789665970406744800,0.440744873046875,1.7242793688207865,1.1615085615627467,-0.6352461147516966
1789665970416696800,0.45069677734375,1.3511118266165256,1.3462164557904004,-0.4013808063842356
1789665970426649900,0.46064990234375,1.4615128140091895,1.3874195499248803,-0.35393951197993007
1789665970436601900,0.470601806640625,2.1838094357043505,1.167100536350906,-0.3543762594293803
1789665970446555000,0.480554931640625,3.257090993890166,0.6243832138232887,-0.3873313113089651
1789665970456507000,0.4905068359375,4.358945151087641,-0.09992211734578013,-0.5164407620312645
1789665970466459600,0.500459716796875,5.017905318903923,-0.8148767057150602,-0.6554360853433608
1789665970476412000,0.510411865234375,4.805045243033766,-1.5105392952457068,-0.45981969747990364
1789665970486365000,0.520364990234375,3.9742093361645936,-1.8476164101541042,-0.5256899806853383
1789665970496317000,0.53031689453125,2.7632717039138077,-1.6890050802133976,-0.7550301397785544
1789665970506270000,0.54027001953125,1.4106769452631474,-1.2103782448023557,-0.8599410053223371
1789665970516221700,0.5502216796875,0.1414654032200575,-0.7310127198532224,-0.5509961983121932
1789665970526174700,0.5601748046875,-0.7414420516699552,-0.2214602925635874,-0.40535814904998985
1789665970536127000,0.570126953125,-1.2128110249072312,0.27810324015319343,-0.45217835241388527
1789665970546080000,0.580080078125,-1.3065735967099665,0.4877788407683372,-0.44263431553170085
1789665970556032000,0.590031982421875,-0.9471505022197961,0.3924076647251844,-0.2727742636827752
1789665970565985000,0.599985107421875,-0.24914777930378912,0.04047989442646503,0.04174527471978217
1789665970575936800,0.609936767578125,0.5021551566451787,-0.42043636611849067,0.30773491976372896
1789665970585889800,0.619889892578125,1.082713987919688,-0.6912418504789472,0.3977521675582975
1789665970595841800,0.629841796875,1.3655728981673716,-0.7664758090309798,0.36881281759347767
1789665970605794800,0.639794921875,1.3220078972071407,-0.7852312167748808,0.3624114626511931
1789665970615747000,0.6497470703125,0.9484481408149004,-0.8011395645245909,0.3747918189378455
1789665970625699800,0.659699951171875,0.327021292579174,-0.7862956311360001,0.29558338553057983
1789665970635651800,0.66965185546875,-0.4001654392451048,-0.7158803249120712,0.22489527198094875
1789665970645604900,0.67960498046875,-1.1364794803768397,-0.6652642363965511,0.16240237452043219
1789665970655556900,0.689556884765625,-1.7214157960832117,-0.6331488502115011,0.07515276480829343
1789665970665510000,0.699510009765625,-2.129936975741386,-0.5800912137627602,0.027802089563198386
1789665970675462000,0.7094619140625,-2.3552000215888023,-0.49806934863626956,0.03300194149492308
1789665970685415000,0.719414794921875,-2.4642162766247986,-0.44289515842497346,0.05224168042335659
1789665970695367000,0.729366943359375,-2.4898119056522843,-0.45713937235474583,0.012997940195724367
1789665970705320000,0.73931982421875,-2.4559715953707695,-0.5270408838376403,-0.034874512167461215
1789665970715272000,0.74927197265625,-2.4478654458045956,-0.5938461828708649,-0.007126929270476102
1789665970725225000,0.759224853515625,-2.418839842328429,-0.6366919296458363,0.09702811293732375
1789665970735176700,0.7691767578125,-2.455203533607721,-0.6114788701951503,0.19919194479528812
1789665970745129700,0.779129638671875,-2.5539532461732626,-0.5367322567686438,0.22327811910789458
1789665970755082000,0.78908203125,-2.641325824677944,-0.5016930920913815,0.16539770214520394
1789665970765035000,0.799034912109375,-2.619491009488702,-0.5894903257489204,0.02146437444165349
1789665970774987000,0.808987060546875,-2.5929671597003936,-0.7269163904502988,-0.11722747241184114
1789665970784939800,0.818939697265625,-2.566960027262568,-0.8129924994036555,-0.20951332272551954
1789665970794891800,0.828891845703125,-2.486469024965167,-0.8694856632590293,-0.275667391308397
1789665970804844800,0.8388447265625,-2.2372452578157187,-0.8093255013287067,-0.28355715817753224
1789665970814796800,0.848796875,-1.917224199387431,-0.6952335504636168,-0.3168251849964261
1789665970824749800,0.858749755859375,-1.567569050195813,-0.6499877568095922,-0.27696031719576564
1789665970834701800,0.868701904296875,-1.2873323051452636,-0.629491789008677,-0.14313739155288785
1789665970844654800,0.87865478515625,-1.0279045393675565,-0.5858402788087725,0.052062414866313335
1789665970854606800,0.88860693359375,-0.847945447102189,-0.5945198443487286,0.32192959546335037
1789665970864559900,0.898559814453125,-0.6508902586072683,-0.7347486915111542,0.5941628476046026
1789665970874512000,0.908511962890625,-0.35108898138701916,-0.828502787746489,0.7331580613188445
1789665970884465000,0.91846484375,0.09710895962119102,-0.8536740538820624,0.7030126600325107
1789665970894417000,0.9284169921875,0.7742249618530272,-0.8773205946683883,0.5365107229724526
1789665970904370000,0.938369873046875,1.5735598150432109,-0.9089254009827971,0.250972437447682
1789665970914322000,0.948322021484375,2.186674762007594,-0.9717144501119851,0.14590528536364436
1789665970924275000,0.95827490234375,2.49034265152812,-0.9210361100152135,0.3828004629462957
1789665970934226700,0.968226806640625,2.5509745226234197,-0.6108993167415261,0.7565409096676856
1789665970944179700,0.9781796875,2.392849076503515,-0.06223053846359253,1.0294300684344022
1789665970954132000,0.988132080078125,2.168248878479004,0.652845192067325,1.209160174249485
1789665970964084700,0.998084716796875,2.0788257971853015,1.282640932458639,1.3769447715312242
1789665970974037000,1.008037109375,2.2639088083356618,1.621495870694518,1.526164442139864
1789665970983990000,1.017989990234375,2.9061078109651803,1.6899126965776086,1.629944257827103
1789665970993941800,1.027941650390625,3.887036664146185,1.4805319872558116,1.7787885192520916
1789665971003894800,1.037894775390625,4.920260352709889,1.034209192469716,1.8324797774292527
1789665971013846800,1.0478466796875,5.66700694052875,0.46605274665057655,1.7752929322212934
1789665971023799800,1.0577998046875,5.877449433863163,-0.18394962320625782,1.7565657276585698
1789665971033752000,1.067751953125,5.220682976698875,-0.6566458995245397,1.581560166147351
1789665971043705000,1.077705078125,4.041828581929207,-0.717181616768986,0.9965120606295764
1789665971053656800,1.08765673828125,2.5674340745151043,-0.42881402610242364,0.4353300569329411
1789665971063609900,1.09760986328125,1.0745441254675387,-0.185525201959908,0.5028734609823674
1789665971073561900,1.107561767578125,-0.16004969218075274,-0.02667436417490244,0.6371905998829752
1789665971083515000,1.117514892578125,-1.0846961016476153,0.2210531730674207,0.6571021919246762
1789665971093467000,1.127466796875,-1.5734762284129857,0.5945730358406901,0.6523821046002208
1789665971103420000,1.137419921875,-1.5924609148681164,0.8901485120594501,0.6813274824470281
1789665971113372200,1.1473720703125,-1.351153912192583,0.9685743985205888,0.8043933786887675
1789665971123325200,1.1573251953125,-1.0181301643282175,0.7506292744711041,0.9889591610319912
1789665971133277000,1.16727685546875,-0.6350555606156587,0.3651556467927992,1.0416807704593987
1789665971143230000,1.17722998046875,-0.34262685799002646,-0.03312485548853874,0.8422373716536908
1789665971153182000,1.187181884765625,-0.20240297926366327,-0.3196465260274708,0.527387724513933
1789665971163135000,1.197135009765625,-0.2816927890777588,-0.558600974227488,0.2602757609091699
1789665971173087000,1.2070869140625,-0.5558288791656494,-0.7006158280238509,0.13638985352143645
1789665971183040000,1.2170400390625,-0.911439721891284,-0.6918678734228014,0.08833170586042105
1789665971192992000,1.226991943359375,-1.4231640863925217,-0.560522005417943,0.03710457277446985
1789665971202944000,1.236944091796875,-1.9641993010520933,-0.34136370618641376,-0.01701663778517395
1789665971212897000,1.24689697265625,-2.3991209963798523,-0.16421411838382483,-0.030848617652244864
1789665971222848800,1.256848876953125,-2.767120780557394,-0.06689706896990537,0.03663195029404014
1789665971232801800,1.2668017578125,-2.997785977709293,0.120947515848279,-0.039659828481543806
1789665971242754000,1.276754150390625,-3.02196238758862,0.30752894886285065,-0.17470162839489056
1789665971252707000,1.28670703125,-3.0247920580565926,0.16677169391214847,-0.3395837274344638
1789665971262659000,1.2966591796875,-3.011471973234415,-0.1476508138567209,-0.5053139860022813
1789665971272612000,1.306612060546875,-2.788879023379087,0.2134077728807926,-0.4041870229113847
1789665971282563800,1.316563720703125,-2.566673611536622,0.630118396474421,-0.3729705948600545
1789665971292516900,1.326516845703125,-2.510714408427477,0.6296908187121153,-0.47863954876214265
1789665971302469000,1.33646923828125,-2.460772858172655,0.7906798375695944,-0.3224013776935637
1789665971312422100,1.346422119140625,-2.388157119295001,1.0199316607922315,-0.08852611418766901
1789665971322374100,1.3563740234375,-2.274012853720784,1.2823586083859204,0.004669389183679595
1789665971332327000,1.366326904296875,-2.1687813779205083,1.4081941885367035,0.0608558891095221
1789665971342279000,1.37627880859375,-2.0698107160806654,1.3920271898508072,0.16762642931165173
1789665971352232000,1.38623193359375,-1.8451351147323847,1.240672553040087,0.061192774647381154
1789665971362184000,1.396183837890625,-1.3825240329682826,0.7822212213039398,-0.2056013186472468
1789665971372137000,1.406136962890625,-0.8649328222602606,0.19491934551000595,-0.5113665275068954
1789665971382089000,1.4160888671875,-0.33698446818888184,0.01519172391295433,-0.8691932561837136
1789665971392042000,1.4260419921875,0.08096797215938567,0.29509339179024097,-1.040407608718425
1789665971401994000,1.435993896484375,0.4242214376151561,0.6785784759998321,-1.0220189884603024
1789665971411947000,1.445947021484375,0.6360264514744282,0.9439999292343855,-0.6549626226127148
1789665971421899000,1.45589892578125,0.5640156927525997,1.1169159711204468,-0.262599564214237
1789665971431852000,1.46585205078125,0.4085299474865198,1.2823375655978917,-0.09994089511148631
1789665971441804000,1.475803955078125,0.2877291466325521,1.4143625019080937,-0.08052709652408957
1789665971451757000,1.485757080078125,0.2811339861512184,1.322333768160641,-0.0732160793909803
1789665971461709000,1.495708984375,0.511259669598937,0.9360065923929214,-0.14640629368834196
1789665971471662000,1.505662109375,1.0570599067032336,0.42036125505566596,-0.31832477590441705
1789665971481613800,1.51561376953125,1.8481565083801745,0.043676936902105806,-0.6135303958974778
1789665971491566800,1.52556689453125,2.650180746784806,0.11606105898097156,-0.8744153747461736
1789665971501518800,1.535518798828125,3.157857881721854,0.4192059475407004,-0.9688071843631565
1789665971511471900,1.545471923828125,3.2509763104021547,0.7399471369370818,-0.9098303869985044
1789665971521424100,1.555424072265625,3.0939205393403766,0.9995363768868147,-0.7439856717381625
1789665971531377200,1.565377197265625,3.012857290112972,1.0267824034698307,-0.7022514664016664
1789665971541329000,1.575328857421875,3.0726293295085427,0.9735952954225242,-0.6993521647635846
1789665971551282000,1.585281982421875,3.412651557958126,0.7726239563971757,-0.7085299621492623
1789665971561234000,1.59523388671875,4.004688645580411,0.2819229445718229,-0.6940292161751538
1789665971571187000,1.60518701171875,4.650590009859204,-0.2510330085285008,-0.6496413545247167
1789665971581139200,1.61513916015625,5.0903889558345075,-0.5488828594200312,-0.6688417295571416
1789665971591092200,1.62509228515625,5.071030175369978,-0.7081136364333331,-0.6188726337082684
1789665971601044000,1.6350439453125,4.304631961619854,-0.7465694776862859,-0.4981299197170883
1789665971610997000,1.6449970703125,2.812141825544834,-1.1118180634595454,-0.5521530401971191
1789665971620949000,1.654948974609375,1.630572911119461,-1.5483448558963835,-1.308283030976355
1789665971630902000,1.664902099609375,0.954198667165637,-1.4000968067988753,-1.3671096062153576
1789665971640853800,1.674853759765625,0.2713964359909296,-1.2663807025313376,-0.9390633496150373
1789665971650806000,1.684805908203125,-0.2567582543075084,-1.1326935320973395,-0.8268717524785548
1789665971660759000,1.694759033203125,-0.5256792400956154,-1.0331477007180452,-0.8809887617871165
1789665971670711000,1.7047109375,-0.45486499768197536,-0.8145055343151092,-1.0567257063128053
1789665971680664000,1.7146640625,-0.2005371853917837,-0.4700342175021767,-1.2237187878906726
1789665971690615800,1.72461572265625,-0.07091770278811454,-0.43881285754740235,-1.01472905064784
1789665971700568800,1.73456884765625,-0.21129589529335496,-0.5363660538047552,-0.13875643652230502
1789665971710521000,1.74452099609375,-0.902090294265747,0.772017514936626,0.8583553435660898
1789665971720474000,1.75447412109375,-1.6703841125041246,1.6409829537138343,0.6442940752126276
1789665971730426000,1.764426025390625,-1.9808570058643817,1.3599094655781983,0.6495491461966186
1789665971740379100,1.774379150390625,-1.923915805980563,0.30795155818909403,0.8226777348548173
1789665971750331000,1.784330810546875,-1.6721669042676686,-0.5656178672522306,0.8020733382433652
1789665971760284000,1.794283935546875,-1.3355968620985745,-0.9655588500916957,0.21999164478313177
1789665971770236000,1.80423583984375,-1.2451269021004439,-0.9812813198804855,-0.4531373701717704
1789665971780189000,1.81418896484375,-1.403232474476099,-0.8833958229288458,-0.5690424348734319
1789665971790141200,1.82414111328125,-1.528730493235588,-0.8070885360568761,-0.31782201401405036
1789665971800094000,1.834093994140625,-1.6045289538025855,-0.7028218136355281,-0.1539749388443306
1789665971810046000,1.8440458984375,-1.6064871021330356,-0.690766634182632,-0.17318364331368355
1789665971819999000,1.8539990234375,-1.4781260951578616,-0.7535311333924531,-0.18729842217750847
1789665971829951000,1.863950927734375,-1.4424007017821072,-0.7994520498290657,-0.10937263072561472
1789665971839904000,1.873904052734375,-1.507435776272416,-0.8446060735464096,-0.029934498482011258
1789665971849856000,1.88385595703125,-1.6242589056670664,-0.8849684790730475,0.05885174621287733
1789665971859809000,1.89380908203125,-1.879538319593668,-0.8912854071348905,0.12018182870540767
1789665971869761000,1.903760986328125,-2.2331161951869727,-0.9545236613363027,0.06479045207947493
1789665971879714000,1.913714111328125,-2.639126853328943,-1.0322279555246234,-0.04260046677701175
1789665971889666000,1.923666015625,-2.879679238244891,-0.993136300586164,-0.12768398449644447
1789665971899619000,1.933619140625,-2.807479094430804,-0.8926751079276204,-0.24984496778771279
1789665971909570800,1.94357080078125,-2.479392802968621,-0.8066539440318942,-0.32789632184803486
1789665971919523800,1.95352392578125,-2.185596903643012,-0.85403295032233,-0.29039438378643245
1789665971929476000,1.96347607421875,-1.9955746825248002,-1.0488841990321873,-0.23618469122573732
1789665971939429000,1.97342919921875,-2.0748872886925933,-1.6789768765434623,-0.4746382041662931
1789665971949380900,1.983380859375,-2.1627976273357867,-1.8993124028608201,-0.8666583308786153
1789665971959334000,1.993333984375,-1.8062854518562554,-1.485348447626829,-1.0409051829770206
1789665971969286000,2.003285888671875,-1.47057582590878,-1.2172113056927918,-1.018514049079269
1789665971979239000,2.013239013671875,-1.057939612147212,-1.034604329267144,-0.7213043227221816
1789665971989191200,2.023191162109375,-0.7693973955661058,-1.1638365661188959,-0.15898571621105073
1789665971999143000,2.033142822265625,-0.48463119039237496,-1.3629270598337053,0.3658022010680288
1789665972009096000,2.043095947265625,0.081319854336977,-1.3411807997107505,0.6098273766610771
1789665972019048000,2.0530478515625,0.8863947124838829,-1.1302119444146752,0.6373553619906306
1789665972029001000,2.0630009765625,1.5998352430284022,-0.9464248182937502,0.5360303921096027
1789665972038953000,2.072952880859375,2.0100468599915504,-0.9433896883815527,0.5755271937828511
1789665972048906000,2.082906005859375,2.2016128034204243,-1.0547627356767655,0.6997055813111365
1789665972058858000,2.09285791015625,2.409499767053127,-0.992395711351931,0.6055607321925461
1789665972068811000,2.10281103515625,2.4323294384986163,-0.68492346111238,0.5924109624359757
1789665972078763000,2.112762939453125,2.2465660438686608,-0.31559505867958065,0.8560960933972149
1789665972088716000,2.122716064453125,2.220390569126606,0.056336511988937854,1.2269514862015842
1789665972098668000,2.13266796875,2.583330147305131,0.4065554325431585,1.387402160398662
1789665972108621600,2.14262158203125,3.2703929585337637,0.4868719550564885,1.3517393108651041
1789665972118573300,2.1525732421875,4.247475073158741,0.3375608067721128,1.224580153960362
1789665972128526300,2.1625263671875,5.176420641124248,0.03523147237896919,1.2427706943631172
1789665972138478600,2.172478515625,5.7331859243571754,-0.31230975339859723,1.2795803758442401
1789665972148431600,2.182431640625,5.664530321282148,-0.5000171217031777,1.246303252403438
1789665972158383600,2.192383544921875,4.763660508722067,-0.3965881652802229,1.220048428814858
1789665972168336600,2.202336669921875,3.3131600871145723,-0.07810542233511805,1.2303284152887761
1789665972178288400,2.212288330078125,1.8729910899072884,0.27100655989050865,1.3293234809175134
1789665972188241400,2.222241455078125,0.7243950552791356,0.5831793890364467,1.3169818857386708
1789665972198193700,2.232193603515625,-0.1817506518572569,0.9775943019308149,1.2628951985031365
1789665972208146700,2.242146728515625,-0.7849445087879896,1.2551885696485638,1.3323591953516005
1789665972218098700,2.2520986328125,-1.0158020136415957,1.4007958949789403,1.4982552754729985
1789665972228051500,2.262051513671875,-0.9212596896380185,1.345215754315257,1.6939707397967576
1789665972238003500,2.27200341796875,-0.6558031650900841,1.160000056695938,1.8099308226212858
1789665972247956500,2.28195654296875,-0.2986556143164635,0.9879670812547207,1.7454072047844529
1789665972257908500,2.291908447265625,-0.018111410751938818,0.7415913970127701,1.6027828407876192
1789665972267860700,2.30186083984375,0.09722411043345927,0.3552756194218993,1.4702210211217404
1789665972277813500,2.3118134765625,0.10495382790267467,0.02088379807472229,1.2922137935765088
1789665972287765500,2.321765625,0.05613397515416145,-0.15209639508873224,1.1665250745505094
1789665972297718500,2.331718505859375,-0.3942290349334478,-0.49430093601346015,1.574183646029979
1789665972307670500,2.34167041015625,-0.6642173576921224,-0.5568132140278816,1.5589878304637967
1789665972317623600,2.35162353515625,-0.9847855286091566,-0.5095037658423185,1.4196877885840833
1789665972327575600,2.361575439453125,-1.453576175791025,-0.4767646948009729,1.23584644805789
1789665972337528600,2.371528564453125,-1.592655560657382,-0.13755290595144032,0.7999710322018713
1789665972347480600,2.38148046875,-1.6775491818279027,0.22360329594165085,0.5435467590890825
1789665972357433600,2.39143359375,-1.727400131189823,0.6219634393304586,0.2945344062006101
1789665972367385600,2.401385498046875,-1.9994722744852302,0.6667240798160433,0.1898903748994693
1789665972377338600,2.411338623046875,-2.508378658956289,0.20487287650853395,0.2832443293686956
1789665972387290400,2.421290283203125,-2.9152660999327895,-0.4736673133075237,0.381161975024268
1789665972397243400,2.431243408203125,-2.775067940169573,-1.0435793706223369,0.2658115485306829
1789665972407195600,2.441195556640625,-2.449267713817954,-1.2127023038357496,0.2251272906385362
1789665972417148700,2.451148681640625,-2.25091254864037,-1.0213234074115753,0.1353558342985809
1789665972427100400,2.461100341796875,-2.366948327049613,-0.8103849472537636,0.1507702610515058
1789665972437053400,2.471053466796875,-2.669987271016836,-1.238319267912209,0.3911646789267659
1789665972447005400,2.48100537109375,-2.221527464202046,-2.236931077300012,0.9667144498676061
1789665972456958500,2.49095849609375,-2.578883689290285,-2.1724171040743587,2.0954004998892546
1789665972466910700,2.50091064453125,-2.4097411745935675,-1.4996893999293446,2.5606635574668646
1789665972476863700,2.51086376953125,-1.4931716885983943,-1.032573700222373,1.9630647440642117
1789665972486815500,2.5208154296875,-1.5655927816867827,-1.341390643069148,1.5874078692622482
1789665972496768500,2.5307685546875,-2.0299948385208846,-2.1799442847087978,1.3035541027583182
1789665972506720500,2.540720458984375,-1.5413070662140846,-1.095696511350572,0.7077424650333821
1789665972516672500,2.550672607421875,-0.5620686503380536,1.0865268242061137,-0.21652605103179812
1789665972526625500,2.56062548828125,-0.07876257106959819,1.9556316714540123,-0.363420639693737
1789665972536577500,2.57057763671875,-0.7448918998628854,0.719603144827485,-0.0002826163336634636
1789665972546530600,2.580530517578125,-1.5232523540854452,0.39001784697920083,0.2610102857287973
1789665972556482600,2.590482666015625,-2.1008125880658626,0.6660586016446352,0.3487285358659923
1789665972566435600,2.600435546875,-1.78365451785326,0.6376128438830375,0.22632377041410653
1789665972576387600,2.6103876953125,-0.7834259209185839,0.4643234386399388,0.272073421937041
1789665972586340400,2.62034033203125,0.24978315459787845,0.5141793564379215,0.42544681469164786
1789665972596292600,2.630292724609375,1.4436410572320222,0.9680638186499476,0.3393677100636065
1789665972606245600,2.64024560546875,2.1528420505106447,1.4697352834314108,-0.15810155378766358
1789665972616197600,2.65019775390625,0.9974316596925258,2.1358558443963527,-3.4492449663400646
1789665972626150700,2.660150634765625,-0.6764122378766536,3.8640339742213485,-10.289431178611517
1789665972636102400,2.670102294921875,-0.3892465703457594,2.5692244650632143,-3.4131738282665607
1789665972646055400,2.680055419921875,0.5460398910790681,-1.158032848276198,3.80019190890789
1789665972656007400,2.69000732421875,1.3816606941372156,-1.7474381260901688,0.06696523883529007
1789665972665960400,2.69996044921875,2.1647826636731624,-1.6276628688916563,-1.1376333265870808
1789665972675912700,2.70991259765625,1.7924504032492636,-1.8831117941662667,0.8687045228186995
1789665972685865700,2.71986572265625,0.9882768778562545,-1.1114005686998367,1.1636384131982922
1789665972695817500,2.7298173828125,1.4624398657262325,0.42009851246625185,1.0774028758995233
1789665972705770500,2.7397705078125,2.5593185725986958,0.7501379838228225,1.6184695086106657
1789665972715722500,2.749722412109375,2.7736902220755812,-0.3261155759111047,1.8313132178679108
1789665972725675500,2.759675537109375,2.6381208911567926,-0.7756754529222846,1.0355211518511176
1789665972735627800,2.769627685546875,1.3633891243875025,-0.9720628251582384,0.30126623520627616
1789665972745580500,2.77958056640625,0.027664251995086667,-1.14230687135607,0.015279986718297004
1789665972755532500,2.789532470703125,-0.7000386126577853,-1.2595458880752324,-0.3068327832922339
1789665972765485600,2.799485595703125,-1.3189444179832934,-1.567602952465415,-0.4537120282545685
1789665972775437600,2.8094375,-2.16629774441123,-1.5598822950854896,-0.6882368234440684
1789665972785389300,2.819389404296875,-2.604837045714259,-0.20635726984739303,0.38144057276993987
1789665972795342300,2.82934228515625,-1.500543094149232,1.5569994331255554,0.7624673040419816
1789665972805294600,2.839294677734375,-0.19600480265915393,1.6667068852961062,0.9720791917711495
1789665972815247600,2.84924755859375,0.053230070406198496,0.4537656581379473,2.12457807905674
1789665972825199600,2.85919970703125,1.0294698889881373,-0.9551748187214135,1.6531179204046724
1789665972835152600,2.869152587890625,1.9003204108595846,-1.636242773449421,0.5529550772950053
1789665972845104400,2.8791044921875,2.327389639121294,-1.804342793355882,-0.8338599308654665
1789665972855057400,2.889057373046875,1.7783815458863972,-1.850657531415671,-1.4598565712347626
1789665972865009700,2.899009765625,0.2551356215417385,-1.7057579159632323,-2.1932608623996375
1789665972874962700,2.908962646484375,-1.5756600021928548,-1.5084392542265355,-2.8504128117501732
1789665972884914700,2.918914794921875,-3.22838161675632,-0.9850849499471485,-2.6077903425619007
1789665972894867500,2.928867431640625,-3.771165136387944,0.21469021390676496,-1.9605390249788759
1789665972904819500,2.9388193359375,-3.293237243026495,0.8790376277193427,-1.1195756918489932
1789665972914772500,2.9487724609375,-2.8753403322577475,0.323235344299674,-1.2307573082253336
1789665972924724500,2.958724365234375,-2.8953882640302178,-1.0327030256904661,-2.127725144910812
1789665972934677500,2.968677490234375,-3.1014819145053623,-1.4347574935525655,-2.971974075582623
1789665972944629500,2.97862939453125,-2.9899650748252866,-0.6376959921218455,-2.631901578250527
1789665972954582500,2.98858251953125,-2.952546906057,0.04044350793883204,-2.1471043836414814
1789665972964534500,2.998534423828125,-2.5032062247544524,0.553361831464991,-1.8955875371187925
1789665972974487600,3.008487548828125,-1.5671370885193348,0.6781693106770516,-1.8630320059508083
1789665972984439600,3.018439453125,1.7699802127659319,1.0579989411190152,-1.5197428846597671
1789665972994391600,3.0283916015625,1.4885072039186953,0.32563290696069597,-1.9179875849753618
1789665973004344600,3.038344482421875,0.6671072339147329,-0.9394147203359753,-2.028762081855535
1789665973014296600,3.048296630859375,-0.06223989081382751,-1.8471521536432205,-1.955344963467121
1789665973024249600,3.05824951171875,-0.6232347744405269,-2.7925191334471107,-1.883566259935498
1789665973034201600,3.06820166015625,-1.4154156642228364,-2.8492192180514335,-2.9289029956191777
1789665973044154600,3.078154541015625,-2.6378391516059634,-2.7806594765663144,-4.5987779895573855
1789665973054106400,3.0881064453125,-3.2803730852782724,-2.9748052073553204,-2.5120839432150124
1789665973064059400,3.098059326171875,-3.1524183210164307,-1.9652673686750233,-0.09440145422816276
1789665973074011600,3.10801171875,-1.8994331066310404,-1.1260327590338886,1.9328402861922978
1789665973083964700,3.117964599609375,0.43039165068268775,-1.2931754782155156,2.729133871990442
1789665973093916400,3.12791650390625,2.3677397696882485,-1.592259108685702,2.744723070788383
1789665973103869400,3.137869384765625,3.4918215407848354,-2.174694401356578,2.6678525970757008
1789665973113820700,3.147820556640625,3.555267884778976,-2.812136272586882,1.7627099295020103
1789665973123773700,3.157773681640625,2.6882471503287553,-3.3611201081633566,1.728632887855172
1789665973133726000,3.167725830078125,1.8176918120115995,-3.1377509132385253,0.7867629563868045
1789665973143679000,3.177678955078125,0.4283075378850102,-2.9044530294954773,-0.12813128987252712
1789665973153630700,3.187630615234375,-0.6580556201919913,-2.704261881062388,-0.6085065763860941
1789665973163583700,3.197583740234375,-0.8036211522072553,-2.603468095448613,-0.9394757298082113
1789665973173535700,3.20753564453125,-0.5142521294131874,-2.9684263199731706,-0.8592816646307706
1789665973183488000,3.217488037109375,-0.1924301590427756,-3.346001449486613,-0.21200842747688292
1789665973193440800,3.227440673828125,0.08415770811140537,-3.496298978459835,0.3675760058075189
1789665973203392800,3.237392822265625,0.6087374625325203,-3.695078506529331,0.5695318258255719
1789665973213345800,3.247345703125,1.2980500985145569,-3.93411814879477,0.660292293202877
1789665973223297800,3.2572978515625,1.9297930274508892,-4.057869616147875,0.9690180506348609
1789665973233250800,3.267250732421875,2.203903544706106,-4.1251027852043505,1.4407926820635795
1789665973243202600,3.27720263671875,1.8518617926388978,-4.204505407743156,2.124700244131684
1789665973253155600,3.287155517578125,1.3207839083701371,-3.4286034525886175,3.283335442215204
1789665973263107800,3.29710791015625,1.3475836524903773,-2.261885193553567,4.3760114367008205
1789665973273060900,3.307060791015625,1.6514543711066245,-1.2725576376006007,5.549403474411368
1789665973283012900,3.317012939453125,1.7238929998517036,-0.5479644294008612,6.565303687730431
1789665973292966000,3.3269658203125,1.3045236784428358,-0.21859423560798166,6.806499631246924
1789665973302917600,3.336917724609375,0.9813584767699242,0.05292319641411304,6.700960112410783
1789665973312870700,3.34687060546875,0.8279495377779007,0.5593593913793563,6.650752020174265
1789665973322823000,3.356822998046875,0.43320553905963893,0.9898170930355786,6.535096180993318
1789665973332776000,3.36677587890625,-0.43244332251548767,1.7013579274386166,6.662610215750337
1789665973342728000,3.37672802734375,-0.8835171112209558,2.5911037039160725,6.6324085542321205
1789665973352680700,3.3866806640625,-0.5383657031893729,3.1332997790485617,6.6359028260886666
1789665973362632700,3.3966328125,-0.786903826162219,3.253739345374703,6.651201517507434
1789665973372584700,3.406584716796875,-1.205724281516671,3.6123902864485977,6.211304956376552
1789665973382537700,3.416537841796875,-1.9951830528587102,4.2918736023336646,5.570456783834099
1789665973392489700,3.42648974609375,-2.6983418433636426,5.241335888627171,5.253026326420903
1789665973402442800,3.43644287109375,-2.536234634131193,6.180918001419306,5.126773105379939
1789665973412394800,3.446394775390625,-2.079032133412361,6.422013991692662,4.830730888432264
1789665973422347800,3.45634765625,-1.5964549529403447,6.25489333821237,4.89782231093049
1789665973432299800,3.4662998046875,-1.1768366252064704,6.006498423102498,4.896562081736326
1789665973442252800,3.476252685546875,-0.9277367766976355,5.8112710345566265,4.375473092040419
1789665973452204800,3.486204833984375,-0.8955600157141685,5.744656581920385,3.716300158256292
1789665973462157800,3.49615771484375,-1.1203601202249527,5.612709533151984,2.930847699946165
1789665973472109800,3.50610986328125,-1.631033514368534,5.389875175756216,2.11736040276289
1789665973482062800,3.516062744140625,-2.4394950923442837,5.086363938102126,1.2699760966748
1789665973492014800,3.526014892578125,-3.538331947547197,4.375345666268467,-0.14626666602194308
1789665973501967600,3.535967529296875,-2.0799895802676676,4.199724895468354,-0.4657797749280929
1789665973511919600,3.545919677734375,-1.751798074865341,3.2104426399618387,-0.9713707512408495
1789665973521872600,3.55587255859375,-1.791621551209688,2.6832649780020117,-1.4191472519665955
1789665973531825000,3.565824951171875,-1.7237842787802218,2.4754618932604786,-1.584468162548542
1789665973541778000,3.57577783203125,-1.7166846759080885,1.9302260120406747,-1.8514654867976903
1789665973551729700,3.585729736328125,-1.6606524075627327,1.4241303010761737,-1.716014229300618
1789665973561681700,3.595681640625,-1.700277146464586,1.1917977552339434,-2.022895820170641
1789665973571634700,3.605634765625,-2.3727216497540473,0.6891314341962337,-2.9810359184384345
1789665973581587000,3.6155869140625,-2.8776994626045225,0.42494653701931234,-3.55781581569612
1789665973591540000,3.6255400390625,-2.4295406845629213,0.8618541454672813,-3.2872225127816197
1789665973601491700,3.63549169921875,-1.5415198321819306,0.3800894504219293,-2.9448434920728204
1789665973611444700,3.64544482421875,-1.0621510923624038,-1.0112371899440884,-3.1970144185900686
1789665973621396700,3.655396728515625,-0.6127181296665221,-2.0624612301006913,-3.763865627029538
1789665973631349800,3.665349853515625,-1.4571277307927608,-3.3215558672770857,-4.056888203895092
1789665973641301800,3.6753017578125,-2.177419880797714,-4.075515162953734,-2.3162942446112633
1789665973651254800,3.6852548828125,-2.558232530927658,-2.5215061438158153,0.5407745178967714
1789665973661206800,3.695206787109375,-2.2816415950335562,-0.37597938475459813,0.07413666483461856
1789665973671159800,3.705159912109375,-1.2085188076060265,1.1226415091603994,-1.181264963042736
1789665973681111800,3.71511181640625,-2.842702968025207,-2.760774334140122,0.7666770306915044
1789665973691064800,3.72506494140625,-2.780073785632849,-3.6441555440217255,2.199174178096652
1789665973701016800,3.735016845703125,-1.1835609650254248,-1.6540006945885717,1.2605132718026637
1789665973710969600,3.744969482421875,-0.022743746727705,-2.221389370905608,1.753029077965021
1789665973720921900,3.754921875,0.7081517764866352,-2.2945872935853897,1.3995406342208385
1789665973730875000,3.764875,0.2568600341815501,-2.8214246176749467,2.082277398943901
1789665973740827000,3.774826904296875,0.708462596001476,-3.0648218706279993,2.2485300374180075
1789665973750778600,3.784778564453125,1.138390282434225,-3.580910275557637,3.558826454043388
1789665973760731600,3.794731689453125,-0.678758654872328,-5.745403600895404,7.185069324755668
1789665973770683600,3.80468359375,1.5245277808487414,-4.585031203755736,7.98780083464682
1789665973780636700,3.81463671875,3.3557623805224894,-3.891820099030435,7.229915597698092
1789665973790589000,3.8245888671875,2.1009540423631665,-5.066116684365272,5.942448267996311
1789665973800542000,3.8345419921875,2.2228350396692753,-4.829752983310819,1.8357547074466942
1789665973810493700,3.84449365234375,3.207695971602201,-2.8483669851362703,-2.4185446587741373
1789665973820446700,3.85444677734375,2.8753368251264093,1.1435554101124406,0.32344752574563024
1789665973830398700,3.864398681640625,2.0765748033881186,2.5341744867309925,2.552936178085208
1789665973840351700,3.874351806640625,1.6858640057086944,0.8292011452741921,1.6616005020678042
1789665973850304000,3.884303955078125,1.2953952000916003,-0.5745522843360901,2.491456165727973
1789665973860256800,3.8942568359375,1.419722421506047,-0.6190929984606802,2.857816366004944
1789665973870208800,3.904208740234375,1.440023451256752,-0.4646045936688781,1.7211176899194716
1789665973880161800,3.914161865234375,0.8096218539267778,-0.4602236021056771,0.8951584491759538
1789665973890113800,3.92411376953125,1.2007312955349683,-0.7175928279183804,0.24488953733742236
1789665973900066800,3.93406689453125,2.648845114266872,-1.4512237674459814,-0.5603337893694639
1789665973910018600,3.9440185546875,3.1090327682763337,-2.0235344103351234,-2.210849418321252
1789665973919970800,3.953970703125,3.223707779726386,-2.068499048960209,-3.60052390756607
1789665973929923800,3.963923828125,4.074065548667312,-1.6713059035241602,-4.311494248604774
1789665973939875800,3.973875732421875,4.938227386555075,-1.377607327093184,-3.7837130677938458
1789665973949828900,3.983828857421875,5.0663236051142215,-1.7785878821134566,-2.9472283413827416
1789665973959780600,3.993780517578125,3.5688702936738728,-1.7378917145878074,-3.618331951457262
1789665973969733600,4.003733642578125,1.8759240746192634,-1.1569216721639037,-4.796158756744862
1789665973979686000,4.013685791015625,0.8596575122058391,-0.21890520125329493,-6.259646670219301
1789665973989639000,4.023638916015625,0.5773281787902117,0.9736024558156728,-5.957470480561256
1789665973999591000,4.0335908203125,-0.28251696494221684,1.77322898542881,-5.124254400557279
1789665974009544000,4.0435439453125,-1.9645419770099222,1.7226868389323353,-4.089879203870892
1789665974019495700,4.05349560546875,-3.465788981644809,1.8760957779243588,-3.1116344752073286
1789665974029448700,4.06344873046875,-3.7040760519772764,2.4790774534091353,-2.034997761374712
1789665974039400700,4.073400634765625,-3.3547944122731685,2.9150442738756537,-1.674063093277812
1789665974049353700,4.083353759765625,-3.1039614563614126,3.0024411100387574,-1.6943945181667803
1789665974059305700,4.0933056640625,-3.556536297279596,2.922823675705492,-1.9327415019929408
1789665974069258800,4.1032587890625,-3.6025302789524196,2.6233070606455207,-2.378392096605897
1789665974079210800,4.113210693359375,-2.9125059875696895,2.4263608854830263,-2.4386679938703772
1789665974089162800,4.123162841796875,-1.488286985296756,2.027878284758329,-1.9806635291188954
1789665974099115800,4.13311572265625,-0.058238546217978,2.1637103582665325,-1.4510592245340346
1789665974109068000,4.143068115234375,0.6750795279681682,2.5936031195163727,-1.4289204579621553
1789665974119021000,4.15302099609375,0.2584936997979879,2.9158292867735027,-1.8540104951053857
1789665974128973000,4.16297314453125,-0.6439727343037724,3.05204480664134,-2.2509978888362645
1789665974138926000,4.172926025390625,-1.2847896349251269,3.11237740252912,-2.3395412646859883
1789665974148878000,4.182878173828125,-1.2425526676982641,3.3879508319437504,-2.1785370482593773
1789665974158831000,4.1928310546875,-0.9790990074053406,3.431196683952212,-1.4179022203415632
1789665974168783000,4.202783203125,-0.8694953078702091,2.8857389766752717,-0.30090251646041866
1789665974178736000,4.212736083984375,-0.7275235625632107,2.468122636413574,0.3472831593632698
1789665974188688100,4.222688232421875,-0.5777293069370091,1.790605067643523,1.2026239774137735
1789665974198641200,4.23264111328125,-0.6724287211984395,1.0518792891949416,3.398643490871787
1789665974208593200,4.24259326171875,-1.2073306938000024,0.8057260155320167,3.7673523001015186
1789665974218546200,4.252546142578125,-1.0039870726853608,0.8622785083591937,4.790012509074807
1789665974228498200,4.262498291015625,-0.6019337738670408,1.007634489277005,5.703643603530526
1789665974238451000,4.272450927734375,0.08101699893288314,1.3979483965933321,6.035383741325139
1789665974248403200,4.2824033203125,0.7623280417017638,1.8008920683801173,8.20430891163051
1789665974258356000,4.29235595703125,0.8353442511390894,1.8025737378567457,10.532012439006566
1789665974268308200,4.30230810546875,-0.6026526627261192,1.2181705061137675,11.618925047659873
1789665974278260200,4.31226025390625,-2.6838953848600386,0.17171674909889698,11.487551414865255
1789665974288213000,4.322212890625,-5.352766219067573,-1.2049936291545629,10.984889477741717
1789665974298165000,4.3321650390625,-4.588190544569492,-1.3120721941262483,8.925852084609865
1789665974308118000,4.342117919921875,-2.8084102378010747,-0.635797318893671,6.806050133913755
1789665974318070300,4.3520703125,-1.7370412352383136,0.13184534195959569,4.810303601953387
1789665974328023300,4.362023193359375,-1.1703414179682732,0.6877262435734272,3.412695981621742
1789665974337975000,4.37197509765625,-0.6900631620883941,0.8723661871314048,2.2863363287210463
1789665974347928000,4.381927978515625,-0.24582521075233815,0.707756639689207,1.4928805966973304
1789665974357880000,4.391880126953125,-0.2898608979642391,0.19612112251520156,0.8980237754791974
1789665974367833000,4.4018330078125,-0.28324878634810446,-0.4876140055954456,0.07540975351035595
1789665974377785000,4.41178515625,0.8265244734108448,-0.6112514911800623,-0.3392261096358299
1789665974387738000,4.421738037109375,1.6126805499456822,-1.067982867255807,-0.41789515720307824
1789665974397690000,4.431690185546875,2.0343734919965266,0.06390227106809615,-1.2571850041627883
1789665974407643100,4.44164306640625,1.1739609236396849,1.74310915697515,-1.8882243148744104
1789665974417595100,4.45159521484375,-0.17807547047585248,1.4909744708150625,-1.896920247027278
1789665974427547100,4.461547119140625,-2.777446944260597,1.2352391298145056,-1.852612903267145
1789665974437500000,4.4715,-6.543147385501861,0.9353180256068706,-1.8934756595313549
1789665974447452200,4.4814521484375,-9.010359336811304,-2.3875778581023215,-2.4455443093806504
1789665974457405200,4.4914052734375,-6.7604971740067,-8.585914611834287,-3.2168419856101274
1789665974467357200,4.501357177734375,0.31765725190639493,-9.763919111776351,0.9001414982855319
1789665974477310200,4.511310302734375,2.55314689822644,-13.382359784305095,7.913571815353632
1789665974487262000,4.521261962890625,8.798677072548866,-12.835767520040273,4.665409685589373
1789665974497215000,4.531215087890625,7.419003168314695,-14.592638075864315,0.992899276959896
1789665974507167000,4.5411669921875,4.000386856733262,-12.335518489277362,-3.41529184333384
1789665974517120000,4.5511201171875,2.942437307713926,-7.637205189734697,-4.3564235236555335
1789665974527072300,4.561072265625,3.4711835341647266,-3.055966948521137,-4.147988278490304
1789665974537025300,4.571025390625,3.331228827768564,0.5900415298908949,-4.074759960672259
1789665974546977000,4.58097705078125,2.9397219112753867,2.9200334604650733,-3.9687200910985467
1789665974556930000,4.590929931640625,2.921219747640192,3.9702749193251132,-4.293372316458821
1789665974566882000,4.600882080078125,3.171931122998893,4.51946889052093,-5.017243640124797
1789665974576834300,4.610834228515625,3.32397169624716,5.036958394420147,-5.44934267924726
1789665974586787300,4.620787353515625,3.572951717768609,5.229590505775809,-5.711649799853563
1789665974596739000,4.630739013671875,4.002755339430272,4.650175583839416,-6.394123529726267
1789665974606692000,4.640692138671875,3.7722573155388233,3.3676182380110022,-7.20464788545072
1789665974616644000,4.65064404296875,3.5034126098573206,2.6854344309955835,-7.595107923239469
1789665974626597000,4.66059716796875,3.5584546981215475,2.526096686476469,-7.884952454590797
1789665974636549000,4.670549072265625,3.70324895350337,2.3870810144960877,-7.882672819221019
1789665974646502100,4.680502197265625,3.4770883742943406,2.0957021131843327,-8.135327729862928
1789665974656454100,4.6904541015625,3.32618206577301,2.091393017813563,-8.125303179454804
1789665974666407200,4.7004072265625,3.01277750287503,2.5466426308989525,-8.044639158678054
1789665974676359200,4.710359130859375,2.3188912753671405,3.2199469658881426,-7.7887015731036655
1789665974686312200,4.720312255859375,1.9940978879705071,3.7961943637043234,-7.79068836300671
1789665974696264000,4.730263916015625,1.8556001023843884,4.4233623859405515,-7.6119743023663755
1789665974706217000,4.740217041015625,0.995568203908205,4.690374907758832,-6.807130330365895
1789665974716169200,4.750169189453125,-0.5954466038048267,4.643095854711532,-5.02141654189527
1789665974726122200,4.760122314453125,-3.9235017699733374,4.008659887298942,-2.8862597856789827
1789665974736074200,4.77007421875,-10.870182902109622,2.630507493543625,-0.49156362000405784
1789665974746027300,4.78002734375,-25.004144313049316,-0.9404378528386353,6.43895168249011
1789665974755979000,4.78997900390625,-15.937831033825873,-7.27184452188909,19.272979665386675
1789665974765931000,4.799930908203125,1.0968246385976672,-9.908324075579642,26.32336345632076
1789665974775884000,4.809884033203125,1.2381250605143606,-10.930578041839599,20.540866096305844
1789665974785836300,4.819836181640625,-0.8910580281198024,-12.162787594699859,13.677985237145423
1789665974795789000,4.8297890625,-6.907727716624736,-10.551819547760486,9.331042074018717
1789665974805741000,4.839740966796875,-6.990231812310219,-4.316820412063598,5.668642432776093
1789665974815694000,4.849694091796875,-1.504663535080105,0.39473873802125453,-0.26395605685710904
1789665974825646000,4.85964599609375,1.3820214902736245,0.6432271766334772,-3.132970693224668
1789665974835599000,4.86959912109375,1.2810801128827034,-1.3791396512269973,-4.126937891677022
1789665974845551000,4.879551025390625,1.3974807790815829,-2.0429133568048474,-5.076547477486729
1789665974855504100,4.889504150390625,1.3049883733451366,-3.2942186552792787,-5.414496991315484
1789665974865456000,4.8994560546875,-3.0404572447001934,-5.97801467141807,-5.831793013581633
1789665974875409200,4.9094091796875,-9.887848273783922,-11.2056996358335,-1.3212515258818864
1789665974885361200,4.919361083984375,0.30837475203722714,-13.89274793176651,2.3175673332870006
1789665974895314200,4.929314208984375,8.365027296853064,-9.34761385411322,-0.6193669930964708
1789665974905266000,4.939265869140625,9.405962582707405,-3.607047756376862,-2.814961559140682
1789665974915218200,4.94921826171875,7.797320932888984,0.5050497090429067,-4.983969147032499
1789665974925171200,4.959171142578125,6.541493188554048,3.350914355969429,-5.476611209923028
1789665974935123200,4.969123291015625,5.562853907614946,4.921496031984686,-5.863813122698664
1789665974945076200,4.979076171875,4.480000218963623,5.559699242976308,-6.222443605506419
1789665974955028000,4.989028076171875,3.8100796811938284,5.606458071541786,-6.810301361617445
1789665974964981000,4.99898095703125,3.6302982835829254,4.623513786885142,-6.814480693128704
1789665974974933200,5.008933349609375,3.7836429251670833,2.6781349216371773,-6.3793462318331
1789665974984886300,5.01888623046875,3.992653924393654,0.6713116998672485,-5.204505748879909
1789665974994838000,5.028838134765625,3.7536253880441186,-1.236849487620592,-3.2993735538244247
1789665975004791000,5.038791015625,3.5882664835393427,-3.2626603184551,-1.270986735022068
1789665975014743000,5.048742919921875,4.657427162402868,-4.8178556247681374,0.6214022983163595
1789665975024696000,5.058696044921875,5.088853416830301,-5.558375300896167,1.2388351084798574
1789665975034648000,5.06864794921875,4.773852232390642,-4.919906716966628,1.252196402095258
1789665975044601000,5.07860107421875,3.0747979057192802,-2.5269179397314785,0.1818020897835493
1789665975054553000,5.088552978515625,1.7239245640337466,-0.66716860871315,1.3916332220971583
1789665975064506000,5.098506103515625,0.8407201720237731,0.38629356575906276,1.060998122934997
1789665975074458000,5.1084580078125,0.017000819161534307,1.4113608358740806,0.5335416440337896
1789665975084410000,5.11841015625,-1.1563368580132722,2.3165210391044617,1.0613090885803103
1789665975094363100,5.128363037109375,-3.1976468712747095,2.6715175493240353,1.856117404256761
1789665975104315100,5.138315185546875,-3.1271219671964645,2.9115006099194285,1.7957126199156044
1789665975114268000,5.148267822265625,-1.6318723032802342,2.4960703815251586,1.922884709367156
1789665975124219600,5.1582197265625,0.9909003582276403,1.6710574817210435,1.2086322779178618
1789665975134172700,5.168172607421875,1.38075702329576,1.2109873166114091,0.538057952414453
1789665975144124700,5.178124755859375,0.11863785066641866,0.846574743270874,-0.06662555855214596
1789665975154077700,5.18807763671875,-1.7402018912263213,0.5254068528950214,-0.5366384410053491
1789665975164030000,5.198030029296875,-3.2716777376472947,0.628919249817729,-0.8754106693938374
1789665975173983000,5.20798291015625,-2.9836896478176116,0.8337555937081574,-1.3853566260457038
1789665975183934700,5.217934814453125,-1.2191413969725369,1.0123235238760708,-1.408212016454339
1789665975193887700,5.2278876953125,0.5066955765537917,1.253448155722022,-0.8253408165842294
1789665975203839700,5.23783984375,1.3613069112859666,1.325845867934823,0.31140929742753504
1789665975213792800,5.247792724609375,1.2951841876894234,1.1506646575957535,1.405015558500588
1789665975223744500,5.25774462890625,0.2106608122602105,0.9444675467461348,2.2697601647123693
1789665975233697500,5.267697509765625,-2.0751228510141373,0.9591209259986877,2.454642100332677
1789665975243649800,5.27764990234375,-4.892535310438275,0.9689765495806932,1.6432883080467582
1789665975253602800,5.287602783203125,-6.103141518777608,0.5692120923519134,1.5609133916988969
1789665975263554800,5.297554931640625,-3.9343759229481217,-0.1169821193486452,2.378738425825536
1789665975273506600,5.307506591796875,-0.920180954490602,-0.7178343815892935,3.6138323019504544
1789665975283459600,5.31745947265625,1.775731177508086,-0.6522539481759071,5.169064433142543
1789665975293411800,5.327411865234375,3.416304819768667,-0.19207681556046008,7.113229246425628
1789665975303364900,5.33736474609375,2.041055161717534,1.1107517494022845,9.699378542804718
1789665975313316900,5.34731689453125,-1.2086965753257275,3.0658266637563703,11.310134992820023
1789665975323270000,5.357269775390625,-3.1138106502026317,4.219014117828011,11.53851237129569
1789665975333221600,5.3672216796875,-2.12458231684044,4.167028494524955,9.622134559604525
1789665975343174700,5.377174560546875,-0.36614100456833837,3.377341175124049,7.559196651902794
1789665975353126700,5.387126708984375,-0.6387512002632022,1.9539824429422616,6.332579219961166
1789665975363079700,5.39707958984375,-2.142830067323148,0.020053192469477652,5.6676095825970165
1789665975373032000,5.407031982421875,-3.060258508235216,-2.222932070302963,5.570846659934521
1789665975382984700,5.416984619140625,-3.569753798510134,-4.19976873461008,5.716040143766999
1789665975392936700,5.426936767578125,-3.3593501758813855,-4.604124611282348,5.684601049408316
1789665975402889700,5.4368896484375,-2.3871903200894593,-2.917380315607786,6.376124931699037
1789665975412841700,5.446841796875,-1.5060983901888132,-0.473187420836091,7.445732185286283
1789665975422794800,5.456794677734375,-1.2705337305575608,1.0907575936436653,7.653053916251659
1789665975432746800,5.466746826171875,-0.7125771917134524,1.9519822090357541,6.793394065958261
1789665975442699800,5.47669970703125,-0.8226981931209564,2.5246663614124056,5.150263286560773
1789665975452651800,5.48665185546875,-2.0261638820558785,2.4728496649354694,3.5765804296597836
1789665975462603800,5.496603759765625,-1.775524987411499,1.4222154073655604,2.8444375367328525
1789665975472556800,5.506556884765625,-0.09442541962563991,-0.5549345606744289,2.666710149042308
1789665975482508500,5.516508544921875,0.9623007250785827,-3.2083447908997536,2.487192663064599
1789665975492461600,5.526461669921875,1.4369465280294418,-5.573492206007242,2.026138747614622
1789665975502413800,5.536413818359375,3.799752348446846,-7.618822560825944,1.883379797452688
1789665975512366800,5.546366943359375,5.140082084286212,-9.100444681406021,0.9732926592141389
1789665975522318800,5.55631884765625,4.4669326475977895,-10.130154808890818,-0.5036521172046661
1789665975532271900,5.56627197265625,2.410602175337076,-11.01662667826414,-1.6948405083686113
1789665975542223600,5.5762236328125,-0.44735082265958187,-11.610753431642054,-2.714488091522455
1789665975552176600,5.5861767578125,-1.9884392776869235,-10.346134478086233,-3.306415289029479
1789665975562129000,5.59612890625,-0.9257251446142792,-6.483607401296496,-2.0754437535315753
1789665975572082000,5.60608203125,2.652972131069004,-4.137157672396302,-1.3900836545675992
1789665975582033700,5.61603369140625,4.7800130931079385,-2.277801140087843,-0.9355378058373928
1789665975591986700,5.625986572265625,3.371392495852709,0.34277065037488935,1.203520049470663
1789665975601938700,5.635938720703125,2.5738579700827597,1.556748380973935,0.9743453831374644
1789665975611890700,5.645890625,3.8312557402133938,2.2583453289896247,0.8218944755226373
1789665975621843700,5.65584375,3.9963901883125303,2.8525188441187144,0.5274538485527038
1789665975631795700,5.665795654296875,3.855038766860962,2.7388831125885247,-0.7902437842398882
1789665975641748700,5.675748779296875,3.9629438457846637,2.2993682442516086,-1.9475088630139827
1789665975651700700,5.68570068359375,3.8449870361849663,0.4712169975459575,-3.1548575308620928
1789665975661653800,5.69565380859375,3.392764954227209,-0.976748352625966,-4.29012880449295
1789665975671605800,5.705605712890625,2.8373195214211937,-1.0385048438370228,-5.121141236972808
1789665975681558800,5.715558837890625,2.7457261103510855,-0.8953086713016033,-5.966662087276577
1789665975691510800,5.7255107421875,3.021747868055105,-0.6826853267967701,-6.553628447505831
1789665975701463800,5.7354638671875,3.214874192668497,-0.4166577243626117,-7.15231564066708
1789665975711415800,5.745415771484375,3.3764977100372313,-0.06243044494986534,-7.65281017062366
1789665975721368800,5.755368896484375,3.370476257790625,0.3480880460053682,-8.164022493949531
1789665975731320800,5.76532080078125,3.4897619779065248,0.6246142461001872,-8.887923628231883
1789665975741273600,5.775273681640625,3.5673759634628888,0.8307944058150053,-9.576628361448645
1789665975751225600,5.7852255859375,3.6339717113986607,1.1088029534220696,-10.187609803515672
1789665975761178600,5.7951787109375,3.61786901012063,1.5164952810406684,-10.691120466423033
1789665975771131000,5.805130859375,3.269975902165472,2.0058231048166753,-10.974372759902476
1789665975781082600,5.81508251953125,2.8104394055411217,2.4228379720538853,-11.020056652712821
1789665975791035600,5.82503564453125,2.6563071207106113,2.6191683534055947,-10.834794777864218
1789665975800987600,5.834987548828125,2.3136463604509827,2.8195582392811773,-10.244330638647078
1789665975810940700,5.844940673828125,1.5617409285642205,2.62272107745111,-9.4458795825541
1789665975820893000,5.854892822265625,0.24881825508847832,1.7526438780397176,-8.070856134474276
1789665975830846000,5.864845947265625,-2.4489023876369,0.4895955348014831,-5.574860571750998
1789665975840797700,5.874797607421875,-9.03455620495677,-1.0563608185231685,-1.1989724691689014
1789665975850750700,5.884750732421875,-23.400609046459195,-4.511154066640138,6.6485033644646405
1789665975860702700,5.89470263671875,-19.587503879964352,-6.856249458321929,24.37616672799587
1789665975870655700,5.90465576171875,1.3645640133857726,-7.687282933589816,36.4356809952259
1789665975880607700,5.914607666015625,3.7959202229380606,-8.953844253385066,28.171934975242614
1789665975890560500,5.924560546875,-0.3759387604832649,-7.097576334741711,19.161734628385304
1789665975900512800,5.9345126953125,-6.336719973027706,-1.080895540320873,6.586356997153162
1789665975910465800,5.9444658203125,-7.356673261129855,2.0812562392026184,0.33520576807856556
1789665975920417800,5.954417724609375,-2.3038065189599988,1.4593565127581356,-1.401932497793436
1789665975930370800,5.964370849609375,1.6351779206968844,-0.6370224767744541,-3.153490334162116
1789665975940322600,5.974322509765625,2.855364881199598,-2.5741882249504324,-4.421628109493851
1789665975950274800,5.98427490234375,1.6511285001531242,-3.3987527964651583,-5.682194572788476
1789665975960227800,5.994227783203125,-0.11235445954799651,-4.952589673906564,-6.189930744436383
1789665975970179800,6.004179931640625,-3.374107015508413,-8.863000783899427,-4.910993342670798
1789665975980132900,6.0141328125,-7.739061636143922,-14.420664721655845,-0.9773112472057341
1789665975990084600,6.024084716796875,-2.487790628957748,-14.410781625545024,2.221701651725173
1789665976000037600,6.03403759765625,4.9754444797933095,-6.223838859257102,-0.28430151027143
1789665976009989600,6.04398974609375,8.92702171291113,-1.3035212234020233,-4.040836063760519
1789665976019942700,6.053942626953125,7.6348717783510684,1.6610931370675563,-6.581208528348803
1789665976029895000,6.06389501953125,6.601759733468294,3.5444764416515824,-7.1332555508881805
1789665976039848000,6.073847900390625,5.653488702785968,4.599540206101537,-7.0398384315222495
1789665976049799700,6.083799560546875,4.7217093726992605,5.077373991438746,-7.008213459202647
1789665976059752700,6.093752685546875,4.150617457950115,4.8243601843565695,-6.888389394426345
1789665976069704700,6.10370458984375,4.036173917168378,4.039889138299227,-6.265341666990518
1789665976079657000,6.113656982421875,4.630098425972461,2.6197616431236264,-5.633626064452528
1789665976089610000,6.12360986328125,4.551280325323343,0.5622013368070126,-4.624714979368448
1789665976099561700,6.133561767578125,4.3438650708556175,-1.8021119655638933,-2.3854104509353635
1789665976109515000,6.143514892578125,4.765161560934782,-3.9955876397579906,-0.3350941243976354
1789665976119467000,6.153467041015625,5.739039326560497,-5.571065271121263,0.9175041364967822
1789665976129420000,6.163419921875,5.778500399333239,-5.803914242053032,2.0723113007247447
1789665976139372000,6.1733720703125,4.507425986027718,-4.079359563422202,2.820418655502796
1789665976149324800,6.18332470703125,2.905782232272625,-1.2213882991164922,2.2838158703327176
1789665976159277000,6.193277099609375,1.5540613338470457,0.9786275905013084,0.946417804031074
1789665976169230000,6.20322998046875,0.9922750075817107,2.2067601031810042,0.19467092370688915
1789665976179182000,6.21318212890625,-0.4476175107717514,2.5802836192160843,0.18743220462501048
1789665976189135000,6.223135009765625,-2.4369524221241474,3.1829391314864157,0.7324222943902016
1789665976199086800,6.2330869140625,-3.4015649312764404,3.14512699496448,2.35268599294126
1789665976209040000,6.243039794921875,-2.5332734462380406,2.1299258698254824,3.5193621664002537
1789665976218991900,6.252991943359375,-0.15170217160675672,1.3963251793056726,2.844363010191917
1789665976228944100,6.262944091796875,1.7600953630894423,0.8097223916918039,2.051004308801889
1789665976238897200,6.272897216796875,2.4485949291229248,0.39418870292305946,1.2418246456846593
1789665976248849000,6.282848876953125,2.2217237174265083,0.474116226118803,0.37366087867915626
1789665976258802000,6.292802001953125,0.2571468152336776,0.6299228739023208,0.23956863457560537
1789665976268754000,6.30275390625,-4.194516220909357,0.6088496907353401,-0.47672991574853657
1789665976278707000,6.31270703125,-7.94652949758172,0.510965070566535,-1.9494044675022362
1789665976288659200,6.3226591796875,-5.241817534664273,0.26425299397706986,-2.374559094314277
1789665976298612000,6.332612060546875,-0.45568405897989867,0.6224982768595219,-1.3402870657414196
1789665976308564000,6.34256396484375,1.4407428515724836,1.2695979110121727,-0.3971048826307058
1789665976318517000,6.35251708984375,2.0274225038148463,1.5388976669847965,0.43349926130920646
1789665976328469000,6.362468994140625,1.965122114985436,1.3735866932749747,1.119421085809171
1789665976338422000,6.372422119140625,0.44334524028003214,0.9709545716553926,1.1171060868650675
1789665976348374000,6.3823740234375,-2.720277196317911,0.23944413141310214,1.0204197365701198
1789665976358326800,6.392326904296875,-5.6187190026998515,-0.2208680257588625,1.0517188379362226
1789665976368279000,6.402279052734375,-4.422383896297216,-0.1794225011706352,1.5713377550795673
1789665976378231000,6.41223095703125,-1.2037933134540915,-0.14750059173107147,3.0165377321913835
1789665976388184000,6.42218408203125,0.6203348152153194,-0.27774259014725683,4.870967914013565
1789665976398135800,6.4321357421875,1.835686756777018,-0.27280513374507426,6.83159257144928
1789665976408088800,6.4420888671875,2.9682398574903606,0.3520867602527141,8.719226519215107
1789665976418041000,6.452041015625,2.488507837316394,2.028739870023727,9.880292743837833
1789665976427994000,6.461994140625,-0.24810104672983288,4.084536089277267,10.542061539334059
1789665976437946000,6.471946044921875,-3.0004128190815447,4.887988314658403,10.138093785196542
1789665976447899100,6.481899169921875,-2.6004905409425496,4.2857828842431305,8.75435686930716
1789665976457851000,6.491850830078125,-0.965386708395183,3.1676112139731645,7.38719465612173
1789665976467804000,6.501803955078125,-1.4022022546455264,1.5220008927196262,6.051033145877718
1789665976477756000,6.511755859375,-2.853880780121684,-0.5276800585240126,5.585999805402755
1789665976487709000,6.521708984375,-3.705388303619623,-2.5111247427940366,5.886845623239875
1789665976497661000,6.531660888671875,-3.8315140988886354,-3.970623294371366,6.257589153167605
1789665976507614000,6.541614013671875,-3.7265962190821766,-4.241339931404591,6.211155318772793
1789665976517566000,6.55156591796875,-3.5979683778643605,-3.1693022358000276,6.701349988511204
1789665976527518000,6.56151806640625,-3.7399440686941143,-1.5505559560745954,7.57240976921916
1789665976537471000,6.571470947265625,-2.961688828411698,-0.2536760703831911,7.552768664681911
1789665976547423000,6.581423095703125,-0.7633786467332393,0.8037035697937012,6.632752253103256
1789665976557376000,6.5913759765625,0.436989770306088,1.5941618735671041,5.402127923607826
1789665976567328000,6.601327880859375,-0.43368776961863037,2.2220839290410277,3.3274995781123637
1789665976577281000,6.611281005859375,-0.8476280517160892,2.2360545867264268,2.0594649708941577
1789665976587233000,6.62123291015625,0.07086157042039558,0.618728695192933,1.3711176728129386
1789665976597186000,6.63118603515625,0.7813830169141293,-2.2153034751206637,0.6416378616154194
1789665976607137800,6.6411376953125,1.5245990925192832,-4.999014740473032,1.0167147445723415
1789665976617090800,6.6510908203125,3.698111006093025,-7.125144725146889,1.5478116258025167
1789665976627043000,6.66104296875,5.393252543234825,-9.003027094227075,0.7982634245663881
1789665976636996000,6.67099609375,3.742809394997358,-10.699344689410925,0.05432137277424335
1789665976646948000,6.680947998046875,-0.44748190169334406,-12.471253824412821,-0.6378150884568691
1789665976656899800,6.69089990234375,-2.813084074831009,-13.55809044522047,-0.5326911646842957
1789665976666852900,6.700852783203125,-1.9493907312378287,-10.509105026149749,-0.09671206925809382
1789665976676805000,6.71080517578125,-1.1646901142083108,-6.000444529891014,-0.6079325758904218
1789665976686758100,6.720758056640625,1.9398470962144434,-3.702842710790038,-0.5354810876637697
1789665976696710100,6.730710205078125,4.18210915927887,-1.7132330741494892,-0.45613341018259523
1789665976706663000,6.740662841796875,3.927819925433397,0.2297767238795757,-0.053069911408424375
1789665976716615000,6.750614990234375,4.242508975183964,1.299737613210082,0.2677449277460575
1789665976726568000,6.76056787109375,4.648301606661081,1.8182330792814492,-0.2048813520759344
1789665976736520000,6.77052001953125,3.995437417632341,1.8062480424553156,-1.5441121867626904
1789665976746473000,6.780472900390625,3.499109359705448,1.2072341015577315,-2.836704019871354
1789665976756425000,6.790425048828125,3.568255961167812,0.23115736458301542,-3.5819548161745067
1789665976766378000,6.8003779296875,3.179477008333802,-0.8048685219198465,-4.449235662865639
1789665976776330000,6.810330078125,3.0423756455421445,-1.1115946299672126,-5.099973361259699
1789665976786283000,6.820282958984375,3.1648394111722706,-1.080884434404969,-5.671095671147108
1789665976796235000,6.830235107421875,3.2115912254750727,-0.8716910643488168,-6.43227351990044
1789665976806188000,6.84018798828125,3.4799770814731716,-0.5322217936068773,-7.006275769138336
1789665976816140000,6.85014013671875,3.762651282803714,-0.06210369721353054,-7.629898666113615
1789665976826092000,6.860092041015625,4.022999670557677,0.49915831291675566,-8.277183593705296
1789665976836045000,6.870045166015625,4.203448592166603,1.1327549068957568,-8.758951795881986
1789665976845997000,6.8799970703125,4.283248981851339,1.6848510292738674,-9.30634193252623
1789665976855949800,6.88994970703125,4.203735007892549,2.165748878356814,-9.959956063139439
1789665976865901800,6.89990185546875,4.0145235186353325,2.5702619914174076,-10.529997007530927
1789665976875854800,6.909854736328125,3.611223873017728,3.035011838775873,-10.990821205878257
1789665976885807000,6.91980712890625,3.016397154676914,3.3361364735543724,-11.346473549658059
1789665976895760100,6.929760009765625,2.715008316004276,3.4967256794393062,-11.328515868163109
1789665976905711900,6.9397119140625,2.2836989659547804,3.8538124399363993,-10.386729523324966
1789665976915665000,6.949664794921875,1.0765561959423124,4.047513057306409,-8.719663157066702
1789665976925617000,6.959616943359375,-1.3436546424783766,3.559388179579377,-6.729229344561696
1789665976935570000,6.96956982421875,-7.081572709923982,2.5137311259001494,-3.8907355186641213
1789665976945522200,6.979522216796875,-20.039650266337393,-0.7021276938915252,2.443345922553539
1789665976955475200,6.98947509765625,-21.541403905320166,-5.5342170111954205,20.500396138751505
1789665976965427000,6.999427001953125,-1.4631260944247244,-8.322824231895805,33.92729882913828
1789665976975380000,7.0093798828125,3.993703725707531,-9.746703773081302,25.375708511710165
1789665976985332000,7.01933203125,0.3924715237416327,-8.699770123594998,18.046687812137602
1789665976995284000,7.029283935546875,-3.4371196442604064,-3.659657064536214,9.79051485775709
1789665977005237000,7.039237060546875,-7.5685110082149505,-0.07833703913390636,1.665716705214977
1789665977015189000,7.04918896484375,-7.032089424830675,-0.5783481694877147,-2.94036839248538
1789665977025142000,7.05914208984375,-2.9652246013224124,-2.9077520710408686,-4.4443841311812395
1789665977035094000,7.069093994140625,-0.41038609674721954,-6.188461840927601,-4.954963417300582
1789665977045047000,7.079047119140625,-0.20882146800383924,-7.366808286175131,-6.019858255413174
1789665977054998800,7.088998779296875,-1.45251804504022,-6.206480312699079,-6.706307318657636
1789665977064951800,7.098951904296875,-2.531779408288002,-4.645489471849799,-6.510653229132294
1789665977074904000,7.108904052734375,-5.204489382266998,-5.076364522135258,-5.629067378234863
1789665977084857000,7.118857177734375,-7.6952002825856205,-6.359626801362634,-2.780988562390208
1789665977094809000,7.12880908203125,-1.414676974684745,-6.176074653041362,-0.3364402783095836
1789665977104762000,7.13876220703125,6.187696117252111,-3.0952883205622435,-1.568015040397644
1789665977114713900,7.1487138671875,9.09482976413369,-0.4225158027410507,-2.473131404486298
1789665977124667000,7.1586669921875,9.884005626881121,0.7890425917565822,-3.056508215790987
1789665977134619000,7.168618896484375,8.687351371526718,1.804671002396941,-3.7803736942380666
1789665977144572000,7.178572021484375,7.727762243494391,2.3033389014482495,-3.9030981566309926
1789665977154524200,7.188524169921875,7.254628598672151,2.483388010084629,-3.8735178418815135
1789665977164476000,7.198475830078125,6.691234837210178,2.13722187205255,-3.449026939675212
1789665977174429000,7.208428955078125,6.284462547045946,1.0839607731103897,-2.7570693421423433
1789665977184381000,7.218380859375,5.87288548694849,-0.565247864896059,-1.5589444297134876
1789665977194334000,7.228333984375,5.904100124901532,-2.128454043707251,0.09929214887917041
1789665977204286200,7.2382861328125,6.488395220094919,-3.2409862467855213,1.3587562038898466
1789665977214239000,7.248239013671875,6.438411584264039,-3.822648070865869,1.9483634340167044
1789665977224191000,7.25819091796875,5.4908045704483985,-3.3469799391299486,2.297987019026279
1789665977234144000,7.26814404296875,4.890003746134043,-1.7094558936983346,2.323883676826954
1789665977244096000,7.278095947265625,4.419769914406538,-0.020395137774944304,1.5469062013953923
1789665977254049000,7.288049072265625,3.265149797183275,1.3599766855955122,-0.005292261189222335
1789665977264000800,7.298000732421875,1.363684892463684,1.8174398830771445,-1.2766814395323396
1789665977273953800,7.307953857421875,-0.6897510273993015,1.9562240843892096,-1.8300374988436698
1789665977283906000,7.317906005859375,-3.2932968642592426,2.4218419467538594,-1.4646429287284612
1789665977293859000,7.327859130859375,-4.570693466323614,1.8121166422277688,-1.0163374356925488
1789665977303811000,7.33781103515625,-3.712450497090816,0.8258481815844774,-0.8037152602314949
1789665977313764000,7.34776416015625,-2.211703404802084,-0.1331517483830452,-0.4761372105523944
1789665977323715800,7.3577158203125,-1.4718097516179085,-1.3740513881772756,-0.21252952874153852
1789665977333668000,7.367668212890625,-0.573273423506692,-1.6960674198150634,0.06383242070227861
1789665977343621000,7.37762109375,0.039330651326105,-0.4274544281870126,0.1353641637355089
1789665977353573000,7.387572998046875,-0.16539580244906246,1.2108189743071793,0.4531695919409394
1789665977363526100,7.397526123046875,0.17407061874866483,1.8129782274931667,1.3075360120013355
1789665977373478000,7.407477783203125,-0.2289699375413358,1.9255045364767311,1.8830477890193462
1789665977383431000,7.417430908203125,-1.6429840644031761,2.1014000325649977,2.513125268961489
1789665977393383000,7.4273828125,-1.9640613538861273,2.2539427101165055,2.7069036277428267
1789665977403336000,7.4373359375,-0.5089122296899556,2.115131036275625,2.273146007758379
1789665977413288000,7.447287841796875,0.81644380890131,1.915502782422304,1.9172583939179777
1789665977423241000,7.457240966796875,1.2756981275834143,2.0217589250952006,1.4651160991981624
1789665977433193000,7.46719287109375,1.3590749144501983,2.023939776265621,1.02360830347836
1789665977443146000,7.47714599609375,1.1218716938316822,1.7417109806150197,0.9382076095685362
1789665977453098000,7.487097900390625,0.35039983007907866,1.2054501407504081,0.858027572916448
1789665977463051000,7.497051025390625,-1.320328127426654,0.6678600981086492,0.4460495308026671
1789665977473003000,7.5070029296875,-3.700529757672548,0.35360242551267146,-0.21831483414471148
1789665977482955000,7.516955078125,-4.961970081192255,-0.007122983747720718,-0.3084963325902819
1789665977492908000,7.526907958984375,-3.437945865951478,-0.2659136206656694,1.2007158057048917
1789665977502860000,7.536860107421875,-0.8652287364669143,-0.30174948867857454,4.3025075168117874
1789665977512813000,7.54681298828125,1.1736696856081485,-0.24044834001958368,6.800678962269425
1789665977522764800,7.556764892578125,2.210780152477324,-0.08472060269117355,8.786158367237448
1789665977532717800,7.5667177734375,1.1493223030760884,1.2024714172005653,10.094013820451497
1789665977542670000,7.576670166015625,-0.9267807911470531,3.136781775945425,10.13682771078348
1789665977552623000,7.586623046875,-2.1400978658802807,3.9654286483377215,9.06323694051802
1789665977562575000,7.5965751953125,-1.5130876645542681,3.4357144536376,7.780704144608974
1789665977572527900,7.60652783203125,-0.6507542111374437,2.561041158607602,7.082355969256162
1789665977582480000,7.61647998046875,-0.7358038996525108,1.3477555019259453,6.543406913220882
1789665977592433000,7.626432861328125,-1.3105816633075476,-0.22603812187314032,5.928378241589665
1789665977602385200,7.63638525390625,-2.0579694716393946,-1.8664444447427988,5.635571937823295
1789665977612338200,7.646338134765625,-2.9796786586105823,-3.1294846046745777,5.5096869655728336
1789665977622290000,7.6562900390625,-3.8425168466791506,-3.4661692131340502,5.279022937464714
1789665977632242000,7.666241943359375,-4.117624704408645,-2.574776838493347,5.388292290478945
1789665977642195000,7.67619482421875,-3.937542278024554,-1.2954448844522237,6.0552948949754235
1789665977652147000,7.68614697265625,-3.2437907828122374,-0.35395547673404215,6.599831395754218
1789665977662100000,7.696099853515625,-1.2231816122740506,0.477118915066123,6.789488875213265
1789665977672052000,7.706052001953125,0.31725100919306276,1.3676076188653707,6.31423926115036
1789665977682005000,7.7160048828125,0.19046645775437354,1.870173694398999,4.834857320712507
1789665977691957000,7.72595703125,-0.7303636082947254,1.9979104319959877,3.6370591560199856
1789665977701910000,7.735909912109375,-0.40585572330858555,1.0067360791325568,3.161370273756981
1789665977711862000,7.745862060546875,0.9075181645333766,-1.3140753506422043,3.0246339448854327
1789665977721815000,7.75581494140625,2.206713925951719,-3.6547482497066257,2.425088089068234
1789665977731767000,7.76576708984375,4.311608814895153,-5.5918701587408775,1.8764561356693505
1789665977741720000,7.775719970703125,6.162193427205086,-7.090251106420159,1.3491747210741043
1789665977751672000,7.785672119140625,5.899561896950006,-8.922569994199275,0.19988953513801097
1789665977761625000,7.795625,3.2374738547503945,-10.86688853673935,-0.6731319010317325
1789665977771576800,7.805576904296875,-0.7439127526324242,-12.073180389010906,-1.0220394467264413
1789665977781528800,7.81552880859375,-2.628238379567861,-10.750278757834433,-0.7136334227681159
1789665977791481900,7.82548193359375,-2.1244975611664354,-6.649414049568772,-0.917282602700591
1789665977801434000,7.83543408203125,0.48864963225349783,-4.259814914771915,-1.2299532983660697
1789665977811387100,7.84538720703125,3.198861507761478,-2.8466981751412153,-0.22534020273685454
1789665977821339000,7.8553388671875,4.769516249012947,-1.0538637410104275,-0.4172252951174974
1789665977831292000,7.8652919921875,4.5826551222741605,0.7331161218732595,0.04485211816132068
1789665977841244000,7.875243896484375,4.32659011092782,2.0244775364041327,0.6369283687502145
1789665977851197000,7.885197021484375,4.415156867653131,2.662666718870401,-0.23871698618233203
1789665977861149200,7.895149169921875,3.6198248203635215,2.519927057930827,-1.8538795622020958
1789665977871102200,7.905102294921875,3.4053789366066454,1.9034896885454653,-3.031684740179777
1789665977881054000,7.915053955078125,3.560646655207872,0.6676864951074123,-3.935360257810354
1789665977891007000,7.925007080078125,3.4721330899745224,-0.6414730264425277,-4.658190547990799
1789665977900959000,7.934958984375,3.2027918329477307,-1.138972466236353,-5.177224943244457
1789665977910912000,7.944912109375,2.8510686453104017,-1.089900100031495,-5.781389106512069
1789665977920864000,7.954864013671875,2.7526924422323704,-0.9441016360431909,-6.621982437285781
1789665977930816000,7.96481591796875,2.987854950803518,-0.7473743643283843,-7.270248777130246
1789665977940769000,7.97476904296875,3.2196561662480234,-0.41094226932525635,-7.896014531353115
1789665977950721000,7.984720947265625,3.469007943691313,-0.006909633257985114,-8.52930717394948
1789665977960674000,7.994674072265625,3.677736034323275,0.29719197150468823,-9.054782415905594
1789665977970625800,8.004625732421875,3.7106782267212868,0.5404349106788635,-9.693346861425042
1789665977980578800,8.014578857421874,3.7029911793500183,0.8467243808746338,-10.131410361909866
1789665977990531000,8.024531005859375,3.567219603857398,1.2794868523418903,-10.474351692676544
1789665978000484000,8.034484130859376,2.973651068884134,1.9159359131425617,-10.662938328033684
1789665978010436000,8.04443603515625,2.3491119338467716,2.2912556649446487,-10.648995142877101
1789665978020389000,8.05438916015625,2.2982792799711227,2.456159811419248,-10.777750117605924
1789665978030340900,8.0643408203125,2.2165317017413675,2.875061515316367,-10.466948138421774
1789665978040294000,8.0742939453125,1.3736673572957514,2.8772102177828547,-9.5049472730726
1789665978050246000,8.084245849609376,-0.30356413688510653,2.0249141742557284,-7.877406861516833
1789665978060198100,8.0941982421875,-3.9382933886528013,0.6324941856950521,-5.226597169178724
1789665978070151200,8.104151123046876,-13.008782492256163,-1.6388018102824686,-0.7531471025109291
1789665978080103000,8.11410302734375,-29.654981575667858,-5.85733019042015,10.856339085674286
1789665978090056000,8.124055908203125,-15.953900709617137,-7.767070171532034,32.825828118300436
1789665978100008000,8.134008056640624,5.5120390816569325,-9.640173489642143,35.438049429047105
1789665978109961000,8.1439609375,5.024765267801285,-8.323985092368721,23.782196626484392
1789665978119913200,8.153913330078124,-0.5206747098065913,-4.187345306366682,13.756640840709208
1789665978129866200,8.1638662109375,-8.448840721571445,1.2008879474014043,1.8595733899295328
1789665978139818200,8.173818359375,-8.410513036742806,4.116920355531573,-2.628295078191161
1789665978149771300,8.183771240234375,-2.3159984765350816,3.4240397979348898,-3.0900971816599365
1789665978159723000,8.193722900390625,1.6701906357586382,0.4166390196621418,-4.327766753491759
1789665978169676000,8.203676025390624,2.6666426367640494,-2.50143921508193,-5.31481905798912
1789665978179628000,8.2136279296875,1.7056104703165589,-4.065446188881993,-6.024041678577661
1789665978189580300,8.223580322265626,1.4038624429427087,-4.8375072506994,-6.077751056933403
1789665978199533300,8.233533203125,-1.2884898046173154,-7.9449214778631925,-4.944437347111106
1789665978209485000,8.243485107421876,-9.461718956720828,-13.607645041984318,-0.0012608137160539626
1789665978219438000,8.25343798828125,-6.454819113707542,-13.75609840439558,8.302246138769387
1789665978229390000,8.26339013671875,3.2075252912104126,-6.110119541096687,6.61178077674508
1789665978239343000,8.273343017578124,7.984094381344318,-1.7829928390741347,-1.492011997169256
1789665978249295400,8.28329541015625,8.027419728329777,0.7424713947176933,-5.736004488909244
1789665978259248000,8.293248046875,7.857104078200459,2.523429513093829,-7.027064290145039
1789665978269200100,8.3032001953125,6.9605129658728835,3.51909883928895,-7.412350140166282
1789665978279153200,8.313153076171876,5.7245981287539,4.140483601948619,-7.394715114754438
1789665978289105200,8.323105224609375,4.941619367080927,4.252967825356126,-7.392507960098982
1789665978299057000,8.333056884765625,4.3135435823500154,3.5212364358395334,-7.57737002197504
1789665978309010000,8.343010009765624,4.180595247584582,1.957096191048622,-7.392109316170215
1789665978318962200,8.352962158203125,4.147583789342642,0.0673421823889017,-6.5801306699842215
1789665978328915200,8.362915283203124,4.483300429552793,-2.050351982372999,-4.546669616657495
1789665978338867200,8.3728671875,4.832825814884901,-4.086323557215929,-2.6260540212661025
1789665978348820200,8.3828203125,4.934753572964668,-5.426687195324898,-1.1673720467686652
1789665978358772000,8.39277197265625,4.972616562891006,-5.608873315989971,0.34706630174219605
1789665978368725000,8.40272509765625,5.069449628180265,-4.823307460433244,0.7413087806791067
1789665978378677200,8.41267724609375,5.527802467978001,-3.260774650838971,1.2096236270427703
1789665978388630300,8.42263037109375,4.367991796374321,-0.8720692500114441,1.1962123568058014
1789665978398582300,8.432582275390626,2.9061984118580817,1.0340846893072129,0.4028489792406559
1789665978408535000,8.44253515625,1.9805191522121428,1.953797149503231,0.6801870802402495
1789665978418487000,8.452487060546876,1.5973966177046297,2.513550508636236,1.0918418817490338
1789665978428439000,8.46243896484375,0.8036766817867755,2.3306787437945604,1.839887861728668
1789665978438392000,8.47239208984375,-1.0794079321116208,2.0599340497106313,3.5840611408039926
1789665978448344300,8.48234423828125,-2.1636901922613383,2.555360774883628,4.81100619726479
1789665978458297000,8.492297119140625,-2.904135049587488,2.102358063942194,4.064663221810758
1789665978468249000,8.5022490234375,-1.472034208023548,1.5216712223738431,3.141986651112139
1789665978478202000,8.5122021484375,-0.5300637387901544,1.234468145442009,2.734912163130939
1789665978488154000,8.522154052734376,-2.036167389675975,1.0942881058573721,1.6928531339436768
1789665978498107100,8.532107177734375,-4.856538114383817,0.924599063193798,0.4567582640826702
1789665978508059100,8.54205908203125,-5.213537781119347,0.8833020071655512,-0.17493483436256646
1789665978518012200,8.55201220703125,-2.5669752248317,1.3473930983543396,-0.4290861210420727
1789665978527964200,8.561964111328125,0.15588307402059434,1.967102036756277,-0.39215953518301244
1789665978537917200,8.571917236328124,1.4314308333478867,2.2742618600457907,-0.3234241448700428
1789665978547869200,8.581869140625,1.9282645027093588,1.9825725776106118,-0.10534253495931625
1789665978557821000,8.591821044921875,1.4269215392298995,1.1642653129249811,0.2968245994970202
1789665978567774000,8.60177392578125,-0.48387964137271045,0.15436346323788167,0.32417934715151786
1789665978577726200,8.611726318359375,-3.0008944651186464,-0.5861269867956638,-0.36130583949685097
1789665978587679200,8.62167919921875,-5.157181687647104,-0.8174573698580264,-1.4210302892342208
1789665978597631200,8.63163134765625,-5.493507399666309,-0.9060182813644408,-1.5029846420824526
1789665978607584000,8.641583984375,-3.7944343682944774,-0.7432265969991684,-0.3137400784626603
1789665978617536000,8.651535888671875,-0.3683534199208021,-0.3456991050422191,2.5699881429120897
1789665978627489000,8.661489013671876,2.350134554892778,0.061253802385926245,6.01406622800827
1789665978637441300,8.671441162109375,3.790962308269739,0.5239309351235628,8.689067527794837
1789665978647394300,8.681394287109375,4.206991671600938,1.969854550334811,10.892347972166538
1789665978657346000,8.691345947265624,2.4308761709503828,4.632019749423861,12.493893526244163
1789665978667298000,8.701298095703125,-1.1055271466217935,6.36265462475121,12.8923398866117
1789665978677251000,8.7112509765625,-3.059980860337615,5.525577777665853,10.989610076522826
1789665978687203000,8.721203125,-1.3112620467871428,3.5137282521665094,8.387506839686631
1789665978697156000,8.731156005859376,-0.2502076636202633,1.6035551403343677,6.881803001773357
1789665978707108000,8.741108154296874,-2.1582754737362264,-0.5536053578972816,5.53910478323698
1789665978717061000,8.75106103515625,-3.7088802373886107,-2.6348727030158043,4.536520270825922
1789665978727013000,8.76101318359375,-3.475205337026715,-4.630728540569543,4.514547508470714
1789665978736966100,8.770966064453125,-3.249235604214668,-5.600919142115115,4.835883741150796
1789665978746918100,8.780918212890626,-3.56605932790637,-4.810245149764419,4.9795232735395425
1789665978756870100,8.7908701171875,-3.5109207935303446,-2.6941163346230983,5.721922187542915
1789665978766823200,8.8008232421875,-2.8977450562894345,-0.7734212442547083,6.5117936313390725
1789665978776775200,8.810775146484374,-1.994282304626703,0.5354109450370073,6.623934155875444
1789665978786728200,8.820728271484375,-0.6381243005365133,1.5624252575665711,6.1491106582701205
1789665978796680200,8.83068017578125,-0.001848879269696772,2.1812281870394945,4.98364941355884
1789665978806633200,8.84063330078125,-0.5909399400353431,2.2658909220635888,3.4772558398157356
1789665978816585000,8.8505849609375,-0.20433482410907744,1.481922564831376,2.743717693138122
1789665978826538000,8.8605380859375,0.9073919808704406,-0.6219026490539312,2.4016940617382523
1789665978836490200,8.870490234375,1.2152385443150997,-2.8793080668449402,2.2808275021716953
1789665978846443300,8.880443359375,2.819294035387039,-5.286130723643303,1.8817469355538485
1789665978856395000,8.89039501953125,5.157678531253338,-7.0135817082375285,1.0359294403910637
1789665978866348000,8.90034814453125,5.597877290201187,-8.746554671123624,-0.09868950681090355
1789665978876300000,8.910300048828125,4.09193496735692,-10.720561664962768,-0.9533394199877977
1789665978886252300,8.920252197265626,1.3096458437621592,-12.633895871174335,-1.7050532748252152
1789665978896205300,8.930205322265625,-1.2109013918936251,-13.53473879572749,-2.1497429154515264
1789665978906157000,8.940156982421875,-1.3308828391887246,-10.11782607319355,-1.9381705413043497
1789665978916110000,8.950110107421875,-0.396464831161499,-5.664510447537899,-1.513514219403267
1789665978926062000,8.96006201171875,1.2410967698015272,-3.1907915985524653,-0.46474926283657547
1789665978936015000,8.97001513671875,2.993522475045919,-0.3694190033257007,0.5108545959293842
1789665978945967000,8.979967041015625,4.559851754313707,1.4736843133181332,0.9264110810518265
1789665978955920100,8.989920166015626,5.069634337097406,2.612004453125596,0.9991495695263147
1789665978965872000,8.9998720703125,5.080718041169643,3.5598774244010447,0.2240034011751413
1789665978975824100,9.00982421875,3.9858711323857303,3.7082916238456964,-0.8437783905506133
1789665978985777200,9.019777099609374,4.1876571487948295,3.4840134973824024,-1.8686866707116365
1789665978995729200,9.029729248046875,4.764214927734434,2.782958401158452,-2.3234978923797605
1789665979005682200,9.03968212890625,4.668133265334368,1.348182787427306,-2.9375609338492152
1789665979015634200,9.04963427734375,4.042339161799847,-0.10266600922644138,-3.7941041134268043
1789665979025587200,9.059587158203126,3.525381280559301,-0.7427811913192272,-4.804509236460924
1789665979035539200,9.069539306640625,3.351320306421816,-0.9666741178572177,-5.8168917970478535
1789665979045492200,9.0794921875,3.452161730569601,-0.998818730136752,-6.695329997569322
1789665979055444000,9.08944384765625,3.637020285314321,-0.8539151691615581,-7.459692321577668
1789665979065396000,9.09939599609375,3.5741841821730134,-0.5627309136390686,-8.099193755686283
1789665979075349000,9.109348876953124,3.6867984617009757,-0.2233855615377426,-8.689459157460927
1789665979085301200,9.11930126953125,3.677538465924561,0.06486497862040996,-9.490276358163356
1789665979095254300,9.129254150390626,3.625075872759521,0.44798575956225395,-10.22614265552759
1789665979105206000,9.1392060546875,3.6021830729499458,1.004938089799881,-10.597807391953468
1789665979115159000,9.149158935546875,3.3769822786837813,1.6436755537986754,-10.65929441857338
1789665979125111000,9.159111083984374,2.930213493695855,2.069156636086106,-10.433075094914436
1789665979135063800,9.169063720703125,2.55171014342159,2.1078508161395786,-10.071429063677787
1789665979145016000,9.17901611328125,2.3133117216691375,2.2934949683040378,-9.786229727783798
1789665979154969000,9.188968994140625,1.8522135286860166,2.5705536678403615,-9.386866252571345
1789665979164921000,9.198921142578126,1.0565607250094413,2.2645073587507007,-8.779296080252527
1789665979174872800,9.208872802734374,-0.39758828223347664,1.3060913661509752,-7.519433965834975
1789665979184825900,9.218825927734375,-3.323861513870954,0.07784019552767277,-4.92510837726295
1789665979194777900,9.22877783203125,-10.200272885733842,-1.2573656214267015,-0.2392021393507719
1789665979204731000,9.23873095703125,-23.59137594846487,-4.697642268413305,8.56787509727478
1789665979214683100,9.24868310546875,-17.182887208777665,-7.3017042381018396,26.747508906090257
1789665979224636200,9.25863623046875,-1.2895135947071015,-9.898049349802731,35.422517513394354
1789665979234588000,9.268587890625,2.870488800573349,-10.306944623470306,26.272229481410978
1789665979244541000,9.278541015625,-2.4743100928768516,-5.96578121278882,15.970748968565463
1789665979254493000,9.288492919921875,-7.642783866649865,0.43899522837698457,4.939757080340385
1789665979264446000,9.298446044921874,-5.644699831652641,2.6808050176292655,0.17689327495396137
1789665979274398200,9.308398193359375,-1.400900086005777,2.702716989707947,-1.3952742089480161
1789665979284350000,9.318349853515626,2.417473668541759,1.663766155669093,-3.0360534567832946
1789665979294303000,9.328302978515625,5.009038121837377,0.1772919188827276,-4.60805669003427
1789665979304255000,9.3382548828125,6.164618024003506,-0.6407943965286016,-5.921875435566902
1789665979314208000,9.3482080078125,6.038696811395883,-1.0549287398934364,-6.458643640431761
1789665979324160000,9.358159912109375,5.1186500046789645,-2.928106292283535,-5.676918678212165
1789665979334112800,9.36811279296875,-2.3579868758283555,-9.072699180868268,-2.3940064298450947
1789665979344065000,9.37806494140625,-14.30349613982439,-17.916131340944766,6.816582049322128
1789665979354018000,9.38801806640625,-10.534348188477754,-14.545121122407913,10.099200867700576
1789665979363970000,9.397969970703125,3.0102012226462365,-5.621151782804727,-1.3132061665922403
1789665979373922000,9.407922119140625,6.684340986043215,-1.5341197850584982,-7.7401114374577995
1789665979383874800,9.417874755859375,7.45597651592493,1.3453402574777602,-8.750835124921798
1789665979393827000,9.4278271484375,6.5865691785991185,3.267738644632697,-8.466371702086924
1789665979403780000,9.437780029296874,4.856530515599251,4.214868104064465,-8.466767423406242
1789665979413732000,9.447732177734375,3.7905578191220757,4.509317498862743,-8.731794324365257
1789665979423685000,9.45768505859375,3.434775711482763,4.067448176354169,-8.54582985420525
1789665979433636900,9.467636962890625,3.5960394556283948,2.8397949716240167,-8.135276291936636
1789665979443590000,9.47758984375,3.9953006395101545,0.9444757300525903,-7.596604299277066
1789665979453542000,9.4875419921875,3.8691292515337463,-0.9656681556850671,-5.74798601860404
1789665979463495000,9.497494873046875,4.036434613931179,-2.876553215178847,-3.4971798529475926
1789665979473447200,9.507447265625,4.240616293305158,-4.566619348752498,-1.4808692563861607
1789665979483399000,9.51739892578125,4.8555718997001645,-5.737773252147436,0.31237200497984885
1789665979493352000,9.52735205078125,5.2591164599895475,-5.707969650036096,1.7210621603399514
1789665979503304000,9.537303955078125,5.431432344025374,-4.323789082032442,2.5010499235033987
1789665979513257000,9.547257080078126,5.487747520965337,-1.834738808402419,2.6462381466388702
1789665979523209200,9.557209228515624,4.302879564994574,0.5368786795020103,1.7590011381119488
1789665979533162000,9.567161865234375,2.7514064940750598,1.7612667449563741,1.771677079811692
1789665979543114000,9.577114013671874,1.2250269478797913,2.227657929781079,2.0016031490340827
1789665979553067000,9.58706689453125,-0.8000421246767043,3.1639351558089253,3.0714529792055485
1789665979563019000,9.59701904296875,-1.6521365081518888,4.2268665848940605,4.772610123375058
1789665979572971000,9.606970947265625,-2.2506652958810327,3.8700183093279596,4.807409926338494
1789665979582923800,9.616923828125,-2.687613528600335,2.3965309798866508,3.3074376178145406
1789665979592876000,9.6268759765625,-1.0242834262609481,1.9414064544856546,2.186963515821099
1789665979602829000,9.6368291015625,0.15529292610771953,1.5302081645727157,1.8409882241860032
1789665979612781000,9.646781005859374,0.1026337874572724,1.158330662178993,1.1824758001372218
1789665979622734000,9.656734130859375,-0.054170785322412845,0.7099614562571048,0.5236401354834437
1789665979632685800,9.666685791015626,-1.6520635890461504,0.23264555731415748,-0.3322416575759649
1789665979642638800,9.676638916015625,-5.11233541470468,-0.22875439509451387,-1.5520339196726678
1789665979652591000,9.686591064453125,-6.2820332740724085,-0.33366496837735177,-2.7610791623055935
1789665979662544100,9.696544189453125,-2.697535203155875,0.2217822179943323,-2.6333608371481296
1789665979672496000,9.70649609375,0.8843436251729726,1.030999582773447,-1.4033248289346694
1789665979682448000,9.71644775390625,2.272785503882915,1.4482733932077885,-0.5612576262161135
1789665979692401000,9.72640087890625,2.563439451920986,1.1979781974345445,-0.07643851203620433
1789665979702353000,9.736352783203126,0.5523842916697264,0.7703922518223524,0.2493926939755678
1789665979712306000,9.746305908203125,-5.050943665152788,0.5966361058503389,0.6323764045342802
1789665979722258200,9.756258056640625,-7.6627967271089545,0.5668325037389993,1.1446540190041063
1789665979732211000,9.7662109375,-2.8863956870183345,0.4644160853594541,2.030134831513464
1789665979742163000,9.776162841796875,1.126840422154963,0.3206055803179741,3.943252472364902
1789665979752116000,9.786115966796874,1.9474016032472252,0.5864870522797108,6.512942216852307
1789665979762068000,9.79606787109375,2.4922324107974765,1.0306512077271939,8.882548949456215
1789665979772021000,9.80602099609375,2.651959739156067,1.918691933852434,10.192043986570834
1789665979781973000,9.815972900390625,1.3364279060952364,3.1702175970792768,10.404888280349969
1789665979791925000,9.825925048828125,-0.8498878133416176,3.7715392303973436,9.64765829243958
1789665979801878000,9.8358779296875,-1.2797323515355585,3.098250092977285,8.275552193111182
1789665979811830000,9.845830078125,-0.21897300579249857,2.1517180149167774,7.382954534333944
1789665979821783000,9.855782958984374,-0.12761997934952377,1.1941150922656059,6.891883081761002
1789665979831734800,9.86573486328125,-1.6424847365789115,-0.40342005712687967,6.394314083862304
1789665979841687800,9.875687744140626,-3.7526527436196804,-2.2917501704633234,5.667231981456279
1789665979851640000,9.88564013671875,-4.614233332842588,-3.873954479733109,5.394588175752759
1789665979861593000,9.895593017578125,-3.5874534135907887,-4.152701278486847,5.964962882143259
1789665979871545000,9.905545166015624,-2.2432221402682364,-2.785041052651405,7.148383561915159
1789665979881496800,9.915496826171875,-1.3610931224048137,-1.0238590633690356,8.397646540907024
1789665979891449900,9.925449951171874,-0.2764595645993948,0.3271563171356916,8.649665491732954
1789665979901402000,9.935402099609375,0.024498335310071704,1.1734463982462882,6.985950773990154
1789665979911355100,9.945355224609376,-0.3073363489001989,1.5656038876026868,4.309486123652756
1789665979921307100,9.95530712890625,-1.539042043891549,1.5653776776313781,2.96735576813221
1789665979931260200,9.96526025390625,-2.275969248485565,1.1492273182690143,2.4029230190113187
1789665979941212000,9.9752119140625,-1.106793367165327,-0.091816113910079,1.5808701380565762
1789665979951165000,9.9851650390625,-0.3240203571975231,-1.8068039227724075,1.3129130288645625
1789665979961117000,9.995116943359376,0.40633853838946665,-3.792836285448074,1.1205196947008371
1789665979971070000,10.005070068359375,2.059548849785328,-5.628099994507432,0.4501467369884252
1789665979981022000,10.01502197265625,3.291896349811554,-7.4006532726317635,-0.3919149127721786
1789665979990975000,10.02497509765625,2.952946134507656,-9.492427398717403,-1.0644079313784838
1789665980000927000,10.034927001953125,1.7252642882049083,-11.275794331800936,-2.3552999748319388
1789665980010879000,10.04487890625,-0.7179039396941661,-12.618981210637092,-3.6897190253227947
1789665980020832000,10.05483203125,-1.8253309285879133,-11.068742649948597,-3.875816181951761
1789665980030784000,10.064783935546876,-1.4095349356211722,-6.824218827810883,-2.7938077119529248
1789665980040737000,10.074737060546875,0.9293499109826981,-4.1639147464185955,-2.292723983931541
1789665980050689000,10.08468896484375,2.6471885792315004,-2.299246663698554,-0.8826280534267426
1789665980060642000,10.09464208984375,3.690223467713594,-0.02538987732231617,1.1458780078411102
1789665980070594000,10.104593994140625,4.143123887324333,1.6676719309359789,2.417325930634141
1789665980080547000,10.114547119140624,4.698603222399949,2.6426427524954077,2.6886551466077564
1789665980090498800,10.124498779296875,4.6780245447516435,2.906775334963202,1.6262562169641255
1789665980100451000,10.134451171875,3.507636365032196,2.8460446796685455,0.38330432081520555
1789665980110404000,10.144404052734375,2.8867957922518253,2.1382769340634344,-0.8763426895469426
1789665980120355800,10.15435595703125,3.0772283477365967,0.22814649232923984,-2.181924937132001
1789665980130308900,10.164308837890625,2.7947660355910657,-1.3323095109909773,-3.3430823471695184
1789665980140260900,10.1742607421875,2.407967150658369,-1.513431801816821,-4.330266753613949
1789665980150214000,10.1842138671875,2.598507258170843,-1.4013310247689486,-5.448907210439443
1789665980160166000,10.194165771484375,2.8269430888354776,-1.133418339240551,-6.325071620810031
1789665980170119000,10.204118896484376,3.1360183903574943,-0.7027502097040415,-6.919296573865413
1789665980180071000,10.21407080078125,3.4944998200833797,-0.23370704906582832,-7.429743758037686
1789665980190023000,10.22402294921875,3.6829964390695094,0.15680910282433033,-7.999768335816264
1789665980199976000,10.233975830078125,3.8766532172977923,0.4786158756256103,-8.668791047963499
1789665980209927700,10.243927734375,3.784574653059244,0.6582312690198421,-9.409491925877331
1789665980219880700,10.253880615234374,3.5456007695063945,0.7863754183739423,-9.92531963404417
1789665980229833000,10.2638330078125,3.408523956634104,0.928482042106986,-10.195030893427132
1789665980239786000,10.273785888671876,3.2099779450595376,1.2035194649487733,-10.206697950345276
1789665980249738000,10.283738037109375,2.9507869106471536,1.5655033498376607,-9.858338101661205
1789665980259690800,10.293690673828126,2.552861651544273,1.932156980103254,-9.430302658715844
1789665980269642800,10.303642822265624,2.2372205617658794,2.287407757344842,-9.430841003376244
1789665980279595800,10.313595703125,1.9089947157025335,2.6779905447304246,-9.342405764076114
1789665980289548000,10.323548095703124,1.3867137397430835,2.706043503782153,-8.87770910820961
1789665980299499800,10.333499755859375,0.2889068121097982,2.415937691146135,-7.757597409787774
1789665980309452800,10.343452880859376,-2.477241177892685,1.845335605740547,-5.411826310801506
1789665980319404800,10.35340478515625,-8.370002747178077,0.7353186003535985,-1.5197265180468558
1789665980329357800,10.36335791015625,-21.2322689825654,-2.3012299464702606,5.52853019773066
1789665980339309800,10.373309814453124,-19.356907656395435,-5.018891991853714,25.013113216924665
1789665980349262800,10.383262939453125,0.17839169681817293,-8.308784016105532,39.216202524626254
1789665980359214800,10.39321484375,3.9690652512744067,-10.000374582767487,32.119538628554345
1789665980369168000,10.40316796875,-1.6459528510808943,-6.26287615365982,22.801389938378332
1789665980379119900,10.413119873046876,-8.419244040209055,0.10440905350148677,8.71574861397147
1789665980389073000,10.423072998046875,-7.3385647729873655,2.7039269500195977,1.2347265041172504
1789665980399025000,10.43302490234375,-1.8072421680592,2.944197010862827,-2.0537287653297183
1789665980408977000,10.442976806640624,2.6107962463796137,2.2280641724944115,-4.797361702793836
1789665980418930000,10.452929931640625,4.503544760680199,0.6966653368324041,-6.600571400466561
1789665980428882000,10.4628818359375,4.570892203766108,-0.39473639993369575,-7.868342096051573
1789665980438835000,10.4728349609375,4.283443043118715,-0.9825415490746497,-8.580252932810783
1789665980448787000,10.482786865234376,4.066263935005664,-2.611276723372936,-8.262868068104982
1789665980458739700,10.49273974609375,-4.63901472287774,-7.619715125751495,-8.505466864156723
1789665980468691700,10.502691650390625,-15.809520295733213,-17.32529193867445,-3.268081174460053
1789665980478644700,10.512644775390624,-7.522970907789468,-17.75929944176674,9.61449485850632
1789665980488597000,10.522596923828125,3.2983857118308544,-10.16528808159232,3.7470939404487607
1789665980498549000,10.532549072265626,7.400953132361173,-4.122506046709418,-3.9297412488847967
1789665980508501800,10.542501708984375,6.662889032691717,0.7739402996927499,-6.928207025551796
1789665980518453800,10.552453857421876,6.505795267707109,4.137911121112108,-7.855339991137385
1789665980528406800,10.56240673828125,5.548268917423487,5.200555549949407,-7.712688593003153
1789665980538359000,10.572359130859375,4.219966303986311,5.288557074007391,-7.807542467173934
1789665980548312000,10.58231201171875,3.5469501382887363,5.069585821780562,-7.974552061495184
1789665980558263800,10.592263916015625,3.5229262886226174,4.3376901816129685,-6.910057036355138
1789665980568216800,10.602216796875,3.960125281232595,2.5816893943607804,-6.058198215201497
1789665980578168800,10.6121689453125,4.903757546198368,-0.1334568688094616,-4.552970178106427
1789665980588120800,10.622120849609376,5.394617986369132,-3.4612761803954837,-1.848267567539215
1789665980598073900,10.632073974609375,5.754560720819234,-6.578858750352263,0.25749358284473417
1789665980608025900,10.64202587890625,6.582790829104185,-8.335785420277714,2.68079683432281
1789665980617979000,10.651978759765624,6.896086378669739,-7.721107461780309,4.177532352882624
1789665980627931000,10.661930908203125,5.915320607095956,-4.911734516426921,4.249440235751867
1789665980637884000,10.6718837890625,4.353341339731216,-1.483224295079708,2.2009172223716975
1789665980647836000,10.6818359375,2.5049556987702846,0.7421925777763128,0.3088666272073984
1789665980657788700,10.69178857421875,-0.39319501571059223,2.665916076055169,0.0030921207964420315
1789665980667741000,10.701740966796875,-0.9960229619383811,4.516735666164756,1.204431903618574
1789665980677693000,10.71169287109375,-2.4679402655839917,4.491873612108827,1.8938783951133489
1789665980687646000,10.72164599609375,-2.202558559837937,3.6219916430085894,2.161424585416913
1789665980697598000,10.731597900390625,-1.252435179287195,2.2986603882431984,2.1211784997463226
1789665980707550700,10.74155078125,-0.35436993928644805,1.2344096932530402,1.1581751793563366
1789665980717502700,10.751502685546875,-0.2693359963297844,0.40986967165768146,0.4063832908466458
1789665980727455700,10.761455810546876,0.07139248069301248,-0.10580489177405833,0.11690087080597877
1789665980737408000,10.771407958984375,0.30869302420616146,-0.007120061138272285,-0.09205196849256754
1789665980747361000,10.781361083984375,-1.1583557966202498,0.18029694591760634,-1.0101499792292714
1789665980757312800,10.791312744140624,-4.05010248927772,0.21297347311675546,-1.9886533588290214
1789665980767264800,10.8012646484375,-5.728913069343567,0.15087854373157022,-2.4628078711315986
1789665980777217800,10.8112177734375,-3.7411166196048256,0.3637000411570072,-2.486201021678746
1789665980787170000,10.821170166015625,-0.5600900437414645,0.6084270814090967,-1.9487191155865786
1789665980797123000,10.831123046875,1.367956432303041,0.8878402351170778,-0.9361147289425135
1789665980807074800,10.84107470703125,2.105962810435891,0.9538397707253694,0.03607172259539366
1789665980817027800,10.85102783203125,1.5853208338551221,0.9431605558007955,1.1251534919813275
1789665980826979800,10.860979736328124,-0.5211807596325874,1.193572071430087,2.148091933374107
1789665980836932900,10.870932861328125,-3.206073923358321,1.7863737136840818,2.4044413146197794
1789665980846884900,10.880884765625,-4.196539251169562,2.0374773032307623,2.210655064792931
1789665980856837600,10.890837646484375,-3.060443217152357,1.725526154011488,2.266812128561735
1789665980866790000,10.900789794921875,-1.6514602163255214,0.8649901054054498,3.1353760008007288
1789665980876742000,10.910741943359374,-0.16621537520363927,-0.1368587862074375,5.200253936654329
1789665980886695000,10.92069482421875,1.751960571950674,-0.4306885878026485,7.749128272128105
1789665980896647000,10.93064697265625,3.2393893329828978,0.2850748327314854,9.763915604645014
1789665980906599700,10.940599609375,2.8177830463021993,2.410546645757556,10.862962887728214
1789665980916552000,10.950552001953126,-0.1899456487506628,4.371919783473015,11.217203026622533
1789665980926505000,10.9605048828125,-2.6257968316346405,4.672614210140705,10.239715253806114
1789665980936457000,10.97045703125,-2.361833322123438,3.828685597464442,8.328581772509217
1789665980946410000,10.980409912109375,-1.1738276526488363,2.416922610530257,7.016261156579851
1789665980956361700,10.99036181640625,-1.5095646049946545,0.7180506546884775,6.220185012924671
1789665980966313700,11.000313720703126,-2.573980719679594,-1.1686176629155873,5.795206034940481
1789665980976266800,11.010266845703125,-3.388591467934847,-3.26995281355083,5.675328778672218
1789665980986219000,11.020218994140626,-4.181422346058488,-4.769336800792813,5.28606116553843
1789665980996172000,11.030172119140625,-4.865400050753355,-4.275744305309653,5.2509945283323525
1789665981006123800,11.040123779296875,-4.652054821714759,-2.163087550193071,5.693589242506027
1789665981016076800,11.050076904296875,-3.8646220032423733,-0.037674189355969424,6.116555127102136
1789665981026028800,11.06002880859375,-2.3905197567731142,1.1658142959326505,6.400566714516282
1789665981035981800,11.06998193359375,-0.45221945160925386,2.094705503362417,6.486929823717475
1789665981045934000,11.07993408203125,0.2840530884683132,2.662629893991351,5.441674336576462
1789665981055885800,11.0898857421875,-0.219582077601552,2.8447318435043094,3.571074233458936
1789665981065838800,11.0998388671875,0.17263386394381522,2.3978876551926134,2.813857689552009
1789665981075790800,11.109790771484375,1.6505623907029627,0.3732768477976322,2.3624343567565083
1789665981085743900,11.119743896484374,2.0814590682983396,-2.396094342035055,2.2858903385192155
1789665981095696000,11.12969580078125,2.819838809788227,-5.1616369134902955,3.028205081370473
1789665981105648600,11.139648681640624,4.2419069176375865,-7.400300805932283,2.7471435759335754
1789665981115600600,11.1496005859375,5.2499464805841445,-9.612007133343814,1.3518454015880823
1789665981125552400,11.159552490234375,4.6399733387768265,-11.577028856694698,0.13651684090197086
1789665981135505400,11.16950537109375,1.051328085052967,-13.125191195631027,-0.7668114707261323
1789665981145457400,11.17945751953125,-1.930169313417375,-13.581790469759701,-1.295281802845001
1789665981155410400,11.189410400390624,-1.830157764222473,-9.990921694767474,-1.627322384890914
1789665981165362700,11.19936279296875,-0.5134473889015615,-5.786452235120534,-1.5072709410995244
1789665981175315500,11.2093154296875,1.0651450134813785,-3.5223856058746574,-0.3119341980844736
1789665981185267500,11.219267333984375,2.193163685635477,-0.8628864111244678,0.3251706962764263
1789665981195220500,11.229220458984376,3.9354529045298694,1.192788812097907,0.7904372609853744
1789665981205172500,11.23917236328125,4.452438842821121,2.3087620955407617,0.77136664981246
1789665981215124500,11.24912451171875,3.721540981519222,2.7277608300715683,-0.5019651870310307
1789665981225077500,11.259077392578124,3.1576012766122816,2.6984651774823663,-1.8339596407234668
1789665981235029500,11.269029541015625,3.690279581815004,2.045665870383382,-2.855341500324011
1789665981244982500,11.278982421875,4.264920713478326,1.1258552105098962,-3.3826088863939043
1789665981254934500,11.2889345703125,4.327408441573382,-0.09594050036370753,-3.7417175081074237
1789665981264887600,11.298887451171876,4.053446539008617,-1.181296527224779,-4.284518563395738
1789665981274839300,11.30883935546875,3.4903216576158997,-1.5034253715872763,-5.142287485376
1789665981284792300,11.318792236328125,3.4516172484293577,-1.500794438561797,-6.054634969761968
1789665981294744600,11.32874462890625,3.5567727363839743,-1.3309475749880075,-6.928955798092484
1789665981304696600,11.338696533203125,3.6013133043780923,-1.0233148734897375,-7.728889786219597
1789665981314649600,11.348649658203126,3.6450820112168785,-0.6911193931430578,-8.50017518748939
1789665981324601300,11.358601318359375,3.8175989707827567,-0.27991759609878064,-9.179343446075915
1789665981334554400,11.368554443359375,3.8866272065624594,0.23017127615511415,-9.838353298252821
1789665981344506600,11.378506591796874,3.8738495580539105,0.8112158451199531,-10.352271957927941
1789665981354459600,11.388459716796875,3.7056294188991186,1.4560563021689652,-10.686844104278087
1789665981364411600,11.39841162109375,3.326441593492031,2.031821469426155,-10.966115803688764
1789665981374364400,11.408364501953125,2.6644249607145785,2.332370350143313,-11.149981840264797
1789665981384316400,11.41831640625,1.9567314493894576,2.262168102148175,-11.016522633367776
1789665981394268400,11.428268310546875,1.8325135335683822,2.350266072317958,-10.900669225788116
1789665981404221400,11.438221435546875,1.7817687041066586,2.524943424788117,-10.717484741735458
1789665981414173700,11.448173583984374,0.548033987505734,2.177439316150546,-9.793558463236689
1789665981424126500,11.45812646484375,-1.936814450520277,0.7835451633840799,-8.026060714936255
1789665981434078500,11.468078369140626,-6.40316257622838,-0.7038175466746092,-4.184668196111917
1789665981444031500,11.478031494140625,-17.156457467013595,-2.9300241086035963,1.6462100407123565
1789665981453983500,11.4879833984375,-29.899353811132904,-7.443844179582595,17.189598689115048
1789665981463935500,11.497935546875,-8.800867860591412,-9.98250224146843,38.652847341609
1789665981473888500,11.507888427734375,5.118092370796203,-10.752053366291522,32.01421713638305
1789665981483840500,11.517840576171874,2.730106516414881,-9.023656040757894,19.99370450772047
1789665981493793500,11.52779345703125,-3.6134243056714532,-2.672117853304744,9.891855755859613
1789665981503745500,11.53774560546875,-7.45506232368946,3.7932477888584133,1.9069260927349327
1789665981513698600,11.547698486328125,-4.980729726719856,5.431437020200491,-0.4173673339366913
1789665981523650300,11.557650390625,0.07683642531260848,3.6411458408117294,-1.698936253249645
1789665981533603300,11.567603271484375,3.572582592195272,0.9311673356682062,-3.564062016609311
1789665981543555600,11.5775556640625,4.336410078674555,-1.5881237624466418,-5.1217584920883175
1789665981553507600,11.587507568359374,2.545729607707262,-3.3481723637849092,-6.076052436321973
1789665981563460600,11.597460693359375,0.6942378904897719,-5.940559677770733,-5.367537671741843
1789665981573412400,11.607412353515626,-2.571192550265789,-11.028448048961161,-2.9973908409118653
1789665981583365400,11.617365478515625,-5.306051229643821,-15.813277602440118,4.975322899240255
1789665981593317600,11.627317626953126,-3.970931921929121,-12.002238136303424,8.134704045006632
1789665981603270700,11.637270751953125,2.7863854529976844,-4.0401685397624965,0.9894739786863327
1789665981613222700,11.64722265625,5.113638313996791,-0.11406886225044727,-5.430298956081271
1789665981623174400,11.65717431640625,5.1493572776317595,2.7630729664713143,-8.029442174068093
1789665981633127400,11.66712744140625,5.905912142759561,3.945455535367131,-8.573290692582725
1789665981643079400,11.677079345703126,4.869198273992538,4.310034697446227,-8.808005457386374
1789665981653032400,11.687032470703125,3.7407705826461313,4.3930256998658175,-8.760017963808775
1789665981662984700,11.696984619140625,3.2658021236121653,3.68508318221569,-8.34696732402742
1789665981672937500,11.7069375,3.394228889299929,2.420091303694248,-7.535883580854534
1789665981682889500,11.716889404296875,3.789884449905157,0.5619178436905146,-6.84716306554675
1789665981692842500,11.726842529296874,4.336360978835821,-1.724082384943962,-5.308659366315603
1789665981702794500,11.73679443359375,4.286707013350725,-3.7578327766060826,-3.3593115974366663
1789665981712746500,11.74674658203125,4.230665392655134,-5.367927547842264,-1.9008324520349502
1789665981722699500,11.756699462890625,4.865395374578237,-6.284203019326925,0.10594459250569344
1789665981732651500,11.766651611328125,5.298143817520141,-5.721510099610686,1.1352934854626655
1789665981742604500,11.7766044921875,5.0404795542836185,-3.546697040310502,1.398292095464468
1789665981752556500,11.786556640625,4.038597344923019,-0.5894435639977454,0.7121610121279954
1789665981762509600,11.796509521484374,2.978820580476522,1.319549398139119,-0.2290361346453428
1789665981772461300,11.80646142578125,1.9850924514770507,2.1147072579056023,-0.18098901983499527
1789665981782413600,11.81641357421875,1.2112544431149959,2.615901460564136,0.34367315217256544
1789665981792366600,11.82636669921875,-0.38245851764082905,2.509097036358714,0.8033508108332753
1789665981802318600,11.836318603515625,-1.3831003715515136,2.7275007178306576,2.612565594139695
1789665981812271600,11.846271728515624,-1.5942378614127635,2.4447224716037512,3.798091429497301
1789665981822223400,11.856223388671875,-0.9480641099333763,1.435078980591893,3.356611690828204
1789665981832176400,11.86617626953125,1.9012065460443495,0.9239461522430181,2.6182605909109116
1789665981842128600,11.876128662109375,2.210203521633148,0.5935872396737337,1.9955740980029104
1789665981852081700,11.88608154296875,0.9651428166367113,0.7806669775992632,1.3519731196209788
1789665981862033700,11.89603369140625,-0.006437924093008041,0.9421049092680215,1.35005004260391
1789665981871985400,11.9059853515625,-3.155164989376068,1.1429530603051186,1.2776675279602407
1789665981881938400,11.9159384765625,-8.72160844591558,0.8791548243582248,0.39394758764356375
1789665981891890400,11.925890380859375,-7.900698889777064,0.4904284784942865,-0.4716092117339372
1789665981901843500,11.935843505859374,-1.7114492594726383,1.0414081640630959,-0.26324849310964343
1789665981911795500,11.94579541015625,1.5547722585953772,1.5295242739617823,0.5022290986642242
1789665981921748500,11.95574853515625,2.9152959105491636,1.3715432047486305,1.4651251592874526
1789665981931700500,11.965700439453125,2.3048042978256937,1.180899636861682,1.8664482441350816
1789665981941653500,11.975653564453125,-0.360251946529746,0.7984002026885747,1.7471055331349372
1789665981951605500,11.98560546875,-3.502738656118512,0.3687362817585468,1.2249848623037338
1789665981961557500,11.9955576171875,-5.058700270628929,0.22611878589391707,0.4989993229627609
1789665981971510500,12.005510498046876,-3.5048137088268994,0.3733025667607784,0.8801260074779391
1789665981981462500,12.015462646484375,-1.2304345060117543,0.513413632762432,2.8855028298318386
1789665981991415600,12.02541552734375,0.03818476922661066,0.5687947437226772,5.359668253540993
1789665982001367600,12.035367431640625,1.3268750648520886,0.7595259898930787,7.274290745997429
1789665982011320600,12.045320556640625,2.41454886713624,1.182204874241352,8.471543551766873
1789665982021272300,12.055272216796874,2.4452337821267545,2.2915432497143744,8.900670297080278
1789665982031225300,12.065225341796875,1.014162429741025,3.518193414881825,8.91573751783073
1789665982041177600,12.075177490234376,-0.6699129389852285,3.6040035663753747,8.788453784698248
1789665982051129600,12.085129638671875,-0.8820623823679983,2.8019144460409877,8.154267408132553
1789665982061082600,12.09508251953125,-0.3831934077866375,2.174422014155984,7.145480241689086
1789665982071034400,12.105034423828124,-0.25533377446234223,1.2787684749394654,6.251203251522779
1789665982080987400,12.1149873046875,-1.1879391801096497,0.015807225462794304,5.773385832798481
1789665982090939600,12.124939697265624,-2.8543355381518603,-1.7299118217498064,5.6064469656258815
1789665982100892400,12.134892333984375,-4.187643412530422,-3.330868762284517,5.3586523544967175
1789665982110844700,12.1448447265625,-4.045091967639327,-3.5781244442313906,5.68845480222702
1789665982120796700,12.154796630859375,-2.685744812119007,-2.317111406213045,6.925951940101385
1789665982130749700,12.164749755859376,-1.571994027031213,-0.9633943655341863,8.19535578984618
1789665982140701700,12.17470166015625,-1.1714013022847474,-0.031111177578568457,8.290521798706054
1789665982150654700,12.18465478515625,-0.22184308133609593,0.4576771324932575,7.0420134374737735
1789665982160607000,12.19460693359375,-0.258573779296875,0.7038689846009015,4.949194770771265
1789665982170560000,12.20456005859375,-2.203482688945532,0.7376724700033664,3.258367005175352
1789665982180511700,12.21451171875,-3.064114599141478,0.0014887772530317305,2.05582456856519
1789665982190464800,12.22446484375,-2.0274971764862535,-1.6753917115330694,1.4316276710942386
1789665982200416800,12.234416748046876,-0.7381716516971588,-3.50813203959465,1.110478485418856
1789665982210368800,12.24436865234375,0.6800304283738136,-5.226769018614291,0.5876403139680624
1789665982220321800,12.25432177734375,2.220847665244341,-7.25306441809535,0.005172434201836586
1789665982230273800,12.264273681640624,2.6714462376534938,-9.58846200710535,-1.1405021600216627
1789665982240226800,12.274226806640625,2.0306245147265494,-11.288756689226627,-2.5244033265620467
1789665982250178800,12.2841787109375,-1.0487608649134634,-12.054580902481078,-4.259537851396203
1789665982260131800,12.2941318359375,-2.855521533066034,-10.818384910333156,-4.468821822345257
1789665982270083600,12.30408349609375,-2.6022119579076763,-6.717876760420203,-3.0372265922158954
1789665982280036600,12.31403662109375,-0.10967398829236626,-4.1187399721741675,-1.9237737671613693
1789665982289988900,12.32398876953125,2.1746320036448537,-2.639661690858006,-1.2907552653312682
1789665982299940900,12.33394091796875,3.891411225968599,-1.1758721640884875,0.07364800453484058
1789665982309894000,12.343893798828125,5.0550844182193275,0.3954933557808399,1.4479332014679909
1789665982319845600,12.353845703125,5.613105254471302,1.291183135354519,1.1887100183516741
1789665982329798700,12.363798583984375,4.792732289427518,1.678270481839776,0.45497722588479517
1789665982339750700,12.373750732421875,3.871981718355417,1.6807009238570927,-0.060526072633266446
1789665982349703700,12.38370361328125,3.7561996224462986,1.1322849512964486,-0.8943494708806276
1789665982359656000,12.393656005859375,3.7076027647987004,0.2865016506642103,-1.810986176893115
1789665982369607700,12.403607666015626,3.3082641317665575,-0.5773451299250125,-2.8632664481043815
1789665982379560700,12.413560791015625,2.8830314712822434,-0.8742068465620279,-3.8312972412675617
1789665982389512700,12.4235126953125,2.7896973540246486,-0.6734504654616117,-4.635835508319735
1789665982399465700,12.4334658203125,2.9917043197080493,-0.2930757683575153,-5.501437608143687
1789665982409418000,12.44341796875,3.2125369818925855,0.16900632109642028,-6.161039580994844
1789665982419371000,12.45337109375,3.666410922710597,0.6621271074146032,-6.667215663719177
1789665982429322800,12.46332275390625,3.9162025528758764,1.0546259575545787,-7.173049801138043
1789665982439275800,12.47327587890625,4.053305084711313,1.3465262523919344,-7.823464258927107
1789665982449227800,12.483227783203125,4.066120142620802,1.477082723584771,-8.527948160555958
1789665982459179800,12.4931796875,3.994064667974412,1.5033838705331086,-9.11400208211541
1789665982469132800,12.5031328125,3.779158473229408,1.4071440949618816,-9.51722047919035
1789665982479084800,12.513084716796875,3.508717730528116,1.3624421989262103,-9.744253457319736
1789665982489037800,12.523037841796874,3.1682337297856806,1.3972148216217755,-9.783740833577513
1789665982498989800,12.53298974609375,2.561759243749082,1.6868296358704566,-9.748450324487685
1789665982508942800,12.54294287109375,2.2672693708099425,2.130989115142822,-9.9383194008708
1789665982518894600,12.55289453125,2.2980802502676845,2.7035025871276854,-10.035151297116279
1789665982528847600,12.56284765625,1.7066648016750812,3.0361820515990257,-9.464901093888281
1789665982538799900,12.5727998046875,-0.24913725790977476,2.289981407225132,-8.381905366417765
1789665982548752000,12.582751953125,-4.139531415790319,0.7164157469630241,-6.048875091060996
1789665982558705000,12.592704833984374,-12.308690103584528,-1.1798358070224524,-2.1853198402673004
1789665982568656600,12.60265673828125,-29.14513586452007,-5.038341957733035,7.080358657959104
1789665982578609700,12.612609619140626,-20.68122149245739,-8.26460643620491,31.49445091972351
1789665982588561700,12.622561767578125,1.4542004451692103,-10.123311226606369,37.43778532290458
1789665982598514700,12.6325146484375,4.6234582573056215,-10.501413887125253,24.107450324869156
1789665982608467000,12.642467041015625,-1.7639444397330284,-7.735838582444191,14.364203414243459
