time,seconds_elapsed,z,y,x
1789397513623462000,0.0654619140625,0.2837526442170143,-0.040804304075241084,0.21381854563876984
1789397513633488000,0.07548779296875,0.2230447852760553,-0.048915129816532135,0.21834424290228635
1789397513643513000,0.08551318359375,0.1725263119161129,-0.05546002141535282,0.1896549769747071
1789397513653538800,0.095538818359375,0.17499708594381808,-0.06423281819671392,0.18857938363244756
1789397513663564800,0.105564697265625,0.0989794296681881,-0.04098609038293361,0.15334486077986656
1789397513673590000,0.115590087890625,0.05566694216430187,-0.054659226426482195,0.08582395169003866
1789397513683616000,0.125615966796875,0.07212883214354515,-0.026257015545666215,0.10535244443197735
1789397513693642000,0.13564208984375,0.07616203318238259,-0.025091186636686323,0.1327134756967891
1789397513703667000,0.1456669921875,0.07849778265357017,-0.03321633316427469,0.13456251936326735
1789397513713693000,0.15569287109375,0.047997430449724196,-0.03248655758500099,0.1289244130115956
1789397513723719000,0.165718994140625,-0.038970074385404584,0.02223521268367767,0.09415497778696008
1789397513733743900,0.175743896484375,-0.037137013739347455,0.015910978098213673,0.094795759908529
1789397513743769900,0.185769775390625,0.06440671345889568,0.03814034556299448,0.08111841348074376
1789397513753795800,0.1957958984375,0.06644727937579155,0.031126375147700308,0.08076397401988505
1789397513763820800,0.20582080078125,0.1157838494747877,0.005632160668075085,0.08699578108154236
1789397513773846800,0.2158466796875,0.04272328943908214,0.020469664315879342,0.10155767352520488
1789397513783872800,0.225872802734375,0.05394844780862331,0.020925006867945194,0.10296070872354321
1789397513793898000,0.23589794921875,0.024618308427929878,-0.005716624081134796,0.060603626814926974
1789397513803924000,0.245924072265625,0.02736789939701557,-0.015014321519434451,0.06008371286035981
1789397513813949700,0.25594970703125,-0.011748305460810661,-0.01780336771607399,0.033668739407160315
1789397513823975000,0.265974853515625,-0.029654549029469488,0.05634440303444862,0.06100897447911557
1789397513834001000,0.2760009765625,-0.05532090520560741,0.07305149994641542,0.06482397075658664
1789397513844027000,0.28602685546875,-0.09799041863083839,0.022818565529584882,0.062168159018177536
1789397513854051800,0.2960517578125,-0.09590601357221602,0.01591331618577242,0.06485613772682845
1789397513864077800,0.306077880859375,-0.08682020531892776,-0.03431552657783031,0.06747937150304205
1789397513874103800,0.316103759765625,-0.08539630999565125,-0.03899403978288173,0.07056140016373247
1789397513884128800,0.326128662109375,-0.10178805734813212,0.003930909708142281,0.04897618952111806
1789397513894154500,0.336154541015625,-0.10650397995412349,-0.002855389431118965,0.03953129759789444
1789397513904180700,0.3461806640625,-0.10650105734467506,-0.002845452558994293,0.040998584538325666
1789397513914205400,0.356205322265625,-0.16340484782755374,-0.02435936523079872,0.0313793361286167
1789397513924231700,0.366231689453125,-0.13068389696478844,-0.08322890282869339,-0.000670076714712195
1789397513934257700,0.376257568359375,-0.055640638679265976,-0.08904664919674396,0.017965485775494016
1789397513944283000,0.386282958984375,-0.03051321168541908,-0.09925152460783719,0.01172998891940806
1789397513954308900,0.396308837890625,-0.03293663944005966,-0.09117138626575469,0.012648546802741474
1789397513964334800,0.4063349609375,-0.011869301491975784,-0.061300856398046014,0.05284260089199524
1789397513974359800,0.41635986328125,0.007658405798673629,-0.05727759223133325,0.10792346396376379
1789397513984385800,0.4263857421875,0.0051198272317647935,-0.04869301149845123,0.1107809174878057
1789397513994411800,0.436411865234375,-0.0011064999371767042,-0.04490238704383373,0.10763090162482113
1789397514004436700,0.446436767578125,0.023609423646330834,-0.06887099939137697,0.0908385741148144
1789397514014462700,0.456462646484375,0.021415128472447396,-0.06139554894417524,0.09221621914356946
1789397514024488700,0.46648876953125,-0.05343231498003006,-0.054763855844736094,0.10400924052894114
1789397514034513700,0.476513671875,-0.08996610212922096,-0.06372282284796238,0.11978183306977153
1789397514044539600,0.48653955078125,-0.11710837607681751,-0.06717500912845134,0.11505334324315189
1789397514054565600,0.496565673828125,-0.11934124969542026,-0.05956424186378717,0.11168421386992558
1789397514064590600,0.506590576171875,-0.13592179761826992,-0.05836889459937811,0.0824698828886263
1789397514074616600,0.516616455078125,-0.06619125878810882,-0.0723047732323408,0.16326680933004245
1789397514084642600,0.526642578125,-0.03912497268617153,-0.10080079987645149,0.1398766909901984
1789397514094667800,0.536667724609375,-0.033007366588711735,-0.1152045882821083,0.10391099518570117
1789397514104693800,0.54669384765625,-0.03532382683753967,-0.10716390516757965,0.09934250909322873
1789397514114719700,0.5567197265625,0.015377601873874663,-0.12371785734444855,0.10439659587871283
1789397514124744700,0.56674462890625,0.012823825737833977,-0.12189327226579189,0.061727009388245636
1789397514134770700,0.576770751953125,0.010981412741541862,-0.11686083105653523,0.01870927161381114
1789397514144796700,0.586796630859375,0.006988543713092803,-0.07968114721924066,0.0341400010475656
1789397514154821600,0.596821533203125,0.0063935004293918605,-0.07759089694172143,0.030581924973498098
1789397514164847600,0.60684765625,-0.04503741160035133,-0.05664513954669237,0.07673839003192261
1789397514174873600,0.61687353515625,-0.0968745663434267,-0.0448927424326539,0.02166626282245852
1789397514184898600,0.626898681640625,-0.09398410559892655,-0.08219985204190015,0.0045148904584231785
1789397514194924500,0.636924560546875,-0.0939379283696413,-0.08667495162934065,0.035085131843993436
1789397514204950500,0.646950439453125,-0.09479425293803215,-0.08349544481039047,0.022850805565062908
1789397514214975500,0.6569755859375,-0.08021569248735905,-0.06069704528599977,0.07176897215547505
1789397514225001500,0.66700146484375,-0.003497778987884521,-0.04258271192461252,0.08816772007090039
1789397514235027500,0.67702734375,0.047691140979528424,-0.05819003090113401,0.07986337191835045
1789397514245052700,0.687052734375,0.10467618000507355,-0.076071724550426,0.12808651001588442
1789397514255078700,0.69707861328125,0.10209317777454853,-0.06651946782916784,0.12001887496234849
1789397514265105000,0.70710498046875,0.1972398974120617,-0.05098346052318811,0.12126398878577165
1789397514275129600,0.717129638671875,0.23183131832182405,-0.002130290026962757,0.12504069431289097
1789397514285155800,0.72715576171875,0.18081833944320677,0.02946136454492807,0.1465702703447081
1789397514295181800,0.737181884765625,0.17059271350502966,0.03472147703021765,0.11587508055535145
1789397514305206800,0.747206787109375,0.18977789096832273,0.004950608144700527,0.15101112060267477
1789397514315232800,0.757232666015625,0.18930384371578693,0.006936229003965854,0.14574389339000918
1789397514325258800,0.7672587890625,0.1672714601278305,0.006178104113042354,0.16321338037606328
1789397514335283700,0.77728369140625,0.1366015965759754,0.01379179398715496,0.1518998404701706
1789397514345309700,0.787309814453125,0.13667816894352436,0.013586042281985282,0.15051929109827614
1789397514355335700,0.797335693359375,0.05602408503890037,0.016278057844936848,0.13718803642811253
1789397514365360600,0.807360595703125,0.05595394241213798,0.016495207726955414,0.13793766748532652
1789397514375386600,0.81738671875,0.016001871252059936,0.04793225625902414,0.10067143787574022
1789397514385412600,0.82741259765625,-0.010795534780621528,0.04392068253010511,0.04527092809528112
1789397514395437800,0.837437744140625,-0.010913608202338217,0.044265842705965036,0.046938916106428946
1789397514405463800,0.8474638671875,0.09419511800110339,0.05130231721401214,0.043897666980698705
1789397514415489800,0.85748974609375,0.07864800477921963,-0.006509820285439491,0.03830666944007389
1789397514425514800,0.8675146484375,0.03145312288403511,-0.01931172645241022,0.057682090512150896
1789397514435540700,0.877540771484375,-0.046847091370821,-0.017492402070760724,0.08061019909712486
1789397514445566700,0.887566650390625,-0.046882747206091875,-0.01760112314224243,0.0858976471139118
1789397514455591700,0.897591796875,-0.10186346067190169,-0.00927314751893282,0.025635093388194218
1789397514465617700,0.90761767578125,-0.01389934601485729,-0.03922638723403215,-0.013461429521627724
1789397514475643600,0.9176435546875,0.12973814054727553,-0.043209319390356535,-0.03327094942834228
1789397514485668600,0.927668701171875,0.22037001310884952,-0.06919365547448396,-0.017364190847519785
1789397514495694600,0.937694580078125,0.22101824788451194,-0.07158610356897115,-0.01670399163942784
1789397514505720600,0.947720458984375,0.18468378269970415,-0.09161270029246807,-0.03241288956059143
1789397514515745500,0.95774560546875,0.15426818616986274,-0.060706982158124444,-0.02268119375235401
1789397514525771500,0.967771484375,0.12583411884605883,-0.04617255311012268,-0.03916226335610263
1789397514535797500,0.977797607421875,0.08445347618758678,-0.05059066181331873,-0.05984573481944389
1789397514545822700,0.98782275390625,0.08723989203572273,-0.06052899524271488,-0.0617948869926855
1789397514555848700,0.9978486328125,-0.04587210885882377,-0.071067924913764,-0.04206968436855823
1789397514565874700,1.007874755859375,-0.13192542145848274,-0.04914455465823411,-0.05826792757608928
1789397514575899600,1.017899658203125,-0.14064005831182003,-0.04068096995651722,-0.044169834985584015
1789397514585925600,1.027925537109375,-0.15529928278326988,-0.024748656809329986,-0.03083631529309787
1789397514595951600,1.03795166015625,-0.1538736338943243,-0.029583237358927726,-0.03528575071631931
1789397514605976600,1.0479765625,-0.11257014812529087,-0.03421849594414234,-0.02614113408103585
1789397514616002600,1.05800244140625,-0.07496142522096634,-0.024470716650784013,0.0036152313550934195
1789397514626028800,1.06802880859375,-0.03164133893251419,-0.01413344703167677,0.0008615395996253938
1789397514636053500,1.078053466796875,-0.003944353711605072,-0.012276713249087332,-0.009188218314992263
1789397514646079700,1.088079833984375,-0.00338847339451313,-0.013987024298310278,-0.013464954919274895
1789397514656105700,1.098105712890625,0.002100187149643898,-0.014948855067789554,-0.004023300699330866
1789397514666130700,1.108130615234375,-0.012374912926554679,-0.023448095604777335,0.013191471740137784
1789397514676156700,1.11815673828125,-0.0569552284091711,-0.03916764278411865,0.016489599970076232
1789397514686182700,1.1281826171875,-0.10742635549604893,-0.015578385142982005,0.028173863751348106
1789397514696208000,1.138207763671875,-0.10655892501175403,-0.01849777972102165,0.026251407788787037
1789397514706233900,1.14823388671875,-0.006293547186255455,0.000320025734603405,0.025344065419211984
1789397514716259800,1.158259765625,0.018610592445731163,0.0018149404674768447,-0.01564827204141766
1789397514726284800,1.168284912109375,0.01980535518825054,-0.0020700842723250386,-0.02004278067331761
1789397514736310800,1.178310791015625,0.12940554759204387,-0.05253682744503021,0.005776975966244936
1789397514746336800,1.188336669921875,0.1314566349029541,-0.05932049623578786,0.0007189253916963935
1789397514756361700,1.19836181640625,0.139700147113204,-0.004131985238194465,-0.025264442578051237
1789397514766387700,1.2083876953125,0.12182254511713982,-0.019339198981225488,-0.013209135260991751
1789397514776413700,1.21841357421875,0.13290858727693558,-0.017976386195421218,0.010423797125089913
1789397514786438700,1.228438720703125,0.15816928526163102,-0.054636137811839576,0.005379154021386057
1789397514796464600,1.238464599609375,0.16074293514192103,-0.06304974589198828,0.0004648045001551509
1789397514806490600,1.24849072265625,0.15820143396556377,-0.04396481393277645,0.008760320892278104
1789397514816515600,1.258515625,0.11734218483269214,-0.039812662689387796,0.03481173086324706
1789397514826541600,1.26854150390625,0.11947861233949661,-0.04689326860010624,0.03291302110245451
1789397514836567600,1.278567626953125,0.013293196815252303,-0.004155073852837085,0.030814441388007253
1789397514846592800,1.2885927734375,0.01519347747862339,-0.010435761557519435,0.02933147282125428
1789397514856618800,1.29861865234375,0.07104512856006621,-0.01810615005493164,-0.022588464834447947
1789397514866644700,1.308644775390625,0.09869126037657261,-0.06201251179873943,-0.01062995068905875
1789397514876669700,1.318669677734375,0.10042261421382427,-0.06761310828477143,-0.012957662984263152
1789397514886695700,1.32869580078125,0.069189856082201,-0.035331133361160755,0.042779805399291215
1789397514896721700,1.3387216796875,0.07085632798969745,-0.040673955693840975,0.040278837162721896
1789397514906747100,1.3487470703125,0.01566401759982109,-0.017580957137048242,0.05272091530766338
1789397514916773000,1.358773193359375,0.04069499848186969,-0.04563946914672851,0.04559314578697085
1789397514926799000,1.368799072265625,0.045315644019842144,-0.06826134306043385,-0.0031414032982662317
1789397514936824000,1.378823974609375,0.04498246654272079,-0.06324614524692297,0.016687478896044192
1789397514946850000,1.38885009765625,0.047022447937726974,-0.07001169385910033,0.017220471527893095
1789397514956876000,1.3988759765625,0.060228550991415976,-0.017708675169944763,0.05809946654085069
1789397514966901000,1.40890087890625,0.029134909069538115,-0.052394204103946684,0.030740426303725688
1789397514976927000,1.418927001953125,0.03204407451450825,-0.06191928055733442,0.031072343405522403
1789397514986953000,1.428952880859375,0.0177811558842659,-0.009845686709880829,-0.02220711910035461
1789397514996978000,1.43897802734375,0.059143093842267985,-0.014347382043302059,0.004789791559800505
1789397515007004000,1.44900390625,0.023642741394042967,-0.03846358616799116,0.026741657257452606
1789397515017030000,1.45902978515625,-0.018017887249588964,-0.0780585144534707,0.0053257250674068925
1789397515027055000,1.46905517578125,-0.014346505260467528,-0.08972147971838712,0.004579089684877544
1789397515037081000,1.4790810546875,-0.016036358043551444,-0.05963759936094284,0.046874436035472894
1789397515047107000,1.489107177734375,-0.013009119176864623,-0.06927841114848851,0.047470538765098894
1789397515057132000,1.499132080078125,-0.017688801425695417,-0.05402765052467584,0.04286912765055895
1789397515067158000,1.509157958984375,-0.008180968368053435,-0.06806026753038168,0.020970124651305377
1789397515077184000,1.51918408203125,-0.037165070790052414,-0.06489040532261132,0.014577519271057097
1789397515087209000,1.529208984375,-0.047187867632508276,-0.08337094164788722,0.013541709949914365
1789397515097235000,1.53923486328125,-0.0435007035523653,-0.06553600974977015,0.025124613982252776
1789397515107261000,1.549260986328125,-0.032220015603303905,-0.06128799691647291,0.03193244909988716
1789397515117286000,1.559285888671875,-0.06139174955189228,-0.09544219545274972,0.05360558918770402
1789397515127312000,1.569311767578125,-0.06055471420586109,-0.09824819278419017,0.05627405947828665
1789397515137338000,1.579338134765625,-0.11833996369838713,-0.06645429363846779,0.0953089975271374
1789397515147363000,1.589363037109375,-0.18265899887382983,-0.04198153116106987,0.10243813702100887
1789397515157388800,1.599388916015625,-0.1719640018582344,-0.01756283695846796,0.0665090925656259
1789397515167415000,1.6094150390625,-0.08381868541538715,-0.037166532094776626,0.07760892578875646
1789397515177440000,1.61943994140625,-0.08406126199960708,-0.03655950611233711,0.07973243901506066
1789397515187466200,1.62946630859375,-0.05027355868816375,-0.09105623545348644,0.0705019067951478
1789397515197492200,1.6394921875,-0.051072600111365316,-0.08190525300949811,0.0784771051917225
1789397515207517200,1.64951708984375,-0.05137888958156109,-0.08110971871763467,0.08082792436787858
1789397515217543200,1.659543212890625,-0.04001578404605388,-0.05710749636143446,0.08791949006402865
1789397515227569200,1.669569091796875,-0.040324411603808404,-0.05631137754768133,0.09039826473509892
1789397515237594000,1.679593994140625,-0.03153378690481186,-0.08193944754004479,0.10086051244074479
1789397515247620000,1.6896201171875,-0.04729834226965904,-0.060602352739870545,0.08831020641466603
1789397515257646000,1.69964599609375,-0.05923369473516941,-0.032464930275082585,0.06949247402427718
1789397515267671000,1.709671142578125,-0.04004325657486915,-0.03264993145316839,0.06878721183175221
1789397515277697000,1.719697021484375,-0.04077975415587425,-0.030420272704958912,0.06990836134878918
1789397515287723000,1.729722900390625,0.021539631634950637,-0.0766448482632637,0.1420646294885315
1789397515297748000,1.739748046875,0.003510638469457626,-0.09786474642455577,0.09249403143795207
1789397515307774000,1.74977392578125,0.04846037178635597,-0.08773381303250789,0.07877406057799234
1789397515317800000,1.759800048828125,0.10835340721309185,-0.04822071781158447,0.10108429299294948
1789397515327825200,1.7698251953125,0.107183778911829,-0.04462970758229494,0.10247951021101326
1789397515337851100,1.77985107421875,0.10984218446612358,-0.056278352060914034,0.0988053152102977
1789397515347877000,1.789877197265625,0.10548866543173789,-0.06902063699513673,0.10882100645853206
1789397515357902000,1.799902099609375,0.1130173073709011,-0.06771539961546659,0.1362174195639789
1789397515367928000,1.809927978515625,0.11643091520667076,-0.05659107127189636,0.1293564842859283
1789397515377954000,1.8199541015625,0.11694061829447745,-0.05800356841832399,0.12619686947753653
1789397515387979000,1.82997900390625,0.0953320130765438,-0.011239771416783333,0.16152670593075452
1789397515398005000,1.8400048828125,0.02983399724960327,-0.014880758267641066,0.14696537060951814
1789397515408031000,1.850031005859375,0.005638298147916793,0.004114157320559025,0.14408007923047988
1789397515418056000,1.860055908203125,-0.02716390125751495,0.011897066281735896,0.12286666560890153
1789397515428082000,1.87008203125,-0.025730653584003445,0.007314122405648231,0.1244327093492262
1789397515438108000,1.88010791015625,-0.02991933744549751,0.038300212299823756,0.1055460216421634
1789397515448132900,1.8901328125,0.006560673689842224,0.03960924907177686,0.09747373781297355
1789397515458158800,1.900158935546875,0.029562779092788694,0.06226531751602888,0.06992701125033199
1789397515468184800,1.910184814453125,0.1312035369247198,0.018320669588446616,0.14011698428578673
1789397515478210000,1.9202099609375,0.13256138127446174,0.013970365424454212,0.14243243988761678
1789397515488236000,1.930236083984375,-0.10570318496525287,-0.10935410868823528,-0.010141765313316136
1789397515498262000,1.940261962890625,-0.20944939064383505,0.13481822029054163,-0.14694396249530836
1789397515508287000,1.950286865234375,0.1536649595797062,0.21224428205937146,0.10057986886845902
1789397515518313000,1.96031298828125,0.15561258651614188,0.20633155088424682,0.0993211557779461
1789397515528339200,1.970339111328125,0.4783335515528917,0.015136778855323791,0.267600916165486
1789397515538364000,1.980364013671875,0.3133177613973617,-0.10193711043000221,0.07403282086765393
1789397515548390100,1.99039013671875,0.1583873119264841,-0.14310498712062836,0.12555471738278864
1789397515558416100,2.000416015625,-0.1471288358092308,-0.07557780355364084,0.15189573055063374
1789397515568441000,2.010441162109375,-0.3463672135621309,-0.063745911462605,0.03726730275524314
1789397515578467000,2.020467041015625,-0.38656829104721546,-0.015412965448200701,0.025545944666862486
1789397515588493000,2.0304931640625,-0.29571430016756056,0.0815858117967844,0.0008976726422202773
1789397515598518000,2.04051806640625,-0.14364683891236782,0.13432897546887396,-0.055373795303469524
1789397515608544000,2.0505439453125,-0.14854396330416203,0.1499655205398798,-0.055653292664862235
1789397515618570000,2.060570068359375,0.04603168333470821,0.07910539315789937,-0.08975532718906179
1789397515628595200,2.07059521484375,0.30710604727566243,-0.09425532375574111,-0.036405594192259014
1789397515638621200,2.08062109375,0.3071019556224346,-0.0940492797896266,-0.04854999543172307
1789397515648647200,2.090647216796875,0.30113807878196236,-0.11549655696600675,-0.047209814602835104
1789397515658672000,2.100672119140625,0.26190380050241946,-0.11357347994893789,-0.03145731500196271
1789397515668698000,2.110697998046875,0.18004793959259985,-0.11773936745673418,0.012944355978118254
1789397515678724000,2.12072412109375,0.10953472595214843,-0.11947101355493069,0.05010635802824981
1789397515688749000,2.1307490234375,0.027260347369313237,-0.10186901362985372,0.07491307430090383
1789397515698775000,2.140775146484375,-0.07996025642156601,-0.07333820793330668,0.08622048586010933
1789397515708801000,2.150801025390625,-0.1444657540798187,-0.07852876231372356,0.09815580179300158
1789397515718826000,2.160825927734375,-0.1565092430949211,-0.09447422720342874,0.09914589967573992
1789397515728852000,2.17085205078125,-0.1570014105260372,-0.11069733999073504,0.10573039263258688
1789397515738878000,2.1808779296875,-0.13987316559255122,-0.10325608407407999,0.13158510185452177
1789397515748903000,2.19090283203125,-0.0905529621064663,-0.10396335556060075,0.13889199080178513
1789397515758929000,2.200928955078125,-0.0630249037116766,-0.08285831595063209,0.12106494994917884
1789397515768955000,2.210954833984375,-0.07059037052989006,-0.09218640852719545,0.06425115757100283
1789397515778980900,2.22098095703125,-0.04216565555632114,-0.1075584574431181,0.02574697453114204
1789397515789006000,2.231006103515625,-0.023552725023031233,-0.10664806459993123,0.0283523803897202
1789397515799032000,2.241031982421875,0.032656068933010096,-0.1139320841282606,0.04163121988605708
1789397515809058000,2.25105810546875,0.05309972202479839,-0.10909311966449022,0.04555336176585406
1789397515819083000,2.2610830078125,0.08572948747277259,-0.07408259655982255,0.04725013748006895
1789397515829109000,2.27110888671875,0.0685801997512579,-0.06809563110470772,0.059276894556079054
1789397515839135000,2.281135009765625,0.0696083737552166,-0.07192132687270641,0.06576258504725992
1789397515849160000,2.291159912109375,0.04695698148608207,-0.049474517264962194,0.05553219160242006
1789397515859186000,2.30118603515625,0.01183247661292553,-0.05097878434807062,0.03767763255522586
1789397515869212200,2.311212158203125,0.005491583153605461,-0.017341887684166432,0.024870547889638692
1789397515879236900,2.32123681640625,-0.005838204634189605,-0.020805472141504286,0.049165186454309145
1789397515889263000,2.33126318359375,-0.040376434051990505,-0.006343231546878814,0.05875142764355987
1789397515899289000,2.3412890625,-0.04447977771759033,0.0072474869102239605,0.04270100454203784
1789397515909314000,2.35131396484375,-0.0012163900524377821,-0.0027361469656229016,0.04389074404956773
1789397515919340000,2.361340087890625,0.03592120820879936,-0.019310265147686002,0.05279321335889399
1789397515929366000,2.371365966796875,0.018724574214220045,0.00561316370666027,0.02962000743905082
1789397515939391200,2.38139111328125,0.011294131952524185,0.03712970721572637,0.04411806826572865
1789397515949417200,2.391417236328125,-0.007157470539212226,0.011302022998034953,0.05352417624825612
1789397515959443200,2.401443115234375,-0.017672434812784195,0.0017339841857552528,0.040028826190717515
1789397515969468200,2.41146826171875,-0.029280455020070074,0.015953648196160793,0.04218987668212503
1789397515979494100,2.421494140625,-0.04077566250264644,0.028372984786331653,0.022856851713359355
1789397515989520100,2.43152001953125,-0.001415127494931221,0.02724105814695358,0.03647960927654058
1789397515999545000,2.441545166015625,0.058684244158864016,0.001425356628000736,0.042649931941926476
1789397516009571000,2.451571044921875,0.06768938839137553,-0.030054946523904797,0.015748389681335538
1789397516019597000,2.46159716796875,0.07717676318287849,-0.03652794193029404,0.022685641598608343
1789397516029622000,2.4716220703125,0.08949439296424389,-0.026688392700254915,0.03429174384344369
1789397516039648000,2.48164794921875,0.12512334022819996,-0.022308570180833338,0.030633732792548832
1789397516049674000,2.491674072265625,0.10076689760684966,-0.023505671010911465,0.01664343882491812
1789397516059699000,2.501698974609375,0.08537292912006378,-0.027793723593652248,0.019933931737672536
1789397516069725000,2.511724853515625,0.09829553905725479,-0.06149930157959461,0.018955095034465193
1789397516079751000,2.5217509765625,0.10105740498602389,-0.046609190961718554,0.010268697894923389
1789397516089776000,2.531776123046875,0.09856967982351779,-0.04546002092659473,0.0214681555676274
1789397516099802000,2.541802001953125,0.08244505897462368,-0.04068681517541408,0.045124432296678424
1789397516109828000,2.551828125,0.05574702166318893,-0.04058598514944315,0.038809440463595093
1789397516119853000,2.56185302734375,-0.0036959319084882733,-0.04131020777076483,0.015239417245890945
1789397516129879000,2.571879150390625,-0.07262041505277156,-0.036027591192722315,-0.007514138489775359
1789397516139905000,2.581905029296875,-0.06286708280146122,-0.028854630823433397,0.010987696351855992
1789397516149930000,2.591929931640625,-0.05855623386502266,-0.018379121777415273,0.01739171817526221
1789397516159956000,2.6019560546875,-0.07089315286874771,-0.03276099061220884,0.02969606834994629
1789397516169982000,2.61198193359375,-0.08203940078318119,-0.04889993224740028,0.005167977222427725
1789397516180008000,2.622008056640625,-0.04820493572056293,-0.09115005121678113,-0.017981500761955975
1789397516190033000,2.632032958984375,-0.04470657221078873,-0.10352934805750846,-0.026355288288369774
1789397516200059000,2.642058837890625,-0.008350479716062545,-0.09429448672235012,0.009114395026955753
1789397516210085000,2.652085205078125,0.03926876507103443,-0.09432166699022054,0.033933322327211496
1789397516220109800,2.66210986328125,0.010533084452152251,-0.0849646405801177,0.020446721831709144
1789397516230136000,2.672135986328125,-0.015683306822180748,-0.07898001321256161,-0.01729052282311022
1789397516240162000,2.682162109375,-0.026976269730925557,-0.07493716756254434,-0.061277530321385706
1789397516250187300,2.692187255859375,-0.0332096111625433,-0.05818886185735464,-0.07516178836496547
1789397516260213200,2.702213134765625,-0.022257424515485763,-0.07710399020761251,-0.04237553544733673
1789397516270239200,2.7122392578125,-0.01409808345735073,-0.08137567617744207,0.0063114847017452114
1789397516280264200,2.72226416015625,0.04308569301068783,-0.07980068194568157,0.049995216670818625
1789397516290290200,2.732290283203125,0.023030162453651425,-0.04848696753233671,0.02308176477672532
1789397516300316200,2.742316162109375,0.07125614096224307,-0.06613631373047828,0.019053422576095908
1789397516310341000,2.752341064453125,0.1349251877963543,-0.07601414914429187,0.010654427543189376
1789397516320367000,2.7623671875,0.16286884125471116,-0.06857610809803008,0.0221614715940319
1789397516330393000,2.77239306640625,0.18207973768115043,-0.056368660692870616,0.0638711635437794
1789397516340418000,2.78241796875,0.16443302183151245,-0.0176589908093214,0.05121770767048001
1789397516350444000,2.792444091796875,0.14640285962224006,-0.01638853248208761,0.027909422395192084
1789397516360470000,2.802469970703125,0.09805003986358642,-0.03020049247443676,0.038436844291538
1789397516370495000,2.812494873046875,0.04647299736142158,-0.00959726490676403,0.05615700896987691
1789397516380521000,2.82252099609375,0.009196867412328719,0.030952187624573704,0.07817490737475455
1789397516390547000,2.832546875,-0.061381228157877915,0.0032210078731179236,0.04379415180729702
1789397516400572200,2.842572265625,-0.11134674381017684,-0.0002758943319320679,0.0277444593581371
1789397516410598100,2.85259814453125,-0.13963818779289722,0.0103740944981575,0.05052444644300267
1789397516420624100,2.8626240234375,-0.08628536778986454,0.008577566470205784,0.06181982050454243
1789397516430649000,2.872649169921875,-0.02670212896466255,0.005953647707402706,0.10653128808615729
1789397516440675000,2.882675048828125,0.027924948757886883,-0.008662906666100024,0.1110159957521595
1789397516450701000,2.892701171875,0.04782032031714916,-0.04901186818927526,0.0998993027257733
1789397516460726000,2.90272607421875,0.012125906601548194,-0.05634469529539347,0.06411960361320525
1789397516470752000,2.912751953125,-0.02144318552315235,-0.0366080214291811,0.05725015623513609
1789397516480778000,2.922778076171875,-0.03581190261542797,-0.028280922588706014,0.08992986177206039
1789397516490803000,2.932802978515625,-0.032353871116042134,-0.03353285176753998,0.10131488687843083
1789397516500829000,2.942828857421875,-0.030423195314407347,-0.026623803031444546,0.09809046320552006
1789397516510855000,2.95285498046875,-0.027362054178118704,-0.04954436763077974,0.109351240877714
1789397516520881000,2.962880859375,-0.015079495710134505,-0.03641951311975717,0.15794123039310798
1789397516530905900,2.97290576171875,-0.0021837737798690794,-0.022069208467006683,0.19010516842762007
1789397516540931800,2.982931884765625,-0.055766310885548585,-0.020993395929038525,0.16244988519027828
1789397516550958000,2.9929580078125,-0.09653554364740848,-0.032841946893930433,0.14334939033575356
1789397516560983000,3.002983154296875,-0.0726402887970209,-0.03345189548581838,0.15852502163043244
1789397516571009300,3.01300927734375,-0.058628130057454104,-0.02223433590084314,0.1375200448614545
1789397516581035300,3.02303515625,-0.040725978142023084,-0.032953006052970885,0.0908405834088102
1789397516591060000,3.03306005859375,0.008550386202335357,-0.011733692413568496,0.07795151041503995
1789397516601086200,3.043086181640625,0.028047113832831382,-0.025190555357933044,0.060248552599828684
1789397516611112200,3.0531123046875,0.07489186711609364,-0.005672784939408302,0.06634109732126817
1789397516621137200,3.06313720703125,0.0178115510225296,-0.02001929019987583,0.07727726441528647
1789397516631163100,3.0731630859375,-0.05659282483756542,-0.0505175965771079,0.07460987183693796
1789397516641189000,3.083189208984375,-0.009146014007925987,0.010911270114779471,0.0811908576624468
1789397516651214000,3.093214111328125,0.031413959917426106,-0.0101236268684268,0.05971524944072589
1789397516661240000,3.103239990234375,0.06674830814898014,-0.033468262098729606,0.03627550153918564
1789397516671266000,3.11326611328125,0.046530865028500554,-0.03053337769061327,0.03519062891192734
1789397516681291000,3.123291015625,0.047886371290683745,-0.03218319072425365,0.057717043094523246
1789397516691317000,3.13331689453125,0.03516483688354492,-0.014526538002490997,0.04475519712548703
1789397516701343000,3.143343017578125,0.015175941821932791,-0.0213341721907258,0.0443172258333303
1789397516711368200,3.1533681640625,0.024136077868938444,-0.017007541163265704,0.05074835485937074
1789397516721394200,3.163394287109375,0.03483808914721012,-0.00938420667797327,0.022269498545769602
1789397516731420200,3.173420166015625,0.038542788884043694,-0.00499532406926155,0.025106530336290598
1789397516741445000,3.183445068359375,0.04782148936092853,-0.017898937045037745,0.017013258517999202
1789397516751471000,3.19347119140625,0.03085048081576824,-0.030274726754426953,-0.005564794520288706
1789397516761497000,3.2034970703125,0.04415186093747615,-0.034247429777681825,-0.006573332242015749
1789397516771522000,3.21352197265625,0.04913257195949554,-0.02214987248778343,0.02668572581913322
1789397516781548000,3.223548095703125,0.0452174443423748,-0.018767244312167166,0.03589053907589987
1789397516791574000,3.233573974609375,0.03041267392039299,-0.007105740351974964,0.025731219839584082
1789397516801599000,3.243598876953125,-0.019056582647562027,0.010520809492468834,0.014611750334221869
1789397516811625000,3.253625,-0.021743629774451254,-0.01466185481995344,0.008533489866461604
1789397516821651000,3.26365087890625,-0.011576456025242805,-0.008954583089053631,0.020345581278484313
1789397516831677000,3.273677001953125,-0.06549684678316116,0.036058278591930865,-0.005334072770643979
1789397516841702000,3.283701904296875,-0.020557634860277174,0.05059563024938106,0.005043072201125324
1789397516851728000,3.293727783203125,0.05532090520560741,-0.0006488192975521087,-0.0009449709662236273
1789397516861753900,3.30375390625,0.08011807733178138,-0.050562020240724086,-0.008334478429332375
1789397516871779000,3.313779052734375,0.0766354959130287,-0.06666968995481728,-0.0034856684249825773
1789397516881805000,3.32380517578125,0.05379238046407699,-0.03818126209527254,-0.01688020672285929
1789397516891831000,3.3338310546875,0.018085107266902923,-0.012875555925071239,0.005287511948868632
1789397516901856000,3.34385595703125,0.013929156631231307,-0.006390870080888271,-0.01159457620382309
1789397516911881500,3.353881591796875,-0.011107669469714164,-0.014459902507066726,-0.02419571736799553
1789397516921907500,3.363907470703125,-0.03585924888849258,-0.011078443375229835,-0.032898042729031296
1789397516931932400,3.373932373046875,-0.04845978726446628,-0.01310118137449026,-0.029097554467525332
1789397516941958400,3.38395849609375,-0.07068214046657086,0.00021130466312170029,-0.008652038212213664
1789397516951984400,3.393984375,-0.1122328789949417,-0.0032417584002017974,0.0011878215450793505
1789397516962009300,3.40400927734375,-0.0871451994895935,-0.004114157320559025,0.031597371926624325
1789397516972035300,3.414035400390625,-0.11277531530857085,-0.004381283824145794,0.054666898276284334
1789397516982061300,3.424061279296875,-0.11967267360687255,-0.004740180264413357,0.06345248147398233
1789397516992086500,3.43408642578125,-0.11346914279162883,-0.0030418519139289854,0.10008503455622121
1789397517002112500,3.444112548828125,-0.08648702784180641,0.015989596292376517,0.1235190103041008
1789397517012138500,3.454138427734375,-0.11467559597194193,-0.0030167174726724623,0.11181014180453494
1789397517022163500,3.46416357421875,-0.12591478286683558,-0.007014554937183857,0.08818047908777371
1789397517032189700,3.474189697265625,-0.10030454079210757,-0.02363777295798063,0.0852067239739932
1789397517042215700,3.484215576171875,-0.09998188470900059,-0.03985650183111429,0.09360022084787488
1789397517052240600,3.49424072265625,-0.0909966142207384,-0.03094371205717325,0.10433860034747049
1789397517062266600,3.5042666015625,-0.07672609680593014,-0.008360124327242374,0.12920103799588978
1789397517072292600,3.514292724609375,-0.04328793758451938,0.008884148201346398,0.14080997151862829
1789397517082317600,3.524317626953125,-0.029879005435109136,-0.022275252433121204,0.1481555850410834
1789397517092343600,3.534343505859375,-0.077886372756958,0.031256723529100416,0.08311839165892451
1789397517102369500,3.54436962890625,-0.04726034834682941,0.033843525151908395,0.1100860396919772
1789397517112394500,3.55439453125,-0.12236673499643802,0.011175766269862651,0.1708083290170878
1789397517122420500,3.56442041015625,-0.15799334417283534,-0.004428630097210407,0.22529970632968468
1789397517132446500,3.574446533203125,-0.1772048251211643,0.009155366358160971,0.23496424605268984
1789397517142471400,3.584471435546875,-0.2653355285167694,0.03935732013732195,0.19726578077198936
1789397517152497400,3.594497314453125,-0.3709352531075477,0.044034664298594,0.14926838685488328
1789397517162523400,3.6045234375,-0.43987902547419067,0.059411389389634126,0.144942742208112
1789397517172549400,3.61454931640625,-0.41861821078062056,0.07183920154720544,0.17481661481037736
1789397517182574600,3.62457470703125,-0.3573609012633562,0.057148120632767675,0.20945556465629486
1789397517192600600,3.6346005859375,-0.3686977033138275,0.023171032229065892,0.15760949595440177
1789397517202626600,3.64462646484375,-0.405249026119709,-0.0017839608073234557,0.09763098333445377
1789397517212651500,3.654651611328125,-0.3691103757679462,0.04565291315019131,0.099115605002176
1789397517222677500,3.664677490234375,-0.28921733936369415,0.09775251822173595,0.09149691929253749
1789397517232703500,3.674703369140625,-0.20773206533193586,0.12693535808622836,0.09186458356115035
1789397517242728400,3.684728515625,-0.19210779522061347,0.09150164113342761,0.11539784583188592
1789397517252754400,3.69475439453125,-0.4541255774915218,-0.09104074562340975,0.4077438751427456
1789397517262780400,3.704780517578125,-0.3493465216338634,-0.1342684774532914,0.18722126528806984
1789397517272805400,3.714805419921875,0.058463879406452174,-0.021800620658695695,0.02721188685139641
1789397517282831400,3.724831298828125,0.17813187683820725,0.010901040981709957,-0.02246027187751606
1789397517292857300,3.734857421875,0.16553426107168195,0.06945479062870144,-0.08532128113121726
1789397517302882600,3.744882568359375,0.13131108895242213,0.06979936628267168,0.20427750443127005
1789397517312908300,3.754908203125,0.03612169921696186,-0.0364858563542366,0.3195485455457121
1789397517322934300,3.764934326171875,-0.022577157989144322,-0.26215616782829165,0.21534772796742616
1789397517332959500,3.77495947265625,-0.02542202602624893,-0.15619301675260067,0.23364991205111144
1789397517342985500,3.7849853515625,-0.17406652709543705,-0.025577070457488298,0.3372441785709932
1789397517353011700,3.79501171875,-0.17602584446966646,-0.019058336213231084,0.36625410955399273
1789397517363036400,3.805036376953125,-0.03140460756719112,-0.06203136262968182,0.2938877423275262
1789397517373062700,3.815062744140625,-0.0636690468341112,-0.1598852953992784,0.2434889498244971
1789397517383088600,3.825088623046875,-0.08266016303002834,-0.19757877397760748,0.15703507533362135
1789397517393113600,3.835113525390625,-0.10810907706320286,-0.24914529508575795,0.28775886591738087
1789397517403139600,3.8451396484375,0.011887421670556068,-0.2582964236602187,0.3320337869789451
1789397517413165600,3.85516552734375,0.034438276174664495,-0.2931606701619923,0.512781107012555
1789397517423190500,3.8651904296875,-0.11708148806989192,-0.21218772956654428,0.6161384595040231
1789397517433216500,3.875216552734375,-0.6711684920042753,-0.1380395204246044,0.40461481986939907
1789397517443242500,3.885242431640625,-1.3845844726294279,-0.43489393053799863,0.14588219674900174
1789397517453267500,3.895267333984375,-1.1991402269512415,-0.14300561839938164,0.18369791346751152
1789397517463293400,3.90529345703125,-0.743411890438199,0.20266089954748748,0.3773611945018172
1789397517473319400,3.9153193359375,-0.5957938098073006,0.16669599832743406,0.4050700893562287
1789397517483344600,3.9253447265625,-0.4383797268271446,0.14633768543154,0.5842377024503425
1789397517493370600,3.93537060546875,-0.5136643926531076,0.27659648885205385,1.0763374386250972
1789397517503396600,3.945396728515625,-0.7193465397179126,0.38117432304918764,1.4814261596165597
1789397517513422600,3.955422607421875,-0.8904507098764181,0.38806568999812,1.6170166794538496
1789397517523447600,3.965447509765625,-1.2745382900238036,0.322418474958837,1.2521112080298364
1789397517533473500,3.9754736328125,-0.6016068800002337,0.5512118868894875,1.1192496016997844
1789397517543499500,3.98549951171875,0.07366495566964149,1.0596325336702168,1.3954308608144521
1789397517553524500,3.9955244140625,-0.17993220425844192,0.7556425725884736,1.123747278445214
1789397517563550500,4.005550537109375,-0.4561491922736168,0.35494667972847815,0.9023378392860293
1789397517573576400,4.015576416015625,-0.6128606799423695,0.17935133563056588,0.6384885307390242
1789397517583601400,4.025601318359375,-0.7462047360271215,0.18427812450826167,0.3215459664406255
1789397517593627400,4.03562744140625,-0.7066495552301406,0.24540172464326024,0.10328406805954873
1789397517603653400,4.0456533203125,-0.369465180554986,0.2234219480253756,0.10062109592799097
1789397517613678300,4.05567822265625,0.10052373650074005,0.07972220988199115,0.17063498174417763
1789397517623704300,4.065704345703125,0.20545944422483442,-0.13559928766563534,0.09820406138151884
1789397517633730300,4.075730224609375,0.09690671504735945,-0.3000609510697424,-0.13709785566031932
1789397517643755500,4.085755615234375,-0.00905658215880394,-0.37933819366320964,-0.3565420956937596
1789397517653781500,4.095781494140625,-0.15941080975532532,-0.4247369859218597,-0.44047439755145457
1789397517663807500,4.105807373046875,-0.34653555586636065,-0.3982968688942492,-0.40874432088956236
1789397517673832400,4.11583251953125,-0.4590554351091385,-0.3107537561282515,-0.3568256618754938
1789397517683858400,4.1258583984375,-0.3980430402636528,-0.2707800576582551,-0.26363332770876585
1789397517693884700,4.135884765625,-0.22570260630846023,-0.30863822527900336,-0.18152440535333006
1789397517703909400,4.145909423828125,-0.12001228082478045,-0.31310251121148464,-0.09847194593693129
1789397517713935600,4.155935546875,-0.06900456264317036,-0.3223758048608899,0.0015962196828797459
1789397517723961600,4.165961669921875,0.014903554621338843,-0.3025923692435026,0.08656633102255873
1789397517733986600,4.175986572265625,0.07143617370426654,-0.28392610108777877,0.12806856336724012
1789397517744012500,4.186012451171875,0.21271803705096243,-0.26227570255473254,0.2082220590722747
1789397517754038500,4.19603857421875,0.11739888345599174,-0.33674627551883457,0.3671439710658043
1789397517764063500,4.2060634765625,-0.16670681198239326,-0.4418846662081778,0.4091801550235599
1789397517774089500,4.21608935546875,-0.37261341545283794,-0.5002526840247213,0.4188284925304353
1789397517784115500,4.226115478515625,-0.5762772084325551,-0.669631345564872,0.4601217491663992
1789397517794141400,4.236141357421875,-0.9542091885596513,-1.2277857450686394,1.305904465276748
1789397517804166700,4.246166748046875,0.09055179306268692,-1.0251461805701254,1.306489863949269
1789397517814192600,4.256192626953125,1.1224679061591625,-0.4865421385802328,0.778977051750943
1789397517824218600,4.266218505859375,1.0167717354565857,-0.2126578312963247,0.5208124377768486
1789397517834243600,4.27624365234375,0.7077969716995954,-0.32781127391308545,0.28989808816947044
1789397517844269600,4.28626953125,0.45280221993327135,-0.6611984482623636,0.14577186824232338
1789397517854295600,4.296295654296875,-0.11615677444040774,-0.9490990059390664,-0.008071516644209622
1789397517864320500,4.306320556640625,-0.6645294923812151,-0.8047862504638731,-0.13634681809730828
1789397517874346500,4.316346435546875,-0.7208405776679515,-0.28192265231087804,-0.16681261044442652
1789397517884372500,4.32637255859375,-0.628863135716319,0.17902970246076583,0.11112287192642688
1789397517894397400,4.3363974609375,-0.630209874150157,0.2556573073282838,0.42291386214792726
1789397517904424000,4.346423828125,-0.48637891084253787,0.10062368974387645,0.41567967311069365
1789397517914450000,4.356449951171875,-0.108573187443614,-0.07096344162598252,0.11191438763029873
1789397517924475000,4.366474853515625,0.2139654067635536,-0.13764957125894725,-0.21836042685210705
1789397517934500900,4.3765009765625,0.5005658416271209,0.06922258930802346,-0.30742300427034497
1789397517944527000,4.386527099609375,0.4564706793129444,0.165907186037302,-0.13951207719519734
1789397517954551800,4.3965517578125,0.9865683203727006,0.27000958474241193,0.21753961198851465
1789397517964578000,4.406578125,1.1991302900791168,0.3239567173767835,0.36043022570610045
1789397517974604000,4.41660400390625,0.8697387612372637,0.16432656578235327,0.405787955302
1789397517984629200,4.426629150390625,0.7733347350150346,0.12402695982623844,0.2843376044981181
1789397517994655200,4.4366552734375,0.9780214413017034,0.0942585751587525,0.034893910987675185
1789397518004681200,4.44668115234375,1.8123153796702622,0.2040813973372802,-0.0885075738839805
1789397518014706200,4.4567060546875,2.9011259308993815,0.5296291467651725,0.08534998663589358
1789397518024732200,4.466732177734375,3.250715029117465,0.42724904180802403,0.3447260222263634
1789397518034758100,4.476758056640625,3.193382784089446,0.16215322206495328,0.22882819098308682
1789397518044784000,4.4867841796875,2.530695704704523,-0.128813993173372,0.3326717195563018
1789397518054809000,4.49680908203125,2.1221955678343773,-0.026125461587868628,0.20984160483181474
1789397518064835000,4.5068349609375,1.9274860656827688,-0.17616528947297483,-0.13933189832270146
1789397518074861000,4.516861083984375,1.7761451651364564,-0.46235780112277713,-0.3732235101751983
1789397518084886000,4.526885986328125,1.9325380883753298,-0.6400847869545221,-0.7588609501130879
1789397518094912000,4.536912109375,1.7501456314831971,-1.0823124213814734,-0.9774231831476092
1789397518104938000,4.54693798828125,1.3658809412032364,-1.3673070284835993,-1.1091381767258048
1789397518114963000,4.556962890625,0.8960656271487474,-1.6378513776898382,-1.4199816569641233
1789397518124989000,4.566989013671875,0.5470329937696456,-1.8153692142829299,-1.7158059933774172
1789397518135015000,4.577014892578125,0.4973696759343147,-1.929245038179308,-1.9545733945727348
1789397518145040100,4.5870400390625,0.8195926283210515,-1.4093024420395492,-1.523506621107459
1789397518155066000,4.597066162109375,1.0277554862856864,-0.5159146557979285,-0.44024961235225196
1789397518165092000,4.607092041015625,0.8126379868775606,-0.34345629455149174,0.23980061670057473
1789397518175117000,4.617116943359375,0.6892232041329145,-0.3147445793300867,0.7725923191498965
1789397518185143000,4.62714306640625,0.6954834335714578,0.07727730094790458,1.4709645329654215
1789397518195169000,4.6371689453125,0.9921990197360515,0.677900211412087,2.293947972768545
1789397518205194000,4.647194091796875,-0.13511340384483336,0.3355054086122662,2.853595533439517
1789397518215220000,4.657219970703125,-0.9222358411937952,-0.003933393926173448,2.6835920179992914
1789397518225246000,4.667245849609375,-2.0872855824947356,-0.8848768552668392,2.1174226543441415
1789397518235271000,4.67727099609375,-3.3538989247381683,-1.868670888620615,1.3241197747945785
1789397518245297000,4.687296875,-4.368748167699575,-2.402188859517872,0.5487955829953775
1789397518255323000,4.697322998046875,-4.984737208795547,-2.3791072591379283,0.31960911662653085
1789397518265347800,4.707347900390625,-5.431369800183177,-2.0102306921258566,0.7834246788095682
1789397518275373800,4.717373779296875,-5.473963910284638,-1.388441878709942,1.6574777230493722
1789397518285400000,4.727400146484375,-4.797717676624655,-0.6321908188343047,2.618818224793672
1789397518295425000,4.737425048828125,-4.727719426769018,0.1753948530897498,3.2659511766940352
1789397518305451300,4.747451171875,-4.617683181035519,-0.12676292412877083,2.6761218282490966
1789397518315477200,4.757477294921875,-3.985015976861119,-1.4193807684615254,1.578089859688282
1789397518325503200,4.767503173828125,-3.092805271574855,-2.571794607812166,0.9481313299506902
1789397518335528200,4.777528076171875,-3.02188756878674,-3.2735900010094046,0.2876575427010655
1789397518345554200,4.78755419921875,-4.721970069462061,-3.417868123562634,-0.7362681561633944
1789397518355580200,4.797580078125,-5.194083723586798,-3.111682406002283,-1.9398063258126377
1789397518365605000,4.807605224609375,-5.682489756342768,-3.285656870900094,-2.7092364546045657
1789397518375631000,4.817631103515625,-5.740297217667102,-3.8990591103732584,-2.73388457364887
1789397518385657000,4.827656982421875,-5.353209871181845,-4.563859236389399,-2.7819799115151165
1789397518395682000,4.83768212890625,-5.122409064951539,-5.037221429270506,-3.3239357481509444
1789397518405708000,4.8477080078125,-4.302113841319084,-5.523413877630233,-3.670641399887204
1789397518415734000,4.857734130859375,-3.0388410416752096,-6.03195259783268,-3.7092297814786432
1789397518425759000,4.867759033203125,-2.390525601992011,-6.263969209593534,-3.849412159150839
1789397518435785000,4.877784912109375,-2.4594851564496754,-6.204310567444563,-4.071772469294071
1789397518445811000,4.88781103515625,-1.8365449810415506,-6.24566198400855,-4.24520245205164
1789397518455836200,4.897836181640625,-0.5547060126155614,-6.078333240735531,-3.8325902036875483
1789397518465862100,4.907862060546875,0.13141396480500697,-5.72103722140193,-3.5401819593280552
1789397518475888000,4.91788818359375,1.5436968839600682,-5.846506014066934,-3.1373873406231403
1789397518485913000,4.9279130859375,3.350388286268711,-5.913521448719501,-1.9100228897064924
1789397518495939000,4.93793896484375,4.70721790601015,-5.437697249639034,-0.1722206069678068
1789397518505965000,4.947965087890625,5.704755948686599,-4.319045686897635,1.8653724315971134
1789397518515990000,4.957989990234375,6.6332771537601944,-2.716729440708458,4.249168433073163
1789397518526016000,4.96801611328125,7.661894225311279,-1.1200175903975962,6.928859936502575
1789397518536042000,4.9780419921875,9.170596075996755,0.7879609339997172,10.483653774029015
1789397518546067000,4.98806689453125,9.472918396127223,3.38211321183145,13.45609254451394
1789397518556093000,4.998093017578125,7.689014871948957,5.879444991594553,15.749152044010161
1789397518566119000,5.008118896484375,4.973231479918956,7.910992904776334,16.96116285845041
1789397518576145000,5.018144775390625,3.0831226664721965,9.530828733304142,16.40932977092266
1789397518586169900,5.028169921875,1.34709382314682,10.374538734793662,14.646439808678625
1789397518596195800,5.03819580078125,-0.2520551911830902,10.308277333378792,13.409993641161918
1789397518606222000,5.04822216796875,-0.10702712704539298,10.757917289888859,13.11571025058031
1789397518616247000,5.0582470703125,-0.26761867101788517,11.72564705427885,13.439144916844366
1789397518626273300,5.068273193359375,-2.887310756036639,12.741931883001326,13.600377096807955
1789397518636299000,5.078299072265625,-19.681642299342155,14.092405411714315,11.511437317365408
1789397518646324200,5.08832421875,-34.12846086843014,10.296432581806183,4.07324721802175
1789397518656350200,5.09835009765625,-11.731982102519273,8.377723112297058,6.113636024785041
1789397518666376200,5.108376220703125,-4.785315875691175,11.987770050489901,9.555728196761011
1789397518676401200,5.118401123046875,-8.095496654734015,9.434677805060147,5.716624665656686
1789397518686427100,5.12842724609375,-5.000278476798534,5.021811678692698,2.0684908656537533
1789397518696453000,5.138453125,-2.9811943238705396,4.508830007606744,-1.1108961263090371
1789397518706478000,5.14847802734375,-2.832344071096182,3.666385496008396,-4.421642722541094
1789397518716504000,5.158504150390625,-1.7254571804285048,3.2081866777285932,-3.962475643751025
1789397518726530000,5.168530029296875,-0.7645861958920955,3.892959039932489,-2.1511960368692873
1789397518736555000,5.178554931640625,0.023995719550177454,4.525424584054947,-0.3177244719237089
1789397518746581000,5.1885810546875,2.1886790875673294,4.476124546574056,-0.37681671236157416
1789397518756607000,5.19860693359375,5.511599521195889,1.8025472882412372,-3.1097406242847443
1789397518766632200,5.208632080078125,4.9971512846887105,-1.3074476030655204,-6.945182125750184
1789397518776658200,5.218658203125,4.930020114701986,-2.676262698024511,-8.839895218122004
1789397518786684200,5.22868408203125,3.9109389332592484,-5.9484723505914205,-9.467099480715394
1789397518796709000,5.238709228515625,2.7168729408323764,-6.749435681766271,-11.302160945200919
1789397518806735000,5.248735107421875,-0.5684091054059565,-7.318553666093945,-11.339861438041925
1789397518816761000,5.258760986328125,-2.738595820079744,-6.7179866505354635,-12.221397604578733
1789397518826786000,5.2687861328125,-4.091252245789766,-6.753601569274068,-10.962214704596995
1789397518836812000,5.27881201171875,-4.522108006852865,-7.791679712131619,-6.976084629014134
1789397518846838000,5.288838134765625,-3.273417274791002,-7.921530665403604,-2.4123861361443995
1789397518856864000,5.298864013671875,-1.0768483107566833,-6.60452802913785,0.75515961137712
1789397518866889000,5.308888916015625,1.254994216120243,-5.960843171864748,3.1244366736352442
1789397518876915000,5.3189150390625,6.8211366438865655,-7.032238477912545,4.462334798413515
1789397518886941000,5.32894091796875,8.609522281914948,-8.672927709376811,6.6675260448426
1789397518896966000,5.3389658203125,9.581341361445189,-9.056106357985735,7.642617277911305
1789397518906991400,5.348991455078125,6.816475666338205,-6.513114650809764,9.089844961458445
1789397518917017300,5.359017333984375,4.834072015553713,-3.08557765840888,9.047355480775236
1789397518927042600,5.36904248046875,1.494787307101488,-0.42232174147367474,8.50670195890963
1789397518937068500,5.379068603515625,-4.318928197997808,0.7535644511401652,7.384264447888731
1789397518947094500,5.389094482421875,-7.379613407212496,0.5383212795257568,5.930144666740298
1789397518957119500,5.399119384765625,-4.754344398844242,-0.28971476749181746,3.0678157917469737
1789397518967145500,5.4091455078125,-0.2578524792850017,-1.040775711378455,-0.0014455226331949232
1789397518977171500,5.41917138671875,0.24396204722896217,-1.5956138259410857,-0.2171639105439186
1789397518987196400,5.429196533203125,-2.4588790072500704,-0.10375672707259655,1.252504737392068
1789397518997222400,5.439222412109375,-2.0533425424911083,2.284090011098981,1.0380559310257433
1789397519007248400,5.449248291015625,-2.249814232009649,2.8635207151263953,0.5220785852551459
1789397519017273300,5.4592734375,-2.20741637513265,2.7321003205806016,-0.04698270044922828
1789397519027299300,5.46929931640625,-2.2190884004868567,3.242898802408576,-0.25465806715786454
1789397519037325300,5.4793251953125,-2.226676371397823,3.9797085181027647,-0.202903330001235
1789397519047350500,5.4893505859375,-1.1528127755403519,3.957311392855644,-0.18835808729827402
1789397519057376500,5.49937646484375,-0.058211512080579994,3.4910809515506025,-0.03423252446949482
1789397519067402500,5.509402587890625,0.7667020190022885,2.90498903606832,-0.09255027340352534
1789397519077427500,5.519427490234375,1.566102338644117,1.985323337623477,-0.49996466086357827
1789397519087453700,5.52945361328125,1.8307810106873512,1.4811901589035987,-0.8004860690519213
1789397519097479700,5.539479736328125,2.4939374611496925,1.2221084300845861,-0.8494108434796332
1789397519107505700,5.549505615234375,2.575910810959339,0.8964467354208231,-0.4866328856036067
1789397519117530600,5.559530517578125,2.7934289417684077,0.6826753899246454,0.14002718711048365
1789397519127556600,5.569556640625,2.4227288125909863,1.249947454124689,1.0164771364241838
1789397519137582600,5.57958251953125,1.0453205152012408,2.085073167142272,1.982107882708311
1789397519147607600,5.589607666015625,2.73613176805377,0.8825281001836061,4.0199776923879975
1789397519157633500,5.599633544921875,5.666538738495111,-0.19861527741849422,6.3369701483964915
1789397519167659500,5.609659423828125,1.49560446870327,0.5616460410118103,4.937340666848421
1789397519177684500,5.6196845703125,-1.2504407905995845,1.1252145745187998,3.121594435946643
1789397519187710500,5.62971044921875,-0.9794237093150615,1.0051789128184319,2.3483061704218384
1789397519197736400,5.639736328125,0.0745791479051113,1.209459960913658,1.633709747840464
1789397519207761400,5.649761474609375,1.0638602343678474,1.4554782100200652,0.9620403205767273
1789397519217787400,5.659787353515625,1.4261129993259907,1.6550293069839477,0.325719562330842
1789397519227813400,5.6698134765625,1.299593090172857,1.7737322587758302,-0.21272914296686649
1789397519237838600,5.679838623046875,0.7860102383233606,1.812545096772909,-0.7052975560992956
1789397519247864600,5.689864501953125,0.4578770389795303,1.8862135595738887,-0.9832546657800674
1789397519257890600,5.699890625,0.3798714237570762,2.0829086825847622,-1.023647466444969
1789397519267915500,5.70991552734375,0.47329095427580176,2.815582321387529,-0.7505417423181235
1789397519277941500,5.71994140625,0.34894904674887656,2.949408023509383,-0.7470406023293733
1789397519287967500,5.729967529296875,0.142041230346635,2.751809229657054,-0.8013469236649572
1789397519297992400,5.739992431640625,0.29507359111122783,2.5807307784616946,-0.7737927079156041
1789397519308018400,5.750018310546875,0.6252560511350631,2.5125989069998265,-0.608571019924432
1789397519318044400,5.76004443359375,0.8205506596982478,2.4982068090319633,-0.46868470258936284
1789397519328070400,5.7700703125,0.8832640132427215,2.3036130422145127,-0.41241307253018017
1789397519338095400,5.780095458984375,1.0136509730875491,2.2152286563187835,-0.3217744779668748
1789397519348121300,5.790121337890625,1.0888660808086394,2.28752290815711,-0.12404913512542844
1789397519358147300,5.800147216796875,0.8745487918674946,2.4848083982765674,0.21797186592593787
1789397519368172300,5.81017236328125,0.6536199758321046,2.8129782763689755,0.43937830941043793
1789397519378198300,5.8201982421875,0.20581943664364516,2.9344793344467877,0.48423020837604996
1789397519388224500,5.830224609375,-0.8394944296211003,2.586210086655617,0.5999836992451921
1789397519398249500,5.84024951171875,-1.9694202505707739,1.935016461187601,0.7124382216341794
1789397519408275700,5.850275634765625,-2.910830163311958,0.5519377169460058,0.9809783914111554
1789397519418301700,5.8603017578125,-4.411911602121592,-1.1782669502705334,1.238146687824279
1789397519428326700,5.87032666015625,-5.127747503370046,-3.2686125048577783,1.071932773925364
1789397519438352600,5.8803525390625,-5.662723564121126,-5.916650394394994,0.9651237466100603
1789397519448378600,5.890378662109375,-5.404529724052548,-8.036420196387171,0.574238651809655
1789397519458403600,5.900403564453125,-3.9674201144158836,-9.84668974944353,0.02534827580344863
1789397519468429600,5.9104296875,-1.1287456712543964,-11.088141762423515,-0.30013007078319787
1789397519478455600,5.92045556640625,8.706581557175516,-12.360000604104995,0.8674434899069369
1789397519488480500,5.93048046875,11.914490879267454,-11.682822642552852,1.9078426230579613
1789397519498506500,5.940506591796875,2.4937545057982207,-9.876335530644655,1.2089635556988418
1789397519508532500,5.950532470703125,-2.652084534579515,-8.3898607093364,0.811713492443785
1789397519518557400,5.960557373046875,-4.4257209317654365,-5.858567038738728,1.3035313064046203
1789397519528583400,5.97058349609375,-4.456464445075392,-3.640084933581948,1.7851473867595196
1789397519538609400,5.980609375,-2.0449410632401706,-2.3559487941294908,2.474680387493968
1789397519548634600,5.990634521484375,0.8717471053849906,-1.6571815165817736,3.5874721182912586
1789397519558660600,6.00066064453125,1.3766028262257575,-0.9925614233076572,4.72516886550337
1789397519568686600,6.0106865234375,-0.994859836443141,0.0719955611526966,5.26632946010828
1789397519578712600,6.020712646484375,-3.527787172657251,1.1549211459964512,5.08297897183895
1789397519588737500,6.030737548828125,-4.999850022253394,1.7724428034871815,4.388466721387207
1789397519598763500,6.040763427734375,-5.539550188916921,2.616381353035569,3.4542215857088565
1789397519608789500,6.05078955078125,-5.265737923955917,3.172204971504211,3.0497856295377015
1789397519618814500,6.060814453125,-3.9385774662911888,3.060468936115503,2.990980973869562
1789397519628840400,6.07084033203125,-1.7607213860332964,2.601886963737011,3.4422330417513844
1789397519638866400,6.080866455078125,0.4869523998815566,1.8451713550895452,4.004855234318971
1789397519648891400,6.090891357421875,1.9562392819583414,1.009427217912674,4.043512004971504
1789397519658917400,6.10091748046875,2.385960924424976,0.4502566271036863,3.471788514320552
1789397519668943400,6.110943359375,2.844042692196369,0.07761573912203311,2.7301436335548757
1789397519678968300,6.12096826171875,3.141682407468557,-0.6437456475496292,1.9109647006012498
1789397519688994300,6.130994384765625,2.5783517743706703,-2.1803759541243313,0.5750004664950072
1789397519699020300,6.141020263671875,2.35705061789155,-3.5419682582229375,-0.5840387823447585
1789397519709045500,6.15104541015625,2.879142354889214,-4.456762551239133,-1.0787444997668265
1789397519719071500,6.161071533203125,3.607367489850521,-5.02910125117898,-1.1211385572515427
1789397519729097700,6.17109765625,4.14462026336193,-5.003336110803485,-0.8558915838010609
1789397519739122400,6.181122314453125,3.8428433021545407,-3.7054642914652822,-0.17462065384685993
1789397519749148700,6.191148681640625,3.1208933019399643,-1.745461273059249,0.543179240950942
1789397519759174700,6.201174560546875,2.1205751270256936,-0.5325321747303009,0.33691491008400914
1789397519769199600,6.21119970703125,1.0453168619394302,0.3990092549473047,-0.3685995036363601
1789397519779225600,6.2212255859375,-0.024507906856015324,1.0804302608966827,-1.1389058307409285
1789397519789251600,6.23125146484375,-0.7692026767116039,1.5152917504698038,-2.079890503807366
1789397519799276500,6.241276611328125,-1.02549915872626,1.7611650381475685,-3.093496468709409
1789397519809302500,6.251302490234375,-1.0669195488732308,1.765364243403077,-4.038728862348199
1789397519819328500,6.26132861328125,-0.9004571401059627,1.6545067444145678,-4.879538466221094
1789397519829354500,6.2713544921875,-0.4594121395923197,1.5003256520062684,-5.59859975925684
1789397519839379500,6.28137939453125,0.1494891351997852,1.3732546848416327,-6.113181851276755
1789397519849405400,6.291405517578125,0.8477871147353202,1.4012790023207664,-6.354408774453401
1789397519859431400,6.301431396484375,1.6862521282434462,1.5184902542501688,-6.414011302500962
1789397519869456600,6.31145654296875,2.7227862565293908,1.6721324174761771,-6.351158832746743
1789397519879482600,6.321482666015625,3.8018601343810556,1.9381559282571077,-6.154028825449943
1789397519889508600,6.331508544921875,4.519222806805372,2.230288278284669,-5.95087999625504
1789397519899533600,6.341533447265625,4.398016347759961,2.4990952823042867,-5.758292308562994
1789397519909559800,6.351559814453125,3.5401112321794033,2.708652224975824,-5.540432816970348
1789397519919585800,6.361585693359375,2.5338579681277276,2.831532170191407,-5.562021548444032
1789397519929610800,6.37161083984375,2.019809690723568,2.756667191082239,-5.571204971852898
1789397519939636700,6.38163671875,2.637490192037821,2.3853572594434023,-5.454314037919044
1789397519949662700,6.391662841796875,1.2670190004348754,1.567764865028858,-5.4182244874060155
1789397519959687700,6.401687744140625,-1.8760171597301958,0.020552958685159682,-4.606538102164865
1789397519969713700,6.411713623046875,-7.274893972587585,-1.527706410884857,-1.9108786297529934
1789397519979739600,6.42173974609375,-10.787303543370962,-2.844290529477596,1.4260989708006382
1789397519989764600,6.4317646484375,-8.885790707856415,-4.019675786831975,3.2366143153116105
1789397519999790600,6.44179052734375,-4.995619837337732,-4.566541022819281,5.058993116095662
1789397520009816600,6.451816650390625,-1.6424223388671875,-4.675267354997993,6.48824382892549
1789397520019841800,6.461841796875,0.9135855748135596,-4.458429023146629,7.57345255627036
1789397520029867800,6.47186767578125,2.3129718221902844,-3.6084459327369927,8.551432496517895
1789397520039893500,6.4818935546875,2.4734242499530312,-2.103126125705242,9.211091167992352
1789397520049918700,6.491918701171875,1.5952666199386119,-0.36946868768632407,8.939396041315794
1789397520059944700,6.50194482421875,-0.05730754897817969,1.2504665095627308,7.183962824818492
1789397520069970700,6.511970703125,-1.1757061598718166,2.4077736739128826,4.972967276024818
1789397520079995600,6.52199560546875,-1.298343382372707,2.8134575843185186,3.1646754527822134
1789397520090021600,6.532021728515625,-0.909900602690503,1.8090028941214085,1.6034715537041424
1789397520100047600,6.542047607421875,-0.15633739365935326,-0.7108551902264356,0.4839190966002643
1789397520110073600,6.552073486328125,0.26214747306518255,-2.5302023682296273,-0.346666342639178
1789397520120098600,6.5620986328125,0.12674772655963898,-3.008452917674184,-1.0586682186827063
1789397520130124500,6.57212451171875,0.588766541519016,-3.8412802906215187,-1.2407495637990533
1789397520140150800,6.58215087890625,1.3611188413679598,-4.847363458803295,-0.983709569940716
1789397520150175500,6.592175537109375,1.671088461381197,-5.8907683496415615,-0.7273338852100074
1789397520160201500,6.602201416015625,1.8277531872987747,-7.2251663573443885,-0.7229413493394852
1789397520170227700,6.612227783203125,1.8181284498631953,-8.113792189881204,-1.2328855524256825
1789397520180252700,6.622252685546875,1.6527964333653449,-6.858081349924206,-2.788191333375871
1789397520190278700,6.632278564453125,1.6647522440969944,-4.099430876070261,-3.7540246164947746
1789397520200304600,6.6423046875,1.240444443372637,-1.4737193846315144,-3.822726689060032
1789397520210329900,6.652329833984375,0.7406628109257668,0.3683621877491474,-3.8920781654447314
1789397520220355800,6.66235595703125,0.6806722334086894,1.643821684271097,-3.948829395714402
1789397520230381800,6.6723818359375,0.7889245914001017,2.6754168948501347,-4.019143579651415
1789397520240406800,6.68240673828125,1.1755367215890438,3.383782606348395,-4.231322687520087
1789397520250432800,6.692432861328125,1.7820891682326792,3.8965094258904456,-4.705878766360879
1789397520260458800,6.702458740234375,2.498701314550638,4.360593502816558,-5.306722260773181
1789397520270483700,6.712483642578125,2.8388509687721726,4.764178395116329,-5.424626171141862
1789397520280509700,6.722509765625,2.8641327095448967,4.88122481187284,-5.218914213460684
1789397520290535700,6.73253564453125,2.230558911919594,4.003686190539598,-5.082696647766232
1789397520300560600,6.742560546875,0.9827109873574227,2.4417618682324886,-4.59460976396203
1789397520310586600,6.752586669921875,0.08805471554994583,1.2264631181627512,-4.058808066041768
1789397520320612600,6.762612548828125,-0.2864496282160282,0.07052081242501736,-3.727994103181362
1789397520330638600,6.772638671875,-0.20905198882408438,-0.9455570955485105,-3.47058089209646
1789397520340663600,6.78266357421875,0.17127550813741982,-1.8012404434263705,-3.119037444940209
1789397520350689500,6.792689453125,0.7712018877048045,-2.3694477426499128,-2.5634441280961036
1789397520360715500,6.802715576171875,1.5080769967854022,-2.6657845586299893,-1.8751278096750377
1789397520370740700,6.81274072265625,2.167485492891073,-2.594613173341751,-1.1283991959042847
1789397520380766700,6.8227666015625,2.4574808308899403,-2.1643179687708614,-0.3904920403622091
1789397520390792700,6.832792724609375,2.3202327531039715,-1.513707696148753,0.15678163029551506
1789397520400817700,6.842817626953125,1.9514754285573959,-0.9185112677127122,0.42415187951028344
1789397520410843600,6.85284375,1.5141992790579795,-0.4514379458427429,0.5450052873343229
1789397520420869600,6.86286962890625,0.9984861371815204,-0.053850248131155964,0.6517235676262527
1789397520430894600,6.87289453125,0.449132591509819,0.31503800931870934,0.681703110826388
1789397520440920600,6.882920654296875,-0.03781739721894264,0.5960229423880576,0.7782531944558024
1789397520450946600,6.892946533203125,-0.31112576777841894,0.7889829705238341,0.8981786737799644
1789397520460971500,6.902971435546875,-0.18579609132315963,0.8552987324744462,1.0900537562232464
1789397520470997500,6.91299755859375,0.3147311353266239,0.8092536051362752,1.3806288668714464
1789397520481023500,6.9230234375,0.7461947991549969,0.7015554469615221,1.814988398271799
1789397520491048400,6.93304833984375,0.7314297762215137,0.6274661283999681,2.3313896685428914
1789397520501074400,6.943074462890625,0.3383510803669691,0.6806447608798742,2.816757794907689
1789397520511100700,6.9531005859375,-0.08165186277031898,0.6819862386167049,3.140447604976594
1789397520521126700,6.963126708984375,-0.30773265474140643,0.5922779106408357,3.2854680703297254
1789397520531152000,6.97315185546875,-0.28502105671763417,0.37695056787431236,3.4094667904421687
1789397520541177900,6.983177734375,0.038247605329751966,-0.0005634791016578674,3.3437714984774587
1789397520551203800,6.993203857421875,0.3176929077416658,-0.4038718925476074,3.2837393468409775
1789397520561228800,7.003228759765625,0.3355096829285845,-0.653845016759634,3.2365330667689443
1789397520571254800,7.0132548828125,0.015989559759758413,-0.6492454140096903,3.171369689723849
1789397520581280800,7.02328076171875,-0.5553133673915639,-0.48396074378490445,3.0961721176594494
1789397520591305700,7.0333056640625,-1.0286620797365904,-0.4056190284758806,3.046477820163965
1789397520601331700,7.043331787109375,-1.365022278547287,-0.3838227917313575,3.038753363391757
1789397520611357700,7.053357666015625,-1.5966308940291403,-0.3722586106657982,3.107375940980017
1789397520621382700,7.063382568359375,-1.557498322558403,-0.31461130833923817,3.2084920904159544
1789397520631408600,7.07340869140625,-1.3211995034337043,-0.097920276004076,3.2564360371127723
1789397520641434600,7.0834345703125,-1.0564842257071285,0.09652326868772507,3.136745827849209
1789397520651459600,7.09345947265625,-1.0410750596512108,0.06824994488358498,2.9356305503085256
1789397520661485600,7.103485595703125,-1.278098028331995,-0.20435762046277522,2.715857041788101
1789397520671511600,7.113511474609375,-1.5965519835740327,-0.5934463698983192,2.637163444301486
1789397520681536800,7.123536865234375,-1.917625181403756,-1.0754887128412722,2.6700261417225
1789397520691562800,7.133562744140625,-2.1003215896785257,-1.3933938020288943,2.7333909449130296
1789397520701588700,7.143588623046875,-2.1265385654747484,-1.6309861680954694,2.9048841143891213
1789397520711613700,7.15361376953125,-1.8217402106195688,-1.9597943440914154,3.2340970717936752
1789397520721639700,7.1636396484375,-1.2468395512372255,-2.3937439795166253,3.669704995819926
1789397520731665700,7.173665771484375,-0.712598234501481,-2.7560183717846867,4.105425732570886
1789397520741690600,7.183690673828125,-0.26811317653656,-2.8687510169953105,4.630455276586115
1789397520751716600,7.193716552734375,0.19770926848948,-2.756438058501482,5.250575426137447
1789397520761742600,7.20374267578125,0.8248159159272909,-2.684686827498674,5.9191287672072646
1789397520771767600,7.213767578125,1.0559329484999178,-2.6514789699018,6.457551169019937
1789397520781793500,7.22379345703125,0.17125439228415487,-2.2137486468940972,6.7583274287521835
1789397520791819500,7.233819580078125,-1.1766700364679097,-1.3898387398958205,6.71006754797399
1789397520801845500,7.243845458984375,-2.565770525217056,-0.2524818921625614,6.289176131564378
1789397520811870500,7.253870361328125,-3.307754428678751,0.7989718650966883,5.855509404733777
1789397520821896400,7.263896484375,-2.701912687587738,1.52507138620615,5.460910951966047
1789397520831922700,7.273922607421875,-1.059007460574433,1.9260890583664179,4.8834018636509775
1789397520841947600,7.28394775390625,0.7413092190705239,1.6581231813460588,3.9683296304762363
1789397520851974000,7.293973876953125,2.1925521296083925,0.7675579051792621,2.931610501012206
1789397520861999900,7.303999755859375,3.354139747756719,-0.5275567244052887,1.6944862881034612
1789397520872024800,7.31402490234375,4.0199171943724155,-1.9963836608201264,0.2826563003476709
1789397520882052600,7.324052490234375,4.795199556323886,-4.3732314505934715,-1.509062208430469
1789397520892703700,7.334703857421875,4.936498955327272,-4.438719529548287,-1.809535101301968
1789397520902729700,7.344729736328125,5.55933976201415,-5.5029976970672605,-2.7162960177272555
1789397520912755500,7.35475537109375,5.83482083697021,-6.048299336999654,-3.3014217185258863
1789397520922780400,7.364780517578125,5.797855088144541,-5.970237607675791,-3.571631867341697
1789397520932806400,7.374806396484375,5.830478423851728,-5.3695478425204755,-3.602845043990016
1789397520942832400,7.384832275390625,6.139807407873868,-4.087026152527332,-3.1067525483846663
1789397520952857600,7.394857666015625,6.3297828672409056,-2.78853883163929,-2.533332775209844
1789397520962883600,7.404883544921875,7.041679090952873,-1.7546850284785032,-2.1878914443209765
1789397520972909600,7.41490966796875,7.7896438223898405,-0.6802876180052757,-1.6664311370946465
1789397520982934500,7.4249345703125,7.563427421340346,0.20633739610314367,-1.0848635671690106
1789397520992960500,7.43496044921875,6.637222676515579,0.8533031747430563,-0.683219725934416
1789397521002986500,7.444986572265625,5.560008455055952,1.4388918168783187,-0.5502442109011113
1789397521013011500,7.455011474609375,4.618140569414198,1.856777621731162,-0.8111861806340516
1789397521023037400,7.465037353515625,3.904419176101684,1.9627631307691336,-1.2081259358309209
1789397521033063400,7.4750634765625,3.273573926657438,1.5732523565292358,-1.7819085509687662
1789397521043088400,7.48508837890625,3.0116707106769085,0.7034440371870995,-2.402163140554726
1789397521053114400,7.4951142578125,3.045435033112764,-0.23753508292138575,-3.0122540635228154
1789397521063766500,7.5057666015625,2.9054490547955036,-1.1136737743288279,-3.598620119771361
1789397521073791500,7.51579150390625,2.2508603800617157,-1.5435153899133205,-4.128449757544696
1789397521083817500,7.5258173828125,1.3395464765071867,-1.514470497214794,-4.750280802667141
1789397521093843500,7.535843505859375,0.5460217709004879,-1.0807570086330174,-5.454208239457011
1789397521103868400,7.545868408203125,-0.008707038068771362,-0.42172786723375316,-6.068443130362033
1789397521113894400,7.555894287109375,-0.3337012087345123,0.33552433250844477,-6.548313389962911
1789397521123920400,7.56592041015625,-0.4393079475879669,1.0552934815526007,-6.9017188315987585
1789397521133945300,7.5759453125,-0.36185872413925824,1.571724416309595,-7.187111059716344
1789397521143971300,7.585971435546875,-0.1294259693255648,1.9058488188922404,-7.45021313009262
1789397521153997300,7.595997314453125,-0.1231598946681246,2.161466086471081,-7.530683674123883
1789397521164022500,7.6060224609375,-0.3890764744758606,2.3241823675125834,-7.649157493335008
1789397521174048500,7.616048583984375,-1.3035410971462726,2.318116199341416,-7.793610387933254
1789397521184074500,7.626074462890625,-2.4690765761375424,1.894624245044589,-7.486873173969983
1789397521194099500,7.636099365234375,-3.211544463723898,0.9552660041362047,-5.621089823484421
1789397521204125400,7.64612548828125,-4.0012206772089005,0.2612356919825077,-2.9484041071638463
1789397521214151400,7.6561513671875,-4.561225380754471,-0.3430687565386295,-0.9457447270750999
1789397521224177700,7.666177734375,-4.217277503293753,-0.9821043267011642,0.1290390523672104
1789397521234202400,7.676202392578125,-2.96325183994472,-1.3523808236390351,0.6029010114639997
1789397521244228600,7.686228515625,-1.515308117082715,-1.4991583617925643,1.0174664397224784
1789397521254254600,7.696254638671875,-0.347778833925724,-1.2469061867326496,1.3920546623796224
1789397521264279600,7.706279541015625,0.822120685493946,-0.7257406246691942,1.7456760848537087
1789397521274305500,7.716305419921875,1.6794950551986694,-0.18231003930568693,2.2723037117153404
1789397521284331500,7.72633154296875,2.6671406494140624,0.301097746771574,3.200149209484458
1789397521294356500,7.7363564453125,3.603372867256403,0.5939905597776174,4.389060887888074
1789397521304382500,7.746382568359375,4.40296140294671,0.8814894047856331,5.497977823078632
1789397521314408400,7.756408447265625,4.845576575386524,1.169082942339778,6.573516804802417
1789397521324433700,7.76643359375,4.720471355336905,0.9942214654743671,7.0709940327644345
1789397521334459600,7.776459716796875,4.002216702508926,0.259023276630044,6.7581479805320495
1789397521344485600,7.786485595703125,2.6781366752028464,-1.2287398309230804,6.061824004483222
1789397521354510600,7.796510498046875,1.0894885235559195,-3.0467507918864487,5.0023213808029885
1789397521364536600,7.80653662109375,-0.16148593552894888,-4.61275683054924,3.463935170471668
1789397521374562600,7.8165625,-0.1434738569656387,-6.040750236794352,2.4833140680655834
1789397521384587500,7.82658740234375,0.4231254590719938,-7.2106696299582715,2.1812883927941322
1789397521394613500,7.836613525390625,0.41630123907513916,-8.09257755241692,2.0647220146395266
1789397521404639500,7.846639404296875,0.02676112914290279,-8.814728628161548,2.00911995440498
1789397521414664400,7.85666455078125,-0.3741478584785014,-9.134471454170345,1.8315351900555192
1789397521424690400,7.8666904296875,-1.4932400776594876,-6.930950186780095,0.3331010508842766
1789397521434716400,7.87671630859375,-2.5166286009073255,-3.2925106823176145,-0.9829904618859291
1789397521444742400,7.886742431640625,-2.6399954528570175,-0.3720955290585756,-1.1239252653606235
1789397521454767400,7.896767333984375,-2.3703538977093994,1.609336061823368,-1.3112218609072268
1789397521464793300,7.90679345703125,-2.496595866703987,2.8064339692920446,-1.629146823839098
1789397521474819300,7.9168193359375,-3.0762329069584604,3.5611294702887535,-2.2101268031351267
1789397521484844500,7.926844482421875,-4.621219246207177,4.030903867810965,-3.5748046521589156
1789397521494870500,7.93687060546875,-8.171699604448676,4.257953797075152,-6.301000424870848
1789397521504896500,7.946896484375,-11.728083341515063,3.811320621165633,-9.020204438999295
1789397521514921500,7.95692138671875,-11.70533608765602,2.8706518821805713,-9.454588958710431
1789397521524947500,7.966947509765625,-8.508251526439189,2.1344570835143326,-7.781914689442515
1789397521534973400,7.976973388671875,-4.668407406100631,1.7309376576662063,-5.718646526873111
1789397521544998400,7.986998291015625,-2.6899942862570283,1.2691770552515982,-4.457186914131045
1789397521555024400,7.9970244140625,-1.8484201277524233,0.2232119585365057,-4.20050610897392
1789397521565050600,8.007050537109375,-0.5571937377780676,-0.8730407253921031,-3.9342049502953884
1789397521575075300,8.017075439453125,0.9351794208537787,-1.6799124038279056,-3.4924332429423925
1789397521585101600,8.0271015625,2.8297622379094363,-2.2804630527734755,-3.1888606304898857
1789397521595127600,8.03712744140625,5.142731137490272,-2.7519278876006603,-3.1627602668106554
1789397521605152500,8.047152587890626,7.407648246085643,-3.20311039737761,-3.484528753428161
1789397521615178500,8.057178466796875,9.123201287615299,-3.6037837861448523,-3.873854234229028
1789397521625204500,8.06720458984375,9.870275207692384,-3.5471056211113927,-3.4144653293818235
1789397521635229700,8.077229736328125,9.299239407044649,-2.970812046065926,-2.615720843300223
1789397521645255700,8.087255615234374,6.821239519739151,-2.353101588004827,-2.045013251693547
1789397521655281700,8.09728173828125,4.119468286448717,-2.0425813483715056,-1.8874604908950625
1789397521665307600,8.1073076171875,2.2601415647566316,-1.7406822220891713,-1.8007975219644605
1789397521675332600,8.11733251953125,1.0621990231573581,-1.27872288223207,-1.6020191629387437
1789397521685358600,8.127358642578125,0.1889695337275043,-0.6706558663070201,-1.4251622744724153
1789397521695384600,8.137384521484375,-0.2424123335689306,-0.04574059143364429,-1.2262316474944353
1789397521705409500,8.147409423828124,-0.2975175867298618,0.4472463393718004,-1.0924896781332791
1789397521715435500,8.157435546875,-0.24991350297927856,0.7348135734409094,-1.0218087067104875
1789397521725461500,8.16746142578125,-0.10726798659656196,0.6938841816812753,-0.9589783026576042
1789397521735486500,8.177486572265625,0.02893613509442657,0.4579939433574676,-0.839558727028966
1789397521745512400,8.187512451171875,0.2276805918505415,0.11542319946885109,-0.7084555817387997
1789397521755538400,8.197538330078125,1.2739175277769565,-0.389185780069232,-0.4715585044600069
1789397521765563400,8.2075634765625,4.099126340165734,-1.2283569690853358,0.023731442590802905
1789397521775589400,8.21758935546875,4.064630780845881,-1.598185137733817,0.524188855407387
1789397521785615400,8.227615478515625,0.771713271293044,-1.1830267120182514,0.9402083549316972
1789397521795640600,8.237640625,-1.6262351741760968,-0.7193038696199655,1.174858603131771
1789397521805666600,8.24766650390625,-2.883701917889714,-0.3812672620296478,1.4359174772426486
1789397521815692500,8.257692626953125,-3.409326212927699,-0.002593523624539375,1.6724236555077134
1789397521825717500,8.267717529296876,-3.539952826747298,0.38237551553249355,1.9283954356126487
1789397521835743500,8.277743408203126,-3.407625254228711,0.4968500359743833,2.1621470544725656
1789397521845769500,8.28776953125,-2.8069302283763884,0.29773265425264833,2.3300223257124424
1789397521855794400,8.29779443359375,-1.4989781829200683,-0.23949556933939456,2.577231245908141
1789397521865820400,8.3078203125,-0.25293840375840665,-0.8495061205476522,2.940866405135393
1789397521875846400,8.317846435546874,-0.19455694193840026,-1.172370877969265,3.3244974736869333
1789397521885872600,8.32787255859375,-1.23749202330783,-1.0936018771588802,3.633133799269795
1789397521895897300,8.3378974609375,-2.209552948769927,-0.892953632608056,3.7641964664191003
1789397521905923600,8.347923583984375,-2.4573200873702765,-0.6215104348659515,3.914547186884284
1789397521915949800,8.35794970703125,-1.9892793817728758,-0.3619698563635349,4.065147498196363
1789397521925974800,8.367974853515625,-0.9761657304324209,-0.25578853249251843,4.160631194703281
1789397521936000800,8.378000732421874,-0.18431772586628795,-0.28124387626647945,4.316851976245641
1789397521946026800,8.38802685546875,-0.21546061375737188,-0.4000117099881172,4.3916859756946565
1789397521956051700,8.3980517578125,-0.9533194001130759,-0.5019827226877213,4.410741389298439
1789397521966077700,8.40807763671875,-1.55179207374081,-0.69792264341712,4.416159030432999
1789397521976104000,8.41810400390625,-1.6634019985318182,-1.0900462305039167,4.456162831780314
1789397521986129000,8.42812890625,-1.5479345215298235,-1.4493161802589893,4.551365373258292
1789397521996155100,8.438155029296874,-1.5007996992588042,-1.7063561741173265,4.729650394831597
1789397522006181000,8.44818115234375,-1.4814701448887586,-1.8286106809109448,4.872761519432068
1789397522016206000,8.4582060546875,-1.713016362658888,-1.8001760290652513,4.917735802668333
1789397522026232000,8.468232177734375,-1.9400398423075675,-1.7228800234168766,4.881927114923298
1789397522036258000,8.478258056640625,-1.8481670297741888,-1.5625643737763166,4.76526823617965
1789397522046283000,8.488282958984374,-1.4076171193011104,-1.1797148109912872,4.64375285731554
1789397522056309000,8.49830908203125,-0.9691717798918486,-0.33193945975899697,4.553418506395817
1789397522066335000,8.5083349609375,-0.9113703099168836,0.5142939227283001,4.398489810490608
1789397522076360000,8.51835986328125,-1.7491063515633343,1.1967846037358045,4.3291608381986615
1789397522086386000,8.528385986328125,-3.117430009743571,1.730214604088664,4.148731498073041
1789397522096412000,8.538411865234375,-4.163009322011471,2.0437597445011138,3.8640176076084374
1789397522106436900,8.548436767578124,-4.257583210197091,2.0358634382933376,3.4154651540741323
1789397522116462800,8.558462890625,-2.8771973583012818,1.5308458779543637,2.7530855332031843
1789397522126488800,8.56848876953125,-0.8240279804199934,0.45929158195257186,1.9310469730347395
1789397522136514000,8.57851416015625,0.13724278055634348,-0.8960901770681142,1.0602722928784787
1789397522146540000,8.5885400390625,0.10314940882921218,-2.426176761087775,0.15447612983211875
1789397522156566000,8.59856591796875,-0.5578682760387659,-3.849530817094445,-0.7160323006033897
1789397522166592000,8.608592041015624,-1.3223796531289815,-4.989582310739159,-1.4111293652057646
1789397522176617000,8.618616943359376,-1.9146815291672943,-5.7437400515973565,-1.97886919304803
1789397522186643000,8.628642822265626,-2.4067495915621517,-6.132962072023749,-2.6709710213571785
1789397522196669000,8.6386689453125,-2.871710451322794,-6.103552437666059,-3.4889795953571796
1789397522206694000,8.64869384765625,-3.357833341577649,-5.28759027480185,-4.149546029326319
1789397522216720000,8.658719970703125,-3.692937987369299,-4.04137499294281,-4.514029037554562
1789397522226745900,8.668745849609374,-3.8607431159824133,-2.7254075449436903,-4.4111789039328695
1789397522236770800,8.678770751953126,-4.079390543082356,-1.7433768680006265,-3.9613095225811
1789397522246796800,8.688796875,-4.503518457195162,-1.0536498059988022,-3.3459576103448865
1789397522256822800,8.69882275390625,-4.593450657054782,-0.5068126270622014,-2.727361893881857
1789397522266847700,8.70884765625,-4.068297486659884,-0.09289572584033012,-2.3479633483335376
1789397522276873700,8.718873779296874,-3.1808512192964553,0.20900164687633513,-2.2672870525971054
1789397522286899700,8.728899658203124,-1.9812731854498384,0.3664104691594839,-2.4454285740464923
1789397522296925000,8.738925048828126,-0.6541857930213213,0.48027533327043054,-2.8577251805901525
1789397522306951000,8.748950927734375,0.6594739625573158,0.5526993489682674,-3.346796399256587
1789397522316977200,8.75897705078125,1.4879998389184474,0.5934452008545399,-3.892029065605998
1789397522327001900,8.769001953125,2.0452748252391815,0.7575619963437318,-4.335197195753455
1789397522337028000,8.779028076171874,2.7111118930876255,1.0084978281080723,-4.70128968500495
1789397522347054000,8.78905419921875,3.412335916137695,1.393157655185461,-5.033970318520069
1789397522357079000,8.7990791015625,3.744385266011953,1.8494377803623676,-5.280445663744211
1789397522367105000,8.80910498046875,3.8251381341159343,2.3336679887384175,-5.503842915719747
1789397522377131000,8.819131103515625,3.6159646378040313,2.7581472005069254,-5.7416299275755875
1789397522387156000,8.829156005859375,3.1084441547334194,3.0517917086631057,-5.961569148051739
1789397522397182000,8.839181884765624,2.407103227305412,3.1137007600873705,-6.127863287580013
1789397522407208000,8.8492080078125,1.6144412760078906,2.8781454528063533,-6.272075359159707
1789397522417233000,8.85923291015625,1.0655004027903079,2.5471359673738476,-6.1401242187380785
1789397522427259000,8.8692587890625,1.377819800800085,2.258089308401942,-5.760916811847687
1789397522437284900,8.879284912109375,0.5176245284557343,1.8019623279601333,-5.466936203604936
1789397522447310000,8.88931005859375,-1.6893647073060274,0.6732961516827345,-5.389056260588765
1789397522457336000,8.899336181640624,-3.447866079202294,-0.9057616762548685,-4.751089196440577
1789397522467362000,8.909362060546876,-4.311972387510538,-2.443484454241395,-2.6962515930861235
1789397522477387000,8.919386962890625,-4.736372104302048,-3.4714544600605963,0.062226154549419876
1789397522487413000,8.9294130859375,-4.047704195964336,-4.014035735118389,2.623254453675449
1789397522497439000,8.93943896484375,-2.4030799631386994,-4.26297425558567,4.753138530185819
1789397522507464000,8.9494638671875,-0.9194652074366807,-4.336021956139803,6.8219082127809525
1789397522517490000,8.959489990234376,0.47173956011533735,-4.157641072976589,9.02936974222958
1789397522527516000,8.969515869140626,1.753450518247485,-3.5492531545341013,10.592014780026673
1789397522537540900,8.979540771484375,2.0400491995453836,-2.4290812503576276,10.905721833002566
1789397522547566800,8.98956689453125,1.6411650322824716,-1.1201491078227759,10.203450346726179
1789397522557592800,8.9995927734375,0.7818167321562767,-0.13094926990270614,9.018764177063106
1789397522567617800,9.00961767578125,-0.7234159811139106,-0.11481529670357704,7.9159332837879655
1789397522577643800,9.019643798828126,-1.9151590835511683,-0.8397399288147688,6.711488520687818
1789397522587669800,9.029669677734375,-2.033529442387819,-1.6244757632881401,4.674138643229007
1789397522597695700,9.03969580078125,-1.2235171278387307,-2.2746605039745567,2.773882529777288
1789397522607721000,9.049720947265625,-0.4853489832729101,-2.9368016399145125,1.6013547076806425
1789397522617747000,9.059746826171875,-0.12329613393419421,-3.7526147496968507,0.9037145344667136
1789397522627773000,9.06977294921875,0.21928747856914996,-4.404095959934592,0.30476803278215225
1789397522637798000,9.0797978515625,0.23702421078979968,-4.2460494242697955,-0.3045736061885953
1789397522647824000,9.089823974609375,-0.24415713140964507,-3.1648025862932205,-1.2526036677218972
1789397522657850000,9.09985009765625,-0.9860948576420545,-1.7412153060525655,-2.074479292413592
1789397522667874800,9.109874755859375,-1.515759367981553,-0.14942308422625064,-2.310928187533468
1789397522677901000,9.119901123046875,-1.670819581311941,1.1497498808383941,-2.296446365455538
1789397522687927000,9.129927001953124,-1.5251245776981115,2.1375807684928176,-2.2173953328333793
1789397522697952000,9.139951904296876,-1.1832558445990085,2.8410522782087324,-2.272115641797334
1789397522707978000,9.14997802734375,-0.5402338351488113,3.3860318465799093,-2.4528715835288164
1789397522718004000,9.16000390625,0.3334253144025802,3.758216222965717,-2.64034441242516
1789397522728029000,9.17002880859375,1.2078747375488281,3.8426889883756634,-3.0002731183499094
1789397522738055000,9.180054931640624,1.7525813341975212,3.5448201405227184,-3.7839357706338164
1789397522748081000,9.190080810546876,1.9113000700354574,2.747146498543024,-4.715308273485302
1789397522758106000,9.200106201171875,1.8473767561793326,1.5565075579553842,-5.623699129199982
1789397522768132000,9.210132080078125,1.448917536330223,0.511455484431982,-6.0565223909437655
1789397522778157800,9.22015771484375,0.9228291309118271,-0.3737847973197698,-5.813643024384975
1789397522788183000,9.23018310546875,0.5633750932941213,-1.0558961236208677,-5.030363818460702
1789397522798209000,9.240208984375,0.617339286661148,-1.4612322435021399,-4.19605760513246
1789397522808235000,9.250235107421876,1.028472110122442,-1.6706413021355866,-3.6755543063700196
1789397522818260000,9.260260009765625,1.317041214710474,-1.672960684993863,-3.4109394933432338
1789397522828286000,9.270285888671875,1.5702654496729374,-1.607271530508995,-3.4416347835972902
1789397522838312000,9.28031201171875,1.6884300568044184,-1.505147373074293,-3.7967020209655162
1789397522848337000,9.2903369140625,1.4279787931978702,-1.363863756161928,-3.747986505374312
1789397522858363000,9.30036279296875,1.0757564238667487,-1.133930964937806,-3.325348537558317
1789397522868388900,9.310388916015626,0.8103940073430538,-0.8250619996428489,-2.7423580952227113
1789397522878413800,9.320413818359375,0.6771721163332461,-0.46063656682074067,-2.077638633227348
1789397522888439800,9.330439697265625,0.6495581332206726,-0.15731003808379174,-1.4794377622783184
1789397522898465800,9.3404658203125,0.6127216002652421,0.04173837005496025,-1.0264226302467285
1789397522908490800,9.35049072265625,0.5878209312319755,0.12474866169691085,-0.7411874923869967
1789397522918516700,9.360516845703126,0.7027578084886074,0.1188905833184719,-0.4635431749824434
1789397522928542700,9.370542724609376,0.9571206920921802,0.08162088311016559,-0.22833828857429325
1789397522938567700,9.380567626953125,1.0956418585538863,0.07604454428255558,0.09584047405533493
1789397522948593700,9.39059375,0.9080033177018165,0.13198445816934107,0.4454669816743582
1789397522958619600,9.40061962890625,0.48246670583486556,0.22299042474031447,0.8188962435547262
1789397522968644600,9.41064453125,-0.07565057196232955,0.3369610873132944,1.132435831009224
1789397522978670600,9.420670654296876,-0.5163806658744812,0.35426410429179667,1.3517061392478644
1789397522988696600,9.430696533203125,-0.7630974186390638,0.29850130053758617,1.5415122333973645
1789397522998721500,9.440721435546875,-0.7668243302077055,0.1301198333412409,1.7172591147951781
1789397523008747500,9.45074755859375,-0.5623047971814871,-0.1123638118982315,1.9102651740297674
1789397523018773500,9.4607734375,-0.2243617130935192,-0.4143377569824457,2.129877939030528
1789397523028798500,9.470798583984376,-0.05070084418952465,-0.6435556779354811,2.4773516525298356
1789397523038824400,9.480824462890626,-0.05753273603618145,-0.7324930215388537,2.795555724664032
1789397523048850700,9.4908505859375,-0.22218144644498825,-0.6674012484252453,3.047067310489714
1789397523058875600,9.500875732421875,-0.536370145457983,-0.4417044873356819,3.164497173605859
1789397523068902000,9.51090185546875,-0.8936042054712772,-0.09528642036914825,3.24811332218647
1789397523078928000,9.520927978515624,-1.0720692597866057,0.2218903545439243,3.229959241336584
1789397523088952800,9.530952880859376,-1.0909732822209597,0.4429992033213377,3.238966723656654
1789397523098978800,9.540978759765625,-1.0743149198215454,0.5775818612903356,3.2680843893304465
1789397523109004800,9.5510048828125,-1.1327128943849354,0.5945803423643112,3.2067090063914656
1789397523119029800,9.56102978515625,-1.2667390144497155,0.5260691161960364,3.1513638435274363
1789397523129055700,9.5710556640625,-1.3259300390869377,0.4518558789938688,3.133463445177674
1789397523139081700,9.581081787109374,-1.2307383112639187,0.3724930039435625,3.1764263885915276
1789397523149106700,9.591106689453126,-1.0718062249362468,0.19943711519539356,3.2774446306109426
1789397523159132700,9.601132568359375,-1.0494407369364052,-0.12624445321261882,3.4219279203474517
1789397523169158700,9.61115869140625,-1.2918868997097015,-0.5021498959481716,3.423962641045451
1789397523179183600,9.62118359375,-1.5679261930704116,-0.9523416411221027,3.3588223526149985
1789397523189209600,9.631209716796874,-1.6248972035706042,-1.5105267280250787,3.3175933933869004
1789397523199235600,9.641235595703124,-1.4709949281036854,-2.1553718612492085,3.3740395032301542
1789397523209260800,9.6512607421875,-1.2406424501627682,-2.800352603551745,3.531659045654535
1789397523219286800,9.661286865234375,-1.0506558848798275,-3.2966707246065137,3.7250948746085166
1789397523229312800,9.671312744140625,-0.8956273087967187,-3.5436166099518536,4.004947004255652
1789397523239337700,9.681337646484375,-0.7031991225153207,-3.4377889218240973,4.3378067937299605
1789397523249363700,9.69136376953125,-0.48298050057590003,-3.1067952184826133,4.670728542524576
1789397523259389700,9.7013896484375,-0.23193656879458574,-2.5784195789098736,4.908169517421722
1789397523269414700,9.71141455078125,0.18663078858163207,-1.8774498228818177,5.048467045906186
1789397523279440600,9.721440673828125,0.562774716248177,-0.946462519955635,4.992949741345644
1789397523289466600,9.731466552734375,0.40661446925401684,0.019808277797698972,4.756398408764601
1789397523299491600,9.74149169921875,-0.36397242835760113,0.818950238764286,4.438405056771636
1789397523309517600,9.751517578125,-1.701788135549426,1.6816314827054737,4.238329059150815
1789397523319543600,9.76154345703125,-3.1968092514067887,2.4606740739732977,3.858600550995767
1789397523329568500,9.771568603515625,-3.7799446551710365,3.12789412061274,3.262657688106596
1789397523339594500,9.781594482421875,-3.294527867358923,3.6679701348513363,2.523043728646636
1789397523349620500,9.791620361328125,-1.8903952291727064,3.3673645555108784,1.7665186741352081
1789397523359645700,9.801645751953124,-0.24081246062424033,2.0302467674553393,1.103681153428927
1789397523369671700,9.811671630859376,1.0839281129498035,-0.257312965580821,0.11499744833745061
1789397523379697700,9.82169775390625,1.8767174169540404,-2.664423791670799,-1.0269956078290938
1789397523389722600,9.83172265625,2.206551428866386,-4.726363335984945,-2.3221081915870307
1789397523399748600,9.84174853515625,2.123335385519266,-6.3517877783000465,-3.6902073933616277
1789397523409774800,9.85177490234375,1.5853250716388225,-7.279557872745395,-4.929151515173912
1789397523419799600,9.861799560546874,1.1464110187392682,-7.479753112831712,-5.7353977551877495
1789397523429825800,9.87182568359375,0.9014169981140643,-6.634065673789381,-5.9908583709001535
1789397523439851800,9.881851806640626,0.5327366843264549,-4.512694866341352,-5.543369454944133
1789397523449876700,9.891876708984375,0.4818939474482089,-2.3180244294047356,-4.893901338094473
1789397523459902700,9.90190283203125,0.9190145410597323,-0.9921464127659797,-4.47561308992058
1789397523469928700,9.9119287109375,1.380074886250496,-0.2776104882001877,-3.9895597577705977
1789397523479953700,9.92195361328125,1.7553426156044005,0.19623978045880794,-3.255306448560953
1789397523489979600,9.931979736328126,1.8440216005325316,0.4728530743151903,-2.493510760170221
1789397523500005600,9.942005615234375,1.2880617884635925,0.5895587148100138,-1.8664353846535084
1789397523510030800,9.95203076171875,0.47382641285937277,0.6742103439182042,-1.4220155008792876
1789397523520056800,9.962056884765625,-0.16238840079400688,0.7219137598574161,-1.3945640148520468
1789397523530081800,9.972081787109374,-0.5826350895592942,0.5911906999260187,-1.940732793007791
1789397523540107800,9.982107666015626,-0.6837970874309539,0.19570377388596533,-2.9207123826399446
1789397523550133800,9.9921337890625,-0.5306102667570114,-0.3161906864851713,-4.0432068845450875
1789397523560158700,10.00215869140625,-0.15605101446602493,-0.7990455148547887,-5.077942731237411
1789397523570184700,10.012184814453125,0.2878197840580717,-1.146557222276926,-5.874905010077357
1789397523580210700,10.022210693359375,0.40489480585455895,-1.306296533334255,-6.401759723693132
1789397523590235600,10.032235595703124,0.49967152313590046,-1.1225257738262415,-6.66191288113594
1789397523600261600,10.04226171875,0.7897323275864124,-0.6432154861956835,-6.710645055601001
1789397523610287600,10.05228759765625,1.1421814914107322,-0.08403671208024024,-6.8315189216911785
1789397523620312600,10.0623125,0.9234685978591441,0.5242769720822572,-7.0878440452784295
1789397523630338600,10.072338623046875,0.20144027171134948,1.232049393862486,-7.147984917986393
1789397523640364500,10.082364501953125,-0.49980362508296966,1.7953619067817925,-6.991791316711902
1789397523650389800,10.0923896484375,-0.8560042503952979,2.200815515562892,-6.6793088370949025
1789397523660415700,10.102415771484376,-1.0115817655980586,2.3916548982828854,-6.390939054471254
1789397523670441700,10.112441650390625,-0.9061141429543494,2.2942641991108657,-5.882744033139944
1789397523680466700,10.122466796875,-0.8584948981672524,1.529592078500986,-4.963782099050283
1789397523690492700,10.13249267578125,-1.5764005914270878,0.3060112377762794,-3.2883567775085565
1789397523700518700,10.1425185546875,-2.7973516681700943,-0.7057219189912081,-1.3580515627518295
1789397523710543600,10.152543701171876,-3.80996511490345,-1.681165034237504,0.516612136542797
1789397523720569600,10.162569580078125,-3.5812428685128688,-2.665904385617375,2.1902304086625577
1789397523730595600,10.172595703125,-2.3653917452573774,-3.331689431017637,3.603241934353113
1789397523740620500,10.18262060546875,-0.9248141672492026,-3.5477339821428058,4.706366257616877
1789397523750646500,10.192646484375,0.7386731714785099,-3.279341988664865,6.157710728833079
1789397523760672500,10.202672607421874,2.1905507266581057,-2.7349165470451116,7.661243067926168
1789397523770697500,10.212697509765626,2.4841701003730297,-2.1474527586877343,8.448280165079236
1789397523780723500,10.222723388671875,2.20053903670907,-1.4305945286542177,8.260676695540546
1789397523790749400,10.23274951171875,1.1001871007680892,-0.9947183090806007,7.8458491092145435
1789397523800774700,10.242774658203125,-0.5546376235544681,-1.200769289457798,7.144712764447927
1789397523810800600,10.252800537109374,-1.1589105078935622,-1.85230544475317,5.321400189945101
1789397523820827000,10.262826904296874,-1.0561878000438212,-2.6791391302436587,3.209444568835199
1789397523830851600,10.2728515625,-0.5804968719542026,-3.591428746962547,1.872479340992868
1789397523840877800,10.2828779296875,-0.14377716902745888,-4.433735895916819,1.0547815865077077
1789397523850903800,10.29290380859375,-0.1895662940442562,-4.901262222251296,0.3623587095506489
1789397523860928800,10.3029287109375,-0.26313188099265095,-4.578956852278113,-0.27907398488149043
1789397523870954800,10.312954833984374,-0.24306053181197493,-3.084529610660672,-0.9656368837639688
1789397523880980700,10.322980712890624,-0.30432547664642334,-1.2200292857229709,-1.3869570469796657
1789397523891005700,10.333005615234375,-0.3798351468672976,0.2907072856605053,-1.600523079162091
1789397523901031700,10.34303173828125,-0.23879122046232223,1.4216039974689483,-1.7607113030306993
1789397523911057400,10.353057373046875,-0.003206687086820602,2.198770857992768,-1.9060028404101728
1789397523921083400,10.36308349609375,0.28018242104742674,2.770872826567292,-2.0354853987611827
1789397523931109400,10.373109375,0.5086626753756777,3.1871710699677465,-2.242369176700711
1789397523941134300,10.38313427734375,0.6406441744029522,3.5547505829066037,-2.4084718853101132
1789397523951160300,10.393160400390625,0.7092074230194091,3.8809120437860485,-2.585871648481488
1789397523961186300,10.403186279296875,0.6864180835843086,4.1268110504269595,-2.7768384569734335
1789397523971211500,10.41321142578125,0.5799766840049997,3.938489203485846,-3.131265058350563
1789397523981237500,10.423237548828125,0.43082653496861456,3.0418969221144914,-3.597570318457484
1789397523991263500,10.433263427734374,0.26361937224864956,1.653326010197401,-4.027717346729338
1789397524001288400,10.443288330078126,0.02824402464441955,0.23082067997455596,-4.066624877272546
1789397524011314400,10.453314453125,0.012789338946342467,-1.2168179224610327,-3.6342899835675953
1789397524021340400,10.46334033203125,0.3267606323489919,-2.363462238499522,-2.9789988596528767
1789397524031365400,10.473365478515625,0.8292751603584736,-3.1912481101483103,-2.2429418620221315
1789397524041391400,10.483391357421874,1.4790157374739645,-3.7185377080500124,-1.6824970134936272
1789397524051417300,10.493417236328124,2.093060658764839,-3.7398710034579037,-1.3825835080705582
1789397524061442300,10.5034423828125,2.4068483757615087,-2.8235283119559287,-1.538244609903544
1789397524071468300,10.51346826171875,2.351060437566042,-1.4479519061684607,-1.9255096510432659
1789397524081494300,10.523494384765625,2.0982617345392702,-0.5489034638166427,-1.9364567231237888
1789397524091519200,10.533519287109375,1.9286089322328566,0.01819850451350212,-1.577369728720188
1789397524101545200,10.543545166015624,1.9515619377970694,0.4589057975053787,-1.0786047259699552
1789397524111571200,10.5535712890625,2.1774270411908625,0.7759212443768978,-0.650649289458245
1789397524121596400,10.563596435546875,2.49371768091917,0.9122288264423608,-0.29567959418036044
1789397524131622400,10.573622314453125,2.8626714048206803,0.8786316772669553,-0.014820406382530927
1789397524141648600,10.583648681640625,3.14870836058259,0.6999257999330759,0.18020305708907544
1789397524151673300,10.59367333984375,2.9929040508866307,0.4791214870601892,0.3058427493415773
1789397524161699600,10.603699462890624,2.4585364774227143,0.3349292892247438,0.33003523357287046
1789397524171725600,10.6137255859375,1.7674527401149271,0.3056108402818441,0.3653900400705635
1789397524181750500,10.62375048828125,1.077514665710926,0.3124573451757431,0.42746027340590953
1789397524191776500,10.633776611328125,0.545975009149313,0.30785248172879215,0.43499242247641084
1789397524201801200,10.64380126953125,0.15481412961483002,0.2942290300458669,0.4371584414038807
1789397524211827500,10.653827392578124,-0.09646012205732986,0.1913303811073303,0.4911818906774744
1789397524221853400,10.663853515625,-0.2735527372419834,0.04091068705916404,0.5661912832260132
1789397524231878400,10.67387841796875,-0.4151695316314697,-0.15621756667196748,0.5714195392683148
1789397524241904400,10.683904296875,-0.5474070877790451,-0.40073710165321824,0.49853711227849123
1789397524251930400,10.693930419921875,-0.6032143151968717,-0.6320493645370007,0.42095680979602035
1789397524261955600,10.70395556640625,-0.757349230375886,-0.8393290099263191,0.38706783806718886
1789397524271981600,10.713981689453124,-0.9714970079690217,-1.0201327363222836,0.372667520260252
1789397524282007600,10.724007568359376,-1.1462409959346056,-1.1227695194542406,0.5012471749547869
1789397524292032500,10.734032470703125,-1.1661965732485056,-1.0952969906389713,0.8184752416636795
1789397524302058500,10.74405859375,-1.0316086545825005,-0.9415028517216444,1.274131901179999
1789397524312084500,10.75408447265625,-0.8587965114623307,-0.6801420720547438,1.7628822173289953
1789397524322109400,10.764109375,-0.8619009072184562,-0.3819219265460968,2.2408342222183943
1789397524332135400,10.774135498046874,-1.194430149564147,-0.05356149431765079,2.674810453389585
1789397524342161400,10.784161376953126,-1.7472808897018433,0.21701894911527633,3.061241381792724
1789397524352186400,10.794186279296875,-2.411603461334109,0.3974456588923931,3.4031869795203207
1789397524362212400,10.80421240234375,-2.8723037410408256,0.4840560208529234,3.6837107248187064
1789397524372238300,10.81423828125,-3.0060119542628523,0.43790334148705,3.9961920353919265
1789397524382263300,10.82426318359375,-2.8195746058940885,0.24328970092535018,4.394070825004578
1789397524392289300,10.834289306640626,-2.513936877605319,0.03429273022413253,4.774483808292448
1789397524402315300,10.844315185546876,-2.2675942188501357,-0.08933072683513164,5.11183214135766
1789397524412340500,10.854340576171875,-2.137030148872733,-0.11575871503353118,5.416662644916773
1789397524422366500,10.864366455078125,-1.8526894756346939,-0.17002689631581305,5.687414353263378
1789397524432391400,10.874391357421874,-1.4268594337791203,-0.380509721660614,5.977949789488315
1789397524442417400,10.88441748046875,-0.9471405653476714,-0.6944388929545879,6.180223589414358
1789397524452443400,10.894443359375,-0.4057856172144413,-0.9870996507704257,6.170161629605293
1789397524462468400,10.90446826171875,0.01810147387981415,-1.1598363905668259,5.892589719849824
1789397524472494300,10.914494384765625,0.31110651508867737,-1.1305734712034463,5.326954901462793
1789397524482520300,10.924520263671875,0.4834709144413471,-1.086108306533098,4.687642267924547
1789397524492545300,10.934545166015624,0.5289525626778603,-1.147808683642745,4.150139319044351
1789397524502571300,10.9445712890625,0.5062731133580207,-1.2821493495494127,3.6727556155622003
1789397524512597200,10.95459716796875,0.28523269017431885,-1.3734475770652292,3.0271438818797467
1789397524522622500,10.96462255859375,0.4259877897005528,-1.5976409478545188,2.1618208912581203
1789397524532648400,10.9746484375,1.1990193039853125,-2.055070827588439,1.073253574200347
1789397524542674200,10.984674072265625,2.711038243329525,-2.5753128450661897,-0.0603428250208497
1789397524552699400,10.994699462890624,4.285257399064302,-2.848627097377181,-1.2243442993778735
1789397524562725400,11.004725341796876,2.714803733342886,-3.044372372317314,-2.063559692861885
1789397524572751600,11.014751708984376,1.720776475266367,-3.0932179440289733,-2.439902357970923
1789397524582776300,11.0247763671875,1.4969323563061654,-3.112355190697312,-2.9576410143256187
1789397524592802600,11.034802490234375,1.39334587123394,-3.0163907249361275,-3.6638907565832137
1789397524602828500,11.04482861328125,1.381523623754084,-2.7834032223165033,-4.266785338306427
1789397524612853500,11.054853515625,1.4564824186265468,-2.5286469554811712,-4.7182782292068
1789397524622879500,11.06487939453125,1.7502096366301179,-2.307053538057208,-4.950823248755931
1789397524632905500,11.074905517578125,2.3946087796524167,-1.9858979226410387,-4.833362405979633
1789397524642930400,11.084930419921875,3.2564640941634773,-1.5454571716308594,-4.2496074090123175
1789397524652956400,11.094956298828125,4.195321692073345,-1.2100713708102702,-3.4705262392997738
1789397524662981600,11.104981689453124,5.279751251739263,-1.0669126076757907,-2.8090970510214563
1789397524673007600,11.115007568359376,6.041143620026111,-1.026223454412818,-2.353738716864586
1789397524683033300,11.125033447265626,6.7206900642752645,-0.8067571121454239,-2.1025702453881503
1789397524693058600,11.13505859375,7.465722833913564,-0.35754385661482807,-1.9196454351849852
1789397524703084500,11.14508447265625,7.7241516517817965,0.30411972494125367,-1.6554425639599561
1789397524713110500,11.155110595703125,6.818436152756214,1.0375310303688048,-1.426914086575806
1789397524723135500,11.165135498046874,5.295264462691545,1.7190987513124942,-1.324634300187975
1789397524733161500,11.175161376953126,4.046864822530746,2.1274714624106883,-1.3113527938105165
1789397524743187500,11.1851875,3.2107822471797465,2.306369062924385,-1.3268288876228034
1789397524753212400,11.19521240234375,2.631564309120178,2.2276462393432857,-1.199887611252442
1789397524763238400,11.20523828125,2.24701437215805,1.8810107302337884,-0.9501134436786174
1789397524773264400,11.215264404296875,1.961138598307222,1.459473417136073,-0.6279154065374285
1789397524783289300,11.225289306640626,1.757158140593767,1.0602285998672247,-0.3254529472839087
1789397524793315300,11.2353154296875,1.5349474680542945,0.8205471525669097,-0.10065832266584038
1789397524803341300,11.24534130859375,1.2547278202690184,0.8473527419060468,0.09928403863795102
1789397524813366500,11.255366455078125,0.9798212572652846,1.139123272883892,0.1114754116911441
1789397524823392500,11.265392578125,0.8006734083175658,1.5868874986499546,-0.10922441789396106
1789397524833418500,11.27541845703125,0.6236895324707031,1.7850076860278843,-0.495029031092301
1789397524843443500,11.285443359375,0.3677565500061959,1.7157628848880528,-0.9929377092741429
1789397524853469400,11.295469482421876,-0.08352233281731605,1.4334773906141518,-1.7437193978279828
1789397524863495400,11.305495361328125,-0.8428338031768798,1.0823194356441497,-2.791790819172561
1789397524873520400,11.315520263671875,-1.006250925964117,1.4616653742223977,-3.6009681442022323
1789397524884800500,11.326800537109374,-1.0253624536693096,1.4532447518795728,-3.6613030781775713
1789397524895452400,11.337452392578125,-0.7198994974255561,1.2061767014592886,-3.9310616838335988
1789397524905478400,11.347478515625,-0.6862613586526364,0.1591501129925251,-4.158031241337954
1789397524915502600,11.357502685546875,-0.45202356371097263,-1.2789590290755033,-3.7775913700431585
1789397524925528600,11.367528564453124,0.33600429804511367,-2.7945056310892102,-3.0679750739619136
1789397524935554600,11.377554443359376,1.1001881236813962,-3.9848154858529568,-2.3258444555059072
1789397524945579500,11.38757958984375,1.6696552137076854,-4.833767479649186,-1.725249675157666
1789397524955605500,11.39760546875,2.0927286503314972,-5.366989390209317,-1.525344504059106
1789397524965631500,11.407631591796875,2.28000230339393,-5.334358455717563,-2.0935919891625643
1789397524975656400,11.417656494140624,2.3236020834065974,-4.302460462799668,-2.6546710439413785
1789397524985682400,11.427682373046874,2.0882968053638935,-2.670285961702466,-2.5395833600372075
1789397524995708400,11.43770849609375,1.8867654943682253,-0.9797276606976986,-2.1122341457903384
1789397525005733400,11.4477333984375,1.9861784931480884,0.04424830704927444,-1.5260336553670466
1789397525015759400,11.45775927734375,1.8594155690193175,0.8727607394069433,-0.7842756696157157
1789397525025785300,11.467785400390625,1.5625731416046618,1.5285487069278954,0.09080479970937594
1789397525035810600,11.477810546875,1.287725103855133,1.9704905101507901,1.173567248146981
1789397525045836500,11.48783642578125,0.7789455606341361,2.328634670746326,2.1802160873875023
1789397525056488400,11.498488525390625,0.2846890848169103,2.64340321547389,3.0555303106695413
1789397525066514400,11.508514404296875,-0.016600385134480894,2.5953958481520414,3.758003749258816
1789397525076539400,11.518539306640625,0.26499066060185433,1.8139415195673703,4.13807478724122
1789397525086565400,11.5285654296875,1.6724036356329917,-0.10768705225884914,4.51392996109426
1789397525096591400,11.53859130859375,2.6567361597776413,-2.1565333062440155,5.0545022344172
1789397525106616600,11.548616455078125,1.4615595757603645,-3.1318495802402495,5.3002200392723084
1789397525116642600,11.558642578125,-0.514318472647667,-3.1289433374047277,5.0364872697770595
1789397525126668500,11.56866845703125,-1.970596893134713,-2.91336289665997,4.709623798108101
1789397525136693500,11.578693603515624,-2.725832492357492,-2.5180793842375278,4.39689991095066
1789397525146719500,11.588719482421874,-2.7856729208141564,-1.6248878512203693,4.035872596134245
1789397525156745500,11.598745361328126,-2.5137585984289643,-0.21666180624067782,3.4377871682584282
1789397525166770400,11.6087705078125,-2.0317390518397094,0.7681207997590302,2.944902528783679
1789397525176796400,11.61879638671875,-1.6362106247454882,1.3336878136068582,2.605303494182229
1789397525186822700,11.62882275390625,-1.4275170209050179,1.541286023426056,2.294147002471983
1789397525196847400,11.638847412109374,-1.311073246216774,1.508245339089632,1.9733152121827005
1789397525206873600,11.64887353515625,-1.1806564757555722,1.2897621626406908,1.6271961281627416
1789397525216899600,11.658899658203126,-0.9438707498967647,0.9663450320333242,1.215907894944027
1789397525226924500,11.668924560546875,-0.641010085105896,0.5765992799937725,0.7284296445574611
1789397525236950500,11.678950439453125,-0.0815466488301754,0.16823592124581335,0.27788945127204057
1789397525246976500,11.6889765625,1.0827286009669304,-0.21148937203884124,-0.10000950336828827
1789397525257001700,11.699001708984374,2.3496879801690578,-0.5489034638166427,-0.631795828167349
1789397525267027700,11.70902783203125,3.3139468535780905,-0.6413982076406478,-0.6853661633785814
1789397525277053700,11.7190537109375,4.158175325983763,-0.338789471784234,0.027488457036763426
1789397525287078700,11.72907861328125,4.608964452528953,0.046265492090582845,0.9718900258745997
1789397525297104600,11.739104736328125,4.661085100388527,0.22102409310340881,1.609729737316072
1789397525307130600,11.749130615234375,4.589140977162122,0.12235796716809272,1.8578969811499118
1789397525317155600,11.759155517578124,4.734404019099474,-0.14238310258686543,1.9182409752145408
1789397525327181600,11.769181640625,5.0531309460639955,-0.43776773240864275,1.8387153108179568
1789397525337207600,11.77920751953125,4.88508440991044,-0.6483160242050886,1.8414400596067309
1789397525347232500,11.789232421875,4.3266076465845105,-0.7159668341517448,2.0491456753231585
1789397525357258500,11.799258544921875,3.6193770765960216,-0.6163286483138799,2.317742105332017
1789397525367284500,11.809284423828124,2.9426000970602035,-0.38659751714169976,2.6098303239569067
1789397525377309400,11.819309326171876,3.043699003100395,-0.26918051350712774,2.9464754771888253
1789397525387335400,11.82933544921875,3.2945676148474217,-0.2830377739459276,3.094709059369564
1789397525397361400,11.839361328125,2.6567992881417273,-0.370022814437747,2.7265929553359745
1789397525407386600,11.84938671875,1.4183622390687465,-0.5478951635569334,2.1248241627722977
1789397525417412600,11.85941259765625,0.33991818355321884,-0.8100292656838893,1.8283178354442118
1789397525427438600,11.8694384765625,-0.40440731459856033,-1.0533195511311293,1.8954735553503035
1789397525437463600,11.879463623046876,-0.8150503087162971,-1.2843898219525813,2.0492444595225154
1789397525447489500,11.889489501953125,-0.948417161154747,-1.5953437768280505,2.1833098156191406
1789397525457515500,11.899515625,-0.9116811294317245,-2.041404121285677,2.265971001562476
1789397525467540500,11.90954052734375,-0.8792425026416778,-2.5245453653812406,2.2856349024534226
1789397525477566500,11.91956640625,-0.9211316793441772,-2.8915590611308812,2.2587327208720147
1789397525487592400,11.929592529296874,-1.1299486173033713,-3.149855192530155,2.2891021401725706
1789397525497617400,11.939617431640626,-1.4532698863208293,-3.1889480165123936,2.391508183288574
1789397525507643400,11.949643310546875,-1.7088883229434488,-2.7366625139296055,2.54951000302881
1789397525517669400,11.95966943359375,-1.9544062213122844,-1.9779110155403612,2.7835578283563254
1789397525527694300,11.9696943359375,-1.9955589004337786,-1.1214490845054388,3.2355826341763136
1789397525537720300,11.97972021484375,-1.894450642043352,-0.3043307373434305,3.81908482542634
1789397525547746600,11.98974658203125,-1.4658675020873546,0.4906564420312643,4.479221051284671
1789397525557771500,11.999771484375,-0.339570977550745,1.1514894179821014,5.061231834933161
1789397525567797800,12.0097978515625,0.6719337772883475,1.7421195614159106,5.084563610681891
1789397525577823700,12.01982373046875,1.0385937642294913,2.3402818539202213,4.72651268132776
1789397525587848400,12.029848388671875,1.1418027212262154,2.7455449085652828,4.304206721945107
1789397525597874700,12.039874755859374,1.3478385040342806,2.826209513863921,3.9186382555902
1789397525607900700,12.049900634765624,1.4183729065932333,2.296687626865506,3.328177331243455
1789397525617925600,12.059925537109375,1.439111304847896,1.3907266286462545,2.6410709731340405
1789397525627951600,12.06995166015625,1.6212321051917968,0.5352402646452188,2.066082781598717
1789397525637977600,12.0799775390625,2.163604559804499,-0.17884674710929394,1.436523480311781
1789397525648002600,12.09000244140625,3.1914719820320605,-0.8313461944788694,0.8005613262452185
1789397525658028500,12.100028564453124,4.446708482475579,-1.5420429792732,0.29903091390226033
1789397525668054500,12.110054443359376,5.439060939207673,-2.2634616490900514,-0.09818104583211243
1789397525678079500,12.12007958984375,5.975248129314184,-2.853320808151364,-0.4358920016646385
1789397525688105500,12.13010546875,6.389785208261013,-3.2267572304248806,-0.7573168624762445
1789397525698131500,12.14013134765625,6.586032587504387,-3.356888169682026,-1.0259412034053355
1789397525708156700,12.15015673828125,6.438106463837623,-3.334757586416602,-1.4028341228082775
1789397525718182700,12.1601826171875,5.981062953072786,-3.3007501028746367,-1.9590622304245828
1789397525728208600,12.170208740234376,4.8447477233469485,-3.124610861158371,-2.07342013874948
1789397525738233600,12.180233642578125,2.971138793802261,-2.839891417735815,-2.0137118122398854
1789397525748259600,12.190259521484375,0.5101695362746715,-2.601280230015516,-2.61446792062968
1789397525758285600,12.20028564453125,-2.4966250927984714,-2.172722224500775,-2.200028895229846
1789397525768310500,12.210310546875,-3.769150289434194,-1.9726713613212108,-1.6694612985707817
1789397525778336500,12.22033642578125,-2.8254899674177167,-2.4595710811674594,-4.322113257774711
1789397525788362500,12.230362548828126,-2.2299042474031445,-1.891748397347331,-2.858397380763292
1789397525798388500,12.240388427734375,-1.501121186298132,-1.2536357872486115,0.6349968161657452
1789397525808413400,12.250413330078125,-0.06746551650762557,-1.190082475748658,-0.11733224796056747
1789397525818439400,12.260439453125,0.8427426177620887,-0.9307698607832193,-0.934966727951169
1789397525828465400,12.27046533203125,1.3511702788054942,-0.5659153888940811,-1.804671002396941
1789397525838490400,12.280490478515626,1.4295219309866427,0.09389642731547355,-2.57574129961133
1789397525848516400,12.290516357421875,1.0617851085942238,0.8604431096255779,-3.0685660255923866
1789397525858542300,12.300542236328125,0.5684042100351303,1.5388064815700053,-3.3998478982254863
1789397525868567600,12.310567626953125,0.11162146909832954,2.0704899305164814,-3.728554951934516
1789397525878593500,12.320593505859375,-0.3505517692377791,2.402341711992025,-4.098720097452402
1789397525888619800,12.330619873046874,-0.760668730187416,2.7668922324985266,-4.418093213365972
1789397525898644500,12.34064453125,-0.9799216488998382,3.0764065099596976,-4.6447836616680025
1789397525908670500,12.35067041015625,-0.9103706313550471,3.3116169493257996,-4.858183251242339
1789397525918696700,12.36069677734375,-0.3767582601726055,3.2459628661543127,-5.009996737736463
1789397525928721700,12.3707216796875,-0.14254969132542608,3.011874708816409,-4.987428932097554
1789397525938747600,12.38074755859375,-0.7557283511757851,2.622470902082324,-4.825616029636562
1789397525948773600,12.390773681640624,-1.3696904164887964,2.217625780588388,-4.553527519728243
1789397525958798600,12.400798583984376,-1.909309188479185,1.750856410101056,-4.05833811044246
1789397525968824600,12.410824462890625,-2.0677520299851895,1.1819570369601249,-3.185394707944989
1789397525978850600,12.4208505859375,-2.0402339084625245,0.637393648174405,-2.1291978478118776
1789397525988875500,12.43087548828125,-2.973010432893038,0.3323983094424009,-0.916637290534377
1789397525998901500,12.440901611328124,-3.8442274499893188,0.17034429170191287,0.487318529780209
1789397526008927500,12.450927490234376,-3.618945699441433,-0.10502864670455456,1.8909820891499518
1789397526018952700,12.46095263671875,-2.4923066450774667,-0.6342588572800159,3.0774434517920017
1789397526028978700,12.470978759765625,-0.5411456892967224,-1.217449790623784,3.7319691442921754
1789397526039004700,12.481004638671875,1.838496699631214,-1.5416227080345153,4.020151587650179
1789397526049029600,12.491029541015624,3.2994086251378056,-1.4083949718058109,3.914486981129646
1789397526059055600,12.5010556640625,3.45729266371727,-0.9733996267199516,3.4661700899168846
1789397526069081900,12.511081787109376,2.9813246722519398,-0.4229372430235147,3.0290801106393337
1789397526079106600,12.5211064453125,2.235606842958927,-0.21275720001757142,2.814307186885178
1789397526089132800,12.5311328125,1.2157868258476257,-1.3490478798240422,2.8856349317789074
1789397526099158800,12.54115869140625,0.17254614912774413,-3.564246141004562,3.0633997288703916
