time,seconds_elapsed,z,y,x
1789743282059157200,0.0521572265625,-1.9098785127997397,1.1505255413860083,-1.231521278335154
1789743282069208000,0.0622080078125,-1.9119582416832446,0.5860749643474817,-1.0575577732227741
1789743282079257900,0.0722578125,-1.2547463788390159,0.5111252295643091,-1.2279428353264927
1789743282089308000,0.082307861328125,-0.048477907443046565,0.6813318663612008,-1.5201745540753007
1789743282099358200,0.092358154296875,2.039154881054163,1.2913681365326046,-1.999766435126215
1789743282109409000,0.102408935546875,3.521084460148215,2.052102917693555,-1.9613066483505068
1789743282119459000,0.112458984375,3.915350319960713,2.250970416307449,-1.553438964165002
1789743282129508900,0.1225087890625,3.5657150445133445,1.679797545276582,-1.075004071129486
1789743282139559000,0.132558837890625,3.5246365996718403,0.6355681863129139,-0.5749035454591735
1789743282149610000,0.14260986328125,3.7137422904670236,-0.20285656825006007,-0.15159514930201692
1789743282159660000,0.152659912109375,3.472414829525351,-0.29573242034614083,0.08514700227654538
1789743282169710000,0.1627099609375,2.659464707958698,-0.0329895386710763,0.022061808328551705
1789743282179759900,0.172759765625,1.7478309248000383,0.7514642639905214,-0.370687196630612
1789743282189810000,0.182809814453125,0.8435644555389881,1.3135618481621145,-1.0663197563491762
1789743282199861000,0.192861083984375,-0.5410480741411448,1.4926172695860265,-1.5313614262610673
1789743282209911000,0.2029111328125,-1.4701555546700953,1.3855480569645762,-1.5945467812314629
1789743282219961000,0.212961181640625,-1.761994474709034,1.085759931486845,-1.3066029689349232
1789743282230011000,0.223010986328125,-1.6810551441222428,1.3223998191341757,-0.8530740421622991
1789743282240062000,0.23306201171875,-1.5733236681997775,1.771714489212632,-0.298180653748475
1789743282250112000,0.243112060546875,-1.4637901112914085,2.2205016282856462,-0.009344897580891846
1789743282260162000,0.253162109375,-1.290543083885312,2.5554136741146443,-0.0021306918857619166
1789743282270212000,0.263212158203125,-1.1767922015428542,2.4811095437586306,-0.15533965132627636
1789743282280263200,0.27326318359375,-0.8928209461390971,1.9528677596986292,-0.18253937281584365
1789743282290313000,0.28331298828125,-0.47858781857490534,1.307841132427752,-0.09616239948607981
1789743282300363000,0.293363037109375,0.03861351603269577,0.7700956069633365,0.07550769745949655
1789743282310413000,0.3034130859375,0.5492769733041525,0.24949849243760108,0.16747180500552059
1789743282320463000,0.313463134765625,0.8609750245451927,-0.259927824254334,0.2642033096164465
1789743282330514000,0.323513916015625,0.6534943036258221,-0.5460723320439458,0.12871825944762677
1789743282340564000,0.33356396484375,0.20239713404476642,-0.511914334115386,-0.11455976017308421
1789743282350614000,0.343614013671875,0.04898293435573577,-0.31116496727764603,-0.3160786774780601
1789743282360664000,0.3536640625,-0.08601590319871902,-0.2653261761665344,-0.30835926220715043
1789743282370715100,0.363715087890625,0.19325930334329605,-0.1521907953739166,-0.11862309148870408
1789743282380765000,0.373764892578125,0.6969622739523649,0.25784429597854613,0.06345354091990739
1789743282390815000,0.38381494140625,0.7891279319524764,0.4604916053920984,0.11877123125512153
1789743282400865000,0.393864990234375,1.1407254473835229,0.520953965139389,-0.07470204363241792
1789743282410916000,0.403916015625,1.3787871845275164,0.4734948793500662,-0.3171992424732074
1789743282420966100,0.413966064453125,1.2033756725639104,0.3210053932905197,-0.4384972157269716
1789743282431016000,0.424015869140625,0.9712830729573965,0.19600071100592611,-0.5090412628971039
1789743282441066000,0.43406591796875,0.8092185338228941,0.05803893199265003,-0.4522975583467632
1789743282451117000,0.444116943359375,0.4754080194950103,0.06615852556228638,-0.294203749474138
1789743282461167000,0.4541669921875,0.10299743313789367,0.35626726080775256,-0.23364720863737165
1789743282471217200,0.464217041015625,-0.29311376228034497,0.7312421446949243,-0.2952560350060463
1789743282481267000,0.474266845703125,-0.5639537334322929,0.829808317387104,-0.3112563718881458
1789743282491318000,0.484318115234375,-0.5434054509222507,0.5318371782034635,-0.3424281936127692
1789743282501368000,0.4943681640625,-0.545702621948719,0.13335925365388393,-0.9086215957306325
1789743282511418000,0.504418212890625,-0.5120014278769492,-0.1281137542158365,-2.2223805739000437
1789743282521468200,0.51446826171875,0.14867138907611369,0.06053074880838394,-2.474303078614175
1789743282531518000,0.52451806640625,0.4293161304056644,0.4855529814124107,-1.7229761772677301
1789743282541569000,0.534569091796875,0.08347089489102363,0.4157289190798998,-0.9633174278404563
1789743282551619000,0.544619140625,-0.19589432802200316,0.7064134083867073,-0.5772388200063258
1789743282561669000,0.554669189453125,-0.46570027995109553,0.789397396543622,-0.28843802555426956
1789743282571719200,0.56471923828125,-0.6660042411088943,0.2832306661695242,-0.06682396720107645
1789743282581770200,0.574770263671875,-0.8480869013994932,-0.14303367545008658,-0.13189159225411712
1789743282591820000,0.584820068359375,-0.4103770366579294,-0.17321604774594307,-0.5609093973003327
1789743282601870000,0.5948701171875,0.0065425535112619395,-0.31522330275774,-0.8011532277237623
1789743282611920100,0.604920166015625,0.1703998212814331,-0.3137543992489576,-0.9354190017633139
1789743282621971200,0.61497119140625,0.39488954466879367,-0.07634206592440605,-0.8310547372516244
1789743282632021000,0.62502099609375,0.34494390276074405,0.10938216573894023,-0.5996059519739821
1789743282642071000,0.635071044921875,0.0738777216374874,0.28625264433920383,-0.5092802227521315
1789743282652121000,0.64512109375,-0.24587796385288238,0.03972410762310028,-0.3726839234057814
1789743282662171100,0.655171142578125,-0.7325719319939613,-0.5030360311329365,0.005949263793230056
1789743282672222200,0.66522216796875,-0.8712696240663528,-0.611207067516446,0.17480265935026107
1789743282682272000,0.67527197265625,-0.9981634810984135,-0.6981348248630762,0.2705611907431856
1789743282692322000,0.685322021484375,-1.095558856445551,-0.7869891663581132,0.34632563944272693
1789743282702372000,0.6953720703125,-1.6621756716072558,-1.4363818798840045,0.6840086843550205
1789743282712423200,0.705423095703125,-1.518939167061448,-0.7531839273899793,0.394050609626621
1789743282722473200,0.71547314453125,-1.2595564094692469,-0.26671616922020913,0.05014766728617251
1789743282732523000,0.72552294921875,-1.114779689744115,0.05900163954496383,-0.23124834906840697
1789743282742573000,0.735572998046875,-1.1921277178406715,0.541239797320962,-0.4550370663132518
1789743282752624000,0.7456240234375,-1.8650456838607787,0.2468050155699253,-0.14998643546374513
1789743282762674200,0.755674072265625,-2.2397797447293994,0.07541209159791469,0.2561633206216618
1789743282772724200,0.76572412109375,-1.9657897851139305,0.47005672159492967,0.2420092691933736
1789743282782774000,0.77577392578125,-1.877960110491514,0.6665741499513387,0.2272240437220782
1789743282792825000,0.7858251953125,-1.7343220394074916,0.47377369629144667,0.2926476791385561
1789743282802875100,0.795875244140625,-1.1719243032455444,0.01277355685532093,0.4142034630782902
1789743282812925200,0.80592529296875,-0.4131616989403963,-0.5678975026220083,0.5440627823198214
1789743282822975200,0.815975341796875,-0.22648469659686088,-0.9573293664067983,0.6224789876371621
1789743282833025000,0.82602490234375,-0.19530103830397127,-1.072488361981511,0.5459941522412002
1789743282843076000,0.836076171875,-0.07339724464416504,-0.8667524389028549,0.5253179690351709
1789743282853126100,0.846126220703125,-0.0009539397239685058,-0.67576634118855,0.4989695854116231
1789743282863176200,0.85617626953125,-0.09254033653140067,-0.7984937261909246,0.4163123449910432
1789743282873226200,0.866226318359375,-0.46444589597582814,-1.085465332454443,0.29704620635844764
1789743282883277000,0.876277099609375,-0.9038187254935502,-1.1770049675107002,0.17149348000334574
1789743282893327000,0.8863271484375,-1.2145236740440128,-0.9575058920174837,0.1562918740171939
1789743282903377200,0.896377197265625,-1.3117138822078704,-0.5734335094392299,0.20640395853333174
1789743282913427200,0.90642724609375,-1.227875323048234,-0.19837386987805367,0.2690008826239034
1789743282923478000,0.91647802734375,-1.116144548356533,-0.016177812340855597,0.3609415727617219
1789743282933528000,0.926528076171875,-1.0540203928768634,0.01764262419641018,0.4499823402069509
1789743282943578000,0.936578125,-0.8815157082706689,0.12305062560737132,0.592768434104137
1789743282953628200,0.946628173828125,-0.7215577860265969,0.3899737155765295,0.7792487082991748
1789743282963678200,0.95667822265625,-0.6254179636985063,0.6548597467601299,0.9570168663915246
1789743282973729000,0.96672900390625,-0.48866205334365365,0.729765642401576,1.0066823031187058
1789743282983779000,0.976779052734375,-0.35892625088393687,0.5286778373897075,1.0451457431562243
1789743282993829000,0.9868291015625,-0.05677461114525795,0.22167934214174745,1.1029406372599304
1789743283003879200,0.996879150390625,0.25986498815119263,-0.05754150386452674,1.1082415932122618
1789743283013930000,1.006929931640625,0.4764718493342399,-0.19249767132103443,1.025037167237699
1789743283023980000,1.01697998046875,0.5019686941623688,-0.130701432621479,0.9637531158439815
1789743283034030000,1.027030029296875,0.45451486907005306,0.09526011688411236,0.8508059510998427
1789743283044080000,1.037080078125,0.24896774656176565,0.33114217190146444,0.6656568889759481
1789743283054131000,1.047130859375,0.01522913331389427,0.38934418550133704,0.46470293947681784
1789743283064181000,1.057180908203125,-0.13361878137290478,0.4008294561117887,0.31878212775047865
1789743283074231000,1.06723095703125,-0.22128478986620903,0.401052743473649,0.1864089990571141
1789743283084281000,1.077281005859375,-0.32399697632193564,0.2996627455323934,0.06908084274977445
1789743283094332000,1.087331787109375,-0.2736357393503189,0.24325170700252055,0.05701998247476294
1789743283104382000,1.0973818359375,-0.18480594777464865,0.2398246551632881,0.004050608831364661
1789743283114432000,1.107431884765625,-0.16395722101330756,0.1582517028480768,-0.04258075742954388
1789743283124482000,1.11748193359375,-0.2249368826329708,0.06313245573937892,-0.006710420891456305
1789743283134532000,1.127531982421875,-0.1724292812824249,0.045349546289443966,-0.007853745707683265
1789743283144583400,1.13758349609375,-0.05313946951329708,0.055640638679265976,0.03443864150084555
1789743283154633500,1.147633544921875,0.09452829547822475,0.08174129461944103,0.14310690508307888
1789743283164683300,1.157683349609375,0.17375263884067535,-0.16537702468335627,0.2342116193207912
1789743283174733300,1.1677333984375,0.140052613812685,0.30552199295461174,0.12762018027892336
1789743283184784400,1.177784423828125,0.03411971174478531,0.25427578984200955,-0.09008627617647871
1789743283194834400,1.18783447265625,-0.10636544826626777,-0.17526245888173578,0.08016914993189275
1789743283204884500,1.197884521484375,0.0077250412940979,-0.21860358795821666,-0.020078308644425124
1789743283214934300,1.207934326171875,0.03127075205445289,0.5333896683424711,-0.4224362346988171
1789743283224985300,1.2179853515625,-0.09820026198923587,0.14602467395961283,-0.2724656543913297
1789743283235035400,1.228035400390625,-0.08025719354152679,-0.14333879587650297,-0.1482226223953068
1789743283245085400,1.23808544921875,-0.008846154278516769,-0.07435352245569228,-0.26380464742137116
1789743283255135500,1.248135498046875,-0.03796177412569523,-0.2999251958608627,-0.3005791662575677
1789743283265185300,1.258185302734375,0.0942903950691223,-0.4008914154320955,-0.3320922757005319
1789743283275236400,1.268236328125,0.2395195347368717,0.1281447338759899,-0.5883722449718043
1789743283285286400,1.278286376953125,0.32674189111590385,0.035327918490767475,-0.3036453306288458
1789743283295336400,1.28833642578125,0.48807811597585676,-0.01881283701956272,-0.10463620418771169
1789743283305386500,1.298386474609375,0.48491468350887296,0.12581190701425074,-0.16945218343408777
1789743283315437600,1.3084375,0.39505496436357496,0.10680910038053988,-0.19514334525791927
1789743283325487400,1.3184873046875,0.3530892152935266,0.05998480536341667,-0.09286007000505923
1789743283335537400,1.328537353515625,0.318334128254652,0.08974865998625754,-0.04161976691028103
1789743283345587500,1.33858740234375,0.14340893850326536,-0.15594108781814575,0.010668977799994171
1789743283355638500,1.348638427734375,0.18992986665964126,-0.044755672049522396,-0.12900552455694414
1789743283365688300,1.358688232421875,0.32275895895957946,0.3874918356329202,-0.38332181993927805
1789743283375738400,1.36873828125,0.1432721603810787,0.1098807629108429,-0.18767339296974242
1789743283385788400,1.378788330078125,0.09807868143618106,-0.06391337698400021,-0.10433939493191428
1789743283395839500,1.388839599609375,0.07780044803917407,0.061325114056468004,-0.10783891835231334
1789743283405889500,1.3988896484375,0.09061433690488338,0.15596680678129196,-0.07422029713061638
1789743283415939300,1.408939208984375,0.1888648677766323,0.15399989062249658,0.03579470716874348
1789743283425989400,1.4189892578125,0.26672259896099565,0.1249251873075962,0.0558619350134395
1789743283436039400,1.429039306640625,0.3352840940117836,0.06750234138667584,0.027854687400115652
1789743283446090500,1.439090576171875,0.35466157917678354,-0.06808101805746555,0.03057760499140713
1789743283456140500,1.449140625,0.3706768944323063,-0.1253705929875374,0.03541054157319013
1789743283466190300,1.4591904296875,0.3536526943951845,-0.13571604591310024,0.02697584503924008
1789743283476240400,1.469240478515625,0.30767478707432744,-0.16360884596705436,0.06043987848742399
1789743283486291500,1.47929150390625,0.26061083808243274,-0.1735930643647909,0.042756502155517226
1789743283496341500,1.489341552734375,0.2823275798499584,-0.2507891167700291,-0.011693565899156965
1789743283506391600,1.4993916015625,0.31252807232439517,-0.3763911804258823,-0.006335121305659413
1789743283516441300,1.50944140625,0.1925076081931591,-0.44647477047741413,0.07583467809127177
1789743283526492400,1.519492431640625,0.13263503103256225,-0.35673838545083997,0.08705925650550052
1789743283536542500,1.52954248046875,0.024603110858798027,0.09270224909484386,0.023619520348659714
1789743283546592500,1.539592529296875,-0.12141045718491077,0.2618979552835226,0.024511710814875548
1789743283556642600,1.549642578125,-0.25605215186476704,0.12377309466302394,0.048349755585310045
1789743283566693600,1.559693603515625,-0.30934359706938264,0.015873860958218574,0.028586636670166626
1789743283576743400,1.569743408203125,-0.30088965697884557,-0.08956161298155785,0.018128539983252992
1789743283586793500,1.57979345703125,-0.1473766730904579,-0.22680033841729164,0.10008181055267341
1789743283596843500,1.589843505859375,0.04417699537873268,-0.2797130134373903,0.17090632776515557
1789743283606893600,1.5998935546875,0.1280570555925369,-0.3078022128462791,0.29957221770472825
1789743283616944600,1.609944580078125,0.0026432079851627347,-0.23376199412345885,0.31703488222435117
1789743283626994400,1.619994384765625,-0.26601708104014393,-0.0006388824254274368,0.40105522769168017
1789743283637044500,1.63004443359375,-0.6922656405687332,0.2964548894017935,0.4840862698607146
1789743283647094500,1.640094482421875,-0.967486603283882,0.5821808795183897,0.5182938060194253
1789743283657145600,1.6501455078125,-0.9395809437483549,0.6874602861136198,0.6073674162883311
1789743283667195600,1.660195556640625,-0.7434235808759927,0.4566308383107185,0.6685153471469879
1789743283677245400,1.670245361328125,-0.6382470501333475,0.11390753420889377,0.723221335324645
1789743283687295500,1.68029541015625,-0.39272096845805643,-0.19528584073483943,0.7177161620371043
1789743283697346600,1.6903466796875,-0.2055652426868677,-0.6095148766458034,0.6816797299508005
1789743283707396600,1.700396728515625,-0.3313455855190754,-0.8842816658526659,0.8608983791124075
1789743283717446400,1.7104462890625,-0.5403296967387199,-0.7578723774671554,0.943906551862508
1789743283727496400,1.720496337890625,-0.6650047086775303,-0.3629237960875034,0.9365732132997363
1789743283737546500,1.73054638671875,-0.3320575331807136,-0.24521686959564684,0.9359768548417836
1789743283747597600,1.74059765625,-0.30785365077257154,-0.308884162864089,0.9497865498118102
1789743283757647600,1.750647705078125,-0.6971732863545418,-0.36937048800885675,0.7970701231285929
1789743283767697400,1.760697509765625,-0.8373498188078403,-0.432004346576333,0.5275469336636364
1789743283777747500,1.77074755859375,-0.7678051579385995,-0.5596838010281324,0.472333470887877
1789743283787798500,1.780798583984375,-0.6276566825360059,-0.7661141361117363,0.5896811721459031
1789743283797848600,1.7908486328125,-0.3178466369986534,-0.9623907414495945,0.669440718363598
1789743283807898600,1.800898681640625,-0.05703063173294067,-0.9757125798374414,0.689149189048633
1789743283817948400,1.810948486328125,-0.01238660336434841,-0.6749439188897609,0.5577280273178592
1789743283827999200,1.820999267578125,-0.08427227440178393,-0.32480127844214435,0.402415117868036
1789743283838049500,1.831049560546875,-0.15759996094107626,-0.059333647978305815,0.26584552386552096
1789743283848099600,1.841099609375,-0.34936639537811276,0.1151134028673172,0.14093297684378922
1789743283858149600,1.851149658203125,-0.5987509060472249,0.16299100632965563,0.005228109911829233
1789743283868199400,1.861199462890625,-0.7884229985535144,0.20868308244645595,-0.12594305911324918
1789743283878250200,1.871250244140625,-0.8700210853099822,0.2768494406998157,-0.1947070909988135
1789743283888300500,1.881300537109375,-0.7854746701419353,0.30339141066670416,-0.19089703119136392
1789743283898350600,1.8913505859375,-0.48854982514083384,0.21785423089563846,-0.15874810806289313
1789743283908400600,1.901400634765625,-0.16179858167469502,0.0893716433674097,-0.12648987934105096
1789743283918451500,1.911451416015625,0.22199673752784727,0.009016834670305252,-0.06514971384592354
1789743283928501200,1.921501220703125,0.4312497288167476,-0.12833821062147616,-0.07124978428669274
1789743283938551600,1.931551513671875,0.41260640314519403,-0.33474165769815445,-0.030815701763331888
1789743283948601600,1.9416015625,0.4432119692891836,-0.43011341826319693,0.02108458134382963
1789743283958652400,1.95165234375,0.37035190026164055,-0.3754273038297891,0.053767830544710155
1789743283968702500,1.961702392578125,0.0754027392476797,-0.21132804399728775,0.02652721078917384
1789743283978752300,1.971752197265625,-0.1246855333328247,-0.0889186389029026,-0.03487659452669322
1789743283988802600,1.981802490234375,-0.1607540410578251,-0.1605915439724922,0.0003111117757856846
1789743283998852600,1.9918525390625,-0.1905646574318409,-0.33526246670186516,0.14461422263979912
1789743284008903400,2.0019033203125,-0.09086217418611049,-0.4142325430423021,0.25691936315335334
1789743284018953500,2.011953369140625,0.04449497528672218,-0.47816404020488257,0.46368996304199095
1789743284029003300,2.022003173828125,0.056364861300587654,-0.5196247623622418,0.5922782759670168
1789743284039053600,2.032053466796875,0.2185883903890848,-0.364839858841896,0.6436780622061342
1789743284049104400,2.0421044921875,0.18935937329530714,-0.28984102421998975,0.7335278444793075
1789743284059154400,2.052154541015625,0.03261339883506298,-0.2274240232735872,0.7404785404000431
1789743284069204200,2.062204345703125,-0.17015724469721316,-0.3143517806202173,0.6564277267292141
1789743284079254300,2.072254150390625,-0.32517244984209537,-0.5407096359670162,0.5894099539890885
1789743284089305300,2.082305419921875,-0.373338807117939,-0.8378712123334408,0.5145350380077958
1789743284099355400,2.09235546875,-0.46111704381406304,-1.1501327426761387,0.5044596341952681
1789743284109405400,2.102405517578125,-0.44004561421275135,-1.2632044105827807,0.5675571647517382
1789743284119455200,2.112455322265625,-0.47459436502456664,-1.1162304730743169,0.5747350935570895
1789743284129505300,2.12250537109375,-0.6152759243905543,-0.9110247113496065,0.4219036621920764
1789743284139556400,2.132556396484375,-0.9506769227802753,-0.878669671189785,0.3297622618503868
1789743284149606000,2.14260595703125,-1.3522148194223642,-1.0791805530965328,0.21042495767772196
1789743284159656000,2.152656005859375,-1.58680332749784,-1.451584709712863,0.15738982532173396
1789743284169706000,2.1627060546875,-1.7336235357493162,-2.116914412561059,0.2235373910985887
1789743284179757000,2.172757080078125,-1.4820476525157689,-2.248760339042544,0.10799114977195859
1789743284189807000,2.18280712890625,-1.328380354848504,-2.1084739164739847,0.3271351282171905
1789743284199857000,2.19285693359375,-0.8050058845639229,-1.5385650740295647,0.4732632625512779
1789743284209907000,2.202906982421875,-0.34634733981788157,-0.8143383610546588,0.5327347115650772
1789743284219958000,2.2129580078125,-0.21914427070617676,-0.17005670693218708,0.43012452417910096
1789743284230008000,2.223008056640625,-0.38383097503781316,0.20794132416844366,0.3593775017827749
1789743284240058000,2.23305810546875,-0.4636825103878975,0.20127076036334038,0.2904381133303046
1789743284250108000,2.24310791015625,-0.7367343123704194,-0.2883984241962433,0.33052637809067964
1789743284260158000,2.253157958984375,-0.8397907822191715,-0.6539525687873363,0.3751373809725046
1789743284270209000,2.263208984375,-0.8927180702865123,-1.1564496707379817,0.4684688678815961
1789743284280259000,2.273259033203125,-0.3826660229116678,-0.7946089937120676,0.2277627537086606
1789743284290308900,2.283308837890625,0.19066636424064634,-0.6715861328944563,-0.12800327957868576
1789743284300359000,2.29335888671875,0.6146300277024507,-0.34078356821089983,-0.622699352389574
1789743284310410000,2.303409912109375,0.6490764871835708,-0.2182359236896038,-1.0157949993789195
1789743284320460000,2.3134599609375,0.7722399255156517,-0.38463498489707704,-1.2061781627640127
1789743284330510000,2.323510009765625,0.8673059811323881,-1.0723308333322406,-0.8536553491815924
1789743284340560000,2.333559814453125,0.871353210696578,-1.8241990019485352,-0.5051294962808489
1789743284350611000,2.34361083984375,0.6544856527507305,-2.8583041495218873,0.2313420735001564
1789743284360661000,2.353660888671875,0.5169271938413381,-1.547794382406771,0.24237170929759738
1789743284370711000,2.3637109375,0.32752573496997356,-0.05312719455361366,-0.2538002812847495
1789743284380761000,2.373760986328125,1.323480892369151,1.081895657274127,-0.5936173425510526
1789743284390811000,2.383810791015625,1.590736575293541,1.5846315364167094,-0.6118579326406121
1789743284400862000,2.393862060546875,1.5919097107261417,1.337537182511389,-0.7141168223708868
1789743284410912000,2.403912109375,2.148084042328596,1.052639167651534,-0.5245549122408032
1789743284420962000,2.413962158203125,2.8546465037971736,1.2441688707232474,-0.2568453480690718
1789743284431012000,2.42401220703125,2.222697092503309,1.498596051734686,0.5186477340236306
1789743284441063200,2.434063232421875,1.414478675633669,1.1315060758784412,0.8082073109537362
1789743284451113000,2.444113037109375,0.9612707975089549,1.1273261598452926,0.5584586431473493
1789743284461163000,2.4541630859375,0.5230646736830472,1.2040876202255486,0.359634691414237
1789743284471213000,2.464213134765625,0.22005378676652906,0.9155345899894833,0.12193126618862152
1789743284481264000,2.47426416015625,-0.014850363129377365,0.5372662175148725,-0.017786416581273078
1789743284491314200,2.484314208984375,-0.1617038891285658,0.2955295912504196,0.052124154990911484
1789743284501364000,2.494364013671875,-0.08228022380173206,0.4014528487071395,0.48973698909878727
1789743284511414000,2.5044140625,-0.3557043662279844,0.4770226150847971,1.3440811973273754
1789743284521464000,2.514464111328125,-0.4865601126283407,-0.18010741469487546,1.600240316697955
1789743284531515100,2.52451513671875,0.6594488281160593,0.7134104276672005,0.882338130569458
1789743284541565200,2.534565185546875,1.205683364984393,1.1279729333162307,0.23955577509403228
1789743284551615000,2.544614990234375,1.0845558163940905,0.7819460576243699,-0.040462358769774436
1789743284561665000,2.5546650390625,1.0252356124192477,0.17129048651084303,0.05772562825977802
1789743284571716000,2.564716064453125,0.4088637094855308,0.03651902797147631,0.18458558302223682
1789743284581766100,2.57476611328125,0.18166122000813484,0.24341332730501888,-0.08622457751333713
1789743284591816200,2.584816162109375,0.22642916701734064,0.5004357855066657,-0.4387859695404768
1789743284601866000,2.594865966796875,-0.3149918320894241,0.46712855918854473,-0.593420650935173
1789743284611916000,2.604916015625,-1.5992179879128932,-0.043785073451697826,-0.15723112762868405
1789743284621967000,2.614967041015625,-2.2173206601619717,-0.37980946443676944,-0.2562590726137161
1789743284632017200,2.62501708984375,-1.9623300000488757,-0.047792409396916626,-0.7793781068325042
1789743284642067000,2.63506689453125,-1.822418840533495,0.5715626010008156,-0.7378390587419271
1789743284652117000,2.645116943359375,-1.3922399558186531,1.2182543850049377,-0.7545715823560952
1789743284662168000,2.65516796875,0.005224456650018691,1.8293068464815616,-0.7213765842407941
1789743284672218000,2.665218017578125,1.5259130977272986,2.1401289916709065,-0.40169864016175266
1789743284682268200,2.67526806640625,1.9821932229042052,1.7692507294476032,0.2031768862456083
1789743284692318000,2.68531787109375,1.6166998685896397,0.5876786001518368,0.7381874337881803
1789743284702369000,2.695369140625,1.3623779015183448,-0.48381454024724657,0.9446335509628057
1789743284712419000,2.705419189453125,0.8763526264190673,-1.375708507734537,1.3418372177928686
1789743284722469000,2.71546923828125,0.9207809662103652,-1.4076502909183501,1.1498796446979045
1789743284732519200,2.725519287109375,1.3688111494362354,-0.8274377888634801,0.6454781704306602
1789743284742570200,2.7355703125,1.9652303976655006,0.3998176121881231,-0.09420213226377963
1789743284752620000,2.7456201171875,2.366906825995445,1.836505671944469,-0.6518301698058844
1789743284762670000,2.755670166015625,0.7107868011653423,1.6482865547254681,-0.04022036670744419
1789743284772720000,2.76572021484375,-1.1544248869121074,0.6040688496669754,0.542062219619751
1789743284782770200,2.775770263671875,0.31370529941022396,0.38715865815579886,-0.13021160327792167
1789743284792821200,2.7858212890625,1.5402987659543752,0.1736252861339599,0.0738648621559143
1789743284802871000,2.79587109375,1.8391747450232505,0.05720325748664327,0.4408505008548498
1789743284812921000,2.805921142578125,1.5290022959142922,-0.339111433747597,0.6247580384850502
1789743284822971100,2.81597119140625,0.890096489611268,0.14164213889329694,0.7870657387256622
1789743284833022200,2.826022216796875,-0.1849777972102165,1.2551232493273914,0.9095353495746851
1789743284843072300,2.836072265625,-0.9834311913907527,1.6296058196529746,0.5368067833095789
1789743284853122000,2.8461220703125,-0.9943220032393931,1.4426542381517589,0.3134726596981287
1789743284863172000,2.856172119140625,-0.7536310866355895,0.9204327372945844,0.1793178717523813
1789743284873222100,2.86622216796875,-0.07986322578787804,0.31235512691028416,0.1086339777201414
1789743284883273200,2.876273193359375,-0.24551439123749733,-0.1460602567296475,0.31750469169318674
1789743284893323300,2.8863232421875,-0.6837462340265512,0.183981918040663,0.3011287264317274
1789743284903373000,2.896373046875,-0.7903729635775089,1.6784714112393557,0.25758710634708404
1789743284913423000,2.906423095703125,-0.7846972560286521,2.7598817692145703,0.6726227824658155
1789743284923474200,2.91647412109375,-0.17617080589830875,2.4684914697259663,1.0467337430000305
1789743284933524200,2.926524169921875,0.6812707838237285,1.5761393101423977,1.1607190186202525
1789743284943574000,2.936573974609375,1.18504331253767,0.36809900676831603,1.5124702633082865
1789743284953624000,2.9466240234375,1.33403852674067,-1.0003959163255989,1.8356722898602484
1789743284963675100,2.956675048828125,1.4144640625864267,-1.573941069445759,1.7479279554337261
1789743284973725200,2.96672509765625,1.2999924647539853,-1.7730879695229231,1.6098627160459755
1789743284983775200,2.976775146484375,1.5366858361542224,-1.135001516778767,1.242888767784834
1789743284993825000,2.986824951171875,1.4078046046972275,-0.5673112271666526,0.8218284245491028
1789743285003875000,2.996875,1.0943196700394153,-0.6405621221426874,0.4161287320524454
1789743285013926100,3.006926025390625,0.39229835913181305,-1.0581569081597029,0.024305004695057867
1789743285023976200,3.01697607421875,-0.31411504925489425,-1.456477304060012,-0.44720425379574297
1789743285034026200,3.027026123046875,-0.49846448543369765,-1.109997131642699,-1.1346300531178712
1789743285044076000,3.037075927734375,-1.0047060346096754,-0.20300700957141815,-1.5483751049041747
1789743285054127000,3.047127197265625,-1.3784879093199967,0.7495720205031335,-1.6281453917115927
1789743285064177200,3.05717724609375,-1.51141929295063,0.49884979495685544,-1.2265718392342329
1789743285074227200,3.067227294921875,-1.0438590643465517,-0.079208890064992,-0.9987105935871601
1789743285084277200,3.07727734375,-0.1474170051008463,-0.38842422111220654,-0.8970838642805814
1789743285094327000,3.0873271484375,0.23988427639603613,-0.6140864223450422,-0.7954273243576288
1789743285104378000,3.097378173828125,-1.0950333712667226,0.08651249107662588,-0.8690385040134191
1789743285114428200,3.10742822265625,-1.5517232462882995,0.8150242974922061,-0.8526292210042477
1789743285124478200,3.117478271484375,-1.499291632783413,0.9286702581554651,-0.6967629519879818
1789743285134528300,3.1275283203125,-1.4430734864771366,0.5130548093874007,-0.4740940142869949
1789743285144579300,3.137579345703125,-1.101291847139597,0.09493565243640914,-0.47974692548215386
1789743285154629000,3.147629150390625,-0.9540005142450332,-0.17148949794797225,-0.425419122967124
1789743285164679200,3.15767919921875,-0.9244131852328776,-0.38361777067854996,-0.33052433226406575
1789743285174729500,3.1677294921875,-0.5537462276726961,-0.1972992081175558,-0.285435482737422
1789743285184780300,3.1777802734375,-0.2270984445810318,0.22467596667446194,0.04341302526891231
1789743285194830300,3.187830322265625,0.5901619414001703,1.1142453636717051,1.8883663536936044
1789743285204880100,3.197880126953125,0.3645008361458778,0.8635347920306027,2.1671505618482825
1789743285214930200,3.20793017578125,0.9684674310147762,-0.3632708559595048,0.9214414759457111
1789743285224980500,3.21798046875,1.0847300039172172,-0.35707905211467295,0.8102204043418169
1789743285235031300,3.22803125,0.7082675118207931,0.20742294458383692,0.9000760318338871
1789743285245081300,3.238081298828125,0.5398112258225679,0.35301388503499326,0.7865273940652608
1789743285255131100,3.248131103515625,0.24297698171436785,0.2243688186877407,0.5304693969815969
1789743285265181200,3.25818115234375,0.27140637286305425,0.026480723032634705,0.30401684908866883
1789743285275232300,3.268232177734375,0.5077244812101125,-0.340021863123402,0.16327333040237427
1789743285285282300,3.2782822265625,0.44153263790011404,-0.3312546923652291,0.07872866879999638
1789743285295332400,3.288332275390625,-0.015268296280503272,0.13464691884424537,-0.03122866647839546
1789743285305382100,3.298382080078125,-0.46906011177301404,0.39269422658160325,-0.09759002113640308
1789743285315433200,3.30843310546875,-0.5979553717553615,0.36882089130207896,-0.12611293578743935
1789743285325483300,3.318483154296875,-0.5500678314208984,0.0922360563552007,-0.18877543592751025
1789743285335533300,3.328533203125,-0.5981541091978549,-0.4193415566191077,-0.2270592816144228
1789743285345583000,3.3385830078125,-0.6396294444024563,-0.8698292159996927,-0.22630583289861678
1789743285355633200,3.348633056640625,-0.5488303985804319,-0.8786065428256988,-0.050424365335702895
1789743285365684200,3.358684326171875,-0.501641946426034,-0.6534351207844913,0.04594634313881397
1789743285375734300,3.368734375,-0.8209446274518967,-0.34112704788632686,-0.05123918884992599
1789743285385784300,3.378784423828125,-1.1439841569185256,0.10476762114819138,-0.14361118307709694
1789743285395834000,3.388834228515625,-1.1311720216184853,0.38184962849486614,-0.2228577382713556
1789743285405885200,3.39888525390625,-1.1556892077594996,0.20147786377537993,-0.4424824859708547
1789743285415935200,3.408935302734375,-1.1761527345955372,-0.2897985367851332,-0.9415466908633708
1789743285425985300,3.4189853515625,-0.960763432508707,-0.7033803243011236,-1.2241279532134532
1789743285436035300,3.429035400390625,-0.9008598756879568,-0.8311410272955894,-1.203986497938633
1789743285446085000,3.439085205078125,-0.4592535880297422,-0.643816301633045,-0.8971721270859241
1789743285456136200,3.44913623046875,0.11085925255417824,-0.37717853141129015,-0.15348434231579303
1789743285466186200,3.459186279296875,0.5762713632136583,-0.06240604116097092,0.7145943767547607
1789743285476236300,3.469236328125,0.49343292100727554,-0.04752053365297615,0.594448240417242
1789743285486286300,3.479286376953125,0.2745242126226425,0.124383773907274,0.30257775619626043
1789743285496337400,3.48933740234375,0.2109071882367134,0.8140287836488336,0.6805225958049297
1789743285506387200,3.49938720703125,-0.0764706607401371,1.1134570628382265,0.9526537758111954
1789743285516437200,3.509437255859375,-0.043863107123970985,1.3293775491923092,1.00439916061759
1789743285526487300,3.5194873046875,0.057476621934771537,1.1351275543112307,0.9602607436835765
1789743285536538400,3.529538330078125,0.12179974876344203,0.8041647575646639,1.0452379514843224
1789743285546588400,3.53958837890625,0.09640987144112587,0.629986732918769,1.0263608170568943
1789743285556638200,3.54963818359375,0.22433774769604206,0.3727295161131769,0.9277075506031512
1789743285566688300,3.559688232421875,0.27283202175199983,0.1866756141040474,0.9041185852229595
1789743285576738300,3.56973828125,0.1644827061921358,0.17883534893244504,0.709446492472291
1789743285586789400,3.579789306640625,0.20567805541157722,0.07831972267292439,0.30851123789846896
1789743285596839400,3.58983935546875,0.287479555785656,0.26115188615657386,0.04977086986303329
1789743285606889200,3.59988916015625,0.5092401464700699,0.3648043491370976,-0.011119359907507896
1789743285616939300,3.609939208984375,0.5341273349672555,0.33166926451548934,0.06736673230826855
1789743285626990300,3.619990234375,0.5257184030622244,0.2700700096927583,0.09407646005749702
1789743285637040400,3.630040283203125,0.5829103628367185,0.21485008064359426,0.1535860491245985
1789743285647090400,3.64009033203125,0.4359323336750269,0.16937011290751397,0.10757365501224994
1789743285657140200,3.65014013671875,0.12439327238798141,0.13655315432436763,-0.0052425768285989756
1789743285667191300,3.66019140625,-0.12887538623809813,0.1877246117003262,-0.19773907910585403
1789743285677241300,3.670241455078125,-0.3195984491020441,0.2771775766756385,-0.3214718417584896
1789743285687291400,3.68029150390625,-0.46747956458330153,0.218863627133891,-0.45293315283656116
1789743285697341200,3.690341064453125,-0.44619010831713674,0.06547346590757369,-0.534719455641508
1789743285707391200,3.70039111328125,-0.35927813306152817,-0.03640490007251501,-0.4760024782568216
1789743285717442300,3.7104423828125,-0.07083879233300686,-0.015520955867320298,-0.40460020682215686
1789743285727492400,3.720492431640625,0.09329495429098605,0.10920381349734962,-0.3118646399796009
1789743285737542400,3.73054248046875,0.05972995381951332,0.296739624627307,-0.18892741161882876
1789743285747592200,3.74059228515625,-0.01926817957162857,0.48806189549341794,-0.16775778234004973
1789743285757643300,3.750643310546875,-0.02723053675293922,0.5042527865115553,-0.1481920811265707
1789743285767693300,3.760693359375,0.20483166771531103,0.38084238768108186,-0.15828852772712707
1789743285777743400,3.770743408203125,0.4235007221251726,0.16381759334690868,-0.14159399803578854
1789743285787793400,3.78079345703125,0.8156050199896097,-0.06518558887690305,-0.04304360743463039
1789743285797843200,3.79084326171875,1.3501999724686145,-0.060653206144273275,0.10851239716708659
1789743285807894300,3.800894287109375,1.1301070227354764,-0.006273527311533689,0.28718028057813644
1789743285817944300,3.8109443359375,0.6258282980650663,0.06585369739681482,0.30795068140625953
1789743285827994400,3.820994384765625,0.11370236702561377,0.015303952115774153,0.29165421112179757
1789743285838044400,3.83104443359375,-0.33551614920198913,0.010769669687002896,0.07617723075151443
1789743285848095500,3.841095458984375,-0.5050649066120386,0.13217793491482735,-0.12925532546639443
1789743285858145300,3.851145263671875,-0.27041268565058707,0.439639663760364,-0.308757321614027
1789743285868195300,3.8611953125,0.05024433259367943,0.671059917063266,-0.4780325227797031
1789743285878245400,3.871245361328125,0.3769873927533626,0.6854948312595486,-0.4006956005990505
1789743285888295400,3.88129541015625,-0.11721125192940235,0.3511570781871676,-0.17879472466111182
1789743285898346500,3.891346435546875,-0.6192980195134877,-0.30634682640619576,0.011842998006939887
1789743285908396300,3.901396240234375,-1.4574837046235798,-1.1464639179702847,0.16085165621340275
1789743285918446300,3.9114462890625,-2.1526894902974365,-1.6215455550551414,0.13054711884260176
1789743285928496400,3.921496337890625,-2.096498231998086,-1.649357398827374,0.26076807447075845
1789743285938547500,3.93154736328125,-1.3980553640991449,-1.422124806472659,0.21237141557037828
1789743285948597500,3.941597412109375,0.04407236596047878,-0.7429579361256211,-0.3538128533929586
1789743285958647300,3.951647216796875,0.7382453014552592,-0.13540288831070066,-0.5980389583855867
1789743285968697300,3.961697265625,0.8048211756467819,0.04718019578270614,-0.31076281621754165
1789743285978748400,3.97174853515625,0.6211480312943458,0.15182656517140566,-0.250123346337676
1789743285988798500,3.981798583984375,1.166837209239602,0.4767578997340053,-0.521284220007062
1789743285998848300,3.99184814453125,1.0883300742357969,0.5901645717486739,-0.6144032332092523
1789743286008898300,4.001898193359375,0.6047685589015483,0.6520341679453849,-0.38562721080482004
1789743286018948400,4.0119482421875,-0.12181377728879451,0.4753816429447382,-0.08230302015542984
1789743286028999400,4.02199951171875,-0.8279097902894019,0.14221746369637547,0.11890636540949344
1789743286039049500,4.032049560546875,-1.0842384210079907,-0.12936141618937252,0.1587429934963584
1789743286049099300,4.042099365234375,-1.3082687101900576,-0.37116548166684804,0.11355711333602667
1789743286059149300,4.0521494140625,-1.7446797672927379,-0.5002082603611052,0.13386457282751799
1789743286069200400,4.062200439453125,-2.062426451048255,-0.3252618816912174,0.14149550609737635
1789743286079250400,4.07225048828125,-2.024031546202302,-0.2684310103140771,0.4539768166705966
1789743286089300500,4.082300537109375,-1.6222575027167796,-0.5992745645951479,0.915229177302122
1789743286099350300,4.092350341796875,0.3560457270115614,-0.6555308509547263,1.0244728113532067
1789743286109401300,4.1024013671875,1.307268593236804,-0.4511949308671057,0.993024364644289
1789743286119451400,4.112451416015625,1.673994119694829,-0.11071421806029975,0.8715151232600211
1789743286129501400,4.12250146484375,1.3294523679941892,-0.030254341553524133,0.7859662530511617
1789743286139551500,4.132551513671875,0.48308512999415393,0.141360919932276,0.7158721416056155
1789743286149601300,4.142601318359375,0.1428372760951519,0.47893473231643435,0.6490846704900264
1789743286159652400,4.15265234375,0.2200917806893587,0.7408021463312208,0.6323112303435802
1789743286169702400,4.162702392578125,0.20826164216399193,0.9066917967118322,0.6548270135343074
1789743286179752200,4.172752197265625,0.31702830635309215,0.8887756162710487,0.672159256607294
1789743286189802200,4.18280224609375,0.3060819649249315,0.6864467982221394,0.582316488596797
1789743286199853000,4.19285302734375,0.2105857011973858,0.7007661232147365,0.48702480753064153
1789743286209903400,4.2029033203125,-0.6133177760601043,0.4186879150159657,0.4390115949898958
1789743286219953400,4.212953369140625,-1.454439514622092,0.09467588725537061,0.2509820089936256
1789743286230003200,4.223003173828125,-1.6612398520618676,-0.037774873251467944,-0.20074469066262243
1789743286240053200,4.23305322265625,-1.158911092415452,-0.17517697255536913,-0.24717618696987628
1789743286250104000,4.24310400390625,-0.4682289216458797,-0.5407300942331552,0.04552431833446026
1789743286260154400,4.253154296875,-0.08744973539412021,-0.8654469092622399,0.0603536386758089
1789743286270204400,4.263204345703125,0.2660965760171413,-0.6931345323577522,0.18003683367669582
1789743286280254200,4.273254150390625,0.3651297816991806,-0.41467254189476366,0.13794190526902675
1789743286290305000,4.283304931640625,0.17804419855475426,-0.33544571431428194,-0.009420154774188994
1789743286300355000,4.29335498046875,-0.19203531450629233,-0.3522295297242701,-0.004292728757858276
1789743286310405400,4.3034052734375,-0.39566988139152526,-0.17844196570068596,0.10757716214358806
1789743286320455200,4.313455078125,-0.5604764127105474,-0.1577183266237378,0.04792962591052055
1789743286330505200,4.323505126953125,-0.4930173259437084,-0.28831191495656966,-0.26087971815168853
1789743286340556000,4.33355615234375,-0.05035831436216831,-0.12660934100225568,-0.6082230832695961
1789743286350606000,4.343606201171875,0.713508335083723,0.0556624121196568,-0.41361587244868275
1789743286360656400,4.353656494140625,0.6929974619746208,0.18521160596609115,-0.3593471066445112
1789743286370706200,4.3637060546875,0.7020481989145279,0.14699600320979953,-0.39479835925400253
1789743286380757000,4.373757080078125,0.8773480671972036,0.4223015754684806,-0.4128641772985458
1789743286390807000,4.38380712890625,-0.004199789777398109,0.28675445638149977,-0.4200117109656334
1789743286400857000,4.393857177734375,-0.20203531499505042,0.5738102337971329,-0.48362639726400375
1789743286410907400,4.403907470703125,0.070353639164567,0.7883492026649415,-0.7434276725292205
1789743286420958200,4.413958251953125,-0.04050210625827312,0.34872079095095393,-0.7892173638015985
1789743286431008000,4.424008056640625,0.2682294963926077,0.20226386305391789,-0.751942402896285
1789743286441058000,4.43405810546875,0.7189771218836307,0.45022404000833627,-0.6362456471830606
1789743286451108000,4.444108154296875,0.45862756508588787,0.24565964492708442,-0.2904226235002279
1789743286461158400,4.454158447265625,0.5137766208559275,0.31585005635395647,-0.1357224756538868
1789743286471209200,4.464209228515625,0.676706252387166,0.4845439505003392,-0.07381868492662906
1789743286481259000,4.474259033203125,0.7332043846786022,0.41463527862429617,0.11365735884010791
1789743286491309000,4.48430908203125,0.6166092188209295,0.4145813564799726,0.07387538354992866
1789743286501359000,4.494359130859375,0.19857319184243677,0.34460429554283617,-0.01892389617860317
1789743286511410200,4.50441015625,0.5050315888643264,0.40165319358482954,-0.2343085220903158
1789743286521460200,4.514460205078125,0.27896190280914307,0.0033105858527123925,-0.5527484488070011
1789743286531510000,4.524510009765625,-0.43432431395649906,-0.14042027808129787,-0.336792160487175
1789743286541560000,4.53456005859375,-0.6840250509679318,-0.1696585013948381,0.07226385670006275
1789743286551610000,4.544610107421875,-1.248048927026987,-0.18029475396052003,0.15284195275902748
1789743286561661200,4.5546611328125,-1.6096686547785997,-0.2628315828718245,0.15155717364549637
1789743286571711200,4.564711181640625,-1.4245914888471365,-0.2880757681131363,0.34213001438379287
1789743286581761000,4.574760986328125,-1.3551508728742598,-0.49303325416520233,0.777923816370964
1789743286591811000,4.58481103515625,-1.25488783313632,-1.0119070520296691,1.1604711813390254
1789743286601862100,4.594862060546875,-0.05281915151774883,-0.9499722816422581,1.052391330370307
1789743286611912200,4.604912109375,0.8592220433980226,-0.5745046458020806,0.6680857235580683
1789743286621962200,4.614962158203125,0.6407651704341173,-0.6514359097912907,0.37072014905214307
1789743286632012000,4.625011962890625,-0.0006114098966121674,-0.5702483035318553,0.19096330136060713
1789743286642063000,4.63506298828125,-0.10828618719577789,-0.07049450893998145,0.009540566283464431
1789743286652113200,4.645113037109375,-0.01987199068367481,0.43726533584445715,-0.04509469474554061
1789743286662163200,4.6551630859375,0.2387485503643751,0.5601232153587042,0.10943009653389453
1789743286672213000,4.665212890625,0.7095411850184202,0.5369976297065615,0.2963181112796068
1789743286682263000,4.675262939453125,0.6214975753843784,0.5119841844812035,0.627949528002739
1789743286692314000,4.685314208984375,0.2683592602521181,0.4233250732973218,0.7543605699539184
1789743286702364200,4.6953642578125,-0.10820669221878051,0.259157424403727,0.6339046370148659
1789743286712414200,4.705414306640625,-0.36869302713871,-0.019328093065321444,0.47691491692662236
1789743286722464000,4.715464111328125,-0.47723289683461184,-0.371578227186203,0.3873369373321533
1789743286732515000,4.72551513671875,-0.18193886790573596,-0.45793870603889225,0.38549510885775085
1789743286742565000,4.735565185546875,-0.45794951969385145,-0.1632534566581249,0.030325580158829687
1789743286752615200,4.745615234375,-0.5835568440467119,0.04145458467751741,-0.48135436067879195
1789743286762665200,4.755665283203125,-0.48499827013909813,0.2053349410623312,-0.7366063020765781
1789743286772715000,4.765715087890625,-0.295609086227417,0.30216800635159013,-0.7178449029833078
1789743286782766000,4.77576611328125,-0.05902852755188941,0.2537336457893252,-0.3967126684427261
1789743286792816000,4.785816162109375,-0.02441898646354675,0.15678338386118412,-0.03753974932134151
1789743286802866200,4.7958662109375,-0.11910568737387657,0.24685937610566613,0.12697101392149923
1789743286812916200,4.805916259765625,-0.39302842697203155,0.4255754825726151,0.16683599132001398
1789743286822967300,4.81596728515625,-0.41142274631857867,0.45276890218555926,0.20584581319391726
1789743286833017000,4.82601708984375,-0.1965945852458477,0.03388707203269005,0.5458189418047666
1789743286843067100,4.836067138671875,0.24662907448112964,0.09736907186210154,0.21714754393100738
1789743286853117200,4.8461171875,-0.22936112881600856,0.10546499229520559,-0.05124444954693317
1789743286863167200,4.856167236328125,-0.5457312635213136,-0.021996727752685546,-0.02041091986596584
1789743286873218300,4.86621826171875,-0.34946693314313887,0.07260550974458456,-0.09809270996153355
1789743286883268000,4.87626806640625,-0.18031097444295882,0.00950228009968996,-0.7276286303728818
1789743286893318100,4.886318115234375,-0.004010989207029343,0.17882862693071364,-0.770704386511445
1789743286903368200,4.8963681640625,-0.1723001019448042,0.16900573657453058,-0.2731079160839319
1789743286913419300,4.906419189453125,0.06506956128180026,0.1475488147869706,0.2833206825405359
1789743286923469300,4.91646923828125,0.018178630769252777,-0.00017944822013378142,0.5865156938523054
1789743286933519000,4.92651904296875,-0.45413317627608774,-0.03258300369679928,0.6130079794585704
1789743286943569200,4.936569091796875,-0.6380693554788828,0.10063976409584283,0.39268823523223395
1789743286953619200,4.946619140625,-0.6812181768536567,0.08218553125560284,0.14998422524034977
1789743286963670300,4.956670166015625,-0.1794850450128317,-0.08015314864516258,0.02961830867230892
1789743286973720300,4.96672021484375,0.16042963140904903,-0.49423546956181524,0.08545651575028895
1789743286983770000,4.97677001953125,0.3076595895051956,-1.0004308415085077,0.25244097563028334
1789743286993820200,4.986820068359375,0.3713683838278055,-1.4786115405872464,0.4482213218837976
1789743287003871200,4.996871337890625,0.18123218094110488,-1.636293042331934,0.3159977942615747
1789743287013921300,5.00692138671875,-0.2617068166255951,-1.238509237526357,-0.24644436556398866
1789743287023971000,5.01697119140625,-0.708666740271449,-0.7534563145905733,-0.7959674225836991
1789743287034021000,5.027021240234375,-0.623704730039835,-0.31051351763159035,-1.2162106042176484
1789743287044072200,5.037072265625,-0.10962065066993236,0.23910072480291128,-1.35945879920125
1789743287054122200,5.047122314453125,0.21286592108905314,0.5224409888267517,-0.9841332021802663
1789743287064172300,5.05717236328125,0.5684101283192634,1.8403607399374247,-0.33967736053466796
1789743287074222000,5.06722216796875,0.05643558844923973,1.8803779852882025,0.196045719191432
1789743287084272000,5.077272216796875,0.3040565965771675,1.2907646176815033,0.2664420284539461
1789743287094323200,5.0873232421875,0.4033142586648464,1.2094935709223151,1.1653075154542922
1789743287104373200,5.097373291015625,-0.4239858752936125,0.20375380935072898,1.4931775338172912
1789743287114423300,5.10742333984375,-0.39658115101754665,-0.06083528471291065,0.8068629106074571
1789743287124473000,5.11747314453125,-0.18632804277539253,0.05168430226892232,0.28715222352743147
1789743287134524200,5.127524169921875,-0.6451537607818841,0.49404579220861194,-0.16472820538580416
1789743287144575000,5.137574951171875,-0.7540694780528545,0.8178757414005696,-0.42516134881377216
1789743287154624800,5.147624755859375,0.19729425794780253,0.5375298368871212,-0.5997469313472509
1789743287164674800,5.1576748046875,0.7571504929333924,0.10210691403895616,-0.3941898719668388
1789743287174724900,5.167724853515625,0.7173597498148679,-0.29585414702966806,-0.12131810272634029
1789743287184776000,5.17777587890625,0.9797849438428878,-0.9509213990606367,-0.1385235045492649
1789743287194826000,5.187825927734375,0.28753683893084525,-1.1771728714235126,-0.41073651762008667
1789743287204875800,5.197875732421875,-0.056395256438851356,-0.9841814252361655,-0.5116021994262934
1789743287214925800,5.20792578125,0.32875849163532256,-0.9950409651637077,-0.009673252752423285
1789743287224977000,5.217976806640625,0.6498579929500818,-1.332229723753035,0.7393716751366853
1789743287235027000,5.22802685546875,0.2632785959869623,-0.9419798215836286,1.0051777437746525
1789743287245077000,5.238076904296875,-0.23285364710688589,-0.3797340611129999,0.9323223509222268
1789743287255126800,5.248126708984375,-0.47455812466740604,-0.34927842483371496,0.780311003768444
1789743287265176800,5.2581767578125,-0.8356044364452362,-0.34833529876470565,0.68693772354424
1789743287275228000,5.268227783203125,-1.1927227611243725,-0.5673039206430316,0.78209028840065
1789743287285278000,5.27827783203125,-1.5762649823486805,-0.7843442048072814,0.7909200760662555
1789743287295328000,5.288327880859375,-1.9423171395897865,-0.5396954904884099,0.6460843196302652
1789743287305377800,5.298377685546875,-2.015672298657894,0.20949673691689966,0.710171884137392
1789743287315428600,5.3084287109375,-2.1144255183547735,0.6718699182718992,1.108406647580862
1789743287325479000,5.31847900390625,-2.165501625597477,1.0385939834251998,1.0148539191365242
1789743287335529000,5.328529052734375,-1.5976380252450704,1.383767311027646,0.5751327145725489
1789743287345579000,5.3385791015625,0.28541970064640043,1.382047647628188,0.7514531580746173
1789743287355628800,5.34862890625,-0.13498363998532295,0.8521355922684073,1.114346559023857
1789743287365679600,5.3586796875,-1.1271136861383915,-0.12692395990937946,1.2474193969517946
1789743287375730000,5.36872998046875,-1.6310101334929465,-0.8108616248548031,0.8909042988628149
1789743287385780000,5.378780029296875,-2.223488242881,-0.8954743832573294,0.5944646070301532
1789743287395830000,5.388830078125,-2.4499989507019517,-1.7696645709455012,-0.21200667391121386
1789743287405880800,5.398880859375,-2.304135020262003,-2.1471528989583253,-0.6725105542629957
1789743287415930600,5.4089306640625,-2.356172081491351,-1.9858570061087608,-0.32811317946910856
1789743287425981000,5.41898095703125,-2.4887054057151077,-1.740942042069137,-0.06118541332483291
1789743287436031000,5.429031005859375,-2.1217384717166423,-0.8700558643624186,0.0845528449088335
1789743287446081800,5.439081787109375,-0.935177813418582,-0.5057406139165163,0.904651084664464
1789743287456131800,5.4491318359375,1.0870195761591195,-0.3063742258697748,1.7144973949968814
1789743287466181600,5.459181640625,3.192464500200748,0.6058592767477036,1.9539415264099835
1789743287476232000,5.46923193359375,5.106980609673261,1.6821557988405227,2.1198504660129545
1789743287486282000,5.479281982421875,6.164862354153394,2.1208219413936136,1.7479875766664743
1789743287496332800,5.489332763671875,5.730732101464271,2.2519927450925112,0.8272498650759458
1789743287506382600,5.499382568359375,5.1548330786943435,2.2434125482738017,-0.09462123445868492
1789743287516432600,5.5094326171875,5.075179111742973,1.9176070612251757,-0.30377602607011794
1789743287526483000,5.51948291015625,5.233948116463423,1.5921435194820164,-0.013073416584730147
1789743287536533800,5.52953369140625,5.368731849962472,1.5891870077639818,-0.002121229937672615
1789743287546583800,5.539583740234375,4.937928695869446,1.8751725255995988,-0.21273148105442521
1789743287556633600,5.549633544921875,3.3159809897541996,2.5001421610087156,-0.048402504119277
1789743287566683600,5.55968359375,1.4135820190548896,3.041845484188199,-0.6730465608358382
1789743287576734000,5.56973388671875,0.10503288448825478,2.339249003741145,-1.47337334767282
1789743287586784800,5.57978466796875,0.3051382543340325,1.1997066286623477,-1.612616398668289
1789743287596834800,5.589834716796875,1.0657624147273599,0.06743979754447936,-0.9499427632868289
1789743287606884600,5.599884521484375,1.8254969328045845,-0.12450842320024967,-0.8063263195127248
1789743287616934700,5.6099345703125,2.116197496463358,-0.008992284750938415,-0.8123726139396429
1789743287626985700,5.61998583984375,1.7156489031195639,-1.0222329234719276,-0.23906769931614397
1789743287637035800,5.630035888671875,1.7122857102967797,-2.3762346263110636,0.015548866787552833
1789743287647085800,5.6400859375,2.4666052175879476,-3.128653999069333,-0.4890390699625015
1789743287657135600,5.650135498046875,2.5890578773021695,-3.198861507761478,-1.1434043112039565
1789743287667185700,5.660185546875,3.199020497715473,-2.5720938830196856,-1.133338259741664
1789743287677236700,5.67023681640625,7.562246102601289,-0.9709797060966491,-0.627550299552083
1789743287687286800,5.680286865234375,5.569903826126456,-1.2441729623764752,1.649347754216194
1789743287697336800,5.6903369140625,-1.550450157612562,-1.7987766836613415,3.6829520154058932
1789743287707386600,5.70038671875,-2.2366772486694155,0.6301409005671739,3.6738533476710318
1789743287717437700,5.710437744140625,-1.188601881802082,2.831556720110774,2.3886481176823375
1789743287727487700,5.72048779296875,1.6818220368415115,3.2827263704061505,2.142963046053052
1789743287737537800,5.730537841796875,3.596682137446105,1.9209604633063078,1.9137790273696182
1789743287747587800,5.740587890625,3.596451543560624,0.5191512996315956,2.0517986740499734
1789743287757637600,5.7506376953125,-0.020161913540959357,-2.2428163359463213,1.6280267337679861
1789743287767688700,5.760688720703125,-2.0827187129706144,-4.198703151205182,0.5829442651063204
1789743287777738800,5.77073876953125,-0.08195289154350757,-4.271118106813729,-0.14884382303357124
1789743287787788800,5.780788818359375,0.4710205981910228,-3.7964892549976703,-1.3366653681129217
1789743287797838800,5.7908388671875,-1.5035282474398612,-2.264055815590918,-2.1230998231977223
1789743287807889700,5.8008896484375,-11.653082168805598,1.1662550254374742,0.20007015240192413
1789743287817939700,5.810939697265625,-12.0412608176589,3.28078751129806,6.0752113093227145
1789743287827989800,5.82098974609375,-6.408957526242733,-0.11861498124748468,9.691454179546236
1789743287838039800,5.831039794921875,-6.193112881603836,-1.5364412137433885,8.927492837554215
1789743287848089900,5.84108984375,-3.43973333389014,-0.9215297387510537,5.209946478629112
1789743287858140700,5.851140625,-3.1495202614873645,-0.8422381753712892,1.7506687785744666
1789743287868190700,5.861190673828125,-0.7510749724119902,-4.279459526440501,2.3578549200117584
1789743287878240800,5.87124072265625,1.2373691275805234,-6.838369518238306,3.5212089633107184
1789743287888290800,5.881290771484375,1.2960305753856896,-5.988765198013186,3.8741847813576458
1789743287898342000,5.891341796875,1.8790116653710602,-3.6183044789284464,4.224841216546297
1789743287908391700,5.9013916015625,1.3007155183315275,-0.1824286972492933,3.7255391112446783
1789743287918441700,5.911441650390625,-0.8225368650794028,2.1460177574485537,2.9027257673114537
1789743287928491800,5.92149169921875,1.2510679825872182,3.1236019763767717,-0.21034312461316584
1789743287938541800,5.931541748046875,3.1362247265845533,2.7172850287646053,-3.7530660005956884
1789743287948593000,5.941593017578125,-2.0463091367229818,2.0706021587193013,-2.986379617553949
1789743287958642700,5.951642578125,-6.672967359113692,1.6240975776255129,-2.7133623023629188
1789743287968692700,5.961692626953125,-6.7442790296554564,2.110789207679033,-3.1287668117940424
1789743287978742800,5.97174267578125,-4.224693624769151,3.1579443909615277,-1.9693816721260546
1789743287988793900,5.9817939453125,-3.1078000116109847,4.200345657715201,0.15173311473429202
1789743287998844000,5.991843994140625,-3.214190594318509,3.4273125359952448,2.4045009358525276
1789743288008893700,6.001893798828125,-4.176151712179184,1.6005957060068845,3.399057332369685
1789743288018943700,6.01194384765625,-2.5828680827513337,-0.9753764797508716,3.724946406048536
1789743288028993800,6.021993896484375,0.3439356025010347,-2.799741778177023,2.6697400182574986
1789743288039044900,6.032044921875,3.2419296651154754,-2.9359137511640787,0.8034761907786131
1789743288049095000,6.042094970703125,4.34227341775,-2.221005486154556,0.024486791002750394
1789743288059144700,6.052144775390625,2.4535075433447955,-2.2629396710425613,-1.2851093683987855
1789743288069194800,6.06219482421875,0.8619482534915208,-0.9929074602663517,-1.3586632649093866
1789743288079245800,6.072245849609375,-0.8859837935954332,1.025080129596591,0.38177170442044733
1789743288089296000,6.0822958984375,-0.9674949327208101,2.0970599575340745,1.0187041648238897
1789743288099346000,6.092345947265625,0.7395990541517734,2.1977871076524256,0.8054220641493797
1789743288109395700,6.102395751953125,2.4378303740024565,1.8672060767650602,0.6108855804771185
1789743288119446800,6.11244677734375,3.4250884302049873,2.3393659081190825,0.6693173111796379
1789743288129496800,6.122496826171875,3.0129554897904396,2.977676086616516,1.190856967252493
1789743288139547000,6.132546875,2.7505601063787934,3.4475890158265825,1.1877940725505352
1789743288149596700,6.1425966796875,3.4438907458305357,3.672530574634671,0.5335276155084371
1789743288159646700,6.152646728515625,4.638943411207199,3.2978011899411674,0.37299569276869293
1789743288169697800,6.16269775390625,5.337214429670572,2.7061726831197737,0.13840367756187916
1789743288179747800,6.172747802734375,5.298149662739038,2.282465040245652,-0.06134031162559986
1789743288189797600,6.182797607421875,4.640647877037525,2.5672259847223757,-0.09799392576217651
1789743288199847700,6.19284765625,4.230221156018972,3.0039456693828104,-0.04016542164981365
1789743288209898800,6.202898681640625,3.5122973425805566,3.011469635146856,-0.18905366834700107
1789743288219948800,6.21294873046875,2.932955485880375,2.818094596469402,-0.6919441535294055
1789743288229998800,6.222998779296875,3.2013024711728093,2.3177917896926403,-1.3651923744171857
1789743288240048600,6.233048583984375,2.2104655335702,0.899057794702053,-1.6849334468603132
1789743288250098700,6.2430986328125,0.11738602397441864,-0.2349450664281845,-1.1531824856355786
1789743288260149800,6.253149658203125,-0.9308243674494325,-1.0794342355966566,-0.7283169048979878
1789743288270199800,6.26319970703125,-1.5651216570436954,-2.1066122142553327,-0.11747399451881646
1789743288280249900,6.273249755859375,-1.0710301259972155,-2.5026807395756245,-0.5784805636957288
1789743288290299600,6.283299560546875,-1.6459331234671175,-3.0389070926487443,-0.268596283878386
1789743288300349700,6.293349609375,-2.8843127432644367,-3.4468531027674674,-0.5029691033765673
1789743288310400800,6.30340087890625,-2.2247183691978454,-4.865680621260404,0.22300094613432883
1789743288320450800,6.313450927734375,-1.631820280832052,-5.767985435059666,2.2891592771872875
1789743288330500900,6.3235009765625,-1.2570786211788654,-4.002129608747363,3.7330005331665275
1789743288340550700,6.333550537109375,-0.23528876529932022,-0.7651268786400556,4.393672181075811
1789743288350601700,6.343601806640625,0.18019699267446992,1.8375655562609432,5.075208922359347
1789743288360651800,6.35365185546875,0.6005197058180347,3.2558594062685966,4.372913470685482
1789743288370701800,6.363701904296875,0.29098376451432706,2.943275804364681,2.738043154633045
1789743288380752000,6.373751953125,-0.12968129579350351,1.513217282283306,0.5138765740990638
1789743288390802700,6.383802734375,-0.9251857770405709,-0.8185814054518937,-1.9876754537075756
1789743288400852700,6.393852783203125,-1.6407424229562282,-2.770537311002612,-4.3882770440340035
1789743288410902800,6.40390283203125,-1.993801243111491,-2.120469474694133,-5.094701558336615
1789743288420952800,6.413952880859375,-3.1614117748111483,-0.8044301305025815,-4.999239196878671
1789743288431002600,6.424002685546875,-5.101695362746716,-0.8056447669893503,-5.863123386868834
1789743288441053700,6.4340537109375,-6.703822516104578,-1.0381886174947024,-6.873464212495088
1789743288451103700,6.444103759765625,-5.830780037146806,-1.7383336131364107,-6.131843881648779
1789743288461153800,6.45415380859375,-4.8203603010654446,-2.125120515370369,-3.2315427111357446
1789743288471203800,6.464203857421875,-4.069824257835745,-1.1078513517856596,-0.9875538242787122
1789743288481253600,6.474253662109375,-1.9908163820818066,0.6502876165390015,-0.10227905573546886
1789743288491304700,6.4843046875,1.2985951651766896,0.635866292476654,0.20293489418327806
1789743288501354800,6.494354736328125,3.6382138790130614,-0.31016134319305416,0.058251697960495945
1789743288511404800,6.50440478515625,4.070288075955212,-1.3325555947065353,-0.37780981505215167
1789743288521454800,6.514454833984375,3.0938857602879404,-1.5841840849101543,-0.5518301649183035
1789743288531506000,6.524505859375,1.2285530761793255,-0.9076075963824987,-0.8154220646381378
1789743288541555700,6.5345556640625,-0.05711421836316585,0.11928045941889286,-0.99671503585577
1789743288551605800,6.544605712890625,-0.440568469043076,0.7801584435552358,-1.0012947648614645
1789743288561655800,6.55465576171875,-1.9322315066441893,1.017254550537467,-1.2018261050343513
1789743288571707000,6.564706787109375,-2.5290996676847337,2.4489327827751635,1.1550310361117124
1789743288581757000,6.5747568359375,-2.2796797934412956,1.605227457460761,1.0887018301576374
1789743288591806700,6.584806640625,-1.206588204869628,-1.313096860998869,2.8560949490398166
1789743288601856800,6.594856689453125,1.445860486847162,-2.313116199097037,2.98486745942533
1789743288611906800,6.60490673828125,0.16912088738679884,-3.206521082603931,2.224461764088273
1789743288621958000,6.6149580078125,-0.9637591071933508,-2.757555079832673,2.17166950057745
1789743288632008000,6.625008056640625,-1.444102245002985,-1.1767904479771851,2.0667197643280026
1789743288642057700,6.6350576171875,-1.36011171015203,-0.292537423697114,2.4456939469844103
1789743288652107800,6.645107666015625,-1.0443126533329485,-0.7347498605549335,3.1595825135573743
1789743288662157800,6.65515771484375,0.37103053017556664,-1.7892898933917283,3.2457007080867886
1789743288672209000,6.665208984375,2.283788982325792,-2.0802140366733073,2.7088345958054063
1789743288682259000,6.675259033203125,2.505982119208574,-1.6204805561721325,2.570990597952902
1789743288692308700,6.685308837890625,1.6854682843893765,-1.086021212771535,2.4485484596326947
1789743288702358800,6.69535888671875,1.3532511767327784,-0.2765583487987518,1.930939421007037
1789743288712409900,6.705409912109375,1.0312520962297915,0.7235276247948408,1.3803583793669938
1789743288722460000,6.7154599609375,0.9625631754070519,1.6675667169958353,0.956914063604176
1789743288732510000,6.725510009765625,1.099978426453471,2.461934303167462,0.35683073990941044
1789743288742559700,6.735559814453125,1.7104302916884422,2.8201065208137033,-0.27339491633176805
1789743288752610600,6.745610595703125,2.5950427969306706,2.230582292795181,-0.26228432425260545
1789743288762660900,6.755660888671875,3.5603479645222422,1.8845412424474954,-0.06400397787690162
1789743288772711000,6.7657109375,4.384131614792347,1.8863450769990682,0.4170017154946923
1789743288782760700,6.7757607421875,4.269043346366286,2.373898876839876,0.7710787727817893
1789743288792810800,6.785810791015625,3.5081980905681847,2.757244698709249,0.8569415312454104
1789743288802861600,6.795861572265625,3.1465979442998764,2.602930335310101,0.8093293007209896
1789743288812911900,6.805911865234375,1.9759975831344723,1.6754630232036112,-0.20124036522507666
1789743288822962000,6.8159619140625,0.2482543375954032,0.6009060382544994,-1.1839891273096204
1789743288833011700,6.82601171875,1.5037117873132229,1.1711930663615464,0.2195680490761995
1789743288843061800,6.836061767578125,-2.9090388959810136,2.8715315876245495,1.0121230328679085
1789743288853112600,6.846112548828125,-2.5460455417886374,3.2423382459163665,1.7641998757988213
1789743288863163000,6.856162841796875,-0.4604658864289522,2.2307868754565714,2.499904845121503
1789743288873213000,6.866212890625,1.2035530749574304,0.4232382717967033,2.611200151005387
1789743288883262700,6.8762626953125,2.707550985735655,-1.0074702386260033,2.6615321618825196
1789743288893313500,6.8863134765625,1.412096748933196,-1.2951847722113132,2.2008476642668247
1789743288903363600,6.896363525390625,-0.32315117314755915,-0.6345429349184036,1.236206513541937
1789743288913414000,6.906413818359375,-3.2478754217773673,0.7157751109719276,0.3507914597451687
1789743288923464000,6.9164638671875,-5.2811581959277385,1.2472902176141738,-0.5045739082247018
1789743288933514800,6.9265146484375,-5.772102807250619,0.7164952419400215,-0.7910165221780538
1789743288943564500,6.936564453125,-4.594649511450529,0.7566928122937678,0.4285118282854557
1789743288953614600,6.946614501953125,-2.6845173161506652,1.0674655653834342,1.0098433974981307
1789743288963665000,6.956664794921875,-1.01172848059237,-0.0012175590962171553,0.39685003108680245
1789743288973715000,6.96671484375,-1.1822680026054382,-0.9725058927506208,-0.20857260780930517
1789743288983765800,6.976765869140625,-2.439588615846634,-0.9317530266016721,-0.030554712739586827
1789743288993815600,6.986815673828125,-3.314776874661445,-0.2449222705632448,0.6935013198435306
1789743289003865600,6.996865478515625,-2.0714356869339943,0.1854158963665366,1.8363848220437764
1789743289013916000,7.006916015625,0.6624734366342425,1.3017895773038268,4.08743940950334
1789743289023966700,7.016966796875,3.0942940488278863,2.515845926097035,5.2246027804911135
1789743289034016800,7.027016845703125,5.06908605556488,1.4186886945441364,4.7718058212548495
1789743289044066600,7.037066650390625,4.989586402392387,-2.0789868329659105,3.1313159117549656
1789743289054116600,7.04711669921875,2.508364338169992,-4.381754364266992,0.8776450043171644
1789743289064167000,7.0571669921875,1.914823860247433,-3.702378600409627,-0.40617549331486225
1789743289074217700,7.0672177734375,4.252500792366266,-0.46784898241758344,-0.73981065107584
1789743289084267500,7.077267578125,5.6767374764263625,1.5507307281196117,-1.806355009961128
1789743289094317600,7.087317626953125,4.926979431831836,1.8290283218011258,-3.1858710932850838
1789743289104367600,7.09736767578125,4.069097112604975,1.1753294355139137,-4.229631957954168
1789743289114417700,7.107417724609375,3.8017528746142983,1.6312255298092961,-6.117793144464493
1789743289124468700,7.11746875,4.580383670210838,1.734133238837123,-7.567483418732881
1789743289134518500,7.1275185546875,5.238432568401098,0.9539557983204722,-7.907543056583404
1789743289144568600,7.137568603515625,5.359886864727735,-0.002415244448184967,-7.201834581595659
1789743289154618600,7.14761865234375,5.1900598748981945,-0.07463876913785934,-6.065661390689015
1789743289164669700,7.157669677734375,2.5651333963572975,1.751220274977386,-3.8243665652215477
1789743289174719700,7.1677197265625,0.7651109504185617,3.207963390366733,-2.2449825740694997
1789743289184769500,7.17776953125,2.3016225990496575,3.4840313253000375,-1.4210843575090168
1789743289194819600,7.187819580078125,3.308921134370565,2.8626255198523403,-2.435052141460776
1789743289204869600,7.19786962890625,2.8048692041933534,1.7524077311962842,-3.5482553756684063
1789743289214920700,7.207920654296875,1.897759035938978,0.14840718518197535,-4.461062294259667
1789743289224970500,7.217970458984375,1.296338764552027,-1.6975842541188,-4.867457567805052
1789743289235020500,7.2280205078125,-0.20615612125210464,-2.867211386337876,-4.292637572443485
1789743289245070600,7.238070556640625,0.04681318910121918,-2.762767846044898,-3.636319443568587
1789743289255121700,7.24812158203125,0.2505681674957275,-3.379294062757492,-2.187683062267303
1789743289265171700,7.258171630859375,-1.158487240980193,-5.112222601979971,-0.7101946804910898
1789743289275221500,7.268221435546875,-0.5257961444735527,-6.208295253166556,0.7316682611525058
1789743289285271600,7.278271484375,1.0503939460080116,-6.068176588380337,2.2226497462302444
1789743289295321600,7.288321533203125,0.5005249250948429,-5.440104310780764,3.3454742107421156
1789743289305372700,7.29837255859375,-0.38474034496769305,-4.165256224155426,3.5324323681145904
1789743289315422700,7.308422607421875,-1.787977641749382,-3.29526085780859,3.723769178962707
1789743289325472500,7.318472412109375,-3.7400633111596107,-2.814500955891609,3.895317001235485
1789743289335522600,7.3285224609375,-4.58642295037508,-2.9577561651378868,4.005017731404304
1789743289345573600,7.33857373046875,-4.813168343734741,-2.918018028989434,4.387776108774543
1789743289355623700,7.348623779296875,-4.601448670071363,-2.250562420028448,4.855923781877756
1789743289365673700,7.358673828125,-4.271858403787016,-1.5547797112494706,6.059624448612332
1789743289375723500,7.3687236328125,-3.9525598144143816,-0.9965817648649216,7.210149989998341
1789743289385773600,7.378773681640625,-1.6184861674845217,-1.0240320818483828,7.8779253324329845
1789743289395824600,7.38882470703125,0.21925770448539406,-1.7387807723820208,8.82121799018085
1789743289405874700,7.398874755859375,0.939595556795597,-3.002676672360301,10.569852048057317
1789743289415924700,7.4089248046875,2.8069372426390644,-2.352950781357288,12.387007853496074
1789743289425974500,7.418974609375,4.152644579863548,1.7134662983834743,13.646830220425128
1789743289436025600,7.429025634765625,4.650678272664547,5.170568992486595,13.780681056988238
1789743289446075600,7.43907568359375,4.755945988821983,5.976322480547428,11.386762305426597
1789743289456125700,7.449125732421875,4.223347178596258,5.402113310560583,6.8414400117248295
1789743289466175700,7.45917578125,3.2655998790383336,3.079042411421239,0.6109639064103365
1789743289476225500,7.4692255859375,1.9775579643189907,-1.7472925801396368,-6.160679515510797
1789743289486276600,7.479276611328125,1.4225252039670944,-5.65393352394402,-12.657056966531275
1789743289496326700,7.48932666015625,2.0373872868597505,-4.729615323518217,-16.490024186837672
1789743289506376700,7.499376708984375,1.8911328957974909,-2.583120596207678,-18.91748280442953
1789743289516426800,7.5094267578125,-0.3482242396056652,-2.2873583652451632,-20.14357592023611
1789743289526477600,7.5194775390625,-2.3161773402333257,-3.2376962653294203,-19.48724434735775
1789743289536527600,7.529527587890625,-2.5216309392392633,-3.013013941979408,-18.824873494315145
1789743289546577700,7.53957763671875,-2.8414158508241174,-1.5970371367424725,-19.091604861104486
1789743289556627700,7.549627685546875,-2.0426422847785055,-1.9718936549469828,-18.68010495789647
1789743289566677800,7.559677734375,-2.4403765513539315,-4.9317479614079,-15.022584320867061
1789743289576728600,7.569728515625,-4.410963507616519,-7.254701663908362,-11.765212171947955
1789743289586778600,7.579778564453125,-5.60842674126625,-6.223697989481687,-8.81828895099163
1789743289596828700,7.58982861328125,-7.140886484158039,-1.1328069293439387,-0.8682347864151001
1789743289606878700,7.599878662109375,-9.772615628451108,-0.30987229711860415,4.40167370122373
1789743289616929800,7.6099296875,-7.075262211602926,-6.4504398757100105,4.223572804045677
1789743289626979600,7.6199794921875,-2.9940625732719894,-8.877284160795808,8.469117201402783
1789743289637029600,7.630029541015625,-1.525471345309168,-9.322962812459469,9.408670672622323
1789743289647079700,7.64007958984375,-0.8253766185499727,-8.410944998419284,6.629115357905626
1789743289657129700,7.650129638671875,2.112158157944679,-8.89102510137856,4.156811051893234
1789743289667180800,7.660180908203125,4.592667982244492,-7.592419122546911,4.055480675184726
1789743289677230600,7.670230712890625,5.900383734726906,-6.861589650306105,4.541963630923629
1789743289687280600,7.68028076171875,6.0880970943808554,-7.2596379512667655,6.761269327422976
1789743289697330700,7.69033056640625,5.582427207612991,-4.702812364527583,8.08683287128508
1789743289707381800,7.7003818359375,2.281224684795737,-1.3540735990315675,10.553661960756779
1789743289717431800,7.710431884765625,1.3401491185754537,3.54828577080667,13.09099900317192
1789743289727481600,7.720481689453125,0.5605343534428626,6.464972258931398,17.10463960149288
1789743289737531600,7.73053173828125,3.5603275062561033,7.841186378100514,18.236312558370827
1789743289747581700,7.740581787109375,6.659864131912589,8.030134247985481,16.946980019319057
1789743289757632800,7.7506328125,4.971730427706241,8.642889713987708,16.26794094007015
1789743289767682800,7.760682861328125,3.3712995568722484,9.372572354280948,14.301674769616126
1789743289777732600,7.770732666015625,-0.13554536552131174,6.13103841048479,11.051321559548377
1789743289787782700,7.78078271484375,-3.325648397287726,2.235642498794198,6.967421430087089
1789743289797833700,7.790833740234375,-4.619412781307101,1.1385083558559417,2.0891899548113346
1789743289807883800,7.8008837890625,-5.986503098300099,2.5038895308434963,-2.0379057577759028
1789743289817933800,7.810933837890625,-5.546908734986186,3.2857232141345736,-5.2956981779336925
1789743289827983600,7.820983642578125,-5.0084974390894175,3.707323655596375,-9.544681317567825
1789743289838033700,7.83103369140625,-6.206496094790101,3.606085633346438,-14.117522317314148
1789743289848084700,7.841084716796875,-6.260313609695435,2.3434400256901977,-17.98419423882365
1789743289858134800,7.851134765625,-5.956777822121977,0.3942857335567474,-19.90235776488781
1789743289868184800,7.861184814453125,-6.601248861336708,-1.9033295295476913,-19.734443330681323
1789743289878234600,7.871234619140625,-8.549044724598527,-2.793346524181962,-18.4703855181396
1789743289888285700,7.88128564453125,-10.00551603730917,-1.6755992168039082,-15.804672271180152
1789743289898335700,7.891335693359375,-8.532488726595044,-0.5947293954461813,-12.194870832180976
1789743289908385800,7.9013857421875,-6.1303480901330705,-1.5553548807889221,-7.798814386317133
1789743289918435800,7.911435791015625,-3.8285406360358,-5.385277911093831,-3.145580583950877
1789743289928485600,7.921485595703125,1.6678484565466642,-11.05253035081625,2.3839503152549266
1789743289938536700,7.93153662109375,6.699611035889387,-15.638910046571493,8.16734666993618
1789743289948586800,7.941586669921875,8.285133675926923,-18.32194618425369,12.94599548895359
1789743289958636800,7.95163671875,7.424731482833623,-17.826761451143025,15.948551165282725
1789743289968686600,7.9616865234375,4.982063605672121,-13.843628219288586,17.329537905681132
1789743289978736600,7.971736572265625,2.8198674513608215,-8.939827418470383,18.03602379478216
1789743289988787700,7.98178759765625,2.5631144577503204,-4.555635597923398,17.782170614266395
1789743289998837800,7.991837646484375,3.745581197798252,-0.4821159927010536,16.944464237105844
1789743290008887800,8.0018876953125,3.7407846111714838,3.0068197635143994,15.579343758881091
1789743290018937600,8.0119375,3.1837527859568593,5.593520264035463,13.296893331682682
1789743290028988700,8.02198876953125,4.324080173933506,5.463718410602212,10.939278065645695
1789743290039038700,8.032038818359375,2.596455586338043,5.371306668886542,7.809221214041114
1789743290049088800,8.0420888671875,-1.2854606660544872,5.609768219003081,5.275294272330403
1789743290059138800,8.052138916015625,-4.192909954756498,3.600015373522043,2.526456459699571
1789743290069188600,8.062188720703125,-5.556861389201879,4.652527699923515,-1.8568366584420204
1789743290079239700,8.07223974609375,-7.868840693223476,7.123301143106818,-6.027104573279619
1789743290089289700,8.082289794921875,-9.382132794308662,7.262750530329346,-8.98215031041503
1789743290099339800,8.09233984375,-7.78714557583332,6.184812086248398,-11.311771654111146
1789743290109389800,8.102389892578126,-4.943465287208557,7.761776741299033,-16.878476391935347
1789743290119441000,8.11244091796875,0.6805320212204009,8.636580384710431,-20.7822455796957
1789743290129490700,8.12249072265625,0.48517187314033505,4.750345100075006,-18.32068127888441
1789743290139540700,8.132540771484376,0.8959681581236422,-2.0162755252480506,-17.064903803431985
1789743290149590500,8.142590576171875,2.043093389546871,-7.975276868638396,-16.04155093601942
1789743290159640600,8.152640625,1.7571578483328223,-10.988045895946025,-13.745923047339915
1789743290169691600,8.162691650390625,1.5210817320480943,-9.850075300228594,-10.649945575469731
1789743290179741700,8.17274169921875,-2.525501350931823,-8.900673219689727,-5.656503082171082
1789743290189791700,8.182791748046874,-6.060090312558412,-7.0273372618675225,1.4307973577499389
1789743290199841500,8.192841552734375,-0.6794122964754701,-2.6981448594868183,7.390879482114315
1789743290209892600,8.202892578125,4.276568188913166,0.7328384739756584,12.073386140716075
1789743290219942700,8.212942626953126,3.3440836331665516,1.9663789831787346,13.641412871551513
1789743290229992700,8.22299267578125,0.9503263557769358,1.2645049717873333,13.473201500225066
1789743290240042800,8.233042724609374,0.37902415927797556,0.6288257263153791,13.063891216015815
1789743290250092500,8.243092529296876,-1.5851355404160916,0.49275078396201133,11.769984208655357
1789743290260143600,8.2531435546875,-3.1780116119563577,0.4183762187182903,9.381802539440988
1789743290270193700,8.263193603515624,-2.058705823089927,0.19072130929827688,7.053848836696147
1789743290280243700,8.27324365234375,-0.7945650084398687,-0.37367081555128095,4.694991461643577
1789743290290293500,8.28329345703125,-1.7436638682484626,-1.3137222994208335,1.767397210535407
1789743290300344600,8.293344482421874,-0.03699088326692581,-0.980484032022953,-1.3618226057231426
1789743290310394600,8.30339453125,2.8132565087884664,0.3563759818792343,-3.482212000918388
1789743290320444700,8.313444580078125,5.0978421944499015,-0.060199909418821335,-3.8654531933695075
1789743290330494700,8.32349462890625,5.528260733139515,-2.0278063885658977,-3.107219581374526
1789743290340544500,8.33354443359375,6.633167263644934,-3.3951609094530344,-2.736720966118574
1789743290350595600,8.343595703125,6.13320231052041,-4.740962354701757,-3.2224235851347443
1789743290360645600,8.353645751953126,1.7215654336869715,-5.933305176597833,-3.382074633386731
1789743290370695700,8.36369580078125,-0.02694529007077217,-6.3000447315812105,-2.0963585312664508
1789743290380745700,8.373745849609374,-0.2638099263846874,-5.1739726634502405,-1.0829372752815485
1789743290390796500,8.383796630859376,-0.5019754161641001,-3.7039772677779195,-0.2998679127156734
1789743290400846600,8.3938466796875,-0.31762831807285546,-2.3441472971767188,0.646987405949831
1789743290410896600,8.403896728515624,1.2843076966270803,-1.4543027364999055,1.4649761062055826
1789743290420946700,8.41394677734375,2.936860092103481,-0.717391313996911,2.4726649560183285
1789743290430996700,8.423996826171875,4.122402294073999,-0.09858896904587745,3.2941198710799213
1789743290441047600,8.434047607421874,4.671458902625739,0.5057669174015522,3.35173327113688
1789743290451097600,8.44409765625,4.333179718451202,1.3787117812037468,2.5598294447302816
1789743290461147600,8.454147705078125,4.049019662477076,2.7401369120419026,1.908430652078986
1789743290471197700,8.46419775390625,1.652606171490252,4.482866714310646,1.3193857320100069
1789743290481247700,8.474247802734375,-3.245817320203781,5.240484240233898,0.698286216032505
1789743290491298600,8.484298583984375,-7.138019988811016,5.282075310772657,0.4215045798718929
1789743290501348600,8.4943486328125,-9.036466422492266,5.015533329075574,0.4780985737532377
1789743290511398700,8.504398681640625,-9.512474161446095,3.867563317391276,0.5188999552190303
1789743290521448700,8.51444873046875,-8.561881409817934,2.3544167622566223,-0.013294950380921364
1789743290531499500,8.52449951171875,-6.957558207720518,1.2802952461153267,-0.859685569256544
1789743290541549600,8.534549560546875,-4.893356563693285,1.0491735373675823,-1.2058628132045268
1789743290551599600,8.544599609375,-2.987922170820832,0.6398673448115587,-1.263741001677513
1789743290561649700,8.554649658203125,-1.287300156441331,-1.4969348405241965,-1.162314763379097
1789743290571699700,8.56469970703125,-1.1587199537575243,-2.770914619882405,-0.8791086471289395
1789743290581750500,8.57475048828125,-1.402549752908945,-3.0481331861555576,0.0579138443082571
1789743290591800600,8.584800537109375,-1.5452354917041957,-2.947522355893254,1.1605524298816918
1789743290601850600,8.5948505859375,-1.935809803522378,-1.9039187276124954,1.8172820621669292
1789743290611900700,8.604900634765626,-1.6500043184287845,-0.8512532564759254,1.7259096003711223
1789743290621951500,8.614951416015625,-0.9897370135366916,-0.2704424962669611,1.3031950601875781
1789743290632001500,8.62500146484375,-0.5507026221930981,-0.04133738803863525,1.1305641188532114
1789743290642051600,8.635051513671876,0.5011258135974407,0.18712006993591784,0.9457979185670614
1789743290652101600,8.6451015625,1.270037471473217,0.3776791744098067,0.7225374447137117
1789743290662151700,8.655151611328124,1.8733651839166878,0.5869637298807502,0.4480442117512226
1789743290672202500,8.665202392578125,2.10519942484796,0.8098308205023408,0.1049134958922863
1789743290682252500,8.67525244140625,1.6951701787143945,1.0798451544851064,-0.34241759915351866
1789743290692302600,8.685302490234376,1.2480056724071502,1.3558061219125985,-0.6834580647349358
1789743290702352600,8.6953525390625,0.6871890679568052,1.5273548209682106,-0.8045785990625619
1789743290712403500,8.705403564453125,0.22258648358192293,1.453865221865475,-0.6207569861501455
1789743290722453500,8.71545361328125,0.01745733075737953,1.2861200067460536,-0.24764146639406678
1789743290732503600,8.725503662109375,-0.044236032089591024,1.1726675228282808,0.1960486418008804
1789743290742553600,8.7355537109375,-0.1271954703271389,1.0768456804081796,0.6358119319409131
1789743290752603600,8.745603759765626,-0.12289222017526626,1.0117755346044897,1.0168810410499571
1789743290762654500,8.755654541015625,-0.09844282944030128,0.9677388244792818,1.269502049422264
1789743290772704500,8.76570458984375,-0.013975918382406234,0.973749463070929,1.400572899878025
1789743290782754600,8.775754638671875,0.15333875983264297,1.0102788663059472,1.4223065927803515
1789743290792804400,8.785804443359375,0.33932427278067917,1.0903694711089134,1.3473112652897834
1789743290802855400,8.79585546875,0.5333469251792877,1.2432879962354897,1.2061632574558256
1789743290812905500,8.805905517578125,0.6711737527012824,1.4914718989431857,1.0405173527032137
1789743290822955500,8.81595556640625,0.6727320880591869,1.7542925220295786,0.7926374013781547
1789743290833005600,8.826005615234376,0.5909924739401787,1.918001905761659,0.581204727962613
1789743290843055400,8.836055419921875,0.5354023233391344,2.0100503671228886,0.3230360223352909
1789743290853106400,8.8461064453125,0.49191133746318516,2.0515040750175713,-0.021082535517215728
1789743290863156500,8.856156494140626,0.5016226572036743,1.9981778507605195,-0.29164544329345227
1789743290873206500,8.86620654296875,0.5223603248059749,1.9094144024193285,-0.4577589655578136
1789743290883256600,8.876256591796874,0.4718202241361141,1.7770421139761805,-0.42856911143064497
1789743290893306400,8.886306396484375,0.32997546620965,1.5137091574534773,-0.2674357156664133
1789743290903357400,8.896357421875,0.08851407669000327,1.1200360028371215,-0.11203823320567607
1789743290913407500,8.906407470703124,-0.03928922333717346,0.8112555926084518,0.04250993894934654
1789743290923457500,8.91645751953125,-0.0784615057637915,0.629957945215702,0.13493687823414802
1789743290933507600,8.926507568359375,-0.11020104437377304,0.4403624250769615,0.029693127474188803
1789743290943558400,8.936558349609374,-0.14282668163590131,0.18554566022604702,-0.08333002511560916
1789743290953608400,8.9466083984375,-0.37431729676127434,-0.11206658251732587,-0.0683662647396326
1789743290963658500,8.956658447265625,-0.8945148905754089,-0.6268301685839891,0.07061199783980845
1789743290973708500,8.96670849609375,-1.2709049019575118,-1.1205761010631918,0.17780454457998274
1789743290983759600,8.976759521484375,-2.0674796427845954,-1.647603833158314,0.23732582408487796
1789743290993809400,8.986809326171874,-2.859872714012861,-2.2578540383413435,0.28960253928899765
1789743291003859500,8.996859375,-3.3814427652239796,-2.662898481799662,0.2780354356139898
1789743291013909500,9.006909423828125,-3.4796564712166784,-2.6371622752577064,0.24955519106090068
1789743291023959600,9.01695947265625,-2.9773370639204977,-2.1533429857701063,0.2772644512414932
1789743291034010600,9.0270107421875,-2.1022131025135518,-1.5051260380253195,0.3567079903125763
1789743291044060400,9.037060302734375,-1.2940015537761151,-1.0157558364123105,0.3258849820256233
1789743291054110500,9.0471103515625,-0.7668506336927413,-0.69078884601444,0.19304653737545013
1789743291064160500,9.057160400390625,-0.6163013219155371,-0.5636173410847782,-0.06447802512943744
1789743291074210600,9.06721044921875,-0.7794469342850148,-0.5320858922675251,-0.44921734718382356
1789743291084261600,9.07726171875,-1.1283294916689395,-0.23149024979919194,-0.8721779710829257
1789743291094311400,9.0873115234375,-1.476282805378735,0.30530455081164837,-1.1955629529863596
1789743291104361500,9.097361572265624,-1.5298600817874073,0.9020935091361403,-1.6696990528494118
1789743291114411500,9.10741162109375,-2.5106696925029155,1.2099921680942176,-2.1732383573293683
1789743291124462600,9.117462646484375,-3.396896939465403,0.7018886244386434,-2.414578093230724
1789743291134512600,9.1275126953125,-2.732795317107439,0.0742529846906662,-2.3142034098118542
1789743291144562400,9.1375625,-1.736801581263542,-0.11777765364050864,-2.1072429133743045
1789743291154611700,9.14761181640625,-1.0998268891535699,-0.09804624047130346,-1.8620874185770748
1789743291164661800,9.157661865234376,-0.8106380452319979,0.0864329595670104,-1.742523466041684
1789743291174712800,9.167712890625,-0.6330090033493936,0.3878296892851591,-1.7423001786798238
1789743291184762600,9.1777626953125,-0.43025121929869053,0.6521089867472648,-1.795820171943307
1789743291194812700,9.187812744140626,-0.4349450762033462,0.7711012768745422,-1.7949638473749159
1789743291204862700,9.19786279296875,-0.5996344108834862,0.6712766285538673,-1.7696774304270744
1789743291214913800,9.207913818359375,-1.0295359399616717,0.3015945903778076,-1.7032926948934792
1789743291224963800,9.2179638671875,-1.3745324496924876,-0.020971184097230432,-1.547630424016714
1789743291235013600,9.228013671875,-1.500051365109533,-0.2626017196387052,-1.4013257640719412
1789743291245063700,9.238063720703124,-1.5529355446875095,-0.5643956319808959,-1.1781810255527496
1789743291255113700,9.24811376953125,-1.7437725893199443,-0.8463076167672872,-0.8748311159402131
1789743291265164800,9.258164794921875,-1.9262321200989185,-0.9997659478589892,-0.5583773946046829
1789743291275214800,9.26821484375,-2.188161201173067,-1.0125967878594995,-0.23664368703961372
1789743291285264600,9.2782646484375,-2.459528995591402,-0.9087295861497521,0.050989013481140134
1789743291295314700,9.288314697265625,-2.6563176421046255,-0.763391725410521,0.2772475001066923
1789743291305365800,9.29836572265625,-2.7536300153434277,-0.5783490462705493,0.4357254129260778
1789743291315415800,9.308415771484375,-2.8990871185481546,-0.2798296255543828,0.44085634607374663
1789743291325465900,9.3184658203125,-2.9360850160777567,0.09298311186283827,0.32700317240059373
1789743291335515600,9.328515625,-2.7208208016753197,0.3359419733986258,0.23087913216352463
1789743291345565700,9.338565673828125,-2.3418401892781255,0.2870195370584726,0.500741198194027
1789743291355616800,9.34861669921875,-2.3015607858598233,-0.19353461315333842,0.966505775552988
1789743291365666800,9.358666748046875,-2.6485177820086476,-0.6829290724247694,1.3347937290221452
1789743291375716900,9.368716796875,-3.1700726356506346,-1.2409303271934389,1.930383540689945
1789743291385766700,9.3787666015625,-4.042305551791191,-2.2143185557365417,3.1881928142309186
1789743291395816700,9.388816650390625,-4.304868108463287,-3.1137741175845264,4.326199650305509
1789743291405867800,9.39886767578125,-4.127019140219688,-2.9920652619749304,4.942073540589213
1789743291415917800,9.408917724609376,-4.016012588149309,-1.6532947382763028,5.0485085469603534
1789743291425967900,9.4189677734375,-3.0958979768931862,-0.10035159480422734,4.133070695343614
1789743291436017700,9.429017578125,-1.0004549530364573,0.1940083681449294,2.123281024983525
1789743291446068700,9.43906884765625,0.6367009897351265,-0.1930322165891528,0.004295651367306709
1789743291456118800,9.449118896484375,1.0519441711246966,-0.5835290792569517,-1.4386866496950388
1789743291466168800,9.4591689453125,0.7864695263981819,-0.7304030635222792,-1.770888559782505
1789743291476218600,9.469218505859375,0.45001171243190763,-0.7985296742871403,-1.2987591235667466
1789743291486269700,9.479269775390625,0.15801489841751754,-0.7694739679336547,-0.5124836584359407
1789743291496319700,9.48931982421875,-0.296401697909832,-0.4435948311269283,0.14229016360640526
1789743291506369800,9.499369873046875,-0.7835854953944683,-0.2119116891041398,0.3646773617565632
1789743291516419800,9.509419921875,-1.0885364104628563,-0.2975067365422845,0.15342705917060373
1789743291526469600,9.5194697265625,-1.0889034902095793,-0.31573066775798797,-0.1912479635208845
1789743291536520700,9.529520751953125,-1.088745669299364,-0.1117994560137391,-0.5148807827055454
1789743291546570800,9.53957080078125,-0.9946230320125817,0.1671910883679986,-0.8907043923765421
1789743291556620800,9.549620849609376,-0.8063450242131948,0.4834849429666996,-1.184662788787484
1789743291566670800,9.5596708984375,-0.5218243182331324,0.6817214502006769,-1.4617092133641243
1789743291576720600,9.569720703125,-0.11205752242803572,0.82796941152215,-1.709529543456435
1789743291586771700,9.579771728515626,0.4022703025698662,0.9576116904795169,-1.661565430754423
1789743291596821800,9.58982177734375,0.7592050873756409,0.8986673340797424,-1.4522218385726213
1789743291606871800,9.599871826171874,1.1571044083196669,0.6883917217448353,-1.1529910547167062
1789743291616921900,9.609921875,1.7078876214683054,0.46270402074456213,-0.7743202389210462
1789743291626973000,9.619972900390625,2.0695254693984984,0.2881356816068292,-0.38966801062822337
1789743291637022700,9.630022705078124,2.4752853676497937,0.1437505915477872,0.004031447473168373
1789743291647072800,9.64007275390625,2.8606887065708637,-0.032172084808349606,0.4203419658333063
1789743291657122800,9.650122802734375,3.479039216101169,-0.13661854771077633,0.7554705770224333
1789743291667172900,9.6601728515625,4.012565370304882,-0.23776363098025322,0.9955471611201763
1789743291677224000,9.670223876953125,4.35641124869585,-0.23648995778262613,1.0398094966948033
1789743291687273700,9.680273681640625,4.515326383888721,-0.21602613868564366,0.7915934452831744
1789743291697323800,9.69032373046875,4.302261140835285,-0.08721592663824558,0.3924655323922634
1789743291707373800,9.700373779296875,4.015705129635334,0.09144581929296254,-0.0005517886638641358
1789743291717425000,9.7104248046875,3.5487083801329136,0.3005871669009328,-0.4497036693960428
1789743291727475000,9.720474853515626,2.829450687742233,0.5849930143296719,-0.9330641092002391
1789743291737524700,9.730524658203125,2.286725474169105,0.7741109800845384,-1.3317162212729454
1789743291747574800,9.74057470703125,1.8249369608342647,0.8592769884556531,-1.6565455567657947
1789743291757624800,9.750624755859375,1.4373475100457667,0.9313920843347907,-1.89270116802752
1789743291767676000,9.760676025390625,1.1683552125871182,1.0139791821286082,-1.9916835203051566
1789743291777726000,9.770725830078124,1.0661198498629032,1.0733663138598204,-1.969183519205451
1789743291787775700,9.780775634765625,1.0349275698721407,1.1420751084268093,-1.8118594525963068
1789743291797825800,9.79082568359375,0.9973299528837204,1.2269342428058385,-1.5231290199667213
1789743291807876900,9.800876953125,1.036187799066305,1.2874112156003712,-1.1217442680597305
1789743291817927000,9.810927001953125,1.025713020672649,1.2938894717037677,-0.6407125634640455
1789743291827976700,9.820976806640624,0.9617372459769249,1.2710665222600102,-0.1173392622232437
1789743291838026800,9.83102685546875,0.9474829490445553,1.266369012093544,0.3811404207795858
1789743291848076800,9.841076904296875,0.9478456448771059,1.2739657508328557,0.8254483686119317
1789743291858128000,9.8511279296875,0.9115292998708784,1.3213544017344712,1.2019418403685092
1789743291868178000,9.861177978515625,0.768895291262865,1.4212772497326134,1.4876561400473116
1789743291878227700,9.871227783203125,0.5357283404231071,1.5505512798994778,1.696504642188549
1789743291888277800,9.88127783203125,0.23627792246714233,1.7057947408422827,1.8029145141184328
1789743291898327800,9.891327880859375,-0.10913608202338218,1.8697753427311776,1.7697013958245515
1789743291908379000,9.90137890625,-0.40579153549857433,2.063196558637917,1.7024936534702777
1789743291918429000,9.911428955078126,-0.7126642854750156,2.170007120323181,1.6540087317645549
1789743291928478700,9.921478759765625,0.6343453665196895,2.294154893517494,1.8370359794288873
1789743291938528800,9.93152880859375,-2.015755885288119,2.302985850226879,1.4754694431692361
1789743291948579800,9.941579833984376,-32.100714685618875,1.2429486812785266,-0.5352870263963937
1789743291958630000,9.9516298828125,-40.10434145042896,-0.8562854054242373,0.3396358594805002
1789743291968680000,9.961679931640624,-5.423283524361253,0.9028165627136826,4.91945605058968
1789743291978729700,9.971729736328125,0.7947960407167672,1.435996972219646,4.868603815230727
1789743291988779800,9.98177978515625,0.7724895163625478,1.2004451720699667,5.424174335721135
1789743291998830800,9.991830810546874,1.4408148938953875,0.5676414820343255,5.532005764886737
1789743292008881000,10.001880859375,0.8140851900111883,-0.010773907470703125,5.374952331912517
1789743292018931000,10.011930908203125,0.9080717067629098,-0.23037089038044212,5.670330531993508
1789743292028980700,10.021980712890626,0.5375497106313705,-0.7555880659222602,6.058269526872039
1789743292039031800,10.03203173828125,-0.08571078277230262,-1.1998799394026398,6.322236105123162
1789743292049081900,10.042081787109375,0.06817512608170509,-1.2222104291543363,6.537654048782587
1789743292059132000,10.0521318359375,1.0252677611231804,-1.1083873583585022,6.396965475153922
1789743292069182000,10.062181884765625,1.9972879161834716,-0.8807143287599086,5.459103610283136
1789743292079231700,10.072231689453124,2.3768051196753976,-0.29254005404561756,3.7416315833896396
1789743292089282800,10.08228271484375,2.1702911979615687,0.5354477699160576,1.896806265258789
1789743292099332900,10.092332763671875,1.7461691290676593,1.139539160208404,0.29290450344383717
1789743292109383000,10.1023828125,1.408928055769205,1.4520944128006696,-1.028380924707651
1789743292119433000,10.112432861328125,1.4185188909351825,1.531084070624411,-2.1301801368474957
1789743292129483800,10.12248388671875,1.5878198110640047,1.4876216532558202,-2.992189180615544
1789743292139533800,10.132533935546874,1.7582395060896872,1.247491293144226,-3.6201825477600096
1789743292149584400,10.14258447265625,1.9948317552030086,0.8586407363787293,-3.900407017850876
1789743292159634200,10.15263427734375,2.2555939844548702,0.24495851092040538,-3.9505256782382725
1789743292169684200,10.162684326171876,2.2814251758038995,-0.4816548049300909,-3.7554362368583676
1789743292179735300,10.1727353515625,2.0615186885535715,-1.4269184704899787,-3.5400673930376767
1789743292189785300,10.182785400390625,1.9408827228724956,-2.5596879904329777,-3.162828071349859
1789743292199835400,10.19283544921875,1.5852748027563095,-3.5028964770287274,-2.712589564424753
1789743292209885200,10.20288525390625,0.5555564919650554,-4.12499114152342,-2.2508932594180107
1789743292219936300,10.212936279296875,-0.34603812773823733,-4.508737653148174,-1.9110265137910842
1789743292229986300,10.222986328125,-0.47007834890484806,-4.61025683042705,-1.7552748110651968
1789743292240036400,10.233036376953125,-0.12173019065856933,-4.110981320871413,-1.8786872557222842
1789743292250086400,10.24308642578125,0.3802209313144907,-3.4334006237372754,-2.1937907314926384
1789743292260136200,10.25313623046875,0.4731015326509252,-2.7118632959768174,-2.473435940390825
1789743292270187300,10.263187255859375,0.7124703703381121,-1.9272887895449995,-2.724988442748785
1789743292280237300,10.2732373046875,0.9544844983696937,-1.2697671300992368,-2.833404393804073
1789743292290287400,10.283287353515625,1.1273675147689879,-0.7688754175186157,-2.6887650367230176
1789743292300337200,10.293337158203125,1.1331165798150002,-0.3914239143848419,-2.446445642134547
1789743292310387200,10.30338720703125,1.2954793712437151,-0.054795712287724015,-2.1875433615356683
1789743292320438300,10.313438232421875,1.4333961420714854,0.19879764824807641,-1.9108692774027585
1789743292330488300,10.32348828125,1.4572177471637724,0.38262422959655523,-1.65095928106606
1789743292340538400,10.333538330078126,1.453032424303144,0.49537587176859377,-1.4410013563781976
1789743292350588200,10.343588134765625,1.5769127787329256,0.6545584257259964,-1.3076426872462033
1789743292360639000,10.353638916015624,1.779215950883925,0.8132540729492902,-1.2741034057378768
1789743292370689300,10.363689208984376,1.6417631443060934,1.0087216999918223,-1.2546224601984024
1789743292380739300,10.3737392578125,1.5679754390396177,1.1472051647916435,-1.2020435471773148
1789743292390789400,10.383789306640624,1.5035728172339498,1.2759727067410944,-1.117839661836624
1789743292400839200,10.393839111328125,1.4766763347409664,1.3140183597579598,-1.0173504121273755
1789743292410890000,10.403889892578125,1.355744600983709,1.3126634380176663,-0.9210077607035636
1789743292420940300,10.413940185546876,1.179149139932543,1.3367472011774777,-0.761207659369707
1789743292430990300,10.423990234375,1.1008183844089507,1.3342305421814322,-0.6333253758221864
1789743292441040400,10.434040283203124,1.030537664350122,1.251003392918408,-0.5246808767080307
1789743292451091200,10.44409130859375,0.9154571408390998,1.1989558102950453,-0.34431729529500005
1789743292461141000,10.45414111328125,0.9422083696424961,1.148700079524517,-0.15162965435981748
1789743292471191000,10.46419091796875,0.8230733100436627,1.1725634779319167,0.05708849940001964
1789743292481241300,10.474241455078126,-0.10404730751700698,1.3026941249281168,0.16542027930319309
1789743292491291400,10.48429150390625,-2.369928804165125,1.639840213419497,0.2565530871242285
1789743292501342200,10.49434228515625,-6.052896017140149,1.8541420125305652,0.947204862755537
1789743292511392000,10.50439208984375,-7.565961323732137,0.505278549362719,2.312534599816799
1789743292521442000,10.514442138671875,-8.545829269683361,-1.4726003174737095,3.841193781381845
1789743292531492400,10.524492431640626,-9.165927499663828,-2.934868333764374,4.749151506376267
1789743292541542400,10.53454248046875,-7.9956912956357,-3.398257121902704,5.035121826642752
1789743292551593200,10.54459326171875,-5.753499229067564,-3.605962883749604,4.8654637636393305
1789743292561643000,10.55464306640625,-6.894069778150319,-2.8165052814513443,3.7354812440663574
1789743292571693000,10.564693115234375,-9.326692062115669,-0.7606547016620635,2.0971967356562615
1789743292581743400,10.574743408203124,-7.976565739405155,0.9684911041513085,1.1926993802487849
1789743292591794200,10.584794189453126,-4.68334720107913,2.031381324443221,0.42634032946527
1789743292601844200,10.59484423828125,-1.0820438335731626,2.1405448789954185,-0.8292237954974174
1789743292611894000,10.60489404296875,1.4034066619992256,1.735417725689709,-2.6204087088555097
1789743292621944000,10.614944091796875,2.980052460359037,1.1714581470385192,-3.2726223250210285
1789743292631994400,10.624994384765625,3.749863112901151,0.531174330380559,-2.533198627436161
1789743292642045200,10.635045166015624,4.068843722365797,-0.12118892338871955,-1.022754316997528
1789743292652095000,10.645094970703125,4.326185621780157,-1.096798919634521,1.2433815197378397
1789743292662145000,10.65514501953125,3.8613773222327232,-2.4135876208886504,3.350591699886322
1789743292672195000,10.665195068359376,2.4448972436487675,-3.5334646337717768,4.521570831236243
1789743292682246100,10.67524609375,0.7598482075847685,-3.9476813947230576,4.665371983927488
1789743292692296200,10.685296142578125,-0.3773356947343796,-3.544719602757692,4.17910588580966
1789743292702346000,10.695345947265626,-0.9405074109435081,-2.8367741624981164,3.0714965260863303
1789743292712396000,10.70539599609375,-1.117498227987811,-2.043027630834281,1.6940455585986376
1789743292722446000,10.715446044921874,-0.758995828539133,-1.2197972305327653,0.39607553958296776
1789743292732497200,10.7254970703125,0.3066495722124353,-0.4464963977873325,-0.7028121690243482
1789743292742547200,10.735547119140625,1.4777204369664192,0.1580950509816408,-1.37508774548769
1789743292752597000,10.745596923828124,2.57516262294054,0.6376254111036658,-1.6189619683027265
1789743292762647000,10.75564697265625,3.0251708282411096,1.1194839219123125,-1.5040262600898742
1789743292772697000,10.765697021484375,2.8397663300514218,0.9660793668344616,-1.0039899952948093
1789743292782748200,10.775748046875,2.9381869567930696,0.6499100153982639,-0.3456213636308908
1789743292792798200,10.785798095703125,3.642388534349203,0.36508915742784737,0.27158932821452614
1789743292802848000,10.795847900390624,4.592297103105485,0.07676058359742165,0.7705781297832727
1789743292812898000,10.80589794921875,5.450124185013771,-0.0863195623204112,1.0289771370351315
1789743292822949000,10.81594921875,6.063564710670709,-0.10836831252127885,0.9576964461535215
1789743292832999200,10.825999267578124,6.186420690488815,0.021984160532057283,0.5423486353456973
1789743292843049200,10.83604931640625,5.818963342624903,0.2959010549113154,-0.18412790238261223
1789743292853099000,10.84609912109375,5.146126040625572,0.5921800032243132,-0.9750573307991027
1789743292863149000,10.856149169921874,4.5827436773404475,0.8946785567045211,-1.6446791778832672
1789743292873200000,10.8662001953125,4.007589335457981,1.148809969639778,-2.179621336364746
1789743292883250200,10.876250244140625,3.2833506397843357,1.246232525254786,-2.591104872959852
1789743292893300200,10.88630029296875,2.5940432644993066,1.2654244247198103,-2.8521412429779764
1789743292903350000,10.89635009765625,1.7948352525591849,1.2886354966983198,-2.9392934567302462
1789743292913401000,10.906401123046875,1.338764678479731,1.3027891097351907,-2.964915389242768
1789743292923451100,10.916451171875,1.0958766902230679,1.1866907874837518,-2.79804900278449
1789743292933501200,10.926501220703125,0.8903178772769867,1.1394450521841644,-2.5611954723864794
1789743292943551200,10.93655126953125,0.824624631138891,1.0145566897556184,-2.3023691796332595
1789743292953601000,10.94660107421875,0.7738510139741003,0.9055757982939481,-1.899501495692134
1789743292963652000,10.956652099609375,0.6827883487798273,0.834597597490251,-1.4533645788669585
1789743292973702100,10.9667021484375,0.621096447237581,0.7346385091349482,-0.9424754961460828
1789743292983752200,10.976752197265625,0.520848605068773,0.7316518945395946,-0.4645546170473098
1789743292993802200,10.98680224609375,0.39178397986888885,0.7532850496768951,-0.011350246053934096
1789743293003853000,10.99685302734375,0.31401451148986814,0.7397358322739601,0.4221323563814163
1789743293013903000,11.006903076171875,0.24888956675902008,0.7709159834355116,0.8092886764496564
1789743293023953200,11.016953125,0.262519155921787,0.8386173545256257,1.1114531756699084
1789743293034003200,11.027003173828126,0.21680954414829612,1.0128536852300167,1.3234762161940334
1789743293044053000,11.037052978515625,0.1364225867472589,1.2754393305167555,1.3911504070162772
1789743293054104000,11.04710400390625,0.010107625581696629,1.5328458195999264,1.4346177928209305
1789743293064154000,11.057154052734376,-0.14218502273149788,1.698662112483382,1.5332237130016089
1789743293074204200,11.0672041015625,1.164492691940069,1.8688073744818567,2.2124147679418322
1789743293084254200,11.077254150390624,-0.015602606268785893,2.5161498774796724,3.3026229110091925
1789743293094304000,11.087303955078125,-30.828067908430096,3.1226927525773642,0.7126192772895097
1789743293104355000,11.09735498046875,-36.08939853733778,3.9144396348565813,1.397941382330656
1789743293114405000,11.107405029296874,-2.0124965912312267,2.9670801660612223,5.002589676350355
1789743293124455200,11.117455078125,1.8093775726526975,2.072398686747253,4.405709240350127
1789743293134505200,11.127505126953125,0.9896551804721355,1.4222081008419394,4.645965857189894
1789743293144556300,11.137556396484374,1.104898347198963,0.6032143151968717,4.730386015629768
1789743293154605800,11.147605712890625,0.445842938847281,0.4674766419738531,4.697555759173631
1789743293164655900,11.15765576171875,0.6311924554467201,-0.015742635793983936,5.004474759444594
1789743293174705700,11.16770556640625,0.3306044117629528,-0.6843696266219019,5.638626064696908
1789743293184755700,11.177755615234375,0.0017325274476082994,-1.1416770490199326,6.511601908159256
1789743293194806800,11.187806884765624,0.7134019520998001,-1.6018883761659264,7.049936047166586
1789743293204856800,11.19785693359375,1.8120751411736011,-1.923425099854171,6.650659081193805
1789743293214907000,11.207906982421875,2.403976035195589,-1.761781708741188,5.35004936132431
1789743293224956700,11.217956787109374,2.258785473972559,-1.1226724888205528,3.57297831351459
1789743293235006700,11.2280068359375,2.084149038034677,-0.4903165425524115,1.9076883092790842
1789743293245057800,11.238057861328125,2.0608733763873577,-0.10171937602609396,0.46417876947224135
1789743293255107800,11.24810791015625,2.1010323682963845,0.04043605528473854,-0.7742652938634157
1789743293265157600,11.25815771484375,2.0660965178631243,-0.0815574624851346,-1.673812917909026
1789743293275207700,11.268207763671874,2.108173910614103,-0.4467717075973749,-2.2445155410796405
1789743293285258800,11.2782587890625,2.38945987245664,-1.032769515055418,-2.5767829176187513
1789743293295308800,11.288308837890625,2.41378431250453,-1.742501546470821,-2.644722481378913
1789743293305358800,11.29835888671875,2.1580735214233395,-2.4555907793596385,-2.6374714873373506
1789743293315408600,11.30840869140625,1.912667851257324,-3.2994320060133933,-2.5577356873214243
1789743293325458700,11.318458740234375,1.7591922767698764,-4.295864133274555,-2.351785829231143
1789743293335509800,11.328509765625,1.4675883345305918,-5.511396692100167,-2.1158073281019925
1789743293345559800,11.338559814453125,1.1434136635541916,-6.464206535255909,-2.032791191241145
1789743293355609900,11.34860986328125,0.41509938900470733,-6.332519598728418,-2.094324979612231
1789743293365659600,11.35865966796875,0.058224225431680675,-5.686023191165924,-2.302749118861556
1789743293375710700,11.368710693359375,0.3941290816903114,-5.110911519381403,-2.5967402484983206
1789743293385760800,11.3787607421875,0.5791325978636741,-4.28910355309844,-3.110921358501911
1789743293395810800,11.388810791015626,0.5164882179021835,-3.396632735571265,-3.577888881909847
1789743293405860900,11.39886083984375,0.5285293688297271,-2.4151596925109624,-3.9331858363807197
1789743293415910700,11.40891064453125,0.5199906730651855,-1.5562831015497445,-4.250519847682118
1789743293425961700,11.418961669921876,0.4432207371175289,-0.927789968189597,-4.450748405516148
1789743293436011800,11.42901171875,0.4382476248800754,-0.4959875739261508,-4.478002907666563
1789743293446061800,11.439061767578124,0.5306499411802739,-0.21283640273362397,-4.2943034598290915
1789743293456111900,11.44911181640625,0.7123474746108055,0.011403729806840419,-4.054048596554995
1789743293466163000,11.459162841796875,0.979293945455551,0.18979045818895102,-3.782162915742397
1789743293476212700,11.469212646484374,1.233594869738817,0.32704467345476146,-3.4625030918419357
1789743293486262800,11.4792626953125,1.4837981494449077,0.3768704883754253,-3.1090409515827893
1789743293496312800,11.489312744140625,1.742508852994442,0.3259486949115991,-2.7312410734027623
1789743293506363000,11.49936279296875,1.8330629841446875,0.23214988275170326,-2.290732517853379
1789743293516414000,11.5094140625,1.5509060846865177,0.19845833329111337,-1.8143202897518873
1789743293526463700,11.519463623046875,1.3586334542930125,0.13671265573501587,-1.3313672617048025
1789743293536513800,11.529513671875,1.1402713469404726,0.13425474118888378,-0.8455605977922678
1789743293546563800,11.539563720703125,1.0237292995095253,0.12185761643052101,-0.4328811294108629
1789743293556614000,11.54961376953125,1.083240715207532,0.042294834893941875,-0.11916472408473491
1789743293566665000,11.5596650390625,1.1072330006916076,0.00043400750309228895,0.1237093817770481
1789743293576714800,11.56971484375,1.1245324374735355,-0.03166325850337744,0.333203780606389
1789743293586764800,11.579764892578124,1.2639023297190666,-0.004142506632208824,0.5718243206769228
1789743293596814800,11.58981494140625,1.126434544767812,0.31534576009362936,0.6810925046473741
1789743293606866000,11.599865966796875,0.26866620730943974,0.8251245434850454,0.5230863009929657
1789743293616915700,11.609915771484374,-2.5764672757983207,2.125267522625625,0.1470627848356962
1789743293626965800,11.6199658203125,-6.786101570862531,3.519515895657241,-0.17297990090250967
1789743293637015800,11.630015869140625,-9.04022256015539,3.8906346886381504,0.30990064643025395
1789743293647065900,11.64006591796875,-10.13889808731675,4.738722174559533,1.9362118084520101
1789743293657117000,11.650116943359375,-6.712434277105331,3.91827497523576,4.5844519425630565
1789743293667166700,11.660166748046874,-6.230737971121072,1.5675889239400624,4.295093733423948
1789743293677216800,11.670216796875,-6.300423501765728,0.006576748041808605,2.849474069595337
1789743293687266800,11.680266845703125,-5.398160189020634,-1.141443240264058,1.9967267751693725
1789743293697316900,11.69031689453125,-4.934093063229322,-1.7651888868361711,1.4993722968041896
1789743293707368000,11.700367919921876,-5.1827288013577455,-1.9135624620094893,1.4663509016901253
1789743293717417700,11.710417724609375,-6.49650721487999,-1.4690303500324486,1.8558938246339558
1789743293727467800,11.7204677734375,-8.310929795962572,0.25272885266095396,3.1455016734957693
1789743293737517800,11.730517822265625,-6.602705489885807,1.9780597763612866,4.7050516678869725
1789743293747569000,11.74056884765625,-1.069703261307627,0.6229398831471801,4.459318080940842
1789743293757619000,11.750618896484376,3.1741923459291455,-1.5217992326676846,2.152773076927662
1789743293767668700,11.760668701171875,3.789722245080769,-1.8574159196346998,0.1295826577246189
1789743293777718800,11.77071875,2.8235400023937225,-1.5268863266736268,0.26476678871810433
1789743293787768800,11.780768798828126,2.1199884131789206,-1.6381079827994107,1.409780288684368
1789743293797820000,11.79081982421875,1.886301383987814,-2.1933806893870234,2.347550383618474
1789743293807870000,11.800869873046874,2.337201423561573,-3.125390028837323,2.5558213781327006
1789743293817919700,11.810919677734375,2.319856321007013,-3.731083885890245,1.981730866089463
1789743293827969800,11.8209697265625,2.2347686385691166,-3.6778339417397974,0.9021697892427444
1789743293838020900,11.831020751953124,2.2286101159393787,-3.186808081874251,-0.21561901918947696
1789743293848071000,11.84107080078125,2.3014438814818856,-2.4052491238713265,-1.276859426447749
1789743293858121000,11.851120849609375,2.132701764279604,-1.6236583094254136,-2.060837136030197
1789743293868170800,11.861170654296876,1.7279601031601428,-1.1467702805057167,-2.498244802954793
1789743293878220800,11.871220703125,1.590242069774866,-0.8791182917401194,-2.7233745778113603
1789743293888272000,11.88127197265625,1.6774819618105887,-0.840832400226593,-2.6751743182659147
1789743293898322000,11.891322021484376,1.9311890118539332,-1.0049980032935737,-2.2863474346369506
1789743293908372000,11.9013720703125,2.404042524560541,-1.2794579185083508,-1.6986743874430656
1789743293918421800,11.911421875,2.6091385423004625,-1.4560688693895936,-0.9923352133363484
1789743293928471800,11.921471923828125,2.873875520402193,-1.5563091127738355,-0.3256938433676958
1789743293938523000,11.93152294921875,3.2512346690773963,-1.6276272130563854,0.21824644508361815
1789743293948573000,11.941572998046874,3.713473410397768,-1.6729399344667792,0.5762760393887758
1789743293958623000,11.951623046875,4.095290415264666,-1.6098402119532227,0.6614940702080726
1789743293968672800,11.9616728515625,4.299221627008914,-1.359346863259375,0.5114022929400205
1789743293978723800,11.971723876953124,4.25874114806056,-0.9202128109335899,0.1302326460659504
1789743293988774000,11.98177392578125,3.9453497369050976,-0.4109676960274577,-0.5112181685447692
1789743293998824000,11.991823974609375,3.755112996253371,-0.0015527823999524116,-1.243420098182559
1789743294008873700,12.001873779296876,3.6168779532566666,0.499055144803226,-1.9216303253918885
1789743294018923800,12.011923828125,3.0835142961382864,0.9764987617790698,-2.4217665434300897
1789743294028974800,12.021974853515625,2.8242016811728474,1.2154995333388448,-2.800315194150805
1789743294039025000,12.03202490234375,2.631838742147386,1.3457672507181764,-3.0585715780615805
1789743294049075000,12.042074951171875,2.3322692278563975,1.421404675504565,-3.120343266841769
1789743294059124700,12.052124755859374,1.9371289232969282,1.4615321032315491,-2.991516395920515
1789743294069174800,12.0621748046875,1.562290086879581,1.4860744238138197,-2.7045225778251885
1789743294079225900,12.072225830078125,1.200863982003927,1.496096636134386,-2.2152824323326348
1789743294089276000,12.08227587890625,0.8428662441417575,1.5005661827638745,-1.7539181357592344
1789743294099326000,12.092325927734375,0.5853248766325414,1.4842489619523287,-1.388849728858471
1789743294109375700,12.102375732421875,0.4061377916529774,1.4386436873361468,-1.087569026735425
1789743294119426800,12.1124267578125,0.21812150352969764,1.4363058920383454,-0.7681032641023396
1789743294129476900,12.122476806640625,0.115557639503479,1.4939882656782866,-0.39553134970366954
1789743294139527000,12.13252685546875,0.08483524204678833,1.5082722270965576,-0.016323358291387556
1789743294149577700,12.14257763671875,0.0869406168282032,1.4568524209827183,0.3778951552480459
1789743294159627800,12.152627685546875,0.0610159019768238,1.4271803362965583,0.7463584652841091
1789743294169678600,12.1626787109375,-0.06648351973295212,1.4709306306958199,1.0898451549738646
1789743294179728400,12.172728271484376,0.12375270946212112,1.53969320127666,1.4866823265790938
1789743294189778700,12.18277880859375,1.587707582861185,1.9311849202007054,2.3256126925766467
1789743294199828700,12.192828857421874,-8.177669911029934,2.167050900866091,2.0126900679767132
1789743294209879600,12.202879638671876,-30.100155784940718,1.6506752034276724,-0.16872925772070885
1789743294219929600,12.2129296875,-27.051481331515312,1.647786496248841,0.584403231742978
1789743294229979400,12.2229794921875,-4.3013785127818585,2.1569138299942017,3.556671321836114
1789743294240029700,12.23302978515625,-0.05849369002282619,2.4034511345386504,3.313245427310467
1789743294250079700,12.243079833984375,-0.1678817009806633,1.8184025906294583,2.931252189093828
1789743294260130600,12.253130615234374,0.8246160094410181,1.4101570130422711,2.8098633592188356
1789743294270180600,12.2631806640625,1.1773960126549006,1.2954185809671879,3.007362784349918
1789743294280230400,12.27323046875,1.3664549416989087,1.1938821602925658,3.5635330242991445
1789743294290280700,12.28328076171875,1.02917346332483,0.5525163936167955,3.9423476324796676
1789743294300330800,12.293330810546875,0.4837081572633236,-0.3891115457892418,4.414606248033047
1789743294310381600,12.303381591796875,0.39854514456689355,-1.0965405609592795,5.221372712528705
1789743294320431600,12.313431640625,0.5041097978442907,-1.5671312433004378,6.1743269325912
1789743294330481400,12.3234814453125,0.8849737397700548,-1.8503388208553193,7.080579022711515
1789743294340531700,12.33353173828125,1.729106935107708,-1.9872431997701525,7.411628255632519
1789743294350582500,12.34358251953125,2.2150667437553406,-1.7786790675282478,6.411938587880134
1789743294360632600,12.353632568359375,1.5892846229195594,-0.955043301296234,4.33041346860826
1789743294370682600,12.3636826171875,0.7628443937260657,0.013760814327001571,2.24791044421494
1789743294380732400,12.373732421875,0.6431717931844294,0.5027238964438439,0.6322177068412304
1789743294390782700,12.38378271484375,0.801898566198349,0.6845140035286545,-0.652161009195447
1789743294400833500,12.39383349609375,0.909918284477666,0.660029258352518,-1.6094903756022452
1789743294410883600,12.403883544921875,1.0163374356925488,0.4214057956725359,-2.2365514303326606
1789743294420933600,12.41393359375,1.1685761618614197,-0.09941402169317007,-2.450045712453127
1789743294430983400,12.4239833984375,1.2122341018021106,-0.8774953667134046,-2.318385079410672
1789743294441034500,12.434034423828125,1.234966158092022,-2.197026936934888,-2.0435960783720017
1789743294451084500,12.44408447265625,1.1738731722909956,-3.737642221492529,-1.7415794631898402
1789743294461134600,12.454134521484375,0.6587281126260757,-4.604757648488879,-1.3719184678018093
1789743294471184400,12.464184326171875,-0.08803948144819587,-4.632392674389481,-1.2387018374890089
1789743294481234400,12.474234375,-0.0008487988490611314,-4.8868540499314665,-1.150848781991005
1789743294491285500,12.484285400390625,0.0343033246833831,-5.30217468047142,-1.1021014099568127
1789743294501335600,12.49433544921875,0.07319141987375914,-4.976951377224922,-1.3175643618017434
1789743294511385600,12.504385498046876,0.05164605261776596,-4.258039429531991,-1.9031407289773226
1789743294521435400,12.514435302734375,0.10853051734566688,-3.377251158753037,-2.5336504628568886
1789743294531485400,12.5244853515625,0.4236848465204239,-2.479333181735873,-3.0779899797588586
1789743294541536500,12.53453662109375,0.8153870663899928,-1.7915195521399379,-3.4807682318508624
1789743294551586600,12.544586669921875,0.941315220195055,-1.2061094814419746,-3.793726512286067
1789743294561636600,12.55463671875,1.063704824610427,-0.7247568743288516,-3.9607203245162963
1789743294571686400,12.564686279296875,1.1330256135959178,-0.34524610057771205,-3.9964702678114175
1789743294581737500,12.574737548828125,1.1609434750258922,-0.1266027651309967,-3.96703549901247
1789743294591787500,12.58478759765625,1.3705949641130863,-0.006500760196149349,-3.873608442774415
1789743294601837600,12.594837646484375,1.4675275442540645,0.1702344015866518,-3.7484126218318936
1789743294611887600,12.6048876953125,1.398915195798874,0.3063426616877317,-3.582150631007552
1789743294621937400,12.6149375,1.329922908115387,0.33311756362766026,-3.287580824699998
1789743294631988500,12.624988525390625,1.404037945640087,0.3272378579393029,-2.8595997422903774
1789743294642038500,12.63503857421875,1.4789444258034228,0.26455460727214813,-2.344911267286539
1789743294652088600,12.645088623046876,1.3992834445893763,0.14492051210999488,-1.8298054436534643
