time,seconds_elapsed,z,y,x
1789097681247231200,0.048231201171875,0.86165131637156,-0.5954644317224621,-0.5619295341283083
1789097681257206300,0.058206298828125,0.7927963913321494,-0.5479384181767701,-0.4537938613191247
1789097681267181000,0.06818115234375,0.622453268674016,-0.4788473462939262,-0.3791274735219776
1789097681277156000,0.078156005859375,0.41891047172546386,-0.3508072418361902,-0.3422821362055838
1789097681287131400,0.08813134765625,0.30958266652226446,-0.21729601249098776,-0.3075663582637906
1789097681297106200,0.098106201171875,0.2608873169362545,-0.14444821842312813,-0.2530500474393368
1789097681307081200,0.108081298828125,0.16451193228662014,-0.12694734078496694,-0.17661708836108445
1789097681317056300,0.11805615234375,0.08017360691130161,-0.06712298668026924,-0.08276713053584098
1789097681327031000,0.128031005859375,-0.010862170276045798,-0.0008832125753164291,-0.04647723514512181
1789097681337006300,0.13800634765625,-0.05047112708687782,0.08982523235380649,-0.02824424384012818
1789097681346981400,0.1479814453125,-0.03835807996690273,0.14359598550796507,-0.026162103803828357
1789097681356956200,0.1579560546875,0.0188180977165699,0.2075809664234519,-0.06508475885093212
1789097681366931200,0.16793115234375,0.07793897972702979,0.2681128842756152,-0.07161291851066053
1789097681376906200,0.17790625,0.19871932231485842,0.2818199225887656,-0.06267470203451812
1789097681386881000,0.187881103515625,0.3318640564352274,0.3009706132605672,-0.03660480655878782
1789097681396856300,0.197856201171875,0.5080968216538428,0.3189227417975664,-0.028284648915752768
1789097681406831400,0.207831298828125,0.6740829181462525,0.3240937146946788,-0.05687916749827564
1789097681416806100,0.21780615234375,0.7243418637871741,0.33734541045576333,-0.10187895050197839
1789097681426781200,0.22778125,0.7256500237762927,0.3223036164075136,-0.19025259580798445
1789097681436756200,0.237756103515625,0.692525168287754,0.3228390384584665,-0.27461364447176456
1789097681446730200,0.247730224609375,0.6522936956644058,0.33997254408895966,-0.2952541353099048
1789097681456705300,0.257705322265625,0.6327952144682407,0.3304083046689629,-0.2835433123152703
1789097681466680300,0.267680419921875,0.6283014101803303,0.33286972634643314,-0.235795034321025
1789097681476655400,0.2776552734375,0.650931759661436,0.3640104222804308,-0.1726910740237683
1789097681486630100,0.287630126953125,0.7059773550570011,0.4054164916411042,-0.10911825410574674
1789097681496606200,0.297606201171875,0.6900380276471376,0.43593350271880627,-0.09646985800005495
1789097681506581000,0.3075810546875,0.6363257266819476,0.48166854119449853,-0.09191979348026215
1789097681516556000,0.31755615234375,0.553481439256668,0.5562757461503147,-0.03416523138694465
1789097681526531000,0.327531005859375,0.41956747432947156,0.5694549611970782,0.08723148953355848
1789097681536505900,0.337505859375,0.24483342323601245,0.5418666970476508,0.15229593624882398
1789097681546481200,0.347481201171875,0.06504559588432311,0.44886225013583897,0.02650755624063313
1789097681556456200,0.357456298828125,-0.07762041529715061,0.2142576677083969,-0.17375344255827366
1789097681566431000,0.367430908203125,-0.12088146487474441,-0.07555588398277759,-0.4027371894292533
1789097681576406000,0.377406005859375,0.09667232176959514,-0.39566199034601446,-0.5643189865481109
1789097681586381000,0.387381103515625,0.4527355844378471,-0.7623688121035694,-0.7170647123910486
1789097681596355800,0.39735595703125,0.8439268591105937,-1.0669657991677521,-0.8111613384537398
1789097681606331100,0.4073310546875,1.2106973937541246,-1.304344230222702,-0.805406574319303
1789097681616306200,0.41730615234375,1.4108049555569886,-1.5446689438626169,-0.8181109383959323
1789097681626281000,0.427281005859375,1.4227461532413959,-1.6948773332476614,-0.7956924050346016
1789097681636256000,0.437256103515625,1.1853460948765278,-1.7249565374299882,-0.7570153222464024
1789097681646231000,0.44723095703125,0.7307102297753095,-1.5499641276612877,-0.6075623908711597
1789097681656206000,0.4572060546875,0.11896306403279304,-1.3496829628571867,-0.460970767211169
1789097681666181000,0.46718115234375,-0.42400808712542054,-1.2641130498602986,-0.46136378511674697
1789097681676156200,0.47715625,-0.7411480371594429,-1.1904507245391607,-0.4309828945741057
1789097681686131000,0.487130859375,-0.89934304138422,-1.1136255512729287,-0.4076337292991578
1789097681696106000,0.49710595703125,-0.8254588900059461,-1.0675111580908299,-0.39317419211827215
1789097681706081000,0.5070810546875,-0.7113806754052638,-1.1172495869889856,-0.32058029974624513
1789097681716056000,0.51705615234375,-0.584752191311121,-1.2085717799022793,-0.29050314139053224
1789097681726031000,0.527031005859375,-0.4427770850032568,-1.2599907092332838,-0.4175190904323011
1789097681736006100,0.537006103515625,-0.26811317653656,-1.2607482496023177,-0.6577273380856961
1789097681745981000,0.54698095703125,-0.12079963181018828,-1.2876783421039582,-0.8640573545999825
1789097681755956000,0.5569560546875,-0.00988134254515171,-1.2995721935153006,-0.9858544730149209
1789097681765931000,0.566930908203125,0.11057400587201117,-1.2780781545877455,-1.0227489101700484
1789097681775906000,0.576906005859375,0.23910393967330454,-1.2785749981939791,-0.891155277949199
1789097681785881000,0.586881103515625,0.3567068212687969,-1.349551737692952,-0.6719552584677935
1789097681795856000,0.59685595703125,0.4068395101815462,-1.3882503016605972,-0.41905517742577936
1789097681805831000,0.606830810546875,0.4382020321726799,-1.3802809302166104,-0.1793286854073405
1789097681815805000,0.616804931640625,0.46428573697805403,-1.3693860267147422,-0.05858838256895542
1789097681825780000,0.626780029296875,0.5033043266803026,-1.347698218780756,-0.06437920439746231
1789097681835755000,0.636755126953125,0.4552870224863291,-1.259129123967886,-0.023072540290653705
1789097681845730000,0.64672998046875,0.3595271393865347,-1.1438853727191687,-0.00460910123065114
1789097681855705000,0.656705078125,0.22272622084617613,-1.0661866314888,-0.07339446816518902
1789097681865680000,0.666679931640625,0.10354688371419905,-0.9988795204132794,-0.1609750268647447
1789097681875655000,0.676655029296875,0.03232756763100624,-0.9305193931534885,-0.2701147256173193
1789097681885630200,0.686630126953125,0.03075111209452152,-0.8469903383344412,-0.3434153780192137
1789097681895605000,0.69660498046875,0.04108779719173908,-0.7354927878767251,-0.34252138832155615
1789097681905580000,0.706580078125,0.04975099611878395,-0.581932165454328,-0.30218641879111524
1789097681915555000,0.71655517578125,0.04641337612867355,-0.45407443182617424,-0.24699907683730124
1789097681925529900,0.72652978515625,-0.014691373175382614,-0.32608342720717187,-0.17207842201814055
1789097681935505000,0.7365048828125,-0.15146540370881556,-0.2230047455266118,-0.08058167625553905
1789097681945480200,0.746480224609375,-0.31671675618588924,-0.11017419289946555,-0.03196297210231423
1789097681955455000,0.756455078125,-0.42321489092111586,-0.025774200464785096,-0.08918550967816263
1789097681965430000,0.766429931640625,-0.49837856071591374,-0.03271627468764782,-0.19049473400078712
1789097681975405000,0.776405029296875,-0.4826958384156227,0.030999241636693476,-0.3269549128120765
1789097681985379800,0.7863798828125,-0.375461206099391,0.0755120448410511,-0.3908817703321576
1789097681995355100,0.796355224609375,-0.1778676729440689,0.07787205197066069,-0.42584852736033496
1789097682005330200,0.806330078125,0.0035427871733903884,0.11571575267463922,-0.4553013798052445
1789097682015305000,0.816304931640625,0.12897007878422737,0.15353227311074732,-0.4561380498250946
1789097682025280000,0.826280029296875,0.26068741044998167,0.1690942916408181,-0.499167446071282
1789097682035255000,0.836255126953125,0.3825549637526274,0.19676935729086398,-0.5321634144831449
1789097682045229800,0.846229736328125,0.4834107086867094,0.20130992332994938,-0.5581675147136673
1789097682055205000,0.856205078125,0.5232897146105766,0.23813246429264545,-0.5727142187213525
1789097682065180200,0.86618017578125,0.5183014048039913,0.2788137265101075,-0.5744834568835795
1789097682075155000,0.876155029296875,0.4499526757210493,0.31026714165508745,-0.5068725040232762
1789097682085130000,0.8861298828125,0.3801537478297949,0.3548562249660492,-0.46874180307146157
1789097682095105000,0.89610498046875,0.28078385753929613,0.4024032812997699,-0.5013373374562711
1789097682105080000,0.906080078125,0.22487901496589183,0.4213075959950685,-0.5478112116005271
1789097682115055000,0.91605517578125,0.220413852250576,0.43555356349050994,-0.5780671605892479
1789097682125030100,0.926030029296875,0.1837234132349491,0.4427727010890841,-0.5461442282363772
1789097682135005000,0.9360048828125,0.15014029258489608,0.4318175918325782,-0.48142165376134216
1789097682144980000,0.94597998046875,0.13407412392497062,0.4577887761741876,-0.39150180192664263
1789097682154955000,0.955955078125,0.14420622636079788,0.46171910136044025,-0.29774766915868967
1789097682164930000,0.965929931640625,0.20545535257160663,0.4657952647581696,-0.2614068838309496
1789097682174905000,0.975905029296875,0.20608663621246814,0.4496124839812517,-0.1566247227007523
1789097682184880000,0.985880126953125,0.12619009267687797,0.42092882581055163,-0.05834189699459821
1789097682194855000,0.99585498046875,0.026270167288184165,0.4417772603109479,0.03259294056892395
1789097682204829000,1.005828857421875,-0.04658288747668266,0.4824214053884148,0.07861965546756983
1789097682214804000,1.015803955078125,-0.15175941821932792,0.4962710670426488,0.10609313413091004
1789097682224779000,1.025779052734375,-0.23071488151252267,0.4971165779560804,0.15078816203437745
1789097682234754000,1.035754150390625,-0.22999065889120102,0.5178647669523954,0.1968180187381804
1789097682244729000,1.04572900390625,-0.1542605873852968,0.5078142053201794,0.22687764143720268
1789097682254703900,1.055703857421875,-0.0628764351516962,0.46612814997434615,0.2779415467854589
1789097682264679000,1.065678955078125,0.033653847798705096,0.38426293671429157,0.3096127693995833
1789097682274654000,1.075654052734375,-0.003003273469209671,0.36307781760543584,0.3770730252102017
1789097682284629000,1.08562890625,-0.12664718879461287,0.42185120135247706,0.460683474702388
1789097682294604000,1.09560400390625,-0.2617617616832256,0.4312868459567427,0.5026543383389711
1789097682304579000,1.1055791015625,-0.33260523019134997,0.4067635223358869,0.4471646524377167
1789097682314553900,1.115553955078125,-0.37124738779664035,0.3877040170788765,0.4212441023048013
1789097682324529000,1.12552880859375,-0.31667642417550085,0.33274814579337836,0.3443781586367637
1789097682334504200,1.135504150390625,-0.19727672229111193,0.2865340916290879,0.29348296091891823
1789097682344479000,1.14547900390625,-0.02291851877272129,0.24857027167677878,0.2965523584268987
1789097682354454000,1.1554541015625,0.10900105746686457,0.204669462890923,0.2949386396199465
1789097682364429000,1.165428955078125,0.19205343468487263,0.2070882144704461,0.2755392348840833
1789097682374403800,1.17540380859375,0.2000707369238138,0.21551351298838853,0.27581600599884987
1789097682384379000,1.18537890625,0.1488105052858591,0.20309213057160377,0.29065760129988194
1789097682394354200,1.195354248046875,0.035974984222650525,0.2171957669869065,0.2483374127689749
1789097682404329000,1.205328857421875,-0.057254503616690634,0.23503362149447202,0.1933250620558858
1789097682414304000,1.215303955078125,-0.099954996702075,0.20560206756591795,0.08918145455755293
1789097682424279000,1.225279052734375,-0.09419862513244151,0.13106149810552598,-0.082008494188264
1789097682434253800,1.23525390625,0.020216858598589897,0.03604454232752323,-0.31972967426627874
1789097682444229000,1.24522900390625,0.2407487842708826,-0.06451514226943254,-0.5151826151963323
1789097682454204200,1.2552041015625,0.4444195915132761,-0.16402853268384932,-0.6045311699490994
1789097682464179000,1.265178955078125,0.6773650085568428,-0.22585282843410967,-0.6251019565518945
1789097682474154000,1.275154052734375,0.8594780639857054,-0.24451427428424358,-0.6124443542264402
1789097682484129000,1.28512890625,0.8894166906535625,-0.2408677344754338,-0.5699402604959904
1789097682494103300,1.295103271484375,0.7366489721745252,-0.25559768609553574,-0.47944794253557915
1789097682504078000,1.305078125,0.4671551549345255,-0.19658347932994363,-0.4033065868150443
1789097682514053400,1.315053466796875,0.15564356617629527,-0.12673486707806586,-0.3269563375841826
1789097682524028400,1.3250283203125,-0.09435118534564971,-0.05745441010296344,-0.2606280814781785
1789097682534003200,1.335003173828125,-0.2924620203733444,-0.04143997163027525,-0.22217881609648465
1789097682543978200,1.344978271484375,-0.382242244541645,0.004835165071487427,-0.21125132549926637
1789097682553953300,1.354953369140625,-0.3671586571782827,0.02913374002575874,-0.21214827433899044
1789097682563928000,1.364927978515625,-0.3315460765272379,0.007249532736837864,-0.222810391998291
1789097682573902000,1.374902099609375,-0.256069102999568,-0.005077157133817673,-0.24435038895942268
1789097682583877400,1.38487744140625,-0.21695231361985207,-0.03318418446034193,-0.287203003866598
1789097682593852200,1.39485205078125,-0.14838497335016726,-0.09831073662638663,-0.3865219676874578
1789097682603827200,1.4048271484375,-0.08098258520662784,-0.2033010971471667,-0.49492681282684203
1789097682613802200,1.41480224609375,0.01032791726887226,-0.3034340807646513,-0.581188726675883
1789097682623777000,1.424777099609375,0.16982114461064338,-0.39454789162427184,-0.6346735755607485
1789097682633752300,1.43475244140625,0.36722295458614823,-0.5204395858764648,-0.651953796185553
1789097682643727400,1.444727294921875,0.5113660525828599,-0.6562193446755409,-0.6012962066158652
1789097682653702100,1.4547021484375,0.6984235786765813,-0.7826978989049792,-0.4960862850602716
1789097682663677200,1.46467724609375,0.792362676090002,-0.8716492710337043,-0.3933127968713641
1789097682673652200,1.47465234375,0.8236158924877643,-0.9421125080525875,-0.2661437761597335
1789097682683627000,1.484626953125,0.8039303642868996,-0.9648261519029736,-0.1391824068494141
1789097682693602300,1.494602294921875,0.7052472872167825,-0.9322688671693206,-0.030296280999109148
1789097682703577300,1.504577392578125,0.4923369424641132,-0.8965779605850577,0.008326587383821606
1789097682713552100,1.51455224609375,0.2547743870139122,-0.834338362032175,0.03936827992275357
1789097682723527200,1.524527099609375,0.07578969273865223,-0.7222568742066622,0.031968451995030046
1789097682733502200,1.534502197265625,-0.07545768430531025,-0.6528223957136273,-0.06004997955411672
1789097682743477200,1.544477294921875,-0.16740239303112028,-0.6434799823507666,-0.14891498857364058
1789097682753452300,1.554452392578125,-0.19606033223867414,-0.6429407609075307,-0.20372918636612594
1789097682763427300,1.56442724609375,-0.1903466307669878,-0.6480363304808735,-0.2271612806841731
1789097682773402000,1.574402099609375,-0.17237141361534594,-0.6924032954737543,-0.23146928007639944
1789097682783377200,1.584377197265625,-0.110255441442132,-0.7504422274664044,-0.2178175521470606
1789097682793352200,1.594352294921875,-0.0644365240752697,-0.8270438211098313,-0.16076880023553966
1789097682803327200,1.6043271484375,-0.09546996024250984,-0.8678434490099549,-0.09279591872766614
1789097682813302300,1.61430224609375,-0.13418050690889358,-0.8745724650040269,-0.028451749110966918
1789097682823277300,1.62427734375,-0.20777531995177267,-0.8669520531281828,-0.005073723067715764
1789097682833252000,1.634252197265625,-0.29140228218734265,-0.8339213056638837,0.036586832510679956
1789097682843227100,1.64422705078125,-0.3418652259677648,-0.8068614493027328,0.06866627059951425
1789097682853202400,1.654202392578125,-0.41818975623548027,-0.8195742158815265,0.12117854812517762
1789097682863177200,1.66417724609375,-0.45090486187934875,-0.8606170048877596,0.1695884318333119
1789097682873152300,1.67415234375,-0.39638007548749443,-0.8684954831779003,0.2493704090785235
1789097682883127300,1.684127197265625,-0.33713702840209003,-0.8548065650433302,0.3490854595448822
1789097682893102000,1.69410205078125,-0.2545610365241766,-0.8549860132634639,0.38861652881391345
1789097682903077000,1.7040771484375,-0.22002280710637567,-0.8415569151088594,0.44006117710806425
1789097682913052400,1.714052490234375,-0.21324878292679786,-0.777640323254466,0.481812187448889
1789097682923027200,1.724027099609375,-0.24162089093029498,-0.7082555291220546,0.4595917339429259
1789097682933002200,1.734002197265625,-0.315282923990488,-0.6545186782374978,0.38542401638291773
1789097682942976300,1.743976318359375,-0.3637660921305418,-0.6173366563126444,0.24895298738405108
1789097682952951300,1.753951416015625,-0.3827934486836195,-0.5644643133029341,0.1855662646226585
1789097682962926000,1.763926025390625,-0.3572895895928144,-0.5530459704488515,0.199317361273244
1789097682972901400,1.7739013671875,-0.27291970003545285,-0.5607891319215297,0.2690316796209663
1789097682982876400,1.78387646484375,-0.1226332769781351,-0.5831926869094372,0.3735541303690523
1789097682992851200,1.793851318359375,0.0612163929849863,-0.6011766718894243,0.42570794984586535
1789097683002826200,1.803826171875,0.17495090871453284,-0.5724199484825134,0.4715637651570141
1789097683012801300,1.81380126953125,0.22181319765448568,-0.5429527387186884,0.43722909548729655
1789097683022776000,1.823776123046875,0.20836568706035613,-0.5010577167972922,0.4007826943606138
1789097683032751400,1.83375146484375,0.1933878981590271,-0.46233168030083177,0.32447160809636116
1789097683042726400,1.843726318359375,0.18487959753274916,-0.42102147253006694,0.2551629479400813
1789097683052701200,1.853701171875,0.1695025801807642,-0.44558425137847657,0.21582506315559147
1789097683062676200,1.86367626953125,0.2243050144702196,-0.45150779620856046,0.21595117375329134
1789097683072651300,1.8736513671875,0.30920857251286504,-0.4763377015605569,0.20662724589519202
1789097683082626300,1.883626220703125,0.44932840634286403,-0.5071656782835722,0.19688523875549435
1789097683092601300,1.893601318359375,0.6263596284627914,-0.5147615402400494,0.181354565211758
1789097683102576000,1.903576171875,0.783500155198574,-0.5945297812208533,0.16663944583460688
1789097683112551200,1.91355126953125,0.9249322406709194,-0.6690472620666027,0.19040259873792528
1789097683122526200,1.923526123046875,0.9528168574184179,-0.7019692884594202,0.24603498104549942
1789097683132501200,1.933501220703125,0.9636094695895909,-0.6882087663933635,0.34283816265314815
1789097683142476300,1.943476318359375,0.8743179057210684,-0.6609452041536569,0.39497305823378265
1789097683152451300,1.953451416015625,0.7398638425678015,-0.5485583036407828,0.44648448815383013
1789097683162426000,1.963426025390625,0.5194295320510864,-0.4438528975412249,0.48098976515009995
1789097683172401200,1.973401123046875,0.22132629092037676,-0.33682109432071444,0.4851332946956157
1789097683182376200,1.983376220703125,-0.026871640312671658,-0.20621698459386825,0.483504159123823
1789097683192351200,1.993351318359375,-0.19192542439103125,-0.12816402309834957,0.4770407352633774
1789097683202326300,2.003326171875,-0.28073534222245217,-0.07541209159791469,0.4906815034072846
1789097683212301300,2.01330126953125,-0.28536183297932144,-0.017836685463786126,0.5050254513844847
1789097683222276000,2.023276123046875,-0.26759470562040805,-0.0394245401546359,0.5271460247125477
1789097683232251100,2.033251220703125,-0.27082360453903676,-0.048180385801196095,0.573581539607793
1789097683242226200,2.04322607421875,-0.2325999646067619,-0.009534428803622721,0.5899626194357872
1789097683252201200,2.053201171875,-0.18249591726660727,-0.009018003714084625,0.5820814377319068
1789097683262176300,2.06317626953125,-0.1644388670504093,0.032949791182577605,0.5513948422409594
1789097683272151300,2.0731513671875,-0.16063772120177744,0.0662707537651062,0.5594893744345754
1789097683282126000,2.0831259765625,-0.15141747291386126,0.05133855757117271,0.5591974788159132
1789097683292101000,2.09310107421875,-0.14185937097370624,0.05291062919348478,0.5410743045609444
1789097683302075100,2.1030751953125,-0.10628829137682914,0.060062254513800144,0.5297727930195629
1789097683312050400,2.113050537109375,-0.07226034956872462,0.06596271072924137,0.5625215086720884
1789097683322025200,2.123025146484375,-0.08205167574286461,0.07854922057986259,0.6024673692870884
1789097683332000300,2.133000244140625,-0.11948211947083473,0.11897533899247646,0.6466051286339759
1789097683341975300,2.142975341796875,-0.16037293278574943,0.18922990169674156,0.692438878243789
1789097683351950000,2.1529501953125,-0.21141221514940262,0.2268967845290899,0.6846751854397356
1789097683361925000,2.162925048828125,-0.2704465879201889,0.2729302214294672,0.6634021688517183
1789097683371900400,2.172900390625,-0.24465046788454053,0.2996887567564845,0.6298042890239507
1789097683381875200,2.182875244140625,-0.2245277173101902,0.3435661846667528,0.5814196128223091
1789097683391850200,2.192850341796875,-0.18153554780185222,0.3847811153694987,0.5268208113461732
1789097683401825300,2.2028251953125,-0.14101064518988132,0.3934498672544956,0.47836847673580046
1789097683411800000,2.212800048828125,-0.1354910049855709,0.44142683943808075,0.4810162147656083
1789097683421775400,2.222775390625,-0.12992577207386494,0.46194005063474175,0.5091902429137378
1789097683431750400,2.23275048828125,-0.1827121903657913,0.4463227947860956,0.5014725812084972
1789097683441725200,2.24272509765625,-0.23124796547591686,0.4675894546985626,0.5112845848444849
1789097683451700200,2.2527001953125,-0.2101531549990177,0.508704724419117,0.5212382619734853
1789097683461675300,2.26267529296875,-0.15239888516664504,0.5224810285761952,0.4820114363480359
1789097683471650000,2.272650146484375,-0.09891162512898445,0.5525619863241911,0.4261728639438748
1789097683481625300,2.282625244140625,-0.046020577418804165,0.5559615656346082,0.3458049765694886
1789097683491601000,2.292600830078125,-0.0019043723165988922,0.5449070876568556,0.25257709616534413
1789097683501576000,2.302575927734375,0.021389409509301183,0.5492527156457304,0.20001644945330915
1789097683511551000,2.312551025390625,0.029328970336914062,0.5913605035349726,0.1429846486765891
1789097683521525800,2.32252587890625,0.0054512511432170865,0.6139581197902559,0.04266344901062548
1789097683531501000,2.3325009765625,0.023358663755655287,0.6364487685397267,-0.02976480447091162
1789097683541476000,2.34247607421875,0.03712064712643623,0.6789227593928575,-0.04297193043790758
1789097683551451000,2.352450927734375,0.07930442286133765,0.6844505829036236,-0.08501213298365473
1789097683561426000,2.362426025390625,0.13836977529227734,0.6947621335595846,-0.12782733848989009
1789097683571401000,2.37240087890625,0.13709902470409868,0.6968222809597849,-0.19193389995843171
1789097683581376000,2.3823759765625,0.09983575423657894,0.704556382343173,-0.22841055009290576
1789097683591351000,2.39235107421875,0.004516016119718551,0.7347028065428137,-0.31199856855757535
1789097683601326000,2.402326171875,-0.06768120508491993,0.8030164643123745,-0.34155418725721537
1789097683611300900,2.41230078125,-0.14789689757227897,0.8611249544098972,-0.3023386867433786
1789097683621276000,2.42227587890625,-0.24603636928498743,0.9055828125566243,-0.27572905836775896
1789097683631251000,2.4322509765625,-0.314967866691947,0.9198024765670298,-0.25868374247737225
1789097683641226000,2.44222607421875,-0.3702998778134584,0.9762097157046198,-0.2568820998828858
1789097683651201000,2.452200927734375,-0.36862288451194763,1.00525665422976,-0.24831768515519798
1789097683661175000,2.462175048828125,-0.3076046444475651,1.0319333564922213,-0.23799941249750553
1789097683671150000,2.472150146484375,-0.26175883907377717,1.0634542839154602,-0.19934717188961804
1789097683681124900,2.482124755859375,-0.2624666950821876,1.096976029767096,-0.10906849667988718
1789097683691100000,2.492099853515625,-0.3124018155962229,1.15155693026036,-0.0037624212734401223
1789097683701075200,2.5020751953125,-0.3529553597807884,1.2220388719797133,0.08220701243504881
1789097683711050000,2.512050048828125,-0.4131353954553604,1.2502975827366114,0.08440525313168763
1789097683721025000,2.52202490234375,-0.43125791212320325,1.2865513839006424,0.061804568136483426
1789097683731000000,2.532,-0.3812807060331106,1.296967856235802,0.07309241647869348
1789097683740974800,2.541974853515625,-0.3129717244386673,1.2713929777354,0.07526954132206738
1789097683750950000,2.551949951171875,-0.1874094082713127,1.2508622308820485,0.05485354342218488
1789097683760925000,2.561925048828125,-0.0385860435038805,1.23624713781327,0.03357406056076288
1789097683770900000,2.57189990234375,0.08385024959743022,1.191927226832509,-0.023092669763229785
1789097683780875000,2.581875,0.1424362940788269,1.1421382367908954,-0.051064051478728646
1789097683790850000,2.59185009765625,0.20291092878580091,1.1257710393577813,-0.009296090003103018
1789097683800824800,2.601824951171875,0.2529945178598165,1.1266373007982968,0.032171719482168556
1789097683810800000,2.611800048828125,0.2420084289431572,1.135493684209883,0.033192952288687225
1789097683820775000,2.62177490234375,0.15004676908254622,1.1603186211258172,0.045222157050110394
1789097683830750000,2.63175,0.08157529040277003,1.229348318210244,0.0845278931306675
1789097683840725000,2.64172509765625,0.0710024584621191,1.331345634394884,0.07760905365291983
1789097683850699800,2.65169970703125,0.07709493011832237,1.3681181987360118,0.03331752851642668
1789097683860674800,2.6616748046875,0.02313888352513313,1.3489414968401192,0.0002411152794957161
1789097683870650000,2.671650146484375,-0.015744681620597837,1.269653148330748,-0.05543978234492242
1789097683880625000,2.681625,0.012611644291877746,1.1486360743775963,-0.06944982219263911
1789097683890600000,2.691599853515625,0.11113456236422062,1.0236655866235493,-0.10148286385647952
1789097683900575000,2.701574951171875,0.22120003419220446,0.934910613849759,-0.12279655951475724
1789097683910549800,2.7115498046875,0.3735211779475212,0.8544239954665303,-0.1663433124322444
1789097683920525000,2.721525146484375,0.46257542592883105,0.6793076670572161,-0.263139516309835
1789097683930500000,2.7315,0.4471118993371725,0.5067208571255207,-0.3195035373602062
1789097683940475000,2.741474853515625,0.3584761690288782,0.34742402913868425,-0.30488364025214687
1789097683950450000,2.751449951171875,0.26304069557785986,0.13531418711394072,-0.24725615687090902
1789097683960425000,2.761425048828125,0.18606033174991607,-0.08608838391304016,-0.18359554907158016
1789097683970400000,2.77139990234375,0.14930734889209268,-0.3077212565645575,-0.1398287601952441
1789097683980375000,2.781375,0.11953940261602401,-0.4760664834037423,-0.12069723088163882
1789097683990350000,2.79135009765625,0.16076514697372912,-0.6008782734647393,-0.1500212510487996
1789097684000324900,2.801324951171875,0.21279987011551857,-0.7198126959249377,-0.24782873259447513
1789097684010299000,2.811298828125,0.2721908012390137,-0.8121230230927466,-0.4131725856605917
1789097684020274000,2.82127392578125,0.37380467106401916,-0.891782250741124,-0.5600643247783184
1789097684030249000,2.8312490234375,0.3907575594305992,-0.8950979511603713,-0.6754607823707163
1789097684040224000,2.84122412109375,0.32763328699767585,-0.8659422915637492,-0.7561011300109326
1789097684050199000,2.851198974609375,0.24522037672698496,-0.8515098615854978,-0.8577695065021514
1789097684060174000,2.861174072265625,0.16370470755696295,-0.8782216351613402,-0.9185049841023981
1789097684070148900,2.87114892578125,0.08184183238446711,-0.8853057482033967,-0.963756769105792
1789097684080124000,2.8811240234375,-0.006555412992835044,-0.8825818761974573,-1.0172561579726636
1789097684090099000,2.891098876953125,-0.05055179110765457,-0.9121715432971715,-1.0820302434392273
1789097684100074000,2.901073974609375,-0.06713409259617328,-0.922146701605618,-1.0910809803791344
1789097684110049000,2.911049072265625,-0.06001520050168037,-0.9007648908808827,-1.0430424872666597
1789097684120024000,2.921024169921875,-0.056908466657996176,-0.8595838624477385,-0.9567998626399785
1789097684129998800,2.930998779296875,-0.06292202785909176,-0.8123056861832737,-0.9354665672320872
1789097684139974000,2.940973876953125,-0.08303425703942775,-0.7500710560664534,-0.8963965396035463
1789097684149949200,2.95094921875,-0.07802490444481372,-0.7417161924362182,-0.9627549716521054
1789097684159924000,2.960924072265625,-0.07003039855957031,-0.7138117019444704,-1.0276209731858224
1789097684169899000,2.97089892578125,-0.07630231843590736,-0.6685533410698175,-1.1332885023158044
1789097684179874000,2.9808740234375,-0.05903963346779346,-0.6049933075681329,-1.1948876840732992
1789097684189848800,2.990848876953125,-0.05589549022316932,-0.5171460972890257,-1.1658804930366575
1789097684199824100,3.00082421875,-0.0942255131393671,-0.41060500019490714,-1.113532100835815
1789097684209799200,3.010799072265625,-0.18661562754511832,-0.3221437496706843,-1.0755881546277553
1789097684219774000,3.02077392578125,-0.28649931257665157,-0.2641346282944083,-1.0109860647272317
1789097684229749000,3.0307490234375,-0.45023792240321636,-0.1837429947182536,-0.8759173037417233
1789097684239724000,3.04072412109375,-0.6317477512419224,-0.10308277333378792,-0.737448086662963
1789097684249698800,3.05069873046875,-0.7939888159871101,-0.03621200784891843,-0.6015466377129778
1789097684259674000,3.060674072265625,-0.9581874445408582,0.06581804156154394,-0.47182402352839703
1789097684269649200,3.070649169921875,-1.099006951072812,0.14292787698805332,-0.33777379193566737
1789097684279624000,3.0806240234375,-1.2107798113405703,0.21854045959413052,-0.2884438342405483
1789097684289599000,3.090598876953125,-1.2836235137552021,0.2577545718684792,-0.24833580533377825
1789097684299574000,3.100573974609375,-1.3326748371720314,0.2976812163263559,-0.19550324634518473
1789097684309549000,3.110549072265625,-1.3059820605576038,0.31373014159053564,-0.17890344573259354
1789097684319524000,3.120524169921875,-1.219215631252527,0.33884090971052644,-0.1565010232558474
1789097684329499000,3.130498779296875,-1.0983791745632887,0.3554699729502201,-0.1713247541066259
1789097684339474000,3.140473876953125,-0.997259810256958,0.3668216803088784,-0.18984288249593226
1789097684349449000,3.150448974609375,-0.8941109859496355,0.38161855968534947,-0.1363038557384163
1789097684359423000,3.160423095703125,-0.7974830878436565,0.41979105395227667,-0.08477134649772196
1789097684369397800,3.170397705078125,-0.7344400639533997,0.4377984198078513,-0.01690813590940088
1789097684379373000,3.180373046875,-0.6551689588397741,0.46206952223330733,0.02972275542747229
1789097684389348000,3.19034814453125,-0.6003413901090622,0.4940832016095519,0.10702489855568856
1789097684399323000,3.200322998046875,-0.48085517898499963,0.5284834838613868,0.1896789241058752
1789097684409298000,3.2102978515625,-0.34769407825171944,0.5414201223239302,0.19917046361584215
1789097684419273000,3.22027294921875,-0.20406126786470413,0.5415592385336756,0.16150811082813887
1789097684429248000,3.230248046875,-0.09989186833798885,0.6010097908899188,0.15375968865845352
1789097684439223000,3.24022314453125,-0.03561725682616233,0.7083277175754308,0.13532178589850663
1789097684449198000,3.250197998046875,-0.004462824627757072,0.8262371809020638,0.17819558972418306
1789097684459172900,3.2601728515625,-0.017054595175385476,0.9831447756648063,0.2860707849662751
1789097684469148000,3.27014794921875,-0.08459434596300125,1.0864654494076966,0.34514779130239037
1789097684479123000,3.280123046875,-0.16399112328290938,1.2120590374961495,0.40628450664728877
1789097684489098000,3.290097900390625,-0.27965163863897324,1.2972013727307319,0.4441560817388817
1789097684499073000,3.300072998046875,-0.35282150426805015,1.3819038552433252,0.4334032170562073
1789097684509048000,3.310048095703125,-0.36329730557501316,1.4417287938699126,0.36054526692051436
1789097684519023000,3.320023193359375,-0.2770458400547504,1.4581915606319904,0.2628756777418777
1789097684528998100,3.329998046875,-0.1701467233031988,1.4743351784422993,0.17710399509519337
1789097684538973200,3.33997314453125,0.031174305942654607,1.4511705759540199,0.12456322212740778
1789097684548948000,3.349947998046875,0.24297815075814722,1.4286404719769954,0.12850074423942714
1789097684558923000,3.359923095703125,0.4679851760178804,1.4112094447046517,0.16326693719420582
1789097684568898300,3.369898193359375,0.6213385854303837,1.3580425026625393,0.14843440198246388
1789097684578873000,3.379873046875,0.7642173625797033,1.3084557571947575,0.1531316564206034
1789097684588848000,3.38984814453125,0.8752198229968547,1.3023048333495855,0.15160393539667127
1789097684598823200,3.3998232421875,0.9508218842089176,1.2800982622385024,0.16112828119769693
1789097684608798000,3.4097978515625,1.0039175145804882,1.3036881044015287,0.19017025128677487
1789097684618773000,3.41977294921875,1.0026011712849139,1.4287807572305202,0.36888328901380296
1789097684628748300,3.429748291015625,0.9282096549063921,1.6425222921103237,0.5698745017834007
1789097684638723000,3.43972314453125,0.7035726320028305,1.6514225146636365,0.58064636342749
1789097684648698000,3.449697998046875,0.5026753811269998,1.553594885379076,0.5142622124157845
1789097684658673200,3.459673095703125,0.38577334127724167,1.4644108735382555,0.4180605768978595
1789097684668648000,3.46964794921875,0.38909050300121306,1.344611358681321,0.2787146500498056
1789097684678623200,3.479623291015625,0.49970308731794355,1.1291267795264721,0.053669411671534176
1789097684688598300,3.489598388671875,0.6519464896619319,0.8333259701192378,-0.20908596415892242
1789097684698573000,3.499572998046875,0.9109855483829975,0.5120934900745749,-0.45184659970887003
1789097684708548000,3.509548095703125,1.2134902393430471,0.19606413163095712,-0.6316382264528423
1789097684718522000,3.519522216796875,1.4448866733789443,-0.01634673916697502,-0.741508175708726
1789097684728497200,3.5294970703125,1.5162369223654268,-0.15221856016367674,-0.7856859017398208
1789097684738472000,3.539471923828125,1.4830501075565814,-0.29025954189300535,-0.7489974354855716
1789097684748447200,3.549447265625,1.308887134349346,-0.458468867392838,-0.6450305727936327
1789097684758422000,3.559422119140625,0.9873527487486601,-0.6069038173645734,-0.5077276230152696
1789097684768397000,3.56939697265625,0.6199591137707233,-0.7527487508431077,-0.3304392112638801
1789097684778372000,3.5793720703125,0.2796738504707813,-0.8736874988630413,-0.12618037500046192
1789097684788347000,3.589346923828125,-0.05824409917593002,-0.9597232758060097,0.046848406545072795
1789097684798322200,3.599322265625,-0.3379676340073347,-1.0123355065748094,0.1811499825503677
1789097684808297200,3.609297119140625,-0.5564426271498203,-1.0660770336344838,0.17196524396725
1789097684818272000,3.61927197265625,-0.6477355939686298,-1.0953440446510911,0.07357713125571608
1789097684828247000,3.6292470703125,-0.7237965048640966,-1.1346598637342453,-0.0551891685847193
1789097684838222000,3.63922216796875,-0.8010708832025527,-1.1765125078186391,-0.17539836022108793
1789097684848196900,3.64919677734375,-0.813000974971056,-1.2219783739641308,-0.19033778987340627
1789097684858172200,3.659172119140625,-0.8578004861623049,-1.293081370191276,-0.19250490477941928
1789097684868147200,3.669147216796875,-0.9013847763448953,-1.3405962778210638,-0.14910948823243378
1789097684878122000,3.6791220703125,-0.9845002819269895,-1.4570041044130921,-0.1685482020653784
1789097684888097000,3.689096923828125,-1.0927490597218275,-1.5739800862818956,-0.19501067705526948
1789097684898072000,3.699072021484375,-1.1576584620058537,-1.656884287200868,-0.27025530313178897
1789097684908047000,3.709047119140625,-1.2282488325357437,-1.7202932217940687,-0.2988658960662782
1789097684918022100,3.719022216796875,-1.2241554257422684,-1.7494354373872278,-0.36172435716986656
1789097684927997200,3.7289970703125,-1.1280372307240962,-1.7678695042222736,-0.4336033792708069
1789097684937972000,3.738971923828125,-0.9768839617043733,-1.7764301195576786,-0.5680599997073411
1789097684947947000,3.748947021484375,-0.7635960158109665,-1.7298960396587848,-0.7583291813239454
1789097684957922300,3.75892236328125,-0.5238415032744408,-1.6310647862896321,-0.9699442255690693
1789097684967897000,3.76889697265625,-0.31323885094225407,-1.5242901727005838,-1.1666238587498665
1789097684977872100,3.7788720703125,-0.1553723480194807,-1.44619103397578,-1.2665136812612414
1789097684987847200,3.78884716796875,-0.08918167375326157,-1.3810399318903683,-1.3014341879948972
1789097684997822000,3.798822021484375,-0.02774608505964279,-1.2806629103839398,-1.2883384134478866
1789097685007797000,3.808796875,-0.004869651862978935,-1.2073399000197649,-1.24747945657596
1789097685017772300,3.818772216796875,0.009388006070256232,-1.1150734119936823,-1.1626243407849222
1789097685027747000,3.8287470703125,0.006701543465256691,-0.9798618084713816,-1.0567946068305523
1789097685037722000,3.83872216796875,0.02433715339899063,-0.8511693775847554,-0.9767728294800967
1789097685047697200,3.848697265625,0.02977788314819336,-0.7279936642929912,-0.9329068728119134
1789097685057672000,3.858671875,0.04760989243686199,-0.5819166756242513,-0.8702949338153004
1789097685067646000,3.86864599609375,0.08642273043394089,-0.4447390327259898,-0.8241822941988706
1789097685077621000,3.87862109375,0.0997416462123394,-0.31843466601967807,-0.8507668611984699
1789097685087596300,3.88859619140625,0.07873100688755512,-0.20458938339203595,-0.866416996403411
1789097685097571000,3.898571044921875,0.08174889340400696,-0.09489128357172012,-0.8799640949144959
1789097685107546000,3.908546142578125,0.09426175349652767,0.04327507810294628,-0.9468000082816929
1789097685117521200,3.918521240234375,0.14318623566329478,0.16406535756289958,-1.0287768652226776
1789097685127496000,3.928495849609375,0.21435060668885705,0.25636604011952874,-1.0796250819936395
1789097685137471200,3.93847119140625,0.2620318107962608,0.3188856246575713,-1.0595350646451116
1789097685147446300,3.9484462890625,0.31724691753983497,0.36705344323813915,-0.9975126159742475
1789097685157421000,3.958421142578125,0.34050855066180225,0.4186927373215556,-0.9391330538503825
1789097685167396000,3.96839599609375,0.3923948052436113,0.48906566570848226,-0.832963858808577
1789097685177371100,3.97837109375,0.42208208749890325,0.5507470458567142,-0.7743217002257704
1789097685187346200,3.98834619140625,0.4704115263819694,0.6020376726329326,-0.7342325586825609
1789097685197321200,3.9983212890625,0.5488303985804319,0.6662775050923228,-0.7453781490098684
1789097685207296300,4.008296142578125,0.6598100626438855,0.7133493451297283,-0.8113933936439454
1789097685217271000,4.01827099609375,0.7924760733366012,0.763753544460237,-0.8485816991791129
1789097685227246000,4.02824609375,0.862569015738368,0.8141364087417722,-0.9469022996123879
1789097685237221000,4.03822119140625,0.9552017067283392,0.8569953072592615,-1.014894397277385
1789097685247196200,4.048196044921875,1.0548749638795851,0.8477896720185876,-1.0228452832166104
1789097685257171200,4.058171142578125,1.1448130089581012,0.8708543212637305,-0.9978193438358605
1789097685267146000,4.06814599609375,1.213363398092985,0.8479065763965249,-0.9824140502374619
1789097685277121000,4.07812109375,1.2027169163942337,0.8131038508236408,-1.0230531538136303
1789097685287096000,4.088095947265625,1.1296657087087631,0.8217647116631269,-1.0881281949881463
1789097685297071000,4.098071044921875,1.0470184051603078,0.8557721952050924,-1.1406725481525062
1789097685307046100,4.108046142578125,0.9629647419452667,0.8791156613916158,-1.1512857121035456
1789097685317021200,4.118021240234375,0.876451995140314,0.9088432756572962,-1.1336333702307193
1789097685326996000,4.127995849609375,0.7260100892603397,1.0325503193467855,-0.9761570356693118
1789097685336971000,4.137970947265625,0.5333242018908262,1.209568389724195,-0.6671288612246513
1789097685346946000,4.147946044921875,0.3039379386335611,1.2875862799063325,-0.4771519405528903
1789097685356921000,4.157921142578125,0.1378051271468401,1.109304619333893,-0.5007353164425119
1789097685366896000,4.167896240234375,0.08453355568647385,0.8544910693533718,-0.6869998289950191
1789097685376871200,4.17787109375,0.20375439387261865,0.7599335477806627,-0.7664461445450782
1789097685386846000,4.187845947265625,0.4755535654455423,0.6872279386624693,-0.838787961852178
1789097685396821000,4.197821044921875,0.728504828685522,0.4442563637755811,-1.0379301857542247
1789097685406795000,4.207794921875,0.8893301814138889,0.11416267801374197,-1.3563063265196977
1789097685416770300,4.217770263671875,1.0801619653493166,-0.2115411022260785,-1.6341631906963885
1789097685426745000,4.2277451171875,1.2546709755152463,-0.5406051526792347,-1.832052199666947
1789097685436720000,4.23772021484375,1.3867244072675704,-0.8182209015764296,-1.8614653411559758
1789097685446695200,4.247695068359375,1.447401286548376,-1.0113369970567523,-1.7946679331682622
1789097685456670000,4.257669921875,1.4251672429084776,-1.2147096981354057,-1.6923983759135006
1789097685466645000,4.26764501953125,1.3367460321336984,-1.3947479931168258,-1.6342837483361363
1789097685476620300,4.277620361328125,1.2020862172752618,-1.574654040020704,-1.5799540461249648
1789097685486595000,4.287594970703125,0.9952607453942298,-1.7581093038387596,-1.55844554028064
1789097685496570000,4.297570068359375,0.8474000881791114,-1.9154661036737262,-1.5531091476887464
1789097685506545200,4.307545166015625,0.7433487620741128,-2.036806564362347,-1.6096850213915108
1789097685516520000,4.31752001953125,0.5921925704449414,-2.1316157226085664,-1.7715498001702128
1789097685526495000,4.327494873046875,0.4682815286159515,-2.2457250629998744,-2.0114824457526206
1789097685536470000,4.337469970703125,0.31407997794151304,-2.3608082168594002,-2.2316877698190507
1789097685546445000,4.347445068359375,0.14578969615995882,-2.429929683880508,-2.4608190354019404
1789097685556420000,4.357420166015625,-0.004245967006683349,-2.4915853450655936,-2.701148132956028
1789097685566395100,4.36739501953125,-0.07052958025336264,-2.531079443325102,-2.953085542978346
1789097685576370000,4.377369873046875,-0.10863339319825172,-2.5854119220152496,-3.1272765732362866
1789097685586345000,4.387344970703125,-0.1909907738894224,-2.686039411151409,-3.1308392341539264
1789097685596320000,4.397320068359375,-0.37910336199402805,-2.881830863320827,-3.017590748375654
1789097685606295000,4.407294921875,-0.5592378108263015,-3.0656138977885243,-2.7734102360904216
1789097685616270000,4.41727001953125,-0.7038146240651607,-3.1254245156288145,-2.555699797579646
1789097685626245000,4.4272451171875,-0.8156459365218878,-3.1204756610497832,-2.413161212170124
1789097685636220000,4.437219970703125,-0.8683961144566535,-3.0395737398639318,-2.327353691025078
1789097685646195000,4.44719482421875,-0.8852958113312721,-2.8603005840361115,-2.35876195185408
1789097685656170200,4.457170166015625,-0.8839367979377508,-2.5853490859121084,-2.4290944021001457
1789097685666145000,4.46714501953125,-0.8942997865200042,-2.2844673199787735,-2.5030299914047123
1789097685676120000,4.4771201171875,-0.9429185637384653,-2.0151481286533177,-2.5533023810490962
1789097685686095000,4.48709521484375,-1.0392162069767712,-1.758194059512764,-2.547432027710974
1789097685696070000,4.49706982421875,-1.110857547864318,-1.591430110515654,-2.509596802574396
1789097685706045000,4.507044921875,-1.1245774456590414,-1.4038425691984593,-2.412601824721694
1789097685716020200,4.517020263671875,-1.0613602342456578,-1.207118512354046,-2.344399372241646
1789097685725995000,4.5269951171875,-0.9977402872502803,-1.0561102047629654,-2.2727600771807133
1789097685735970000,4.536969970703125,-0.9171008163928985,-0.9711793203219771,-2.252273461730033
1789097685745945000,4.546945068359375,-0.8359341067910194,-0.9364512674205004,-2.1804861365005372
1789097685755920000,4.556919921875,-0.7647720738530158,-0.8867831272795796,-2.0900003944113847
1789097685765894000,4.566893798828125,-0.6830839707255363,-0.8268931605927645,-2.0028975727587937
1789097685775869200,4.576869140625,-0.5774579426497221,-0.7772394873686135,-1.941273475755751
1789097685785844000,4.586843994140625,-0.3876636850684881,-0.7432841724053025,-1.9350135385781526
1789097685795819000,4.596819091796875,-0.16501520563364028,-0.7478583484530449,-1.9197408583834765
1789097685805794000,4.6067939453125,0.08862988508939743,-0.7825691579587757,-1.9021454343296587
1789097685815768800,4.616768798828125,0.3323375191658735,-0.8229255721360444,-1.8737702575862407
1789097685825744000,4.626743896484375,0.5599228704810142,-0.8863568646915256,-1.7945142039112745
1789097685835719200,4.63671923828125,0.7249228785455226,-0.9406607018090783,-1.7038802855230868
1789097685845694000,4.64669384765625,0.9557225157320499,-0.9974860202282667,-1.547642552845925
1789097685855669000,4.6566689453125,1.182313010790944,-1.042371310006827,-1.359431472802907
1789097685865644000,4.66664404296875,1.3939140265107155,-1.0423762784428894,-1.1529564217947423
1789097685875618800,4.676618896484375,1.5972113242655992,-1.0050538251340388,-0.978902608050406
1789097685885594000,4.686593994140625,1.7179776383280754,-0.9437379172973335,-0.8788420320820063
1789097685895569200,4.696569091796875,1.7383984950661657,-0.8440357263125479,-0.8561906398128718
1789097685905544000,4.7065439453125,1.6041759025812148,-0.7393876033581793,-0.8647970670513808
1789097685915519000,4.71651904296875,1.3745108223825693,-0.627139965185523,-0.8314039160154759
1789097685925494000,4.726493896484375,1.1049065305054186,-0.45355493799671526,-0.7140391540247947
1789097685935468800,4.73646875,0.8833031762093305,-0.25824761608242985,-0.5929707152105868
1789097685945444000,4.746444091796875,0.7164408814042806,-0.11424699529632926,-0.5439180766195059
1789097685955419100,4.756419189453125,0.547198413464427,0.08056216783747076,-0.480888935124129
1789097685965394000,4.766393798828125,0.4560860639095306,0.2540000416405499,-0.44969943161234255
1789097685975369000,4.776368896484375,0.36369828759133815,0.3537824582546949,-0.4606920964002609
1789097685985344000,4.786343994140625,0.28994974529147144,0.4010492363423109,-0.47771636950261887
1789097685995319000,4.796319091796875,0.2812719333171844,0.4180937485150993,-0.4590383378438651
1789097686005294000,4.806294189453125,0.2874778022199869,0.3676818042695522,-0.42842729180715977
1789097686015269000,4.81626904296875,0.29166707060337066,0.3717728729754686,-0.34464586966224015
1789097686025244000,4.826243896484375,0.3072241206973791,0.4135346239060163,-0.2497580201566219
1789097686035219000,4.836218994140625,0.3535854743778705,0.42433191225230693,-0.25064755287487056
1789097686045194000,4.846194091796875,0.4347153591006994,0.44429640352502464,-0.24577731649000195
1789097686055169000,4.8561689453125,0.5227244819432497,0.4912814420618117,-0.23543825677260755
1789097686065144000,4.86614404296875,0.5677998874664306,0.4997124396681785,-0.23715010219179092
1789097686075119000,4.876119140625,0.5878168395787478,0.45553412911519403,-0.28141835605055093
1789097686085094000,4.886093994140625,0.6299404095590114,0.45409810496270653,-0.36497904811687765
1789097686095069000,4.89606884765625,0.7237246086716651,0.47051557127833366,-0.4631617013841867
1789097686105043000,4.90604296875,0.837710468813777,0.4774953471630811,-0.571411648222804
1789097686115018200,4.916018310546875,0.9363742566615343,0.46131548899561164,-0.7041886450093239
1789097686124993000,4.925992919921875,1.0703466737776994,0.45865226113572716,-0.8667222629602997
1789097686134968000,4.935968017578125,1.1474369277209042,0.4583974095918238,-1.015442021222785
1789097686144943000,4.945943115234375,1.1443927377194165,0.41253976764976974,-1.1180717900920658
1789097686154918000,4.95591796875,1.1274766742318867,0.334054259955883,-1.1671347308814526
1789097686164893000,4.965892822265625,1.048957848790288,0.3040010669976473,-1.1794736957117915
1789097686174868200,4.9758681640625,0.8790694841623305,0.36061128136143084,-1.0289502490282059
1789097686184843000,4.985843017578125,0.5818927102267741,0.5570701113983988,-0.7056124672673643
1789097686194818000,4.995818115234375,0.33963819756805896,0.8030947902455925,-0.34574440548866986
1789097686204793000,5.00579296875,0.09411503850221634,0.9175057439319789,-0.10372077897638082
1789097686214767900,5.015767822265625,-0.1337082132220268,0.9498542082205415,-0.012870441358536482
1789097686224743200,5.0257431640625,-0.18122165954709052,0.9735255911871791,-0.049809156046807766
1789097686234718200,5.03571826171875,-0.184493813085556,0.6092685006693005,-0.5783968309350311
1789097686244693000,5.04569287109375,0.04172258796393871,0.19320465054661035,-1.1909475681453943
1789097686254668000,5.05566796875,0.6006657997578382,-0.2687164031267166,-1.9580616750799118
1789097686264643000,5.06564306640625,1.3485966289252043,-0.7913552526131272,-2.527211369720101
1789097686274617900,5.075617919921875,2.0937667612075805,-1.2353341146215795,-2.788618326616287
1789097686284593200,5.08559326171875,2.7557465691059826,-1.6578759285867213,-2.8951246446579693
1789097686294568000,5.09556787109375,2.9691940894752737,-2.2088468463271855,-2.7921529304832218
1789097686304543000,5.10554296875,2.743494405776262,-2.650478852948546,-2.3591188024677336
1789097686314518000,5.11551806640625,2.0119465561330316,-2.8349922475174067,-1.6064537843853235
1789097686324493000,5.1254931640625,0.9685463414698838,-2.8044892649650572,-0.9895729090161621
1789097686334468000,5.135468017578125,-0.07289864747226238,-2.746440103839338,-0.7562605583563446
1789097686344443100,5.145443115234375,-1.0385381615847349,-2.5966505243882536,-0.6663027856640518
1789097686354418000,5.15541796875,-1.810135697543621,-2.305770220248401,-0.6036513914398849
1789097686364393000,5.16539306640625,-2.3698317735314367,-1.9860773708611725,-0.6220080091245472
1789097686374368000,5.175367919921875,-2.76451732006073,-1.7108450099691748,-0.6912089711226522
1789097686384342800,5.1853427734375,-2.947949641394615,-1.5543603167936204,-0.8128365781895815
1789097686394318000,5.195318115234375,-2.989087707468867,-1.488947933423519,-0.949845732653141
1789097686404293000,5.205293212890625,-2.87568987634778,-1.495078106741607,-0.9619561494246125
1789097686414268000,5.215267822265625,-2.6298604278117415,-1.5389289389058947,-0.9463390397064387
1789097686424243000,5.225242919921875,-2.206546168169379,-1.6606167517274617,-0.9646151395007967
1789097686434218000,5.235218017578125,-1.7194307597458363,-1.8274173794731496,-0.8957486701540648
1789097686444192000,5.24519189453125,-1.2375924149423836,-2.071262376193702,-0.8478269352890551
1789097686454167000,5.2551669921875,-0.7948585845589637,-2.141972281450033,-0.6308187998287379
1789097686464142000,5.26514208984375,-0.34816987906992436,-2.107113441775739,-0.4201534575238824
1789097686474117000,5.2751171875,0.025219196930527685,-2.1018740798175335,-0.29203283517584205
1789097686484092000,5.285091796875,0.23072540290653704,-2.051002847497165,-0.13341960553899407
1789097686494066700,5.295066650390625,0.3212579067468643,-1.9508853537097572,0.04089519722908735
1789097686504041700,5.305041748046875,0.3742658588349819,-1.740218403969705,0.2121886063493788
1789097686514017800,5.315017822265625,0.36256139251589775,-1.4528613055199384,0.2687859612315893
1789097686523992800,5.324992919921875,0.24213936184644697,-1.2131611535191535,0.196642516040802
1789097686533967600,5.334967529296875,0.06412205129861831,-0.931132264354825,0.1356583243764937
1789097686543942700,5.344942626953125,-0.06971066508591174,-0.688580814576149,0.07023541961237788
1789097686553918000,5.35491796875,-0.12470423803329467,-0.48423020837604996,-0.0023863106146454808
1789097686563892700,5.364892822265625,-0.108494861510396,-0.27201807502061126,-0.10560089363455771
1789097686573866800,5.37486669921875,0.04087210861444473,-0.031543431515991684,-0.22399667917340993
1789097686583841800,5.384841796875,0.23468378514349458,0.18529080868214368,-0.30814912658780813
1789097686593816800,5.39481689453125,0.4466799376606941,0.34974224295318124,-0.41805239359140395
1789097686603791600,5.40479150390625,0.6327537134140729,0.5034370131492615,-0.45400297402516004
1789097686613766700,5.4147666015625,0.798142428535223,0.6134124686062336,-0.5165595295727252
1789097686623742000,5.424741943359375,0.8343605738639831,0.6740843794509768,-0.6040843760296702
1789097686633716700,5.434716796875,0.7999065155982971,0.756994717849791,-0.6181251763418316
1789097686643691800,5.44469189453125,0.6882482216209173,0.7966776166796684,-0.5806298506841063
1789097686653666800,5.454666748046875,0.5201204369246959,0.8549252229869365,-0.4998258369147777
1789097686663641600,5.4646416015625,0.37067397182285783,0.9327797393009066,-0.3557122572734952
1789097686673617000,5.474616943359375,0.25581600502133367,0.989736429014802,-0.2235321304015815
1789097686683592000,5.484592041015625,0.1239098727852106,0.9960507267281412,-0.1010344625018537
1789097686693566700,5.494566650390625,0.02495850016772747,0.9850207986697554,0.032580957870185376
1789097686703541800,5.504541748046875,-0.060841129931807514,0.9987883349984884,0.1024386302113533
1789097686713516800,5.514516845703125,-0.1047825629889965,0.9991691510096192,0.19638108862563966
1789097686723491600,5.52449169921875,-0.10975041452944279,1.0166361263781785,0.2898499381788075
1789097686733467000,5.534466796875,-0.08272036878466606,1.0529340589448808,0.35148251074925063
1789097686743442000,5.54444189453125,-0.04506605317294597,1.068169037477672,0.4696329432249069
1789097686753416700,5.554416748046875,0.03151566672623157,1.0428189076438545,0.5066936768576502
1789097686763391700,5.564391845703125,0.13767945494055747,1.01111297904253,0.4412576203510165
1789097686773366800,5.57436669921875,0.34772798052132126,0.9611538931310176,0.2713561039805412
1789097686783341800,5.584341796875,0.6725742671489715,0.8870157669916748,0.03333776758685708
1789097686793316900,5.59431689453125,1.0659230121165513,0.7946925803422927,-0.21768764215707778
1789097686803292000,5.6042919921875,1.4284849891543387,0.6567687952518463,-0.35649843921512364
1789097686813266700,5.6142666015625,1.695519722804427,0.5410828531935811,-0.3994717578925192
1789097686823241700,5.62424169921875,1.8899609294086694,0.40140594082549214,-0.4449861393548548
1789097686833216800,5.634216796875,1.9461457579672334,0.20984555035457014,-0.506263176485896
1789097686843191800,5.64419189453125,1.8683377111434936,0.071459554579854,-0.5297112720906734
1789097686853166800,5.654166748046875,1.7431021427124738,-0.0025524609617888928,-0.5532178198844194
1789097686863142000,5.664141845703125,1.4813988332182169,0.0951248000666499,-0.4700486844189465
1789097686873116700,5.67411669921875,1.1384878975898027,0.3526388411775231,-0.3761621939755976
1789097686883091700,5.684091796875,0.738070529410243,0.5406522066913545,-0.4924829268060624
1789097686893065700,5.694065673828125,0.37160511519312855,0.4510584450058639,-0.8350799741797149
1789097686903040800,5.704040771484375,0.10290624772310257,0.40407662133947014,-1.1901270455427466
1789097686913015800,5.714015869140625,0.05160100789964199,0.4030255048513412,-1.5148784934937953
1789097686922990800,5.723990966796875,0.1744289306670427,0.23285803102105854,-1.824361060642451
1789097686932965600,5.733965576171875,0.379649889960885,-0.07165069323778152,-2.0747234764330087
1789097686942940700,5.743940673828125,0.6450263350099324,-0.5352843960478901,-2.249641213530302
1789097686952915700,5.753915771484375,0.9159633367955684,-0.9997592258572577,-2.3196875403113664
1789097686962890800,5.763890869140625,1.1662655468314886,-1.41096555294618,-2.356380025153607
1789097686972865800,5.77386572265625,1.3653174621015787,-1.7409158847145736,-2.3140694081686437
1789097686982840800,5.7838408203125,1.45263451102674,-2.0317681318037213,-2.167950187793374
1789097686992815600,5.793815673828125,1.391978674533963,-2.1819320975251495,-1.9383552502214907
1789097687002790700,5.803790771484375,1.2099492057353258,-2.192087580836564,-1.741772063152492
1789097687012766000,5.813765869140625,0.9003045798927545,-2.202529333743453,-1.6685756017774342
1789097687022740700,5.82374072265625,0.5197065954267979,-2.2547075570091604,-1.7426587828591464
1789097687032715800,5.8337158203125,0.2077870103895664,-2.2854303197920323,-1.8653990273430943
1789097687042690800,5.84369091796875,-0.0083306059718132,-2.290567536550015,-1.9280102356873452
1789097687052665600,5.85366552734375,-0.15951368560791016,-2.226217521714419,-1.9808948536567388
1789097687062640600,5.863640625,-0.28961773685812947,-2.1313930197685957,-1.9906150142908094
1789097687072616000,5.873615966796875,-0.4001274453222751,-2.0786483947917818,-1.9746394465237855
1789097687082590700,5.8835908203125,-0.5145230553090572,-2.0371217677913607,-1.9224629768237471
1789097687092565800,5.893565673828125,-0.6825789438128471,-2.010200296987593,-1.7965470249131321
1789097687102540800,5.903540771484375,-0.8213613915592431,-1.9660040123865008,-1.643755048775673
1789097687112515600,5.913515625,-0.9362216964483261,-1.9268956985741852,-1.4587866039156914
1789097687122491000,5.923490966796875,-0.9462047458022832,-1.8486469222456217,-1.257635086017847
1789097687132466000,5.9334658203125,-0.9127297617018222,-1.7609104788646102,-1.0507168943520635
1789097687142440700,5.943440673828125,-0.8953694615781307,-1.6484506592459975,-0.875657264566049
1789097687152415700,5.953415771484375,-0.9110656278818845,-1.4742184201948343,-0.672696066897735
1789097687162390800,5.963390869140625,-1.019898927566409,-1.2234396786883472,-0.49602688302323217
1789097687172364800,5.97336474609375,-1.1424468643486498,-0.9332800900384783,-0.3500814848449081
1789097687182339600,5.983339599609375,-1.3169529519051313,-0.6229601952828466,-0.24171244167126713
1789097687192315000,5.99331494140625,-1.5024299308091402,-0.34811040396764875,-0.14813625928610563
1789097687202290000,6.0032900390625,-1.6160037030190229,-0.07556757442057133,-0.01501249488852918
1789097687212264700,6.0132646484375,-1.6812883683562279,0.17583850520402192,0.09433401501514017
1789097687222239700,6.02323974609375,-1.6957424256443976,0.4189974193565547,0.16086093549840152
1789097687232214800,6.03321484375,-1.6044897908359765,0.6087782329343259,0.18305917717255651
1789097687242189800,6.04318994140625,-1.4388555765211581,0.7809560236737132,0.2013080236338079
1789097687252164900,6.053164794921875,-1.1799515423566103,0.8761781466349959,0.22448292832039296
1789097687262140000,6.063139892578125,-0.9001017507970333,0.9338488298371433,0.12251140416413545
1789097687272114700,6.07311474609375,-0.653318947058916,1.083068792706728,0.06571618862226605
1789097687282089700,6.08308984375,-0.4430985720425844,1.2045214815981686,0.08070530263520777
1789097687292064800,6.093064697265625,-0.289428351765871,1.2344415496960282,0.18777539203949273
1789097687302039800,6.103039794921875,-0.22609423597455022,1.1451596304386853,0.3929487127993256
1789097687312014800,6.113014892578125,-0.2171989818572998,1.028590621935576,0.6892023805405945
1789097687321990000,6.122989990234375,-0.23422610450387,0.9504239709325134,0.9833235662978141
1789097687331964700,6.132964599609375,-0.2440735447794199,0.9424839717134833,1.2641183105573057
1789097687341939700,6.142939697265625,-0.2300654776930809,0.998299528568238,1.5032541066735983
1789097687351915000,6.1529150390625,-0.1912093850761652,1.128616930308193,1.671334545096755
1789097687361889800,6.162889892578125,-0.09023381315469742,1.2216828981488943,1.7748340825378894
1789097687371864800,6.17286474609375,0.051176645007729525,1.366588797211647,1.7933856382727622
1789097687381840000,6.18283984375,0.20021803644001482,1.5558941022321582,1.8082390701420603
1789097687391814700,6.192814697265625,0.20803426314890383,1.7075005218468606,1.92596367842108
1789097687401789700,6.202789794921875,0.14942016161680222,1.7896604802697895,2.000135852960497
1789097687411764700,6.2127646484375,0.03798164786994457,1.803542875149846,2.082307940212637
1789097687421739800,6.22273974609375,-0.03736848440766334,1.8183238263048231,2.1539298457473515
1789097687431714800,6.23271484375,-0.05157470441460609,1.8483295268595217,2.115614435878396
1789097687441689900,6.24268994140625,0.011645429608225821,1.856570408721268,2.0636799582406877
1789097687451664600,6.25266455078125,0.15064531949758528,1.7902929329544304,1.885056498493254
1789097687461640000,6.262639892578125,0.39003567489683627,1.6891211078085004,1.5691387837305664
1789097687471614700,6.27261474609375,0.691193627423048,1.695995231361687,1.3274854518353938
1789097687481589800,6.28258984375,1.0268027156054973,1.6387820826686919,1.1064635506890714
1789097687491564800,6.292564697265625,1.4099404476821422,1.4756317941240966,0.888833922329545
1789097687501540400,6.302540283203125,1.7907237255871296,1.3603341207310558,0.8461828213438392
1789097687511515400,6.312515380859375,2.058688433563709,1.3137505026020109,0.9698667764186859
1789097687521489400,6.322489501953125,2.1315771441638467,1.2449740496262907,1.1505078595988452
1789097687531464400,6.33246435546875,2.043895938101411,1.0974193896204232,1.284270141095668
1789097687541439200,6.342439208984375,2.0024147576779128,1.002486458864063,1.2737993082247674
1789097687551414300,6.352414306640625,2.0152309846311804,0.8634905144974588,1.1394875761516392
1789097687561389600,6.3623896484375,2.0456734691679475,0.7240022565692663,0.9304504195705056
1789097687571364400,6.3723642578125,2.1330676749825477,0.5256207879066467,0.6456536731280386
1789097687581339400,6.38233935546875,2.185550141891837,0.21317790964767336,0.30150705822482704
1789097687591314400,6.392314453125,2.207382034471631,-0.18100787066593765,0.039084640675783155
1789097687601289200,6.402289306640625,2.1988521065354347,-0.5592664523988962,-0.13819719520434737
1789097687611264500,6.412264404296875,2.035484668108821,-0.815459912430495,-0.1874357117563486
1789097687621239300,6.4222392578125,1.8622247812211512,-0.9468418746620416,-0.13199892508611083
1789097687631214300,6.43221435546875,1.58036891053617,-1.0667894196875394,-0.07391045486330985
1789097687641189400,6.442189453125,1.0999129600018263,-1.1599176391094923,0.0943064694210887
1789097687651164400,6.452164306640625,0.48924599071145053,-1.2402493591919541,0.2801902755603194
1789097687661139200,6.46213916015625,-0.1442407131522894,-1.2540803161457181,0.4392999104119837
1789097687671114500,6.472114501953125,-0.7358610366672277,-1.2563925386108457,0.498415385594964
1789097687681089300,6.48208935546875,-1.155197624850273,-1.2311245341025292,0.46691403965502976
1789097687691064300,6.492064208984375,-1.4189724799215793,-1.182467909091711,0.3721002052336931
1789097687701039400,6.502039306640625,-1.5347808793157338,-1.1229942681208251,0.24971140453591942
1789097687711014100,6.51201416015625,-1.55168466784358,-1.1340291646152734,0.09385171139091253
1789097687720989400,6.521989501953125,-1.4389105215787887,-1.1893427632972597,-0.06995704106241464
1789097687730964500,6.531964599609375,-1.2048498367697,-1.2534025630146264,-0.1567880600363016
1789097687740939300,6.541939208984375,-0.9131862732976674,-1.3292165134117007,-0.17953166063353418
1789097687750914300,6.551914306640625,-0.6393383525013924,-1.4506228789433837,-0.2518453478246927
1789097687760889300,6.561889404296875,-0.41367140202820296,-1.5852505450978873,-0.33984351088181136
1789097687770864000,6.571864013671875,-0.20124562592208384,-1.7368883827641606,-0.4018957701690495
1789097687780839400,6.58183935546875,-0.019852701461315153,-1.8341987101763486,-0.40706250528246163
1789097687790814500,6.591814453125,0.10814414837658405,-1.9079224102959036,-0.40008616346381604
1789097687800789200,6.601789306640625,0.1962584851592779,-1.920281248870492,-0.40260830235257744
1789097687810764300,6.611764404296875,0.2654354817599058,-1.8440049416586755,-0.4169909018397331
1789097687820739300,6.6217392578125,0.2837006217688322,-1.7696654477283358,-0.4728901914551854
1789097687830714400,6.63171435546875,0.18219781110286712,-1.7156521179899573,-0.5615415577240288
1789097687840689400,6.641689453125,-0.04274900840222835,-1.6231854312166571,-0.6884741393312811
1789097687850664400,6.65166455078125,-0.288467982301116,-1.456530641682446,-0.7877250063519925
1789097687860639200,6.66163916015625,-0.47558512962758537,-1.2120453012317418,-0.860105913560465
1789097687870614300,6.6716142578125,-0.608721095919609,-1.0208476065933705,-0.9182927295912057
1789097687880588300,6.68158837890625,-0.7267284666627645,-0.8961761017858981,-0.9827324685368687
1789097687890563300,6.691563232421875,-0.8431751639604568,-0.76816785377115,-0.9735616854138672
1789097687900538400,6.701538330078125,-0.955961000663042,-0.6247311504781246,-0.9467050965398549
1789097687910513400,6.711513427734375,-0.9603168577849864,-0.47008244055807585,-0.9557385170187801
1789097687920488400,6.721488525390625,-1.000415059417486,-0.3196253371089697,-0.979053049371764
1789097687930463200,6.731463134765625,-0.9979127212077379,-0.16697744561731814,-1.0075202883128076
1789097687940438300,6.741438232421875,-0.9519465043246745,-0.015222411312162875,-1.0626895831532777
1789097687950413600,6.75141357421875,-0.8829314202874898,0.10524258171617984,-1.114593665652722
1789097687960388400,6.761388427734375,-0.7846037325263023,0.20587328572273253,-1.1900677165709435
1789097687970363400,6.77136328125,-0.6157441264241933,0.2967199700787663,-1.3015291728019713
1789097687980338400,6.78133837890625,-0.44475686064362524,0.3853887258738279,-1.373918409447372
1789097687990313200,6.791313232421875,-0.36009003396630285,0.4621387880772352,-1.4031731455042957
1789097688000288300,6.801288330078125,-0.3187520614057779,0.4972597858190536,-1.3796148675233124
1789097688010263600,6.811263671875,-0.30109540868401524,0.518811107891798,-1.348382693913579
1789097688020238300,6.82123828125,-0.32946050242483615,0.5772320249393582,-1.3203345571674405
1789097688030213400,6.83121337890625,-0.3449199373632669,0.6543310467109084,-1.2666668259963392
1789097688040188400,6.8411884765625,-0.3575689910560846,0.7093263732239603,-1.21116296543926
1789097688050163200,6.8511630859375,-0.3451233509808779,0.733445207697153,-1.1522906513623892
1789097688060138500,6.861138427734375,-0.2651514041215181,0.7662143816158175,-1.0802218788430094
1789097688070113500,6.871113525390625,-0.1419219148159027,0.7860819883853196,-1.033119205275923
1789097688080088300,6.88108837890625,-0.0013970073163509368,0.8031082342490553,-0.9958579075697809
1789097688090063400,6.8910634765625,0.13668752129375933,0.8068047506794332,-1.050188559629023
1789097688100038400,6.901038330078125,0.2469832947462797,0.8412330899819731,-1.1299501516733317
1789097688110013200,6.91101318359375,0.3176157508522272,0.8675234232753515,-1.2497482782907783
1789097688119988500,6.920988525390625,0.37961131151616573,0.9376222108960152,-1.4243658633977174
1789097688129963500,6.930963623046875,0.4948147307544946,1.048526763896644,-1.4960753010854124
1789097688139938300,6.940938232421875,0.5799427452027798,1.2498252890497445,-1.4263795413076876
1789097688149913300,6.950913330078125,0.602225304159522,1.435405728328228,-1.3498717634275554
1789097688159888400,6.960888427734375,0.5030044669508934,1.4252254028365015,-1.4238196276918054
1789097688169863400,6.970863525390625,0.36748365134894845,1.2450541291251778,-1.5437956681594251
1789097688179838500,6.98083837890625,0.2898305028259754,1.0437889217197895,-1.6472449367180466
1789097688189813200,6.990813232421875,0.2931593549877405,0.8979241144970059,-1.7191583725452422
1789097688199788300,7.000788330078125,0.3277940305173397,0.6619453211069106,-1.8251947349876165
1789097688209762300,7.01076220703125,0.39126609347462654,0.32693361429572104,-1.884325261609256
1789097688219737300,7.0207373046875,0.5805909799784421,-0.043245267486572266,-1.9588228687107563
1789097688229712100,7.030712158203125,0.9661538933753967,-0.3882984758406877,-1.9159774141967296
1789097688239687400,7.0406875,1.364652860713005,-0.6926261444441973,-1.8332881712026894
1789097688249662500,7.050662353515625,1.6744149754554032,-0.8815931574210524,-1.623756216841936
1789097688259637200,7.06063720703125,1.8653519733309745,-0.9923840209141374,-1.3776177023567258
1789097688269612300,7.0706123046875,1.9044401211380957,-1.0661002683795988,-1.1294669712662697
1789097688279587300,7.08058740234375,1.7369722616553305,-1.1588659380994737,-0.9288119316484779
1789097688289562400,7.090562255859375,1.4214771562188864,-1.253276598547399,-0.7885527624130249
1789097688299537400,7.100537353515625,1.072822123980522,-1.3178892098419368,-0.6666340634450316
1789097688309512400,7.110512451171875,0.7477209858089685,-1.3573999669753014,-0.6120508248642087
1789097688319487200,7.1204873046875,0.4461135359495878,-1.3812763709947466,-0.55294148716107
1789097688329462300,7.130462158203125,0.25292963593006135,-1.4403477147750556,-0.5922701657257974
1789097688339437300,7.140437255859375,0.12285013459920882,-1.5101288147486744,-0.6279375453040004
1789097688349412400,7.150412353515625,0.05594926623702049,-1.5131557613544164,-0.6314801863469183
1789097688359387400,7.160387451171875,0.05507599053382873,-1.4517119893543422,-0.6992436628878116
1789097688369362400,7.170362548828125,-0.012009586745500563,-1.4026666572868822,-0.7037528108753264
1789097688379337200,7.180337158203125,-0.11979425415992737,-1.338029203812033,-0.6504774400226772
1789097688389312300,7.190312255859375,-0.19157354221343992,-1.3236185472741722,-0.5476110859185457
1789097688399287600,7.20028759765625,-0.32385318393707274,-1.3401346516586838,-0.40127968409731984
1789097688409262300,7.210262451171875,-0.4633814816147089,-1.3026757124885915,-0.23556655932739376
1789097688419237400,7.2202373046875,-0.6250538065612316,-1.2799249514982103,-0.006192424899339676
1789097688429212400,7.23021240234375,-0.7805804683595895,-1.2300948987938463,0.22961846457794308
1789097688439187200,7.240187255859375,-0.88958912461102,-1.125458612407744,0.45289515891373155
1789097688449162200,7.250162353515625,-0.991233974096179,-0.9648401804283261,0.6314112127639353
1789097688459137500,7.260137451171875,-1.1267127041220664,-0.8044520500734448,0.8125935632139444
1789097688469112300,7.2701123046875,-1.2068997550368308,-0.6121024089209735,0.9681607031531632
1789097688479087400,7.28008740234375,-1.263864335796237,-0.3779438166953623,1.1109117622695863
1789097688489062400,7.2900625,-1.3072189088761805,-0.17500044694468378,1.1062051920138298
1789097688499036700,7.30003662109375,-1.3329688516825438,0.0038829789131879806,1.0982105399981141
1789097688509011700,7.31001171875,-1.3592507094085216,0.1656931048952043,1.0926673727877438
1789097688518986800,7.31998681640625,-1.3706722671329974,0.3223394183732569,1.062514372716844
1789097688528961500,7.32996142578125,-1.361993286114931,0.4375947139292955,1.0402258224107324
1789097688538936600,7.3399365234375,-1.3031810316622257,0.5174640771970153,1.0576407753311097
1789097688548911900,7.349911865234375,-1.2214093419045209,0.5799569198586046,1.1673194397985935
1789097688558886700,7.35988671875,-1.1166945834547282,0.6294399126909673,1.2824490631483494
1789097688568860700,7.369860595703125,-0.9779238261461257,0.6920100583724678,1.3640456886000931
1789097688578835700,7.379835693359375,-0.89801909930408,0.7282550917081534,1.5163937203623354
1789097688588810800,7.389810791015625,-0.8798708636730909,0.762004070444405,1.6491833574347197
1789097688598785500,7.39978564453125,-0.9071393943488597,0.843202928750217,1.8151485572695731
1789097688608760800,7.4097607421875,-0.981500515589118,0.884374604833126,1.926547323527932
1789097688618735900,7.41973583984375,-1.0280383948802947,0.9202122264117002,2.039082108078897
1789097688628710700,7.429710693359375,-1.031961705803871,0.9837241829879582,2.158997942791879
1789097688638685700,7.439685791015625,-0.9948124171048403,1.1063082139968872,2.230153107597679
1789097688648660700,7.44966064453125,-0.8654156373411417,1.2375573436290026,2.201135395167023
1789097688658635500,7.459635498046875,-0.7392559398025274,1.2481754760161041,2.1410127887681125
1789097688668610800,7.46961083984375,-0.5968576396465302,1.1839340361215174,2.0850825194925067
1789097688678585900,7.4795859375,-0.3566290798574686,1.1192407608062027,2.0572065244428814
1789097688688560600,7.489560546875,-0.04959375973045826,1.1092360841423272,2.02403081554994
1789097688698535700,7.49953564453125,0.2898521301358938,1.1040380771078169,1.8796962866343556
1789097688708510700,7.5095107421875,0.5668903714060783,1.0774980068370699,1.6293898388147354
1789097688718485800,7.51948583984375,0.8340168749928474,1.010668304014951,1.378433256523311
1789097688728460800,7.529460693359375,1.0503250454902648,0.9486568151295185,1.183604658036679
1789097688738435800,7.539435791015625,1.2648568539649248,0.9723803666748105,1.028930229153484
1789097688748410600,7.54941064453125,1.4393196869015692,1.0653308914422988,0.955148953627795
1789097688758385700,7.5593857421875,1.5599533144950866,1.2307593540519475,1.007525622075051
1789097688768360700,7.569360595703125,1.599050814652443,1.3663994121193885,1.0899565063938499
1789097688778335700,7.579335693359375,1.634511419612169,1.3750783931374548,1.0663860995836556
1789097688788310800,7.589310791015625,1.6065537376284598,1.254025955609977,0.9965526849009096
1789097688798285800,7.599285888671875,1.6155997983932495,1.1114854705043136,0.8817492247655987
1789097688808260600,7.609260498046875,1.5937188059747218,0.9612655368119478,0.7265905194967984
1789097688818235600,7.619235595703125,1.6380349175631999,0.7323265789307654,0.538490790873766
1789097688828211000,7.6292109375,1.7884037582069634,0.41837680324018,0.3005636398948729
1789097688838185700,7.639185791015625,1.9242343704104423,0.09413155124559998,0.19034370815753934
1789097688848160800,7.649160888671875,1.9965777220875023,-0.1748338582061231,0.16451427037417887
1789097688858135800,7.6591357421875,1.9813836600869892,-0.3676850191399455,0.20633695771172642
1789097688868110600,7.669110595703125,1.8779869984984396,-0.5962305937893688,0.2809957467243075
1789097688878085600,7.679085693359375,1.6225836659312247,-0.7644714834712445,0.38841684152334927
1789097688888061000,7.68906103515625,1.2467138790309429,-0.8746675959415733,0.5500904816441238
1789097688898034700,7.69903466796875,0.7465151171505451,-0.9598185528740286,0.63870400012061
1789097688908009700,7.709009765625,0.28020810347795483,-1.037704341109097,0.6778928318232298
1789097688917984800,7.71898486328125,-0.15713877317011354,-1.0633129757486284,0.5704362273193896
1789097688927959800,7.728959716796875,-0.5277648141980171,-1.0937770875953137,0.4564658570073545
1789097688937934600,7.7389345703125,-0.8318161500781774,-1.0969847975954412,0.3960387147039175
1789097688947910000,7.748909912109375,-1.0328437493354081,-1.10491383702904,0.42596711223870515
1789097688957884700,7.758884765625,-1.171719720584154,-1.0854149174414573,0.4940643507786095
1789097688967859700,7.768859619140625,-1.2575310411214828,-1.0757819966994224,0.5236132474765182
1789097688977834800,7.778834716796875,-1.2934931658625601,-1.0965743170984088,0.4940775025211274
1789097688987809500,7.7888095703125,-1.2419073555320501,-1.1505289023868739,0.4082889783374965
1789097688997784600,7.79878466796875,-1.13845574888587,-1.2415060812547802,0.2967164629474282
1789097689007760000,7.808759765625,-0.9522621461451053,-1.360337043340504,0.14943272883743047
1789097689017734700,7.818734619140625,-0.6808908445954323,-1.4943755114302038,0.023069763811677694
1789097689027709700,7.828709716796875,-0.34648762507140635,-1.578878379717469,-0.08990838059261441
1789097689037684700,7.838684814453125,-0.007428688696026801,-1.6636016127571462,-0.21679493110105394
1789097689047659500,7.848659423828125,0.25658991200327874,-1.7478373545408248,-0.32735096292495725
1789097689057634800,7.858634765625,0.4105132302582264,-1.8072645260214804,-0.3929869259178638
1789097689067609900,7.86860986328125,0.43523558358252046,-1.9148907880038022,-0.35749314934089776
1789097689077584600,7.878584716796875,0.35201311049461365,-1.9838181937575339,-0.3118701929375529
1789097689087559700,7.8885595703125,0.1832008506655693,-2.000354902538657,-0.2851059585221112
1789097689097534700,7.89853466796875,0.00765139153599739,-1.8861212051153182,-0.282670548068732
1789097689107509500,7.908509521484375,-0.12493804678916931,-1.6895713357940316,-0.39049452458024025
1789097689117484800,7.91848486328125,-0.3011100217312574,-1.5089587480559945,-0.5935933771535754
1789097689127459800,7.9284599609375,-0.48298517675101754,-1.310295247581601,-0.8239015775613486
1789097689137434600,7.9384345703125,-0.627494185450673,-1.1427613371253014,-0.9961739147163927
1789097689147409700,7.94840966796875,-0.7290005032479763,-0.9968342783212661,-1.1986606267407536
1789097689157384700,7.958384765625,-0.7906476888656616,-0.8489066933497786,-1.3208674950003623
1789097689167359700,7.96835986328125,-0.8179436920702456,-0.6578364244833588,-1.3334069508388637
1789097689177334800,7.978334716796875,-0.7682640076220035,-0.4830611645966768,-1.297322076500952
1789097689187309800,7.988309814453125,-0.7791478052079677,-0.3415592287585139,-1.2435472316935658
1789097689197284600,7.99828466796875,-0.7989993376255035,-0.26266104861050843,-1.171127746040374
1789097689207259600,8.008259765625,-0.8197101172208785,-0.19353198280483483,-1.1480147276088595
1789097689217234700,8.018234619140625,-0.8004507054775953,-0.09664747958928346,-1.1147674147844313
1789097689227208700,8.028208740234374,-0.774693748408556,-0.02366144609451294,-1.0382843329541385
1789097689237183700,8.038183837890625,-0.7356576230496168,0.0144806530341506,-0.9614283261582255
1789097689247158800,8.04815869140625,-0.6715741501957178,0.025246669459342955,-0.8438418111756444
1789097689257133800,8.0581337890625,-0.6316799467027187,0.07213233927488327,-0.7825412470385432
1789097689267108600,8.068108642578125,-0.5853828904300927,0.13550970968604087,-0.7350139183185994
1789097689277083600,8.078083740234375,-0.5372065962821245,0.21282558907866478,-0.7195971534781157
1789097689287059000,8.088058837890625,-0.4697212060302496,0.3000181348413229,-0.7259598203778267
1789097689297033700,8.09803369140625,-0.3575508708775043,0.37300241477042434,-0.723221335324645
1789097689307008800,8.1080087890625,-0.19856910018920898,0.38737171638458967,-0.7859813044898212
1789097689316983800,8.11798388671875,0.024526538491249084,0.3492632272645831,-0.8379784721001983
1789097689326958600,8.12795849609375,0.2606862414062023,0.28863047938644887,-0.8962678717225789
1789097689336933600,8.13793359375,0.4981149413436651,0.2361480124771595,-0.9384858419880271
1789097689346909000,8.147908935546875,0.6936585562318563,0.24355478160232305,-0.9013651948615908
1789097689356883700,8.1578837890625,0.8469318861454724,0.23802637356966733,-0.8384612871810794
1789097689366858800,8.167858642578125,0.9412684584438801,0.254299170717597,-0.8004203103393316
1789097689376833800,8.177833740234375,0.9912567704498767,0.40471681893914935,-0.7353063253939152
1789097689386808600,8.18780859375,0.8934878856152295,0.6561112081259489,-0.6627277036562561
1789097689396783900,8.197783935546875,0.7361170572549104,0.8213096613720059,-0.5857552308738231
1789097689406759000,8.207759033203125,0.6468038660764693,0.8584481364160775,-0.5273594482675195
1789097689416733700,8.217733642578125,0.6990384957045316,0.7503302915245295,-0.5063656139470637
1789097689426708700,8.227708740234375,0.9423580072462558,0.5924523904249072,-0.4432128460720181
1789097689436683800,8.237683837890625,1.3416232827812433,0.3124338181696832,-0.4287167032077908
1789097689446658600,8.247658447265625,1.8082494454056024,-0.10454437031894921,-0.5562171478308737
1789097689456633900,8.2576337890625,2.1907488795787096,-0.4799152677863836,-0.6617845775872468
1789097689466608600,8.267608642578125,2.4487609333395954,-0.7329989252343774,-0.6858984436243772
1789097689476583700,8.277583740234375,2.50388310110271,-0.8928960572019219,-0.6524336886569857
1789097689486558700,8.287558837890625,2.200266649508476,-0.8894261891342699,-0.5378758738458156
1789097689496533200,8.297533203125,1.689221499443054,-0.7390206697419285,-0.4173039133116603
1789097689506508300,8.30750830078125,1.0253910952419043,-0.44153059207350015,-0.24625235012322663
1789097689516483300,8.3174833984375,0.3446265073746443,-0.2944838815897703,-0.17859657174050808
1789097689526458400,8.327458251953125,-0.270959213617444,-0.2041151900090277,-0.21056743488833307
1789097689536433200,8.33743310546875,-0.7502250775843858,-0.07453969267755746,-0.2347844690389931
1789097689546408200,8.347408203125,-1.0695184062600136,0.02425707390010357,-0.24751550192683933
1789097689556383500,8.357383544921875,-1.2305454190403222,0.02033463975936174,-0.3194184163600206
1789097689566357200,8.367357177734375,-1.2283178061187268,-0.04756006194576621,-0.4347402012810111
1789097689576332300,8.377332275390625,-1.0561451299458742,-0.18513269551098346,-0.57571329093948
1789097689586307300,8.387307373046875,-0.7264923198193312,-0.38099019865393635,-0.7106194817744195
1789097689596282400,8.397282470703125,-0.3053255935996771,-0.5706850875139237,-0.7407122760906815
1789097689606257200,8.407257080078125,0.0026730186015367506,-0.7210612346813082,-0.6455673100188374
1789097689616232200,8.417232177734375,0.21059856067895888,-0.8497016431197524,-0.5182938060194253
1789097689626207200,8.427207275390625,0.29364918433129783,-1.0154428249403833,-0.3418699021428823
1789097689636182300,8.437182373046875,0.20381576867103576,-1.1544526517018676,-0.054314650772511956
1789097689646157300,8.4471572265625,-0.08593933083117007,-1.2200883224338293,0.24403730442225932
1789097689656132000,8.457132080078125,-0.5237964950889349,-1.1689248291686176,0.47493499515578147
1789097689666107100,8.467107177734375,-0.9234422943741083,-0.9950237217679619,0.5779204455949366
1789097689676082400,8.47708251953125,-1.2709241911798714,-0.8131488590091467,0.5012529471084475
1789097689686057200,8.48705712890625,-1.4874883822649716,-0.6244885738939047,0.3428809788815677
1789097689696032300,8.4970322265625,-1.6392852098852395,-0.43075551555901764,0.2463243924461305
1789097689706007300,8.50700732421875,-1.649491546601057,-0.23848639229685067,0.19227467622011898
1789097689715982000,8.516982177734375,-1.692664333373308,-0.12395458870977162,0.1449536837272346
1789097689725957000,8.52695703125,-1.6788333764195442,-0.05511749158799648,0.16336232386007904
1789097689735932400,8.536932373046875,-1.6349235075443982,0.0018429975181818007,0.20214681254550815
1789097689745907200,8.5469072265625,-1.5878034444510936,0.04373743491768837,0.2666512872904539
1789097689755882200,8.55688232421875,-1.5864707345426081,0.06084741354212164,0.292421688362956
1789097689765857300,8.566857177734375,-1.6003957995206117,0.11466054453328252,0.3685105101786554
1789097689775832000,8.57683203125,-1.6264087771773337,0.2167367711730301,0.4258236121147871
1789097689785807400,8.586807373046875,-1.640028721728921,0.3052114657007158,0.46081908378079534
1789097689795782400,8.596782470703126,-1.6843693832367657,0.39350276648551225,0.5211193848341703
1789097689805757200,8.606757080078125,-1.6782669747084378,0.4849233052067458,0.642178398232907
1789097689815732200,8.616732177734375,-1.663120843502879,0.5715026875071227,0.8263866723753511
1789097689825707300,8.626707275390626,-1.5976204895883797,0.6314895386971533,0.9962716760024428
1789097689835682000,8.63668212890625,-1.3793863194644451,0.6299725582629442,1.1947612812146544
1789097689845657300,8.6466572265625,-0.9808727390795946,0.6334469563752413,1.3389837280578911
1789097689855632400,8.65663232421875,-0.47109074081778524,0.8191033834993838,1.48341207273677
1789097689865607200,8.666607177734376,0.03792670281231403,0.9685315822921693,1.495975640103221
1789097689875582200,8.676582275390626,0.541379498052597,1.0348951289072632,1.4292935290582478
1789097689885557200,8.68655712890625,1.0613035356223584,1.0401340524740517,1.2821838363409042
1789097689895531300,8.69653125,1.5819553029447793,1.0684031384944914,1.1816549852736293
1789097689905506300,8.70650634765625,2.037230050471425,1.1197802745103835,1.1401108226165175
1789097689915481300,8.7164814453125,2.4078449855834245,1.226181670872867,1.1179030824616552
1789097689925456400,8.726456298828126,2.6992484368145466,1.3373469206362962,1.078762327684462
1789097689935431200,8.73643115234375,2.787387323516607,1.4375810265406965,1.0422814397662878
1789097689945406200,8.74640625,2.710206468680501,1.4741853947080672,1.035858128720522
1789097689955381200,8.75638134765625,2.4998662666767832,1.4531059279307723,1.0781868658840656
1789097689965356300,8.766356201171876,2.2036931168258187,1.38705626957044,1.1099684900701046
1789097689975331300,8.776331298828126,1.7961971885621546,1.334142863897979,1.2538500145211815
1789097689985306400,8.786306396484376,1.324934013786912,1.3257166885972023,1.3961834327474236
1789097689995281200,8.79628125,0.8210486723482608,1.3261663320608437,1.5064835901141165
1789097690005256200,8.806256103515626,0.39080724379122256,1.4421395666278898,1.7126783628761768
1789097690015231500,8.8162314453125,-0.00858078134059906,1.7428997520081697,2.013836023141444
1789097690025206300,8.826206298828126,-0.34496260746121404,1.9652064322680234,2.173603098988533
1789097690035181300,8.836181396484376,-0.5484241558670997,1.9443436769813298,2.0681194019928575
1789097690045156400,8.84615625,-0.6663076079696416,1.6695206275425851,1.821055150964856
1789097690055131100,8.856131103515626,-0.6050485448867082,1.2671299134634435,1.5051397742897272
1789097690065106200,8.866106201171876,-0.3458154248982668,0.8535841836415231,1.309191085731983
1789097690075081500,8.87608154296875,0.10090542929470539,0.41645591818019745,1.26191904694736
1789097690085056300,8.88605615234375,0.5831739822089672,0.022728987549990413,1.2918053589060903
1789097690095031300,8.89603125,0.9526111057132483,-0.204371064466238,1.4549831199795007
1789097690105006300,8.90600634765625,1.2817635651022194,-0.32519246971681715,1.6320570121973752
1789097690114981000,8.915981201171874,1.3820797963321207,-0.4051810754500329,1.8157295720279216
1789097690124956400,8.925956298828124,1.2711743665486575,-0.47526086610928175,1.975414230288565
1789097690134931200,8.93593115234375,0.9547714986175299,-0.5474857059732079,2.017900496101379
1789097690144906200,8.94590625,0.5427379269242286,-0.6045717211551964,1.8734148682773113
1789097690154881300,8.95588134765625,0.19225743282437324,-0.7485245572768151,1.5929299936845898
1789097690164856300,8.965856201171874,-0.07282324414849281,-0.9099434919841587,1.2507198998019098
1789097690174831000,8.9758310546875,-0.2554886727631092,-1.0557872564189135,0.9039619333565234
1789097690184806400,8.985806396484374,-0.29417057785689826,-1.2133774266183375,0.6011375089228153
1789097690194781200,8.99578125,-0.1631798069000244,-1.3495181276842951,0.4129264288797974
1789097690204756200,9.005756103515624,0.14513678520917891,-1.5349777170620857,0.39435938331484793
1789097690214731300,9.015731201171874,0.5462111559927463,-1.7295352435223756,0.4346957776173949
1789097690224705300,9.025705322265624,0.8465367493480443,-1.953779175455123,0.47814767359197136
1789097690234680000,9.03568017578125,1.0747931317925452,-2.220498705676198,0.5187526557028294
1789097690244655400,9.0456552734375,1.2283984701395034,-2.4792010797888038,0.5322898904070258
1789097690254630400,9.05563037109375,1.2837497704833745,-2.680548412519693,0.5039373638868332
1789097690264605200,9.065605224609374,1.2831786925971507,-2.8522976025834677,0.4193012246087193
1789097690274580200,9.075580322265624,1.197199614277482,-2.9453344904601573,0.2990969283431768
1789097690284555300,9.08555517578125,1.0108937833338976,-2.938662173089385,0.13354980778992176
1789097690294530000,9.095530029296874,0.6675193218469619,-2.8857436528503895,-0.01055588080585003
1789097690304505300,9.10550537109375,0.22070494415163994,-2.706351254557073,-0.15954802626892922
1789097690314480400,9.11548046875,-0.2225450190603733,-2.5480647726565597,-0.35565000569224353
1789097690324455200,9.125455078125,-0.6841992384910583,-2.3571944102764126,-0.5476261373572051
1789097690334430200,9.13543017578125,-1.0686714340418577,-2.0477143273457883,-0.6282314136840402
1789097690344405200,9.1454052734375,-1.397258660763502,-1.7329384760946034,-0.683199998320639
1789097690354380300,9.15538037109375,-1.6378841109156608,-1.4580065594539044,-0.7190121931970119
1789097690364355300,9.165355224609375,-1.8160609959393739,-1.3045233861818908,-0.8160442881897091
1789097690374330400,9.175330322265625,-1.9021470417648552,-1.2127288995817302,-0.866935101993382
1789097690384305200,9.18530517578125,-1.9073837733745573,-1.148342059867084,-0.8746320862367749
1789097690394280200,9.1952802734375,-1.8164228149890898,-1.1098048239409923,-0.8083274302020669
1789097690404255200,9.205255126953125,-1.6938970900386572,-1.1460273531839251,-0.6874310600191355
1789097690414230300,9.215230224609375,-1.524834654840827,-1.1621458365529775,-0.5609995598018169
1789097690424205300,9.225205322265625,-1.3162521101593971,-1.155003563582897,-0.4077522411122918
1789097690434180400,9.235180419921875,-1.096252099406719,-1.1412708063066006,-0.3303255948215723
1789097690444155100,9.245155029296875,-0.9225286866605281,-1.1826266067847608,-0.34174189184904097
1789097690454130200,9.255130126953125,-0.8497779232263565,-1.159738775411248,-0.39529052668511866
1789097690464105500,9.26510546875,-0.7403004804193973,-1.1263128911495208,-0.41104251482933757
1789097690474080300,9.275080322265625,-0.6153986739873886,-1.008897056558728,-0.44903760670274495
1789097690484055300,9.28505517578125,-0.5468804335564375,-0.8506953303322196,-0.4430196615874767
1789097690494030300,9.2950302734375,-0.41243104657828805,-0.6591074673324823,-0.5202759197473525
1789097690504006100,9.305006103515625,-0.35683658512830735,-0.5159150941893458,-0.5790913890704512
1789097690513981200,9.314981201171875,-0.3635691082537174,-0.3870098973348737,-0.6631959056898951
1789097690523956000,9.3249560546875,-0.33994273347258563,-0.2706295432716608,-0.7877253716781735
1789097690533931300,9.33493115234375,-0.2343266422688961,-0.17237199813723564,-0.9110913468450307
1789097690543906300,9.34490625,-0.03753448862433433,-0.040601182718575,-1.029494438907504
1789097690553881000,9.354881103515625,0.22326573455035686,0.09356880279630422,-1.0908964175924658
1789097690563856100,9.364856201171875,0.5281313094228506,0.22915508484989403,-1.1581845317065715
1789097690573831200,9.3748310546875,0.8726666313827037,0.2742106166288256,-1.1879238364100455
1789097690583806000,9.384805908203125,1.176324584031105,0.28441052360385655,-1.2889610753908753
1789097690593781200,9.39478125,1.375160226202011,0.2659896085113287,-1.3480109379917382
1789097690603756300,9.40475634765625,1.5032646280676125,0.19846213268339633,-1.4772006508760154
1789097690613730300,9.414730224609375,1.6112246520489453,0.13603957877904177,-1.6353655522234738
1789097690623705000,9.424705078125,1.6270780547410248,0.1382312436044216,-1.6846178050398826
1789097690633680100,9.43468017578125,1.4907476763218641,0.23931641338020562,-1.566327233441174
1789097690643655200,9.4446552734375,1.1557120041131972,0.3440685812309384,-1.371788703942299
1789097690653630200,9.454630126953125,0.6189490599453449,0.4218038550794124,-1.2218576701939106
1789097690663605200,9.464605224609375,0.0414355877161026,0.546859098507464,-1.1632219413518905
1789097690673580300,9.474580322265625,-0.4258955083072185,0.6686734603181481,-1.1340696427561343
1789097690683555000,9.48455517578125,-0.7772668137669563,0.7849839640155434,-1.119744034153223
1789097690693530000,9.494530029296875,-0.981873440554738,0.8643658360272646,-1.1662405585207045
1789097690703505200,9.504505126953125,-1.0892208855956793,0.8805322501912712,-1.2121242116868496
1789097690713480200,9.514480224609375,-1.0222481210410594,0.8164499463811516,-1.2400759023211896
1789097690723455200,9.524455322265625,-0.7295470312148332,0.6185279119238257,-1.2438828933887183
1789097690733430300,9.53443017578125,-0.26766777085661886,0.3612359891310334,-1.1694824630513787
1789097690743405000,9.544405029296875,0.27264380570352076,0.15102818133533,-1.0305416098728775
1789097690753380000,9.554380126953125,0.783574974000454,-0.027605069153755903,-0.8619723650194704
1789097690763355100,9.564355224609375,1.1505535984367132,-0.171490100736171,-0.6946203870013355
1789097690773330200,9.574330078125,1.3093541673392057,-0.2991336070917547,-0.5363239682286978
1789097690783305200,9.58430517578125,1.304853348788619,-0.3935968745097518,-0.4016485174097121
1789097690793280000,9.594280029296876,1.2735463563770055,-0.442373764899373,-0.27929537254720926
1789097690803255000,9.604255126953126,1.250842941659689,-0.4104553625911474,-0.1522157836847007
1789097690813230000,9.61422998046875,1.2674117991447449,-0.36532121261805295,-0.12471709751486777
1789097690823205000,9.624205078125,1.290392277237773,-0.36139965526014567,-0.21713278475329278
1789097690833180200,9.63418017578125,1.3096020046204329,-0.35631358416751024,-0.35606384719014167
1789097690843155200,9.6441552734375,1.3321902685254812,-0.3388587376281619,-0.5214065312124788
1789097690853130000,9.6541298828125,1.2940870401024818,-0.42160964768156406,-0.6046138067312539
1789097690863105000,9.66410498046875,1.0783084464371204,-0.5517712743379175,-0.6989050785832107
1789097690873080300,9.674080322265626,0.770148506194353,-0.6764810653291642,-0.7232815410792827
1789097690883055000,9.68405517578125,0.4073790238857269,-0.7166137537531554,-0.694262513474375
1789097690893029000,9.694029052734376,0.015603227323293684,-0.6863169612973928,-0.6613179829888045
1789097690903004200,9.704004150390626,-0.27689269531965255,-0.6829181126393378,-0.5792722985953093
1789097690912979200,9.713979248046876,-0.4179582855671644,-0.6424627681322396,-0.3897515972584486
1789097690922954000,9.7239541015625,-0.5043664029538631,-0.6410122770629822,-0.3474365963593125
1789097690932929000,9.733928955078126,-0.5801110875070095,-0.6771626178525388,-0.3959377385474741
1789097690942904300,9.743904296875,-0.6935960123896598,-0.6701600456140935,-0.488422691629827
1789097690952879000,9.753879150390626,-0.8512485803008079,-0.5596273946657776,-0.5069235400907695
1789097690962854100,9.763854248046876,-1.041253265762329,-0.3346647930696606,-0.4946601247146725
1789097690972829200,9.7738291015625,-1.2709610160589218,-0.09409516475796699,-0.4945584179058671
1789097690982804000,9.783803955078126,-1.5010674102842807,0.11133709919899701,-0.4787456394851207
1789097690992779300,9.793779296875,-1.773878389248252,0.287949511384964,-0.4051861900165677
1789097691002754300,9.80375439453125,-1.9696563974142074,0.4803185878902673,-0.3070230451673269
1789097691012729000,9.81372900390625,-2.0527461840331553,0.6848974498882889,-0.20798019487410782
1789097691022704000,9.8237041015625,-2.0159628060370682,0.8866045558422804,-0.1646229914456606
1789097691032679200,9.83367919921875,-1.8301520651340484,1.0662103046253324,-0.17746464510113
1789097691042654000,9.843654052734376,-1.5855343304753302,1.1893883560046552,-0.23450609048902987
1789097691052629200,9.853629150390624,-1.310847620767355,1.221043723462522,-0.2741518721789121
1789097691062604300,9.863604248046874,-1.051777582386136,1.2012170332252978,-0.2887982371687889
1789097691072579000,9.8735791015625,-0.84272157497406,1.1640107536420226,-0.21318916169404983
1789097691082554000,9.88355419921875,-0.6690986999928951,1.1097212373107672,-0.10544877181276678
1789097691092529200,9.893529052734374,-0.5211953726798295,1.075397527426481,0.05233180639222264
1789097691102504200,9.903504150390624,-0.42223347866833205,1.0420186971768737,0.26284941078945995
1789097691112479200,9.913479248046874,-0.3367150035977363,1.0815247781351207,0.4383541539944708
1789097691122454300,9.923454345703124,-0.24310966818332672,1.1638403655111789,0.5934696046434342
1789097691132428300,9.93342822265625,-0.2355325109273195,1.2561270195424556,0.6757276166133582
1789097691142403000,9.943403076171874,-0.22794424775540828,1.3687906911700962,0.7311451140612364
1789097691152378000,9.953378173828124,-0.1907511199146509,1.4589125683829187,0.7348302323147654
1789097691162353200,9.963353271484374,-0.10278642073571681,1.551543505807221,0.7704286383099853
1789097691172328200,9.973328125,0.0999503205269575,1.559710153388977,0.793722274005413
1789097691182303200,9.98330322265625,0.3793728265851736,1.5638780867233872,0.8360049800701439
1789097691192278300,9.9932783203125,0.6131470956683158,1.5610206514656544,0.8982919248960912
1789097691202253000,10.003253173828124,0.7711901242017746,1.5297703576773405,0.8835964600674807
1789097691212228000,10.01322802734375,0.9060247111052274,1.5101380209684372,0.845913502883166
1789097691222203100,10.023203125,1.000853450834751,1.4848986580327153,0.7691773230746388
1789097691232178200,10.03317822265625,1.0505588542461395,1.4356766542240977,0.7174009586080908
1789097691242153200,10.0431533203125,1.1006880360275506,1.3425789760708808,0.7065040092796087
1789097691252128000,10.0531279296875,1.162749063143134,1.3074246605813502,0.7469345116063952
1789097691262103000,10.06310302734375,1.220474691402912,1.3630685141310095,0.9325991220369935
1789097691272078000,10.073078125,1.1725135013103485,1.4211936631023883,1.114853924024105
1789097691282053000,10.08305322265625,1.025786816561222,1.4177344625592232,1.192182370637357
1789097691292028200,10.093028076171874,0.985657635268569,1.3393544610664248,1.1880465860068798
1789097691302003200,10.103003173828125,1.2269821736007929,1.1255921756595373,1.1067702785506843
1789097691311978000,10.11297802734375,1.7516922764033078,0.8356434532813727,0.870131559947133
1789097691321953000,10.122953125,2.3874025015354157,0.4429385591752827,0.528542520572245
1789097691331928300,10.13292822265625,2.9165111315578223,0.004271978230774402,0.22237989162653685
1789097691341903000,10.142903076171875,3.160675277230143,-0.32160408983603117,0.01657645626962185
1789097691351878100,10.152878173828125,3.2395535836338993,-0.6982729181595146,-0.08235431195124983
1789097691361853200,10.162853271484375,3.178234899318218,-1.032330392985791,-0.22305033823400736
1789097691371828000,10.172827880859375,2.893017443245649,-1.2740163119763135,-0.30794615136161446
1789097691381803000,10.182802978515625,2.4417823264986276,-1.3929308606922626,-0.3563565465264022
1789097691391778300,10.1927783203125,1.7557693165838717,-1.3692133004963398,-0.2860328641086817
1789097691401753000,10.202753173828125,0.9635708911448716,-1.3072829140231013,-0.21012363664358852
1789097691411728100,10.21272802734375,0.18151625857949255,-1.2510802575469016,-0.2533539988219738
1789097691421703200,10.222703125,-0.49954175927639005,-1.2665262484818696,-0.38531609902903435
1789097691431678000,10.232677978515625,-1.0129162290722131,-1.3064254204109311,-0.5011499251253902
1789097691441653200,10.2426533203125,-1.3802502428174017,-1.285863986158371,-0.5183648254290223
1789097691451627300,10.252627197265625,-1.611704544520378,-1.2204109785169361,-0.484087438904494
1789097691461602300,10.262602294921875,-1.7400152826130388,-1.1795289330303669,-0.4118817421324551
1789097691471577000,10.2725771484375,-1.7933008825987575,-1.206824643974006,-0.3571751694329083
1789097691481552100,10.28255224609375,-1.7642542363345621,-1.258183075289428,-0.3025106823094189
1789097691491527200,10.292527099609375,-1.6227818188518284,-1.32058254057914,-0.17590806330889464
1789097691501501700,10.302501708984375,-1.4049527223974465,-1.4374915946915745,-0.09506240235492587
1789097691511476700,10.312476806640625,-1.168411326688528,-1.586909125959873,-0.07076704227104783
1789097691521452000,10.3224521484375,-0.921193638664484,-1.771863834555447,-0.06656374536231159
1789097691531426800,10.3324267578125,-0.6840642139345408,-1.8575149960950015,-0.08799757853522897
1789097691541401900,10.34240185546875,-0.46915538884103297,-1.841267917910218,-0.12504983660057187
1789097691551377000,10.352376953125,-0.2724193492978811,-1.7589613906234502,-0.20097411550432442
1789097691561351700,10.3623515625,-0.11473171007335185,-1.6516688906401396,-0.35988121352121233
1789097691571327000,10.372326904296875,-0.08161562241315841,-1.5240207081094383,-0.5742853039629757
1789097691581302000,10.382302001953125,-0.0963338835954666,-1.427554138045013,-0.8111547625824809
1789097691591276800,10.39227685546875,-0.23223989912271498,-1.285778061440587,-0.9477164655394852
1789097691601251800,10.402251953125,-0.41882863866090775,-1.0776204641729592,-0.9543081188894807
1789097691611227000,10.412226806640625,-0.5870026005864143,-0.9211363555192947,-0.9545248303800821
1789097691621201700,10.42220166015625,-0.758378573423624,-0.8100538156032562,-0.944142552575469
1789097691631177000,10.432177001953125,-0.8553869952797889,-0.7023842990010977,-0.9329904594421387
1789097691641152000,10.442152099609375,-0.8376800736755132,-0.5974374853610992,-0.9542555119194089
1789097691651126800,10.452126708984375,-0.7165005026370287,-0.5166255805462598,-1.0004331795960664
1789097691661101800,10.462101806640625,-0.5847101057350635,-0.44945086367875337,-1.0409924228690564
1789097691671076900,10.472076904296875,-0.40902796013653275,-0.39457419510930775,-1.0768256605334579
1789097691681052000,10.482052001953125,-0.282619256272912,-0.3072600687935948,-1.111950019276142
1789097691691027000,10.49202685546875,-0.22655600826740263,-0.23150807771682738,-1.1030838451229035
1789097691701002000,10.502001953125,-0.16507774947583675,-0.13601765920817852,-1.097901035657525
1789097691710976800,10.511976806640625,-0.13105916001796722,-0.012809212690591812,-1.0512667102545499
1789097691720951800,10.521951904296875,-0.16298983728587627,0.09935264689475297,-1.0042375403150916
1789097691730926800,10.5319267578125,-0.14711656084954738,0.1927735656529665,-0.9297368644736707
1789097691740902000,10.54190185546875,-0.07474632116556167,0.2678448809891939,-0.9167992030978203
1789097691750877000,10.551876953125,0.026910218757390976,0.3543570432722568,-0.9478053128667175
1789097691760852000,10.56185205078125,0.11171674616634845,0.40147769088745117,-1.0048467582546174
1789097691770826000,10.571825927734375,0.09343465502262115,0.42786768516302104,-1.027093369115144
1789097691780800800,10.58180078125,-0.060147886970639226,0.4847483870312571,-0.9570905892148613
1789097691790775800,10.59177587890625,-0.27728607855141163,0.5878633090689778,-0.8097785057932138
1789097691800750800,10.601750732421875,-0.44889995179772374,0.6939131155148148,-0.7053152378864586
1789097691810726000,10.611725830078125,-0.5013070153832435,0.773520612975955,-0.7227544484652578
1789097691820701000,10.621700927734375,-0.41480537449419497,0.8153165584370493,-0.8595232183016837
1789097691830676000,10.631676025390625,-0.2738800695002079,0.822400379218161,-0.9748621004879474
1789097691840650800,10.641650634765625,-0.06869885769486427,0.8391495617061853,-1.0077039012514055
1789097691850625800,10.651625732421875,0.16860358551442622,0.8183902667939662,-1.0810044075228273
1789097691860600800,10.661600830078125,0.41143794388771054,0.7054661906644701,-1.2163061735466123
1789097691870575900,10.671575927734375,0.6519312920928001,0.5683598594367504,-1.2861428030997515
1789097691880551000,10.681551025390625,0.8396966741949319,0.5206204954013228,-1.2161049518860876
1789097691890525700,10.691525634765625,0.9138327545076608,0.6302908304318785,-1.0222551353037357
1789097691900500700,10.701500732421875,0.9047808485239743,0.7568108857154846,-0.8498349141106009
1789097691910476000,10.71147607421875,0.7586310868799686,0.775128340433538,-0.843233470018953
1789097691920450800,10.721450927734375,0.5804992100417614,0.6940300198927521,-1.0687879000283778
1789097691930425900,10.73142578125,0.4739771099090576,0.643870735234022,-1.424687350437045
1789097691940401000,10.74140087890625,0.5050058699011802,0.6305073957920074,-1.7317426904387772
1789097691950375700,10.751375732421875,0.7348843005895614,0.5340928481757641,-1.99175614714995
1789097691960350700,10.761350830078126,1.1435475190669298,0.2196989819794893,-2.142759194044024
1789097691970326000,10.771325927734376,1.6947908240079879,-0.31901363495141266,-2.1384582819797098
1789097691980300800,10.78130078125,2.3211031061977145,-0.9185188664972782,-2.004562583361566
1789097691990275800,10.79127587890625,2.8269419197916985,-1.3967694159418345,-1.6649289158381522
1789097692000251000,10.8012509765625,3.11276903219521,-1.6720071836613117,-1.3249863284960388
1789097692010225700,10.8112255859375,3.167667912596464,-1.8370874173551797,-1.0613706095091997
1789097692020201000,10.821200927734376,2.9348084202706812,-1.9042406530432403,-0.8485881289198994
1789097692030176000,10.831176025390626,2.499166009452939,-1.841993894097209,-0.7666302689403295
1789097692040150800,10.84115087890625,1.9460878903001546,-1.738355971098691,-0.7771848345719278
1789097692050125800,10.851125732421876,1.4184949255377053,-1.5740600196503103,-0.8109137934334576
1789097692060100900,10.861100830078126,0.9683487730711698,-1.44319740511775,-0.9587990005679428
1789097692070075000,10.871074951171876,0.6414215885162353,-1.361691818950325,-1.2316413975834846
1789097692080049700,10.881049560546876,0.480054383996129,-1.2789791950806975,-1.478106513674557
1789097692090025000,10.89102490234375,0.463599508279562,-1.1849047808498143,-1.6739514495968817
1789097692100000000,10.901,0.5485270317196845,-1.1666253200545906,-1.8173807002358138
1789097692109974800,10.910974853515626,0.669475716611743,-1.237642099303007,-1.8935960710406303
1789097692119949800,10.92094970703125,0.7693459576398134,-1.3453303206056355,-1.916818687326461
1789097692129924900,10.9309248046875,0.7794295447587967,-1.4509566409423946,-1.7998691550731658
1789097692139900000,10.94089990234375,0.7257809566795825,-1.5145187202706931,-1.6497570656694471
1789097692149875000,10.950875,0.5473743545532226,-1.5883821211218834,-1.5236229409635067
1789097692159850000,10.96085009765625,0.27262743909060955,-1.6546648575857281,-1.3841137863777577
1789097692169824800,10.97082470703125,-0.09187456609904765,-1.624944257582724,-1.1847697562932968
1789097692179799800,10.9807998046875,-0.4786602992892265,-1.5051950116083026,-0.953469183847308
1789097692189774800,10.99077490234375,-0.8541519005268812,-1.2736761202365159,-0.7875818715542554
1789097692199750000,11.00075,-1.2298843247830866,-1.0297413994058966,-0.6779635589718819
1789097692209725000,11.010724853515624,-1.5101052877426147,-0.7821122079715133,-0.5562802761949599
1789097692219700000,11.020699951171874,-1.6770312954336404,-0.5477142540320754,-0.5153659358739853
1789097692229674800,11.0306748046875,-1.7976807051181791,-0.36041678170263763,-0.47579672655165195
1789097692239649800,11.04064990234375,-1.8811878403663633,-0.17037381005734203,-0.42519481269195675
1789097692249625000,11.050625,-1.8424539128243922,0.030202830561995506,-0.388678415068984
1789097692259600000,11.060599853515624,-1.7067162396013735,0.2070402836754918,-0.42309681749939915
1789097692269575000,11.070574951171874,-1.4724854589223861,0.3812009187951684,-0.4540446212098002
1789097692279550000,11.080550048828124,-1.162562600660324,0.48221769950985904,-0.44286607846096154
1789097692289524700,11.090524658203124,-0.9102075497478246,0.5254311105534434,-0.4561220120057463
1789097692299499800,11.100499755859374,-0.7115940258949994,0.5455860098317266,-0.4332135762356221
1789097692309475000,11.11047509765625,-0.6255652632147073,0.5388371200934052,-0.3348318201996386
1789097692319449900,11.120449951171874,-0.6060264500081539,0.48581513947993515,-0.27050021780356764
1789097692329425000,11.1304248046875,-0.5819260279744863,0.4730515194967389,-0.2052865718759596
1789097692339400000,11.14039990234375,-0.5178723657369614,0.5219643112257123,-0.059981590493023394
1789097692349374700,11.150374755859374,-0.3500210598945617,0.5881865496739744,0.02922331800535321
1789097692359350000,11.16035009765625,-0.18793138631880282,0.7075675468578935,0.13230068451166152
1789097692369324000,11.170323974609374,-0.09837152690291404,0.8091969065129756,0.23186010602489113
1789097692379298800,11.180298828125,-0.17248305729627608,0.9025111500263213,0.38424598557949063
1789097692389273900,11.19027392578125,-0.28926760824620723,1.0190604309156537,0.5458049132794142
1789097692399249000,11.200248779296874,-0.3858434839040041,1.1711442587837577,0.7088558331027627
1789097692409223700,11.2102236328125,-0.42016894735395904,1.2947086791321634,0.8180190953940153
1789097692419198700,11.22019873046875,-0.4255740212678909,1.3673492601901291,0.842952753381431
1789097692429174000,11.230174072265624,-0.3973848686158657,1.450707926878333,0.7958347361147403
1789097692439148800,11.240148681640624,-0.33568682959377766,1.4577005622446537,0.7777538666315377
1789097692449123800,11.250123779296874,-0.25156594636142254,1.3952306620672343,0.7696054853588342
1789097692459099000,11.260098876953125,-0.11304887155294417,1.312192021113634,0.8282035125389695
1789097692469073700,11.27007373046875,0.05934884554743766,1.225027240140736,0.8143693407148123
1789097692479049000,11.280049072265625,0.17728256653249264,1.104954461300373,0.7473293561428785
1789097692489024000,11.29002392578125,0.25531214715242384,1.0323623955592514,0.6937465267762541
1789097692498998500,11.29999853515625,0.2860930698633194,0.9652829557597636,0.6965116075754165
1789097692508973800,11.309973876953125,0.2749725409120321,0.9954261650890112,0.8007464735537767
1789097692518948900,11.319948974609375,0.2709831790149212,1.123584050707519,0.9895110958263278
1789097692528923600,11.329923583984375,0.13375497497320174,1.2400675728842616,1.143990878920257
1789097692538898700,11.339898681640625,0.045154900500178334,1.2552470218375325,1.2172209503039717
1789097692548873700,11.349873779296875,-0.00025075989067554474,1.1508137106776237,1.1689280440390108
1789097692558848500,11.3598486328125,0.04530746071338653,0.9771128020241856,0.9520514260038733
1789097692568823800,11.36982373046875,0.2881523404806852,0.7987342569485306,0.730714905950427
1789097692578798800,11.379798828125,0.8242080131620169,0.5161377970293164,0.47073681281358
1789097692588773600,11.389773681640625,1.57602299028635,0.13776099574416875,0.09607406361550092
1789097692598748700,11.399748779296875,2.405144494453072,-0.2930135167762637,-0.26074936977028845
1789097692608723700,11.4097236328125,3.133728818115592,-0.647541240440309,-0.4213026275590062
1789097692618698800,11.41969873046875,3.6750738293766974,-0.988406641715765,-0.5217991837918758
1789097692628673800,11.429673828125,3.757901165667176,-1.2999769749239087,-0.5384802694797516
1789097692638648800,11.43964892578125,3.4823312433838844,-1.5787693663850426,-0.4591407753050327
1789097692648623600,11.44962353515625,2.8874726686000822,-1.7636463335692882,-0.3110787502989173
1789097692658598700,11.4595986328125,2.04548291503191,-1.7770923828586935,-0.17656448139101266
1789097692668573700,11.46957373046875,1.1624205618411303,-1.6622922837242484,-0.12710516169518232
1789097692678547700,11.479547607421875,0.39654607970416544,-1.560933557704091,-0.2752437590688467
1789097692688522800,11.489522705078125,-0.2238654540091753,-1.4876564323082566,-0.47429976599216456
1789097692698497800,11.499497802734375,-0.7138929504871367,-1.3957318895876407,-0.6479010136634111
1789097692708472800,11.509472900390625,-1.0282792178988456,-1.2603458062812685,-0.7724272647812962
1789097692718447600,11.519447509765625,-1.2054518943160772,-1.1545274705037474,-0.8762874522283672
1789097692728422700,11.529422607421875,-1.2917764250725507,-1.1529764416694641,-0.9448620990216732
1789097692738398000,11.53939794921875,-1.2330436655968426,-1.205694763161242,-1.0447913767606019
1789097692748372700,11.549372802734375,-0.9755553434491157,-1.3308531747028232,-1.1378820406511425
1789097692758347800,11.55934765625,-0.6065051734358072,-1.5595625616118312,-1.2478104420959948
1789097692768322800,11.56932275390625,-0.15430676461458206,-1.8142177061602471,-1.4388801264405249
1789097692778297600,11.579297607421875,0.27907705362141133,-1.9808166738539934,-1.5551879997894167
1789097692788272600,11.589272705078125,0.6735919197589159,-2.076086143088341,-1.59244484051615
1789097692798248000,11.599248046875,0.9397966323256493,-2.181531553900242,-1.5497513616934417
1789097692808222700,11.60922265625,1.0542886884242295,-2.2288734430506825,-1.4690075536787508
1789097692818197800,11.61919775390625,1.0361053814798593,-2.181797803620994,-1.386199214349687
1789097692828172800,11.6291728515625,0.9203758925408124,-2.078964913395047,-1.3869777975067497
1789097692838147600,11.639147705078125,0.642828532704711,-1.8755927968382835,-1.447893453979492
1789097692848123000,11.649122802734375,0.22582418686151504,-1.5831857215225695,-1.4896239329889416
1789097692858097700,11.65909765625,-0.16254560064971446,-1.2553028436779976,-1.480145326025784
1789097692868072700,11.66907275390625,-0.5024322200208902,-0.9685235451161861,-1.5126543877035379
1789097692878047700,11.6790478515625,-0.7119839019954204,-0.755860745383799,-1.585693320429325
1789097692888022800,11.689022705078125,-0.7762292874127626,-0.550881778152287,-1.6205378393173218
1789097692897997600,11.69899755859375,-0.8102221579074859,-0.36311171987503765,-1.6076368566900492
1789097692907972900,11.708972900390625,-0.7832721916615962,-0.20733546722978352,-1.5782506032079457
1789097692917947600,11.71894775390625,-0.7654752536863089,-0.0994102223008871,-1.4826622772827744
1789097692927922700,11.728922607421875,-0.7175731003046035,-0.018113456578552723,-1.389502347548306
1789097692937897700,11.738897705078125,-0.6811965495437383,0.09728548523187637,-1.2425363010853527
1789097692947872500,11.74887255859375,-0.648337651515007,0.20939561462998388,-1.077639461134374
1789097692957847800,11.758847900390625,-0.5647703105121851,0.29666648632586,-0.9437067915067077
1789097692967822800,11.76882275390625,-0.4598270040035248,0.34775340722352266,-0.8888330455467104
1789097692977797600,11.778797607421875,-0.31188276015818117,0.37285336168855426,-0.9254565568059683
1789097692987771600,11.788771728515625,-0.18993746544420717,0.4126823909908533,-0.9270847425296902
1789097692997746700,11.79874658203125,-0.12647183222770692,0.4949915486261248,-0.8814324139013886
1789097693007721700,11.8087216796875,-0.0979074165225029,0.5707172362178564,-0.7827243485204876
1789097693017696500,11.818696533203125,-0.08894611143171786,0.6188374162644148,-0.7184554360970854
1789097693027671800,11.828671875,-0.03083645229041576,0.6477607284098863,-0.6330522579692304
1789097693037646800,11.838646728515625,0.09367489351928233,0.6388771647304297,-0.5511345838695764
1789097693047621600,11.84862158203125,0.29819501106739044,0.6526482081905007,-0.5142912923797964
1789097693057596700,11.8585966796875,0.5306172810196876,0.6404241019114851,-0.5098429346688091
1789097693067571700,11.86857177734375,0.640140901055932,0.6027838148251176,-0.45375250639542936
1789097693077546800,11.878546630859375,0.5831365728080272,0.5627423118159175,-0.3441623969942331
1789097693087521800,11.888521728515625,0.48701954683363435,0.5555395408302545,-0.21756883808299898
1789097693097496800,11.898496826171876,0.4284638974905014,0.5936600126489997,-0.09713014853969215
1789097693107471600,11.9084716796875,0.4593137937843799,0.6482043805241584,-0.043523353775590655
1789097693117446700,11.91844677734375,0.5565478410899639,0.6832368231996894,-0.10526683937460184
1789097693127421700,11.928421630859376,0.755443104493618,0.6948989116817712,-0.23626067907139658
1789097693137396700,11.938396728515626,0.9234785347312688,0.6607379911437631,-0.39068580936864017
1789097693147371800,11.948371826171876,0.9812912567526102,0.6043988488063216,-0.48386692802160974
1789097693157346800,11.958346923828126,1.031801546806097,0.534300061185658,-0.518776474969834
1789097693167321600,11.968321533203126,1.012006128489971,0.4718783840641379,-0.508486405493319
1789097693177296600,11.978296630859376,0.913828662854433,0.4880751933664083,-0.4210084669180214
1789097693187272000,11.98827197265625,0.7304366735309362,0.5828560023009777,-0.21085224317908285
1789097693197246700,11.998246826171876,0.5365466710686684,0.6614534459367394,-0.0919923472598195
1789097693207221800,12.0082216796875,0.38420039287209506,0.5371759088829159,-0.24299714771956205
1789097693217196800,12.01819677734375,0.2943716533869505,0.3566796410009265,-0.5390792582862078
1789097693227171600,12.028171630859376,0.29545827957987786,0.17955664894431828,-0.8731715121649205
1789097693237146600,12.038146728515626,0.4651449841558933,0.05424246231913566,-1.1300224131919443
1789097693247122000,12.048121826171876,0.7106570373058319,-0.0804611916810274,-1.3518122299708426
1789097693257096700,12.0580966796875,1.0298819769203662,-0.35920711365193125,-1.6080705719321966
1789097693267071700,12.06807177734375,1.34250591083467,-0.7731032643467187,-1.8438462439656256
1789097693277046800,12.078046875,1.5579717852890491,-1.1349334199786185,-1.9066482987068591
1789097693287021600,12.088021484375,1.6979601016938686,-1.3905121091127395,-1.7957636194504796
1789097693296995600,12.09799560546875,1.7720605261713265,-1.5885811508253216,-1.6468023075170815
1789097693306971000,12.107970947265626,1.757458584845066,-1.8313062036052346,-1.5956583957351744
1789097693316945700,12.117945556640626,1.6814789224922655,-2.044427560760081,-1.6365164758242665
1789097693326920700,12.127920654296876,1.5168834035754204,-2.203057449270785,-1.678974392325431
1789097693336895700,12.137895751953126,1.2651742493510245,-2.230581123751402,-1.7223267734482883
1789097693346870800,12.147870849609374,0.9291530732363462,-2.132596842600405,-1.7408191463418303
1789097693356845600,12.157845458984376,0.5532336019754409,-1.955344963467121,-1.727693707308918
1789097693366820900,12.16782080078125,0.21990648725032805,-1.7783201710879801,-1.76249146444574
1789097693376795600,12.177795654296874,0.0030699089646339414,-1.6496905763044953,-1.856160366615653
1789097693386770700,12.187770751953124,-0.14891864183545112,-1.6268939303457737,-2.0353809154734015
1789097693396745700,12.197745849609374,-0.27451836740374563,-1.6360782305374741,-2.1745034088291226
1789097693406720500,12.207720458984374,-0.3386889340192079,-1.6179612668275831,-2.25370159483701
1789097693416695800,12.21769580078125,-0.3955535615354776,-1.652523753903806,-2.2951275379419327
1789097693426670800,12.2276708984375,-0.3689320965915918,-1.6788415597259998,-2.251249963901192
1789097693436645600,12.237645751953124,-0.29621465090513227,-1.688482956035435,-2.1281915933787823
1789097693446620700,12.24762060546875,-0.22906185360848902,-1.7094950566649436,-1.9969319423526524
1789097693456595700,12.257595703125,-0.23337504063248632,-1.7146493706882,-1.7718059668883681
1789097693466570500,12.267570556640624,-0.29374913757443427,-1.6214835957348346,-1.484478532924503
1789097693476545800,12.2775458984375,-0.4450362621068954,-1.4705606283396482,-1.2241817292273043
1789097693486520800,12.287520751953124,-0.667002604496479,-1.3274410281717777,-1.028816247384995
1789097693496495600,12.29749560546875,-0.8969956014752387,-1.1231818996474146,-0.7964948074586689
1789097693506470700,12.307470703125,-1.117970594739914,-0.9081658147871494,-0.6414996221885084
1789097693516445700,12.31744580078125,-1.289308573654294,-0.6931640507131814,-0.5688374138206244
1789097693526420700,12.327420654296875,-1.3508119668871164,-0.48919513730704783,-0.5324073793068528
1789097693536395800,12.337395751953125,-1.3818079936534164,-0.30677462336421013,-0.49048459259569643
1789097693546370800,12.347370849609375,-1.3278782505452633,-0.11995821254998444,-0.43996378114819523
1789097693556345600,12.357345703125,-1.260070788732171,0.027701953656971454,-0.39002471511140463
1789097693566320600,12.367320556640625,-1.242069852617383,0.11048866567611694,-0.3379866309687495
1789097693576295700,12.377295654296875,-1.2145569917917252,0.2004109286636114,-0.299187090844661
1789097693586269700,12.387269775390624,-1.1400433103382588,0.26381226447224615,-0.23103388433381913
1789097693596244700,12.39724462890625,-1.0723977610886097,0.332643370244652,-0.2226638231344521
1789097693606219800,12.4072197265625,-1.0472206497341394,0.410559553617984,-0.15505656006857751
1789097693616194800,12.41719482421875,-0.9748860658854246,0.4787536766611039,-0.01383081082329154
1789097693626169600,12.427169677734375,-0.8594137665778399,0.5042307938754558,0.12162848384976387
1789097693636144600,12.43714453125,-0.6715934394180775,0.5307604888826608,0.18933526176735757
1789097693646120000,12.447119873046875,-0.3637742754369974,0.5748826853342354,0.1682293453745544
1789097693656094700,12.4570947265625,-0.06887129165232181,0.6278370075389742,0.12265066650435327
1789097693666069800,12.46706982421875,0.1581342139482498,0.6572079173214733,0.10789514205157756
