time,seconds_elapsed,z,y,x
1789482967258395100,0.04639501953125,-0.5140519306659698,0.04672361112162471,-0.3862257612198591
1789482967268445200,0.056445068359375,-0.5495680652052164,0.06931479763612151,-0.4759923952542245
1789482967278494500,0.066494384765625,-0.7811357641547918,0.11195143170505761,-0.3323361309263855
1789482967288544300,0.076544189453125,-1.1331091271609066,0.16293167735785244,-0.36811530031599105
1789482967298593300,0.08659326171875,-1.330081313547492,0.13103037231490014,-0.5438912616778164
1789482967308643300,0.096643310546875,-1.2553928600490092,0.07080299036726355,-0.44957587829791007
1789482967318692000,0.106692138671875,-1.0092185435980559,0.07685571453496813,-0.30711444977782665
1789482967328742100,0.1167421875,-0.7245967153310775,0.3003989508524537,-0.10821582537330686
1789482967338791400,0.12679150390625,-0.4747855036824941,0.5879499644391238,0.1408619574341923
1789482967348841200,0.13684130859375,-0.3248883722037077,0.6503195460472255,0.3908947028789669
1789482967358890200,0.14689013671875,-0.21816052036583422,0.47228630727790294,0.4867356153257191
1789482967368940300,0.156940185546875,-0.08454992229938507,0.30416502538770435,0.5371899374082684
1789482967378989300,0.1669892578125,0.13010346672832965,0.08001856248006224,0.6163911190908402
1789482967389039400,0.177039306640625,0.30773908448219295,-0.30122312671691176,0.5600618405602872
1789482967399088000,0.187088134765625,0.4013800757318735,-0.5816157929815352,0.4864810560427606
1789482967409138200,0.19713818359375,0.24830314517319202,-0.5359298543445765,0.6077401951234788
1789482967419187200,0.207187255859375,0.29244331567287446,-0.43410000368133184,0.6655180650271475
1789482967429237200,0.2172373046875,0.09605740474164486,-0.40145869392603634,0.4661981464706361
1789482967439286300,0.227286376953125,-0.6129775843203067,-0.34516266007795926,0.4134248068559915
1789482967449336300,0.23733642578125,-1.3533710037201643,-0.11670885536521673,0.5654592426244169
1789482967459386400,0.247386474609375,-1.9335873051673174,0.28163725949823853,0.8498633364874869
1789482967469435100,0.25743505859375,-1.9260066407799719,0.4856143562108278,1.1096659999921916
1789482967479485200,0.267485107421875,-2.1590777300298214,0.3109090928204357,1.2449268494836985
1789482967489534200,0.2775341796875,-2.521447399365902,0.15581541561186313,1.0270672117605806
1789482967499584300,0.287584228515625,-2.445018824201822,0.0221381820499897,0.6049209729842842
1789482967509633300,0.29763330078125,-2.343160039705038,-0.2040145061135292,0.4482562470667064
1789482967519683300,0.307683349609375,-2.2217899145305156,-0.41351109689995647,0.4079312509410083
1789482967529732400,0.317732421875,-1.9042466443926094,-0.58260451175794,0.025186317574232814
1789482967539782400,0.327782470703125,-1.7193559409439563,-0.7094179970301687,-0.6206430043816566
1789482967549831200,0.3378310546875,-1.6285165631115435,-0.8476476331993937,-1.1608920370995999
1789482967559881200,0.347881103515625,-1.8087082950890063,-0.9792617967516183,-1.4840668833836912
1789482967569930200,0.35793017578125,-2.2737264379948376,-1.1148369728893042,-1.9547063733026384
1789482967579980300,0.367980224609375,-3.2332986148923633,-1.2487515223383903,-2.229264195933938
1789482967590029300,0.378029296875,-4.60195837315917,-1.322054366697371,-2.1930442970395085
1789482967600079400,0.388079345703125,-5.182917601928114,-1.673018552660942,-1.852690498548001
1789482967610128100,0.398128173828125,-5.106973010888695,-2.270661205205321,-1.5547968085147439
1789482967620178200,0.40817822265625,-5.008799636906385,-2.6062951355680823,-1.1264091911308467
1789482967630227200,0.418227294921875,-5.180402988758683,-2.8245319360405206,-0.8510308458968997
1789482967640277200,0.42827734375,-5.122570392993092,-2.9952243105277416,-0.631078765939176
1789482967650326300,0.438326171875,-5.061621711033583,-2.9559377175390718,-0.7240145315289497
1789482967660376300,0.448376220703125,-4.454187147793173,-3.1079899812251326,-1.380311325354874
1789482967670426400,0.45842626953125,-3.900591726768017,-3.1863404643625017,-2.409867139060795
1789482967680475100,0.46847509765625,-3.3770600200951097,-3.1067087092429397,-3.132000094626844
1789482967690525200,0.478525146484375,-2.9662241337537765,-3.201172122791409,-3.1617212791517373
1789482967700574200,0.48857421875,-3.170560711428523,-3.8172733920902013,-2.0303584111362696
1789482967710624300,0.498624267578125,-4.185460807794332,-4.185947714528441,-0.567793457725644
1789482967720673300,0.50867333984375,-4.876825115609169,-3.7380508022934196,0.6732090579211711
1789482967730723000,0.51872314453125,-4.468541251838207,-3.16620134717524,1.6572469830334187
1789482967740772400,0.5287724609375,-3.407099184527993,-2.815435021871328,2.280906120365858
1789482967750822400,0.538822509765625,-2.1342928328633306,-2.7608792558193205,2.3076649479538203
1789482967760871200,0.54887109375,-1.157355679666996,-2.8052807076036927,2.0636375804036855
1789482967770921200,0.558921142578125,-0.8890022646337747,-3.001314736357331,1.8234949453324079
1789482967780970200,0.56897021484375,-1.219424890089035,-2.9057161812990904,1.9942828891485929
1789482967791020000,0.57902001953125,-1.3006824928447605,-2.396045242196321,2.5351906780362126
1789482967801069300,0.5890693359375,-0.6751920484319329,-1.7142419589310884,3.292421250468492
1789482967811119400,0.599119384765625,-0.4147808245748281,-1.4862205542862414,3.7601667725116013
1789482967821168000,0.609168212890625,-1.9856046387828885,-1.6720181434467434,3.168967304757237
1789482967831218200,0.61921826171875,-2.3547080002881584,-1.8532701981320976,2.848302687728405
1789482967841267500,0.629267333984375,-2.484031568685174,-2.1867969270825385,2.829986109793186
1789482967851317200,0.639317138671875,-2.5593261713832614,-2.6155431486457585,2.788348277503252
1789482967861366300,0.6493662109375,-2.0526256263934073,-2.5651176142662764,3.1462486924707886
1789482967871416300,0.659416259765625,-1.3202502398848532,-2.1328648458868265,3.580108311524987
1789482967881465000,0.669465087890625,-0.5736125192679464,-1.7482050188094376,3.72589040890038
1789482967891515100,0.67951513671875,0.116633744302392,-1.4597870131298898,3.951653220963478
1789482967901564400,0.689564453125,0.7153810701530426,-1.2986802131116388,4.354338534075022
1789482967911614200,0.6996142578125,1.2153875973969697,-1.0805737610206008,4.690470769348741
1789482967921664300,0.709664306640625,1.3524410293936728,-0.9561730359785259,4.95308417942524
1789482967931713300,0.71971337890625,1.13912678001523,-0.9379457437619566,5.385823270016909
1789482967941763000,0.72976318359375,0.9972872827857732,-0.8802788599520921,5.483499215871095
1789482967951812400,0.739812255859375,0.9575707739472389,-0.7985845462795347,4.966774266603589
1789482967961862400,0.7498623046875,0.9528490061223507,-0.8967164192076772,4.437209124985337
1789482967971911200,0.7599111328125,1.0737129353404045,-1.0150707036923616,4.036619907370209
1789482967981961200,0.769961181640625,1.2288964827895164,-1.0318082688078283,3.7248300861924886
1789482967992010200,0.78001025390625,1.4164941071093082,-0.917804873009026,3.619297581619024
1789482968002060300,0.790060302734375,1.676461386591196,-0.790387576624751,3.6731624427974223
1789482968012109300,0.800109375,1.9469629195690155,-0.6788366885446011,3.7670483487188813
1789482968022159400,0.810159423828125,2.2913410051405427,-0.5577519561827182,3.7609623068034645
1789482968032208100,0.8202080078125,2.5833961982786655,-0.355254722764343,3.7218408412486315
1789482968042258200,0.830258056640625,2.7400784598529335,-0.23527166803404687,3.7486464305877685
1789482968052307500,0.840307373046875,2.8550422251164913,-0.14510412504859269,3.655650166982412
1789482968062357200,0.850357177734375,2.9410055213451383,0.025517449224740266,3.2689649715572595
1789482968072405800,0.86040576171875,2.8884160869300364,0.17877923483103514,2.9747791961312293
1789482968082455800,0.870455810546875,2.8410347425520417,0.3072371263094246,2.789484003534913
1789482968092505000,0.880505126953125,2.7933856871485707,0.48343876573741434,2.669582197347283
1789482968102555100,0.89055517578125,2.789538364070654,0.6726524469517171,2.645326292490959
1789482968112604000,0.90060400390625,2.8550469012916087,0.8782409243836998,2.7133044346958397
1789482968122654000,0.910654052734375,2.924452738212049,1.1832853629544378,2.86597395349741
1789482968132702700,0.92070263671875,2.9824948850750923,1.6593927628904581,2.9825948383182284
1789482968142752800,0.930752685546875,3.045547261315584,2.086009278948605,3.0928964569896458
1789482968152802000,0.940802001953125,3.0552140843272206,2.36537742447108,3.2145798858970402
1789482968162851800,0.950851806640625,3.0157413211166855,2.5100156125083566,3.271328778079152
1789482968172900900,0.96090087890625,2.915062101793289,2.7108023887470365,3.1987837663501497
1789482968182951000,0.970950927734375,2.72348622149229,2.920094250741601,2.9350971740841865
1789482968193000000,0.981,2.4852561420440673,3.0077728264555335,2.6626421689510344
1789482968203050000,0.991050048828125,2.218053650611639,3.2318589374780653,2.5062018994390964
1789482968213099000,1.00109912109375,1.9102292259335516,3.5075624230131504,2.3377350920468567
1789482968223148800,1.011148681640625,1.6469794176496564,3.6098864869341254,2.177642729768157
1789482968233197800,1.02119775390625,1.4293068269312381,3.671555007600784,1.973318427053094
1789482968243247900,1.031247802734375,1.2120821261107921,3.737143332059681,1.759784397444129
1789482968253297000,1.041296875,1.0823929392717777,3.828543850906193,1.7193723075568674
1789482968263347000,1.051346923828125,0.9989876569628715,3.909992300058901,1.8045640348911285
1789482968273396000,1.06139599609375,0.9265044584237039,3.9362650976955886,1.9579583608359097
1789482968283445800,1.07144580078125,0.8540368958450854,3.858975229527056,2.065199422892928
1789482968293495800,1.081495849609375,0.7279414957143366,3.744518244741857,2.030344382610917
1789482968303545000,1.091545166015625,0.6139690795756876,3.804063781905174,1.9021967261254786
1789482968313595000,1.101594970703125,0.38639826824255286,3.929420638628304,1.7791332410365341
1789482968323644000,1.111643798828125,0.13640074024163185,4.021034800225496,1.5207652134448288
1789482968333694000,1.12169384765625,-0.05336436431035399,4.103417899879813,1.226431553980708
1789482968343742700,1.13174267578125,-0.18452764228992163,4.117507800030708,1.2342109558105467
1789482968353793000,1.14179296875,-0.15005495238900185,4.052162928938865,1.3874123895317316
1789482968363842000,1.151842041015625,-0.059084568588063116,4.032051868802308,1.511348565801978
1789482968373891800,1.161891845703125,0.11189743649549781,4.105786967098712,1.6783032150655983
1789482968383940900,1.17194091796875,0.2709703560659662,4.229699762493372,1.8716309074699877
1789482968393991000,1.181990966796875,0.39139461522512137,4.377350576350093,2.0527087746322152
1789482968404040000,1.1920400390625,0.4133832327365875,4.404454856374859,2.3937176760315895
1789482968414090000,1.202090087890625,0.2927658986907452,4.249876289081573,2.7314906642496584
1789482968424139000,1.212138916015625,0.1403063328454271,3.8792356350064274,2.979825958126783
1789482968434188800,1.222188720703125,-0.09290040201544761,3.592427110350132,3.2588597571283575
1789482968444237800,1.23223779296875,-0.35403442372176797,3.2793174387454984,3.457717026609182
1789482968454288100,1.2422880859375,-0.5667886280646547,2.911009027010202,3.6209926950991154
1789482968464337000,1.2523369140625,-0.7192763970911502,2.5796926675856113,3.883708981028199
1789482968474387000,1.262386962890625,-0.7482850494325161,2.3794880751490592,4.129227463918924
1789482968484436000,1.27243603515625,-0.6378910763025284,2.3832623329907654,4.37808298227787
1789482968494485800,1.28248583984375,-0.5023755213975906,2.497272743052244,4.610148109355569
1789482968504535000,1.29253515625,-0.3463233378877863,2.746334597638249,4.734209373310208
1789482968514585000,1.302585205078125,-0.34259533034060147,3.142159961852431,4.7155841678172346
1789482968524633900,1.3126337890625,-0.37299163764808324,3.530387126022577,4.495159209650755
1789482968534684000,1.322683837890625,-0.42548988664839416,3.8682583139181137,4.136442802125215
1789482968544733000,1.33273291015625,-0.4496516104152426,4.084770482555031,3.7256338037908074
1789482968554783000,1.342782958984375,-0.40326866595745087,4.177380961713195,3.2907249679446218
1789482968564832000,1.35283203125,-0.3086883845636621,4.1368659959733485,2.74942905652225
1789482968574882000,1.362882080078125,-0.1865945847570896,4.07886038172841,2.2976398130238054
1789482968584930800,1.372930908203125,-0.087062197381258,4.072274865858256,1.92839733530879
1789482968594980900,1.38298095703125,0.11627769740633666,3.9921787080973385,1.5213602567285298
1789482968605030000,1.39302978515625,0.4098796085298061,3.803405610257387,1.2998556866317987
1789482968615080000,1.403079833984375,0.709830523353815,3.5206770483911036,1.1681512144476174
1789482968625129000,1.41312890625,1.0025802746273578,3.1374294261991977,1.0495324338078498
1789482968635179000,1.423178955078125,1.1284136628210544,2.636138777428865,1.164166528725624
1789482968645228000,1.43322802734375,0.7060662023842335,1.9044778227999806,1.4604536603450775
1789482968655278000,1.443278076171875,0.223329557034187,1.0121043281674384,0.7319125913023948
1789482968665326800,1.453326904296875,1.0069255372900516,0.7092308038949966,-0.31839725661873813
1789482968675377000,1.463376953125,1.5314368295848368,0.8910685495138168,0.17410627458393574
1789482968685426000,1.473426025390625,0.8141489759624004,0.4613806631863117,1.1138760189026593
1789482968695475700,1.483475830078125,0.7183084288418292,-0.3181090873271227,1.41194009706676
1789482968705525000,1.49352490234375,1.4189292253017425,-0.3751920337691903,1.2805682178378104
1789482968715575000,1.503574951171875,1.8708534933567047,-0.020761632999777794,1.9525486107468604
1789482968725623800,1.513623779296875,2.0272890866935254,-0.003619359540939331,2.169798446008563
1789482968735673900,1.523673828125,2.3341223083771765,0.021420389169454573,3.3264795874148607
1789482968745723100,1.53372314453125,2.1567700376093386,-0.10859788349345326,4.593859237855672
1789482968755773000,1.54377294921875,1.395654732698202,-0.5388708762325346,4.714107665523886
1789482968765822000,1.553822021484375,1.4017898744523525,-0.6962221231095492,4.3120407765716315
1789482968775872000,1.5638720703125,1.586353830164671,-0.6122397715650498,3.822847392830252
1789482968785920800,1.573920654296875,1.477763691586256,-0.6379853304572403,3.3822342078626155
1789482968795970800,1.583970703125,1.3852619334995746,-0.8638418121531605,3.0637352444350716
1789482968806020000,1.59402001953125,1.2962111926496027,-1.101795485812798,2.8900527482211587
1789482968816070000,1.60406982421875,1.2466004817843437,-1.136839326665178,2.7201158682763573
1789482968826119000,1.614118896484375,1.1881074493486434,-1.1124463514257221,2.5048323646515605
1789482968836169000,1.6241689453125,1.1509504157345742,-1.1516066146209836,2.3350965602368117
1789482968846218800,1.63421875,1.105888454214856,-1.2438469452925025,2.1340315515786408
1789482968856268000,1.64426806640625,1.03787589828372,-1.3916852445453405,1.9293699797332287
1789482968866317000,1.654317138671875,0.9872925429940224,-1.5679389064215123,1.7940958323687315
1789482968876366800,1.664366943359375,0.932295024523884,-1.84693851089254,1.5931284388661384
1789482968886417000,1.6744169921875,0.8200291931074112,-2.1509455692395565,1.398577342146635
1789482968896466000,1.6844658203125,0.7210124271035194,-2.475112933692336,1.1656839475512504
1789482968906515700,1.694515625,0.6449111841976642,-2.7986925613850353,0.9563216506689787
1789482968916565000,1.70456494140625,0.6236018541872501,-2.990856178446114,0.6684516342610121
1789482968926615000,1.714614990234375,0.6546516569674015,-3.1791324326798316,0.2737725174725055
1789482968936663800,1.724663818359375,0.6618002866130321,-3.357764367994666,-0.09457213461995125
1789482968946713900,1.7347138671875,0.6150865392982959,-3.5794188679561016,-0.39328269399404525
1789482968956763100,1.74476318359375,0.5742389806032181,-3.7407016090631484,-0.643046559369564
1789482968966813000,1.75481298828125,0.6319395474869758,-3.798369954177737,-0.885881502264738
1789482968976862000,1.764862060546875,0.7072318120975047,-3.8926018970578906,-1.124322594115138
1789482968986912000,1.774912109375,0.714504360383749,-4.053949520094693,-1.3342431094020604
1789482968996960800,1.784960693359375,0.6991396179914474,-4.235147798766196,-1.534243703699112
1789482969007010800,1.7950107421875,0.6764683519780635,-4.36280884077847,-1.8325094419151544
1789482969017060000,1.80506005859375,0.6038543301334605,-4.452177853797376,-2.159033890888095
1789482969027110000,1.81510986328125,0.4939186586976051,-4.544243558554351,-2.451854807701707
1789482969037159000,1.825158935546875,0.3887842135310173,-4.636455686044693,-2.719670462596416
1789482969047209000,1.835208984375,0.27557163931634276,-4.708098780497909,-2.98468041242063
1789482969057258000,1.845258056640625,0.18512743481397628,-4.735924360534549,-3.1737299891144035
1789482969067308000,1.85530810546875,0.1119499704003334,-4.800136428204179,-3.3097838886797426
1789482969077356500,1.8653564453125,0.06426114924205467,-4.821774259516596,-3.3627906717240807
1789482969087406300,1.87540625,0.002332242339849472,-4.913304542222619,-3.3563696987658735
1789482969097455600,1.88545556640625,-0.10728197858929633,-5.0642976522445675,-3.3378608131289482
1789482969107505700,1.895505615234375,-0.21180267577171324,-5.240264460003376,-3.3188299494445324
1789482969117554400,1.905554443359375,-0.2691886968135834,-5.4092672739684575,-3.3262200596958396
1789482969127604500,1.9156044921875,-0.3354746481478214,-5.622357066941261,-3.3548896893411873
1789482969137653500,1.925653564453125,-0.3885270238995552,-5.8152224025309085,-3.377404888010025
1789482969147703300,1.935703369140625,-0.45464346388578414,-5.9425955675125115,-3.4099966595351696
1789482969157752600,1.945752685546875,-0.5207832847476005,-6.02303746997118,-3.4454408978819844
1789482969167802600,1.955802734375,-0.5779647231280803,-6.127033266496658,-3.4080314969420433
1789482969177851400,1.965851318359375,-0.6018401042342185,-6.223610311198234,-3.154167210510373
1789482969187901400,1.9759013671875,-0.6646271075367927,-6.327469914123416,-2.7967373356640337
1789482969197950700,1.98595068359375,-0.8009773597002029,-6.466513058632612,-2.2958067523777483
1789482969208000500,1.99600048828125,-1.044921725142002,-6.740331753334402,-1.5843085880726575
1789482969218049500,2.006049560546875,-1.3252666067421435,-7.1590908338904375,-0.625771014919877
1789482969228099600,2.016099609375,-1.4989140316426752,-7.558802099627256,0.2639887900829315
1789482969238148400,2.0261484375,-1.6528022785842418,-7.8806492044389245,0.9495388586610555
1789482969248198400,2.036198486328125,-1.750021128320694,-8.063196559631823,1.5027929189026354
1789482969258247700,2.04624755859375,-1.8137819450914858,-8.076361161631345,2.027377349498868
1789482969268297500,2.05629736328125,-1.8012708385646343,-7.903077893868089,2.595614459338784
1789482969278346500,2.066346435546875,-1.6582967843472958,-7.510462139350175,3.163195735618472
1789482969288396500,2.076396484375,-1.4097148222327232,-7.003789213019609,3.6695103500306603
1789482969298445600,2.086445556640625,-1.1273825662076473,-6.472434265375137,4.185405278214812
1789482969308495600,2.09649560546875,-0.891679959410429,-5.80876577373743,4.679653022736311
1789482969318544600,2.106544677734375,-0.683643942695856,-4.943887312012911,5.023652922645211
1789482969328594400,2.116594482421875,-0.48746655994877214,-3.8401194301486012,5.184916082268953
1789482969338643500,2.1266435546875,-0.2527086135905236,-2.588701318949461,5.049454303377867
1789482969348693500,2.136693603515625,-0.1328054922286421,-1.3384390997871756,4.73041874885559
1789482969358742500,2.146742431640625,-0.15039265991076825,-0.22147417495846747,4.3390158772587775
1789482969368792600,2.15679248046875,-0.28836101479530335,0.765709939225018,3.919928879922628
1789482969378841300,2.16684130859375,-0.35838688331022855,1.6195191637940705,3.530174944576621
1789482969388891400,2.176891357421875,-0.30711598414778707,2.2157769378513095,3.2283301788300274
1789482969398940700,2.186940673828125,-0.14368965514078735,2.622923906546831,3.0950422368466852
1789482969408990700,2.19699072265625,0.1490682794392109,2.7975515746563673,3.1114088497579098
1789482969419039500,2.20703955078125,0.49037397182807324,2.7054487527593967,3.3119378518432376
1789482969429089500,2.217089599609375,0.9577823708713054,2.4691940650373696,3.595933657166362
1789482969439138300,2.22713818359375,1.3842507106304167,2.1022414518252015,3.7712633360654113
1789482969449188400,2.237188232421875,1.631622712433338,1.6385110106423497,3.8089059612393377
1789482969459237600,2.247237548828125,1.7236438473962246,1.1305249558866024,3.672489658102393
1789482969469287400,2.257287353515625,1.734402557297796,0.7162824759721755,3.3725288064062595
1789482969479336400,2.26733642578125,1.636784186849743,0.42393385284543034,2.9732565166085956
1789482969489386500,2.277386474609375,1.5276866832710803,0.3213186970233917,2.475983871307969
1789482969499435500,2.287435546875,1.4176938382878899,0.3261930250614881,2.026606365126371
1789482969509485600,2.297485595703125,1.3280631055928767,0.3845245102599263,1.6682815872669219
1789482969519534600,2.30753466796875,1.2603237405799328,0.42311084602475163,1.3896955320328472
1789482969529584400,2.31758447265625,1.2807017810896038,0.5061971255123615,1.1342734947651625
1789482969539633400,2.32763330078125,1.3235776307418943,0.5831149454981088,0.9491524896919726
1789482969549683500,2.337683349609375,1.382291247125715,0.6780842627421021,0.7762333790659904
1789482969559732500,2.347732421875,1.4174154597379267,0.7247419690206647,0.5625666629880667
1789482969569782500,2.357782470703125,1.3994601163305342,0.7031050144910812,0.402783512789011
1789482969579831600,2.36783154296875,1.4289816866301,0.6404112424299121,0.30835867768526076
1789482969589881300,2.37788134765625,1.492397635485977,0.562896041072905,0.15574819559454917
1789482969599930600,2.3879306640625,1.5197954916298388,0.5398711393162607,-0.08070376826524735
1789482969609980700,2.397980712890625,1.5455448499143123,0.572717177863419,-0.30336160005033014
1789482969620029400,2.408029541015625,1.549537280551344,0.677746993611753,-0.5221335303127765
1789482969630079500,2.41807958984375,1.5617724927462637,0.8517617905199527,-0.7667927660256624
1789482969640128500,2.42812841796875,1.4772645098924635,1.0203510552480817,-0.939468715545535
1789482969650178600,2.438178466796875,1.344304630819708,1.1648887055203319,-1.0095961447387933
1789482969660227600,2.4482275390625,1.2863466551087797,1.3154188742056487,-0.8720797714054584
1789482969670276400,2.4582763671875,1.2738042766608297,1.4784934671655297,-0.7437918296664953
1789482969680326400,2.468326416015625,1.2101670862697065,1.5744301681369541,-0.6749222915798425
1789482969690375700,2.478375732421875,1.190363484647125,1.63231858574301,-0.49908933933377264
1789482969700425700,2.48842578125,1.2207143453776836,1.718807951672375,-0.3648889586806297
1789482969710474500,2.498474609375,1.245925797393173,1.8605778907969592,-0.36588556850254533
1789482969720524500,2.508524658203125,1.249256403120607,1.9521642876043914,-0.41642742273807526
1789482969730573300,2.5185732421875,1.264834057611227,2.0749618152335283,-0.4103688533514738
1789482969740623400,2.528623291015625,1.2828899387836457,2.1884704132527113,-0.34014322448074813
1789482969750672600,2.538672607421875,1.3108384145475924,2.3488828012660146,-0.22178280251622198
1789482969760722400,2.548722412109375,1.3490147082068025,2.509637719106674,-0.04885083240866661
1789482969770771500,2.558771484375,1.3829308602035044,2.6765125811323522,0.10540215619206428
1789482969780821500,2.568821533203125,1.4521502346411346,2.875613303980231,0.26909751139879223
1789482969790870500,2.57887060546875,1.5196492150269447,3.0492779722765087,0.4056307189136743
1789482969800920600,2.588920654296875,1.5606198155798017,3.1925290898695584,0.4722632917284965
1789482969810969600,2.598969482421875,1.5240144244991243,3.3825206235885616,0.497221791896224
1789482969821019400,2.609019287109375,1.4322202301599085,3.560665067647397,0.5729863501936197
1789482969831068400,2.619068359375,1.2850456555128096,3.6265167192175984,0.5805190837860107
1789482969841118500,2.629118408203125,1.0577825218893586,3.6702331113472577,0.6328530821353197
1789482969851167500,2.63916748046875,0.8692926249049604,3.702978904390335,0.7914315327197313
1789482969861217500,2.649217529296875,0.6952233213305473,3.703462303993106,0.90915307225883
1789482969871266600,2.6592666015625,0.5556723734296858,3.794367440538108,1.0226455959260463
1789482969881316400,2.66931640625,0.45300585274659094,3.899940277121961,1.1753729823946952
1789482969891365600,2.67936572265625,0.3680619626935571,3.9568852763980624,1.297163963329792
1789482969901415700,2.689415771484375,0.26553411982879044,4.0125644935220475,1.4221300671696662
1789482969911464400,2.69946435546875,0.15901201969608664,4.028626570528745,1.544105757021904
1789482969921514500,2.709514404296875,0.028861352825164794,3.9916006159484385,1.656966412526369
1789482969931563500,2.7195634765625,-0.1517255159497261,3.9096763659775253,1.87158940641582
1789482969941613300,2.72961328125,-0.3499006483852863,3.7713860856622454,2.128988296714425
1789482969951662600,2.73966259765625,-0.5862227753203362,3.575733165180683,2.34567406835258
1789482969961712600,2.749712646484375,-0.8555599406939,3.3270611866950985,2.676203661313653
1789482969971761400,2.759761474609375,-1.0755365705709903,3.001715718373656,3.0964369060754775
1789482969981811500,2.7698115234375,-1.2586579993247986,2.553787826478481,3.5254175209164615
1789482969991860500,2.779860595703125,-1.3679776212215422,1.9935972449719905,3.9994337937921283
1789482970001910500,2.78991064453125,-1.3969079476296902,1.5275786928519606,4.472636412197351
1789482970011959600,2.79995947265625,-1.192423558982089,1.3393869020313023,4.799767010369896
1789482970022009600,2.810009521484375,-0.9257727831482887,1.4476853641867637,4.990300688141584
1789482970032058400,2.820058349609375,-0.5820131217360496,1.837245238265395,5.054904385477304
1789482970042108400,2.8301083984375,-0.2203052042443305,2.3682152782455086,4.980671274530887
1789482970052157400,2.840157470703125,0.021125717071816322,2.809840270604193,4.7614276351034635
1789482970062207500,2.85020751953125,0.12581943273358046,3.0962036818414926,4.448103443965316
1789482970072256500,2.860256591796875,0.27404256658554077,3.3142750626191493,4.129094192928076
1789482970082307300,2.870307373046875,0.48671859112568194,3.4869776078850028,3.720800392284989
1789482970092356000,2.880356201171875,0.7408183668136596,3.6321693381518125,3.2559114287167787
1789482970102406100,2.89040625,1.0289058984298258,3.7949265357255935,2.800992655020952
1789482970112455400,2.900455322265625,1.3164976093530654,3.8989699707850813,2.4281378320276734
1789482970122505200,2.910505126953125,1.5763865629017353,4.050608100712299,2.1193185510933397
1789482970132554200,2.92055419921875,1.7592156576454638,4.175966711001098,1.8788988526463508
1789482970142604300,2.930604248046875,1.8212988965928554,4.2090094411641354,1.6293156045347452
1789482970152653300,2.9406533203125,1.7266729859590528,4.169674625119566,1.3256284257918596
1789482970162703400,2.950703369140625,1.4887164627552032,3.9933950981497763,1.10242348151803
1789482970172752400,2.96075244140625,1.165369474774599,3.5328929713636636,1.025125137782097
1789482970182802200,2.97080224609375,0.9524608835875987,2.85645238417536,1.1594570358604193
1789482970192851200,2.980851318359375,0.8428233548481017,1.988439716078341,1.4759475820749997
1789482970202901200,2.9909013671875,0.5129706017026677,0.9949497797489165,1.9648574726998804
1789482970212950300,3.0009501953125,0.07489720087833703,0.01943593735396862,1.8070336398750542
1789482970223000300,3.011000244140625,0.4714462031919509,-0.7433657132089138,1.2903040144324303
1789482970233049300,3.02104931640625,1.3032955979526042,-1.230782734927535,1.0576929439097642
1789482970243099100,3.03109912109375,1.8320973539829253,-1.6001532229363917,1.3188000410765408
1789482970253148400,3.0411484375,2.3249171115279195,-1.8488944672659038,2.220946449443698
1789482970263197200,3.051197265625,2.548087569010258,-2.204310371941328,3.3974949053585526
1789482970273247200,3.061247314453125,2.4069477444827556,-2.6825112370252606,3.6816719124674795
1789482970283296300,3.071296142578125,2.5667186197221277,-2.7441853106498715,3.5740719539701935
1789482970293346300,3.08134619140625,2.817089218819141,-2.4637334615439177,3.4487498762995004
1789482970303395300,3.091395263671875,2.744073082447052,-2.4606354955285785,3.2436768010437484
1789482970313445400,3.1014453125,2.537113755053282,-2.6590052737534045,2.973946252438426
1789482970323494100,3.111494140625,2.360156913343817,-2.6916128273695707,2.633968447652459
1789482970333544200,3.121544189453125,2.151577145141363,-2.5712740910694003,2.275277759090066
1789482970343593500,3.131593505859375,1.9358301156580446,-2.443038464039564,2.0271932251036167
1789482970353643500,3.1416435546875,1.7735352748990059,-2.362088319797814,1.8014286594748496
1789482970363692300,3.1516923828125,1.6302233670294284,-2.2600649923890828,1.553645154261589
1789482970373742300,3.161742431640625,1.5398608129285276,-2.1308706033296883,1.319499129256606
1789482970383791000,3.171791015625,1.5352711470507086,-2.033074684357643,1.1037824949115513
1789482970393841200,3.181841064453125,1.5739339090526103,-1.9920615598373115,0.8688549641400575
1789482970403890400,3.191890380859375,1.537520533412695,-2.061582255309075,0.7145803482294082
1789482970413940200,3.201940185546875,1.4469605570435524,-2.2445541195243597,0.5856558621525764
1789482970423989200,3.2119892578125,1.357362703704834,-2.494052319701016,0.4215735534548759
1789482970434039300,3.222039306640625,1.2497707823835313,-2.831796958607435,0.2458896542906761
1789482970444088300,3.23208837890625,1.2022422846198082,-3.22378464435488,0.11586626706123351
1789482970454138400,3.242138427734375,1.1999581192053854,-3.5970354809284206,-0.04163081802725792
1789482970464187400,3.2521875,1.2251613879144192,-3.8413855045616625,-0.3369166636496782
1789482970474237200,3.2622373046875,1.208711626764387,-3.994945250201225,-0.7363210553944111
1789482970484286200,3.2722861328125,1.1274304970026015,-4.121360968327522,-1.1431190645217895
1789482970494336300,3.282336181640625,1.0403474029637874,-4.21397963079214,-1.4993518385380507
1789482970504385300,3.29238525390625,0.988575130150467,-4.262967825844884,-1.8236153568416833
1789482970514435300,3.302435302734375,0.9763784964002669,-4.318302467314899,-2.1059955436617135
1789482970524484400,3.312484375,0.9296668679773807,-4.39031644090712,-2.299641800495982
1789482970534534100,3.3225341796875,0.8489793201945721,-4.515618644833564,-2.4494997690081597
1789482970544583400,3.33258349609375,0.7481975903447717,-4.655216500616073,-2.599195824956894
1789482970554633500,3.342633544921875,0.6162428697265684,-4.821427638036012,-2.7878736457288262
1789482970564682200,3.35268212890625,0.4630757766664028,-4.972996502119303,-2.9498791481524704
1789482970574732300,3.362732177734375,0.3258639392375946,-5.083762231171131,-3.0993945868372914
1789482970584781300,3.37278125,0.23377594958357512,-5.185851901814341,-3.239344909319281
1789482970594831000,3.3828310546875,0.1907855336409062,-5.281833318710327,-3.31924437546432
1789482970604880400,3.39288037109375,0.20257073704600334,-5.372264700263738,-3.339929436096549
1789482970614929200,3.40292919921875,0.25097258357815444,-5.350508795529604,-3.3171021027386187
1789482970624979200,3.412979248046875,0.2766905238110572,-5.303959810322523,-3.2526141407370566
1789482970635028500,3.423028564453125,0.2622563402671367,-5.347219106334448,-3.1385557998806237
1789482970645078300,3.433078369140625,0.20337511223144827,-5.437817661148309,-2.9765801080733536
1789482970655127300,3.443127197265625,0.11216850852183997,-5.505310065662861,-2.8486019629359243
1789482970665177300,3.45317724609375,0.02160853215269744,-5.575939599159359,-2.7058295687705276
1789482970675226000,3.46322607421875,0.057246831766888495,-5.717497356837987,-2.552978848183155
1789482970685276200,3.473276123046875,0.09396072472333908,-5.928681023928522,-2.286411732044816
1789482970695325400,3.483325439453125,0.1978759302932769,-6.144895086401701,-1.9274808049857615
1789482970705375200,3.493375244140625,0.20196648754253982,-6.319145737892389,-1.520457170408964
1789482970715424300,3.50342431640625,0.10585355322137474,-6.422974945679306,-0.9640572133570909
1789482970725474300,3.513474365234375,-0.09535539395213126,-6.547787320262193,-0.2323959664672613
1789482970735523300,3.5235234375,-0.3683399028521031,-6.733741269028187,0.6408996104687452
1789482970745573400,3.533573486328125,-0.6531656561933458,-7.065400158280133,1.5161071585059165
1789482970755622400,3.543622314453125,-0.9125007752515375,-7.371900056356191,2.3497020086944103
1789482970765672200,3.553672119140625,-1.0688799622260035,-7.591901820674538,3.0489012479186055
1789482970775721200,3.56372119140625,-0.9785749835312366,-7.782934680140018,3.4824311966270205
1789482970785771300,3.573771240234375,-0.7606675611436367,-7.875278617316484,3.761618140363693
1789482970795820300,3.5838203125,-0.3426993387043476,-7.680166964104771,3.8740602781951425
1789482970805870300,3.593870361328125,0.09502455456256866,-7.052033896228671,3.824170165866613
1789482970815919400,3.60391943359375,0.5146140945933759,-6.188870421728492,3.678867960962653
1789482970825969200,3.61396923828125,0.8586744925178587,-5.400936667996644,3.6498826894968746
1789482970836018400,3.624018310546875,0.9862545782484113,-4.59486198515743,3.7277556182503697
1789482970846068500,3.634068359375,0.9281682999826967,-3.630415480221808,3.761241123744845
1789482970856117200,3.6441171875,0.8575415429651737,-2.567438458429277,3.622672611010074
1789482970866167300,3.654167236328125,0.7341935418464243,-1.5602324236974119,3.2866596182018517
1789482970876216300,3.66421630859375,0.6172375798523426,-0.6849865164112299,3.0374037023484703
1789482970886266000,3.67426611328125,0.5991875438988209,0.0565150834262371,2.757345820996165
1789482970896315400,3.6843154296875,0.6563830108046531,0.7189610475316643,2.359541850185394
1789482970906364200,3.6943642578125,0.7108641041852534,1.3887687725767492,1.9686895982086656
1789482970916414200,3.704414306640625,0.757212013862282,2.012875507546216,1.6974679342627523
1789482970926463500,3.71446337890625,0.8125732510782778,2.412806115122139,1.62220080409348
1789482970936513300,3.72451318359375,0.8624331143990158,2.6125924821466207,1.7210820340842008
1789482970946562300,3.734562255859375,0.9127193864382803,2.649086229546368,1.9007704927146434
1789482970956612400,3.7446123046875,0.9864416252531111,2.489085052682459,2.138524771344662
1789482970966661000,3.7546611328125,1.1051311330415308,2.161161842827499,2.408164719057083
1789482970976711200,3.764711181640625,1.131794683561474,1.7342694324374197,2.496978144019842
1789482970986760400,3.774760498046875,1.0785716274179518,1.3022536876842379,2.474675126796961
1789482970996810200,3.784810302734375,0.9981588049232959,0.95243984079957,2.4871383025288583
1789482971006859300,3.794859375,0.9216612561762333,0.6269543794855476,2.4525766922354695
1789482971016909300,3.804909423828125,0.8935562746763229,0.4031970620259642,2.3057962314724922
1789482971026958300,3.814958251953125,0.8703753055751323,0.35664895360171794,2.084730052793026
1789482971037008400,3.82500830078125,0.8637959271848201,0.41127661584615705,1.9530501305282115
1789482971047057400,3.835057373046875,0.910906345666945,0.5002440623268485,1.8637521369189023
1789482971057107200,3.845107177734375,0.9666964758194982,0.5825573116153479,1.7291151184141635
1789482971067156200,3.85515625,1.0676258705116808,0.6154319917351007,1.5229904882788656
1789482971077205500,3.86520556640625,1.1844915238738059,0.6641475073263049,1.2729419607430696
1789482971087254500,3.875254638671875,1.3227530164860188,0.6843313404381275,1.0104109682530165
1789482971097304300,3.88530419921875,1.4550281281650066,0.7523962841436267,0.7519149303674697
1789482971107353300,3.895353271484375,1.536505803412199,0.8299497716844081,0.45047523829042907
1789482971117403400,3.9054033203125,1.585375486651808,0.9428580657228827,0.17414426850676534
1789482971127452400,3.915452392578125,1.6577033484987913,1.067881744968891,0.031366613644361496
1789482971137502500,3.92550244140625,1.7055206000760197,1.2263880070999265,-0.11385551176071167
1789482971147551500,3.935551513671875,1.7398809887088835,1.429941033181548,-0.24682839644551274
1789482971157601300,3.945601318359375,1.7035247500836848,1.6795023617222904,-0.3182686618030071
1789482971167650600,3.955650634765625,1.6961773099303246,1.922580465723574,-0.27451427575051784
1789482971177699300,3.96569921875,1.6483634193539618,2.1225550487965346,-0.12491583495736121
1789482971187749400,3.975749267578125,1.58771693521142,2.2715780277892947,-0.043400750309228894
1789482971197798400,3.98579833984375,1.4840600152514873,2.4219424845188855,0.015758710145950316
1789482971207848200,3.99584814453125,1.39509461459741,2.553297704873979,0.16178747575879096
1789482971217897500,4.0058974609375,1.3361198630593716,2.6711779421061275,0.24634090518951415
1789482971227947500,4.015947509765625,1.2638486998356877,2.786591496963799,0.28714111761152744
1789482971237996300,4.025996337890625,1.2083728963293134,2.875721732790768,0.3563976091891527
1789482971248046300,4.03604638671875,1.1930663138650357,2.9214021184697745,0.47648529333770273
1789482971258095600,4.046095703125,1.2349557828284798,2.964265108640492,0.648917497229576
1789482971268145400,4.0561455078125,1.257095133922249,2.9805504730090497,0.801305276480317
1789482971278194400,4.0661943359375,1.229523236385733,3.0040441613212225,0.9078525110542773
1789482971288244500,4.076244384765625,1.1664521554447709,3.057250266329944,0.933618235951662
1789482971298293200,4.086293212890625,1.0907355279423296,3.1227912445157764,0.9217559487223624
1789482971308343300,4.09634326171875,1.0949753574691712,3.175232210370898,0.8596195182830095
1789482971318392600,4.106392578125,1.110198791694641,3.27500600528717,0.8098989173024892
1789482971328442400,4.1164423828125,1.1299056549444795,3.385114147213101,0.746494658884406
1789482971338491400,4.126491455078125,1.1321792989648878,3.4645664541125294,0.7047375841289758
1789482971348541400,4.13654150390625,1.10491383702904,3.5273072801858185,0.7203133389234543
1789482971358590500,4.146590576171875,1.0201860739447175,3.601677169254422,0.7286363461107015
1789482971368640500,4.156640625,0.9217524415910243,3.6727702286094424,0.7788292407780886
1789482971378689500,4.166689453125,0.7767654401160776,3.735142513631284,0.824974321359396
1789482971388739300,4.1767392578125,0.6107761287532747,3.784464762943983,0.888442292663455
1789482971398788400,4.186788330078125,0.42077144329175353,3.8283530045092102,0.967768342834711
1789482971408838400,4.19683837890625,0.25763737522959707,3.8470942375972865,1.0186053806245325
1789482971418887400,4.206887451171875,0.06980133904404938,3.8087358653694388,1.1148322967141866
1789482971428936400,4.2169365234375,-0.09005823739208281,3.7324116273626684,1.2060521982967853
1789482971438986500,4.226986572265625,-0.22966215758919714,3.683084701874852,1.3032628647267819
1789482971449035500,4.237035400390625,-0.35910321488603947,3.58679816455245,1.446407599335909
1789482971459085600,4.24708544921875,-0.4736624910019338,3.4918706406235693,1.6050193676680327
1789482971469134300,4.25713427734375,-0.5247590565107763,3.3794758490651846,1.7431664401203393
1789482971479184400,4.267184326171875,-0.5336087909858673,3.2605273980796334,1.8511282176673411
1789482971489233400,4.2772333984375,-0.516985061508417,3.1847125708997246,1.9434119490891695
1789482971499283200,4.287283203125,-0.5765888316649943,3.0882968542397022,2.097685980477929
1789482971509332500,4.29733251953125,-0.72779295408912,2.8081796439155933,2.456893386390805
1789482971519382500,4.307382568359375,-0.8232055581212043,2.3892843697592614,2.962839752012491
1789482971529431300,4.317431396484375,-0.8319218754749744,1.8461738101303575,3.516463230088353
1789482971539481300,4.3274814453125,-0.7343266667068005,1.3193062370330095,3.989827176535129
1789482971549530600,4.337530517578125,-0.6318797801237553,0.8876166554942727,4.327774936798215
1789482971559580400,4.347580322265625,-0.3275204742729664,0.6982891386419534,4.401066382980346
1789482971569629400,4.35762939453125,0.012483049476146698,0.6910597719103098,4.068325543710589
1789482971579679500,4.367679443359375,0.22124738046526907,0.9357026410102843,3.4931384686022997
1789482971589728300,4.377728271484375,0.366080214291811,1.2852023073792458,3.0743250275105236
1789482971599778300,4.3877783203125,0.5657026959914714,1.6512980115011333,2.843192212846875
1789482971609827600,4.39782763671875,0.74174315350838,2.056239871367812,2.650962252551317
1789482971619877400,4.40787744140625,0.9477461300253868,2.483849782377481,2.4099767369151115
1789482971629926400,4.417926513671875,1.1935143498934804,2.882308709965646,2.2052958758473395
1789482971639976400,4.4279765625,1.3944342509925365,3.2134733859598636,1.992232970881462
1789482971650025500,4.438025390625,1.577062270206213,3.468388350488245,1.7795646181911229
1789482971660074500,4.448074462890625,1.6724632568657398,3.6521652474761006,1.582757851499319
1789482971670124500,4.45812451171875,1.6845944241642952,3.708927583661675,1.3439467572927475
1789482971680173300,4.46817333984375,1.5868004048883915,3.657397887432575,1.0606780972003935
1789482971690223400,4.478223388671875,1.405591604822874,3.427183356657624,0.8230962525278329
1789482971700272400,4.4882724609375,1.1586558024801312,3.049646805588901,0.6366939754724502
1789482971710322400,4.498322509765625,0.9608592940986156,2.5110695054754615,0.6016425358355045
1789482971720371500,4.508371337890625,0.8710112653911113,1.8724951230838893,0.8172276527553797
1789482971730421500,4.51842138671875,0.9332873965620994,1.182592996776104,1.2891682884007691
1789482971740470500,4.528470458984375,1.1342319206457585,0.5628536632359028,1.8776374544084071
1789482971750520600,4.5385205078125,1.408379774236679,-0.01592325305789709,2.5683552810132504
1789482971760569300,4.5485693359375,1.7511387341737745,-0.5731649216309189,3.226176800188422
1789482971770619400,4.558619384765625,2.152780091190338,-1.0442799201071262,3.8865895049005745
1789482971780668400,4.56866845703125,2.5663632304131982,-1.3000371806785465,4.562324866428971
1789482971790718200,4.57871826171875,2.889201684349775,-1.3259081195160747,5.064431507757305
1789482971800767500,4.588767578125,2.9720132385492324,-1.4469840840496122,5.3767298629790545
1789482971810817500,4.598817626953125,2.76824656971693,-1.6152455781280994,5.563737120190263
1789482971820866300,4.6088662109375,2.4438041877150534,-1.759549419644475,5.540523417863249
1789482971830916400,4.618916259765625,2.1703822372458874,-1.8389900361061096,5.064164381253719
1789482971840965600,4.628965576171875,1.925752958279848,-1.7957000526949762,4.4135546931535
1789482971851014400,4.639014404296875,1.7753437856256962,-1.703708143826574,3.869037481597066
1789482971861064400,4.649064453125,1.7352081745922565,-1.6698492749750613,3.411832642790675
1789482971871113500,4.659113525390625,1.7188111665427683,-1.6758955694019793,3.0221593714654444
1789482971881163300,4.669163330078125,1.727972962641716,-1.7027851837627588,2.7292010920077563
1789482971891212500,4.679212646484375,1.8436229566037654,-1.8173256090477108,2.5392495980381966
1789482971901262600,4.6892626953125,1.9043245319344102,-1.9584885221898554,2.343900628939271
1789482971911311400,4.699311279296875,1.8752968826316296,-2.1363715388335285,2.1257997298061846
1789482971921361400,4.709361328125,1.7372294512867927,-2.4638345838308333,1.869478113350272
1789482971931410400,4.719410400390625,1.517167481213808,-2.8423253668844697,1.517073957711458
1789482971941460500,4.72946044921875,1.2708603321634233,-3.22688991689384,1.0796750586152075
1789482971951509500,4.739509521484375,0.9937735755763948,-3.6667315329670904,0.7093284190505743
1789482971961559600,4.7495595703125,0.7511305750567465,-4.111863364402949,0.3490934236556291
1789482971971608300,4.7596083984375,0.5692531550146639,-4.488989288844168,-0.02393500233888626
1789482971981658400,4.769658447265625,0.46438517876453694,-4.819071138037741,-0.43240240598320956
1789482971991707400,4.779707275390625,0.41922962067723274,-5.065732653483749,-0.842281429991126
1789482972001757400,4.78975732421875,0.44544900762625034,-5.196404275488853,-1.2375479912787675
1789482972011806500,4.799806396484375,0.5495581283330917,-5.269730208462477,-1.5804384686410426
1789482972021856300,4.809856201171875,0.7083282290320843,-5.315314148029684,-1.8732313284039497
1789482972031905500,4.819905517578125,0.8476011637091636,-5.365863601049781,-2.1191262433916327
1789482972041955600,4.82995556640625,0.9051556731857359,-5.387654577097297,-2.3551006528675553
1789482972052004400,4.84000439453125,0.8952606674414127,-5.4237651703983545,-2.5323580849587914
1789482972062053400,4.850053466796875,0.809485733391717,-5.502559890171885,-2.69079391220212
1789482972072103400,4.860103515625,0.7205448095917701,-5.546829824531078,-2.849863361173868
1789482972082152700,4.870152587890625,0.5794319461364299,-5.5715907563000915,-2.997579056960344
1789482972092202800,4.88020263671875,0.34775662209391595,-5.596715845206379,-3.167189189168811
1789482972102251500,4.89025146484375,0.13127543311715126,-5.592602564668655,-3.3552474167376753
1789482972112301600,4.900301513671875,-0.08754267437458038,-5.599130505132675,-3.488047867465019
1789482972122350600,4.9103505859375,-0.2295768173933029,-5.594884538125991,-3.5647768868803977
1789482972132400600,4.920400634765625,-0.30228078254368157,-5.588225664758682,-3.5876381225079297
1789482972142449700,4.93044970703125,-0.359601410199143,-5.56704259147644,-3.556471415349841
1789482972152499700,4.940499755859375,-0.4146224191427231,-5.564513365259766,-3.4574574988901614
1789482972162548500,4.950548583984375,-0.4165500992696732,-5.620592979878187,-3.354286462751031
1789482972172598500,4.9605986328125,-0.42430557223465293,-5.715341640108823,-3.227556856369972
1789482972182647800,4.970647705078125,-0.4035316642751917,-5.825742042979598,-3.1021313183248043
1789482972192697600,4.980697509765625,-0.3601601400604471,-5.9028773051083085,-3.049836482942104
1789482972202746600,4.99074658203125,-0.3739314757814631,-6.010186171704531,-3.06101604860425
1789482972212796700,5.000796630859375,-0.4882323566894978,-6.163199973899125,-3.1168367200255394
1789482972222845400,5.010845458984375,-0.6143675773739814,-6.309471900618076,-3.2016607830911874
1789482972232895500,5.0208955078125,-0.747373195284605,-6.40021541686058,-3.2160996428102253
1789482972242944800,5.03094482421875,-0.9146434863686561,-6.448092435801029,-3.064006462591886
1789482972252994600,5.04099462890625,-1.0428151082515715,-6.504356174814701,-2.699536606106162
1789482972263043600,5.051043701171875,-1.2184405552268027,-6.6938131632655855,-2.068153596523404
1789482972273092900,5.0610927734375,-1.4755354941427707,-7.022539506196975,-1.231278994011879
1789482972283142700,5.071142578125,-1.6493232042968273,-7.42926854174137,-0.32090251743793485
1789482972293191700,5.081191650390625,-1.7100421691536902,-7.959338710272312,0.6089005441397428
1789482972303241700,5.09124169921875,-1.6743045008182524,-8.53620687033534,1.672002069094777
1789482972313290500,5.10129052734375,-1.4188497303247452,-9.122503368479013,2.766506448051333
1789482972323340500,5.111340576171875,-1.1633913796346633,-9.55090296856165,3.8904374125003813
1789482972333389600,5.1213896484375,-1.0025485643148422,-9.591202245724201,4.845450903180241
1789482972343439600,5.131439697265625,-0.7665559615951031,-9.117821348142623,5.573285285258293
1789482972353488600,5.141488525390625,-0.4793090455215424,-8.242440197104216,6.067751640966534
1789482972363538700,5.15153857421875,-0.27541845804862675,-7.164807457971572,6.4368754607379435
1789482972373587700,5.161587646484375,-0.15940248031839727,-5.724288916674256,6.883519742563366
1789482972383637800,5.1716376953125,-0.04308978466391563,-4.085459633862972,7.000463867989182
1789482972393686500,5.1816865234375,-0.05536006817221641,-2.431908436607569,6.832293997716904
1789482972403736600,5.191736572265625,-0.12106719670519232,-0.8791799587994813,6.526822273644805
1789482972413785600,5.20178564453125,-0.13290858727693558,0.565359800837934,6.161347624030709
1789482972423835400,5.21183544921875,-0.06376651585921644,1.9519864468194543,5.551019677436352
1789482972433884700,5.221884765625,-0.03838905962705612,3.038243952564895,4.762344165426493
1789482972443934700,5.231934814453125,-0.07631620083078741,3.760695180299878,3.978950977733731
1789482972453983500,5.2419833984375,-0.05128931160196662,4.222018268080055,3.205706259089708
1789482972464033500,5.252033447265625,0.07385331784859299,4.412489402009546,2.6449095283836126
1789482972474082800,5.262082763671875,0.33648119484186173,4.315901835913956,2.4017688805401325
1789482972484131600,5.272131591796875,0.6706546972632408,4.091558242999017,2.5153929216325284
1789482972494181600,5.282181640625,0.9479844688259065,3.6516546676054595,2.762127794575691
1789482972504230700,5.292230712890625,0.9724912797033787,3.02541223578155,2.9132541755884884
1789482972514280400,5.302280517578125,0.8589619311571121,2.3723706443592905,3.0389047545611856
1789482972524329700,5.312329833984375,0.7314497960962355,1.743180176384747,3.2460809395760295
1789482972534379800,5.3223798828125,0.5724583807967603,1.0643176227465272,3.413196332359314
1789482972544428500,5.332428466796875,0.48218730437159535,0.49894320886135096,3.383758640950918
1789482972554478600,5.342478515625,0.5005887841112912,0.06652472852617501,3.1988983326405287
1789482972564527900,5.35252783203125,0.5765887585997581,-0.18815905759483575,2.8860528649300337
1789482972574577700,5.36257763671875,0.704217798038572,-0.305577522534132,2.494357732388377
1789482972584626700,5.372626708984375,0.8814394281640648,-0.2993839285910129,2.0803648433208464
1789482972594676700,5.3826767578125,1.1428361559271811,-0.14029051422178745,1.7049848857641219
1789482972604725500,5.3927255859375,1.3607679821036756,0.13121873449385166,1.3283312550097703
1789482972614775600,5.402775634765625,1.426640238070488,0.41684126423597334,0.9843243408381939
1789482972624824600,5.412824462890625,1.4463703360654412,0.7095104976192116,0.7247738254636525
1789482972634874600,5.42287451171875,1.4414803720667957,0.9891557065173983,0.5603332048475742
1789482972644923600,5.432923583984375,1.3456570683419704,1.2675696200549602,0.363653863927722
1789482972654973700,5.4429736328125,1.1733026058614253,1.5305299438729882,0.1614981374233961
1789482972665022700,5.453022705078125,0.9467511276386678,1.749830574184656,-0.00982289035618305
1789482972675072800,5.46307275390625,0.7471824950180947,1.9361004570320248,-0.25294249541163444
1789482972685121500,5.47312158203125,0.5422435675360262,2.0474284961417317,-0.4335159201830625
1789482972695171600,5.483171630859375,0.3727928636729717,2.0628668882921337,-0.55761810066998
1789482972705220600,5.493220703125,0.19636998270973563,2.020961344976723,-0.6018617315441369
1789482972715270400,5.5032705078125,0.08320347612649202,1.9692779194906354,-0.5272767384201288
1789482972725319700,5.513319580078125,0.040522710654884574,1.9371689630463718,-0.48130759892761704
1789482972735368700,5.52336865234375,0.044215573823451995,1.939136463727057,-0.4217600159376859
1789482972745418500,5.53341845703125,0.04505144012570381,1.9397750538915395,-0.34988194368481634
1789482972755467800,5.5434677734375,0.06011091596111655,1.9197715457826852,-0.28655601119995117
1789482972765517800,5.553517822265625,0.10036240845918655,1.899913291363418,-0.26375439680516716
1789482972775566600,5.563566650390625,0.17929982463903724,1.8117925248399376,-0.21363047572076319
1789482972785616600,5.57361669921875,0.3564415213961154,1.6933701435551047,-0.17752631216049194
1789482972795665700,5.583665771484375,0.5518132137835026,1.6482283947974443,-0.23104805898964403
1789482972805715500,5.593715576171875,0.7362602651178837,1.6291694740623235,-0.315213950407505
1789482972815764700,5.6037646484375,0.9484183301985263,1.6543845793396235,-0.42160161050558087
1789482972825814800,5.613814697265625,1.1563342276647686,1.711032933756709,-0.5160480729192495
1789482972835863600,5.623863525390625,1.3571513990417121,1.816295681478083,-0.4876023151576519
1789482972845913600,5.63391357421875,1.536772637654841,1.9571958520308135,-0.37242461488246914
1789482972855962600,5.643962646484375,1.677332324206829,2.1556419103622435,-0.305752879101038
1789482972866012700,5.6540126953125,1.7244436194717883,2.361980183248222,-0.250621358987689
1789482972876061700,5.664061767578125,1.6529320424437521,2.558939510153234,-0.18847849880754947
1789482972886111700,5.67411181640625,1.5708932261824606,2.7493165360584855,-0.17607435978651045
1789482972896160500,5.684160400390625,1.450978560513258,2.902626106329262,-0.16048983716368675
1789482972906210600,5.69421044921875,1.3452059635736047,2.9996278061836956,-0.04106207822859287
1789482972916259600,5.704259521484375,1.2339689637482165,3.079142949186265,0.11821838314533233
1789482972926309600,5.7143095703125,1.1240693500064314,3.164845840913057,0.3201297794997692
1789482972936358700,5.724358642578125,1.0391060246005654,3.240622966431081,0.5528665222287178
1789482972946408700,5.73440869140625,0.9151542123697698,3.2874846708491443,0.7534077992737293
1789482972956457700,5.744457763671875,0.7296528296768665,3.382927158562839,0.9505226090013981
1789482972966507800,5.7545078125,0.5206991135954857,3.5212621548026797,1.1239753881126642
1789482972976556500,5.764556640625,0.37357963013648987,3.589125438456237,1.3544506156504152
1789482972986606600,5.774606689453125,0.22815613694041967,3.6029464585378763,1.6167530600816011
1789482972996655600,5.784655517578125,0.10447868467159568,3.6307758379667994,1.8765122497707605
1789482973006705400,5.794705322265625,0.05259980967864394,3.599226268970966,2.12683374902904
1789482973016754700,5.804754638671875,0.0974585037112236,3.497365146386623,2.3169518317371605
1789482973026804700,5.8148046875,0.2775673066455871,3.371354501929879,2.4288521177768705
1789482973036853500,5.824853515625,0.48142844882830976,3.172880678808689,2.592509479060769
1789482973046903600,5.834903564453125,0.6699392424702644,2.8841882401019334,3.0392478689104316
1789482973056952800,5.844952880859375,0.7747522005975246,2.4237667773365974,3.638518414917588
1789482973067002600,5.855002685546875,0.7703963434755802,1.855479398614168,4.110262066686153
1789482973077052200,5.86505224609375,0.7228349663555622,1.2790794405847787,4.3705496641635895
1789482973087102000,5.87510205078125,0.5697418153144419,0.8842229214027524,4.491173939406871
1789482973097151000,5.88515087890625,0.33429157584309577,0.5865022498488426,4.462089883741736
1789482973107200000,5.895199951171875,0.10397022369280456,0.5392722966402769,4.301914519354701
1789482973117250000,5.90525,-0.05262815899029374,0.8090735723942518,4.041202558985352
1789482973127299000,5.915299072265625,-0.22186697366833685,1.3687044741913676,3.708518418338895
1789482973137348900,5.925348876953125,-0.2727238121371716,2.117958660916984,3.2435277479618785
1789482973147398000,5.93539794921875,-0.2595136174302548,2.753006330487132,2.7085540252983566
1789482973157448000,5.945447998046875,-0.30381591968908905,3.2287104103192683,2.1633891634881497
1789482973167497000,5.9554970703125,-0.363858008197695,3.6617362088978287,1.6262287444353103
1789482973177547000,5.965547119140625,-0.3611772446811199,4.021314201688766,1.212037702447176
1789482973187596000,5.975595947265625,-0.30025954238176344,4.248255117620528,0.878934459605813
1789482973197645800,5.985645751953125,-0.21790851836614308,4.347473616741597,0.5445978755772114
1789482973207695000,5.995695068359375,-0.20497779818773268,4.307805915480852,0.21108254480361938
1789482973217745200,6.0057451171875,-0.261110677363351,4.088526327957212,-0.06570201396644115
1789482973227794000,6.0157939453125,-0.30570019906573,3.709792968319356,-0.2895779893696308
1789482973237844000,6.025843994140625,-0.28331549490876495,3.197801185053587,-0.37437633347213267
1789482973247893000,6.03589306640625,-0.18202939573340116,2.607244983638823,-0.23369126697480677
1789482973257943000,6.045943115234375,-0.044396702544018625,1.8938693350240587,0.006169044023752212
1789482973267992000,6.055991943359375,0.1538135012049228,1.1224681984201073,0.3217944978415966
1789482973278042000,6.0660419921875,0.4116448646366596,0.3118058955296874,0.6856845086127519
1789482973288091000,6.0760908203125,0.6966285119533538,-0.4310483610257506,1.035790908703208
1789482973298141000,6.086140869140625,0.9761948103964329,-0.9827876327902078,1.3107710483998058
1789482973308190200,6.096190185546875,1.2036743632495404,-1.3190978549793362,1.5842530584931374
1789482973318240000,6.106239990234375,1.361955876713991,-1.5453919974401593,1.8082114514827727
1789482973328289000,6.1162890625,1.428779588186741,-1.6234551880687473,2.007139448112249
1789482973338339000,6.126339111328125,1.436853004527092,-1.567192618098855,2.1704688926160336
1789482973348387800,6.136387939453125,1.41054133618474,-1.385206988441944,2.308987720990181
1789482973358438000,6.14643798828125,1.406453190088272,-1.2066323362722993,2.3717589422017333
1789482973368487200,6.156487060546875,1.3648983599066733,-1.0305375182196497,2.314254263216257
1789482973378537000,6.166536865234375,1.3168763795375824,-0.9295403189882635,2.203878994786739
1789482973388586000,6.1765859375,1.3019804237008095,-0.7647375870615244,2.1511568739026785
1789482973398636000,6.186635986328125,1.3359142574846743,-0.6190748782821,2.109911255800724
1789482973408685000,6.19668505859375,1.4515443777024746,-0.48133755567446346,2.0564052910625934
1789482973418735000,6.206735107421875,1.4970295330703258,-0.41212431871667504,2.2304864312052723
1789482973428783900,6.216783935546875,1.5638039985738694,-0.4503071882471442,2.308385663443804
1789482973438834000,6.226833984375,1.6275697837807237,-0.4769537876322865,2.299876778295636
1789482973448883000,6.236883056640625,1.7040683554410934,-0.5789801837809384,2.2742390636920926
1789482973458933000,6.24693310546875,1.7621964270219206,-0.7263250004284083,2.1700217333704233
1789482973468982000,6.25698193359375,1.8143303727544844,-0.8134614320896565,1.9813491732954978
1789482973479032000,6.267031982421875,1.8256854411140082,-0.931949133695662,1.768587297102809
1789482973489080800,6.277080810546875,1.8095733874857425,-1.0482852102257312,1.585448990279436
1789482973499131000,6.287130859375,1.8680631319858132,-1.1662898044899106,1.5113509038895367
1789482973509180200,6.29718017578125,1.9217114278040826,-1.3448672331385314,1.439551742091775
1789482973519230200,6.307230224609375,1.8959562243007122,-1.5477151796907185,1.3559271179437637
1789482973529279000,6.317279052734375,1.7561482328988611,-1.8902770096205175,1.2670108171284198
1789482973539329000,6.3273291015625,1.611339948991686,-2.2775109249696133,1.1001946995526553
1789482973549377800,6.337377685546875,1.4622142402768135,-2.689526668745279,0.8760106811136007
1789482973559428000,6.347427978515625,1.292655107603222,-3.1407585706219074,0.6667454148650169
1789482973569477000,6.35747705078125,1.1966519172668457,-3.5373230627655983,0.49407297247648235
1789482973579527000,6.36752685546875,1.0906443425275385,-3.9234284124761816,0.24493045386970042
1789482973589576000,6.377575927734375,0.9577100362874567,-4.248579235008359,-0.12801906166970728
1789482973599626000,6.3876259765625,0.9115303227841853,-4.504030498370528,-0.5975637420892715
1789482973609675000,6.397675048828125,0.9230314485508948,-4.732417813718318,-0.9997229855000972
1789482973619725000,6.40772509765625,0.9803415548123419,-4.886523210541903,-1.3909429017454384
1789482973629774000,6.417774169921875,1.0444095378361642,-4.97152818313241,-1.7662199834495782
1789482973639824000,6.427823974609375,1.0855914430521427,-5.024639595595002,-2.0969500674188137
1789482973649873000,6.437872802734375,1.074623620444536,-5.0404082426130765,-2.362368013522029
1789482973659923200,6.447923095703125,1.0479004486918448,-5.055764217177033,-2.5357138251274822
1789482973669972000,6.457971923828125,0.9868038826942443,-5.096366861200332,-2.6326339841783044
1789482973680022000,6.46802197265625,0.9255401434361934,-5.204011243361235,-2.6557547475248575
1789482973690071000,6.478071044921875,0.8378000467933714,-5.347440055608749,-2.7044132722318173
1789482973700120800,6.488120849609375,0.6769301973361521,-5.437479807496071,-2.8469267232000828
1789482973710170000,6.498170166015625,0.4514204101860523,-5.529371324729919,-3.0330116048693654
1789482973720220200,6.50822021484375,0.21857852658219634,-5.612889565894007,-3.2056565747290846
1789482973730269000,6.51826904296875,0.021740707165002822,-5.679468362694978,-3.34154973077476
1789482973740319000,6.528319091796875,-0.14802783047556875,-5.740180313289165,-3.406423477223515
1789482973750368000,6.538367919921875,-0.31503391766548156,-5.77062688947916,-3.3521944589078423
1789482973760418000,6.54841796875,-0.45790158889889715,-5.7950411997675895,-3.1793811467438933
1789482973770467000,6.558467041015625,-0.5600223122674971,-5.838014080053568,-3.0534190176039933
1789482973780517000,6.56851708984375,-0.681363138282299,-5.919219368100166,-2.8967636440366507
1789482973790566000,6.57856591796875,-0.8372493541080505,-6.0493695965796705,-2.602856685552001
1789482973800616000,6.588615966796875,-1.0545523808617143,-6.215837923631072,-2.117481398794055
1789482973810665000,6.5986650390625,-1.2379542339920997,-6.467584487256407,-1.410291160815954
1789482973820715000,6.608715087890625,-1.3758721738636492,-6.801129628646374,-0.6830927385538816
1789482973830764000,6.618763916015625,-1.5473101060211658,-7.054401209881902,0.0339893633633852
1789482973840814000,6.62881396484375,-1.6918039171516894,-7.263287121424079,0.6208966868817806
1789482973850863000,6.638863037109375,-1.7473673989415168,-7.403092482477426,1.0013672455757856
1789482973860913200,6.6489130859375,-1.6977917593896388,-7.421804197210073,1.24612234287858
1789482973870962000,6.6589619140625,-1.5961936716556548,-7.256062430867552,1.4949188245266676
1789482973881012000,6.669011962890625,-1.4838661001145839,-6.894332813000679,1.9068389989733694
1789482973891061000,6.67906103515625,-1.337000299155712,-6.326050110453367,2.413256489238143
1789482973901111000,6.689111083984375,-1.1552268509447574,-5.731366307714581,2.788405560648441
1789482973911160000,6.69916015625,-0.9729296711206435,-5.091490779596567,3.1114912673443555
1789482973921210000,6.709210205078125,-0.8104898689329624,-4.351522892132401,3.345342108795047
1789482973931259000,6.7192587890625,-0.6654008683882653,-3.4814281570643186,3.366829717981815
1789482973941309000,6.729308837890625,-0.5452969637572765,-2.5565286496192217,3.2782325661182403
1789482973951358000,6.73935791015625,-0.41602863267883655,-1.6294231565624475,3.198052529466152
1789482973961408000,6.749407958984375,-0.2690964884854853,-0.6590459464035928,2.9930104338705537
1789482973971457000,6.75945703125,-0.21339608244299887,0.2864288776889443,2.6675451385617253
1789482973981507000,6.769507080078125,-0.23082184901833533,1.1238790881313383,2.329265954387188
1789482973991555800,6.779555908203125,-0.20177454516701399,1.8491029954500495,2.1143542066842316
1789482974001606000,6.78960595703125,-0.10286635410413146,2.4544217355802656,2.018685508999228
1789482974011655200,6.7996552734375,0.09409421490989625,2.87089679685235,2.0274130053341386
1789482974021705000,6.809705078125,0.2333247717499733,3.009188830733299,2.124137349551916
1789482974031754000,6.81975390625,0.46770519003272054,2.8749770519033073,2.2682605738043784
1789482974041804000,6.829803955078125,0.7556231372356415,2.601330498898029,2.4534137275815007
1789482974051853000,6.83985302734375,0.9756054662011563,2.2292405227974057,2.541579502290487
1789482974061903000,6.849903076171875,1.0983517020344733,1.811187836945057,2.6251217088520526
1789482974071952100,6.8599521484375,1.1480712801016866,1.3222495970085262,2.796273809805512
1789482974082001700,6.870001708984375,1.1533983203433453,0.7666147791102528,2.9242279895454644
1789482974092050700,6.88005078125,1.1252629437051713,0.31053719076812264,2.9053403337240216
1789482974102100700,6.890100830078125,1.063881277155876,-0.003858428993821144,2.7599633100181817
1789482974112149800,6.900149658203125,1.0700528053976595,-0.16803279988914727,2.5500837112635373
1789482974122199800,6.91019970703125,1.142589341559261,-0.2363376898303628,2.2952339209258557
1789482974132248600,6.92024853515625,1.226287030943483,-0.19561726464629173,2.0013497587949036
1789482974142298600,6.930298583984375,1.3543101842664182,-0.03409077791124582,1.6308447137981652
1789482974152348000,6.940347900390625,1.488578515589237,0.17972236090004443,1.2899468715578317
1789482974162398000,6.95039794921875,1.5890801863886415,0.37785979167371986,0.9957289474278688
1789482974172446700,6.96044677734375,1.655158047930151,0.5690080942124128,0.7592062564194202
1789482974182496800,6.970496826171875,1.705200135949999,0.7984197841718792,0.502727403575182
1789482974192545500,6.980545654296875,1.7404257631100712,1.0379518861293793,0.14739771587848663
1789482974202595600,6.990595703125,1.7070926716983317,1.253252340888977,-0.1976929018765688
1789482974212644900,7.000644775390625,1.6070003123521803,1.4238590829193591,-0.4570750749468803
1789482974222695000,7.01069482421875,1.5415864676773547,1.5023822922751306,-0.600522591894865
1789482974232743700,7.02074365234375,1.5173428377807139,1.5669801443919538,-0.6757160723060369
1789482974242793700,7.030793701171875,1.4941114536665379,1.6446031900376081,-0.8006354143947363
1789482974252842800,7.0408427734375,1.4006442115485667,1.6784668811947105,-0.7929010207504034
1789482974262892800,7.050892822265625,1.3691362897373736,1.6835712185963987,-0.6765969467937946
1789482974272941800,7.06094189453125,1.3423451673150062,1.6745882861956953,-0.6754121209233999
1789482974282991600,7.07099169921875,1.2954479531921446,1.7422744597166775,-0.71605042078197
1789482974293040600,7.08104052734375,1.182014612366259,1.8182663970291613,-0.7394400641977786
1789482974303090700,7.091090576171875,1.026329252874851,1.9351295661732553,-0.7915192110031842
1789482974313139700,7.1011396484375,0.9091514648236334,2.02976950533241,-0.7519044089734553
1789482974323189800,7.111189697265625,0.813000974971056,2.1088208302155134,-0.6820657335937023
1789482974333238800,7.12123876953125,0.7687808711029589,2.184282021652162,-0.6128297002822161
1789482974343288600,7.13128857421875,0.7776819704391061,2.2159055326670405,-0.46208735015094277
1789482974353337900,7.141337890625,0.8574234695434569,2.2235706604674457,-0.24441665912866592
1789482974363388000,7.151387939453125,0.950241892363876,2.3146470619261263,-0.1683393816202879
1789482974373436700,7.161436767578125,1.0289408966779707,2.453473056553304,-0.08145254080593585
1789482974383486700,7.17148681640625,1.1196224536001682,2.5318451670005917,0.11123217751979828
1789482974393535700,7.18153564453125,1.1526863726817071,2.594226512111723,0.22177111207842826
1789482974403585800,7.191585693359375,1.1378769260846078,2.7395255021452902,0.27925825540721416
1789482974413634800,7.201634765625,1.07538116081357,2.9061861368983983,0.4245528615266084
1789482974423684900,7.211684814453125,1.0034721819657832,3.0279870547056196,0.5967378126591444
1789482974433733600,7.221733642578125,0.898368131937459,3.1141245384573937,0.7691869676858186
1789482974443783700,7.23178369140625,0.730556500518322,3.2084020740449426,1.0213520489841699
1789482974453833000,7.2418330078125,0.5676840060018002,3.2685639895409344,1.2796247995078562
1789482974463882800,7.2518828125,0.4292402886904776,3.4059324788361787,1.5512152967661619
1789482974473931800,7.261931884765625,0.30888109412416814,3.5462346834957597,1.8080857792764902
1789482974483981800,7.27198193359375,0.16733458849191665,3.6943297339886425,2.0430676705837247
1789482974494030600,7.282030517578125,0.026033435922861097,3.801831492808461,2.3127876977950335
1789482974504081000,7.292080810546875,-0.1354173552274704,3.905771759754419,2.5572557948499917
1789482974514131000,7.302130859375,-0.34188575729914006,3.9772365750312804,2.7466642679840323
1789482974524179700,7.3121796875,-0.5619347217600792,4.07076650712192,2.9114795671314
1789482974534229800,7.322229736328125,-0.7797427754264324,4.137224307891726,3.12493001011014
1789482974544278800,7.33227880859375,-1.0100246723491697,4.105293630623817,3.476442185345292
1789482974554328600,7.34232861328125,-1.2373042456507681,3.8850457825899123,3.958545903086662
1789482974564377900,7.3523779296875,-1.4538006321966648,3.5203012008160353,4.586849651354551
1789482974574428000,7.362427978515625,-1.5218343039810656,3.0092461138784885,5.063987855643034
1789482974584476700,7.3724765625,-1.414347742730379,2.5527421168178317,5.3495016643136735
1789482974594526700,7.382526611328125,-1.2343395506262778,2.184246073555946,5.478643592533468
1789482974604576000,7.392575927734375,-1.0655226876873523,1.9682167199999092,5.45014405875802
1789482974614625800,7.402625732421875,-0.8070798412937671,1.9059031794279813,5.18389609157145
1789482974624674800,7.4126748046875,-0.5965080224912613,1.9841560474097728,4.928177117183804
1789482974634724900,7.422724853515625,-0.42740598593540485,2.1792606863588095,4.771472643777728
1789482974644773600,7.432773681640625,-0.37076449965052305,2.450066170719266,4.707172313302755
1789482974654823700,7.44282373046875,-0.3160872261106968,2.7524013503313065,4.618910677003861
1789482974664872700,7.452872802734375,-0.22961298468522726,3.0316672045230866,4.487331292504072
1789482974674922800,7.4629228515625,-0.17926935643553732,3.248797212797403,4.269841803267598
1789482974684971800,7.4729716796875,-0.17479074971675873,3.426059321063757,3.900736688196659
1789482974695021800,7.483021728515625,-0.11988076339960098,3.6184523629665373,3.5351603317737577
1789482974705070800,7.49307080078125,0.03185987705402076,3.7252602943032977,3.3016514356285334
1789482974715121000,7.503120849609375,0.24880634545497596,3.760116795890033,3.0445331158369777
1789482974725169700,7.513169677734375,0.4287152419030666,3.740935125558078,2.7119769854843616
1789482974735219700,7.5232197265625,0.5724772316277027,3.6420904281854627,2.368424829342961
1789482974745268700,7.533268798828125,0.6591817016124725,3.4001600329145787,2.0378367841929195
1789482974755318500,7.543318603515625,0.7024865903317928,3.004863661010563,1.7834686398923396
1789482974765367800,7.553367919921875,0.7423941647630184,2.471438629093766,1.6653285826802253
1789482974775417900,7.56341796875,0.5206336471438407,1.8042469317659735,1.9542080683916807
1789482974785466600,7.573466552734375,-0.5773906495671719,0.5938473519146442,2.4235598565876484
1789482974795516700,7.5835166015625,0.17075871772170065,-0.22141922990083693,1.613812330454588
1789482974805566000,7.59356591796875,1.1741163333971052,-0.5996753274157643,-0.4306950175434351
1789482974815615700,7.60361572265625,1.3421663036167621,-0.6235805191382765,-0.21439503035247326
1789482974825664800,7.613664794921875,1.756744299095869,-0.9056418492674827,0.9731699096173048
1789482974835714800,7.62371484375,1.9629624527335165,-1.81818485622555,2.3533476717203854
1789482974845763600,7.633763671875,1.5516858368873596,-2.8411437558844685,3.038234307953715
1789482974855813600,7.643813720703125,1.6555331648528575,-3.1562697357475757,2.762722253337502
1789482974865863000,7.65386279296875,2.0105226608097553,-2.751465530785918,2.2572394135743377
1789482974875912700,7.66391259765625,1.8755390208244322,-2.5953485018789766,1.8309493529915808
1789482974885961700,7.673961669921875,1.6857856797754764,-2.9568118700250983,1.5743629481196402
1789482974896011800,7.68401171875,1.5597135143898426,-3.1763559537038204,1.377223003950715
1789482974906060800,7.694060791015625,1.3194225568890572,-3.216701115834713,1.2255337283581496
1789482974916110800,7.70411083984375,1.0707681871253996,-3.2670512468904254,1.1104764395922422
1789482974926160000,7.714159912109375,0.9490016830444336,-3.213447082474828,0.9555033200234174
1789482974936209700,7.724209716796875,0.9507202504653484,-3.0815967720791697,0.8307482285857201
1789482974946258700,7.7342587890625,1.03989016071558,-2.989067249202728,0.7431681448101997
1789482974956308700,7.744308837890625,1.2257329041920602,-2.9059079044789073,0.6564011309832334
1789482974966357800,7.754357666015625,1.4186429557062685,-2.8541555054098366,0.5855079781144857
1789482974976407800,7.76440771484375,1.5760720901250838,-2.8216078652873633,0.534717702075839
1789482974986456800,7.774456787109375,1.662478307815641,-2.8758602644786238,0.4766442832916975
1789482974996506600,7.784506591796875,1.6291421476639807,-2.9807039100050923,0.37191023561954495
1789482975006556000,7.794555908203125,1.6153510843291878,-3.1044694058835502,0.15350830771327018
1789482975016606000,7.80460595703125,1.5897452261686325,-3.2429555010318754,-0.03453939846158027
1789482975026654700,7.81465478515625,1.5672401105023919,-3.4034371548891067,-0.20349837328493595
1789482975036704800,7.824704833984375,1.5741571964144705,-3.4797850660324094,-0.3893056070566177
1789482975046753500,7.83475341796875,1.5554701777316629,-3.5417046388506885,-0.5829688150256872
1789482975056803600,7.844803466796875,1.5053076782025396,-3.608084990470111,-0.777865948703885
1789482975066852900,7.854852783203125,1.4432511811316013,-3.6807688261479137,-0.9680442371666431
1789482975076903000,7.86490283203125,1.4069303060807288,-3.737656542278826,-1.0593617539048195
1789482975086951700,7.87495166015625,1.348946611406654,-3.9086411777108907,-1.1418097354888916
1789482975097001700,7.885001708984375,1.255556380047649,-4.173047608684003,-1.1793798799484967
1789482975107050800,7.89505078125,1.1981132219910622,-4.378326727905869,-1.1950351297199726
1789482975117100800,7.905100830078125,1.2075941670417785,-4.490632672137021,-1.379477504879236
1789482975127149800,7.91514990234375,1.220584581518173,-4.547343570396304,-1.5833692613959311
1789482975137199600,7.92519970703125,1.2391468047775327,-4.643539506825804,-1.7358622545868156
1789482975147248600,7.93524853515625,1.2593898207306862,-4.746867487092316,-1.8780659089535474
1789482975157298700,7.945298583984375,1.290259590768814,-4.859257017953694,-1.990181299048662
1789482975167348700,7.9553486328125,1.326469698921591,-4.950141111710668,-2.1471710191369056
1789482975177397800,7.965397705078125,1.3440719911076127,-5.097905322813987,-2.339972641840577
1789482975187447800,7.97544775390625,1.3417397487677634,-5.209358449608088,-2.514790279564261
1789482975197496600,7.98549658203125,1.2953086908519267,-5.275667781817913,-2.6706162165701386
1789482975207546600,7.995546630859375,1.2338254636242985,-5.303763410967588,-2.789244934082031
1789482975217596000,8.005595947265626,1.1906734273791313,-5.3229965192258355,-2.870961678782105
1789482975227646000,8.01564599609375,1.1681776640631258,-5.302925206577777,-2.920530304071307
1789482975237694700,8.02569482421875,1.1369723784603178,-5.24048073310256,-3.0159324597746133
1789482975247744800,8.035744873046875,1.044462437067181,-5.190951855301857,-3.08820742239058
1789482975257793800,8.045793701171876,0.9249616128958761,-5.223328522771596,-3.0373382358968257
1789482975267843800,8.05584375,0.7903190414331853,-5.351807603168488,-2.829244351515174
1789482975277892900,8.065892822265624,0.6406067650020122,-5.632772077971697,-2.4763597188830375
1789482975287942700,8.075942626953125,0.4165140781082213,-5.993229191684723,-1.9707354248225688
1789482975297991700,8.08599169921875,0.1705424446225166,-6.498853485745191,-1.283815821456909
1789482975308041700,8.096041748046876,-0.02269216267094016,-7.075200252282619,-0.5231429996162653
1789482975318090800,8.1060908203125,-0.16341113143786787,-7.717358338379859,0.2036696381986141
1789482975328140800,8.116140869140626,-0.30892566391825677,-8.327885606938601,0.7827361850887536
1789482975338189800,8.12618994140625,-0.34555063648223877,-8.67071178689301,1.1427490621656178
1789482975348239600,8.136239501953124,-0.24921207671165466,-8.783366106170416,1.5279840587824582
1789482975358288600,8.14628857421875,-0.06862988411188126,-8.630263456648589,1.8998989705771208
1789482975368339000,8.1563388671875,0.11002791629657149,-8.19164641393423,2.340855269894004
1789482975378387700,8.1663876953125,0.1530873058222234,-7.512465295866131,2.952767270809412
1789482975388437800,8.176437744140625,0.182429281771183,-6.687934626621008,3.5037329278528686
1789482975398486800,8.18648681640625,0.12475319174155593,-5.924170853027701,3.984710271912813
1789482975408536600,8.19653662109375,0.07025470883473754,-5.079980959066749,4.347659786963463
1789482975418585900,8.2065859375,0.00811199478507042,-4.115402059923112,4.486472045326233
1789482975428636000,8.216635986328125,-0.14263722347840666,-3.0639719758003947,4.473874429559707
1789482975438684700,8.2266845703125,-0.21577961657866834,-1.9274438339762388,4.239675797584653
1789482975448734700,8.236734619140625,-0.24875235024541614,-0.8602372117899357,3.814201729559898
1789482975458783700,8.24678369140625,-0.32595950856655836,0.1557234995447099,3.3697716166526077
1789482975468833800,8.256833740234375,-0.44112215740308164,1.1223293744713068,3.006652590253949
1789482975478882800,8.2668828125,-0.5247415208540857,1.9733412234067915,2.6821459108442065
1789482975488932900,8.276932861328126,-0.6003799685537815,2.5979730051636696,2.46758896792829
1789482975498981600,8.286981689453125,-0.5448794689975679,2.969482843288779,2.33342015145719
1789482975509031700,8.29703173828125,-0.418641591656208,3.114713152000308,2.322467380288243
1789482975519081000,8.3070810546875,-0.19753931875005362,3.0131434135779736,2.4209482127845288
1789482975529130800,8.317130859375,0.07743292990103363,2.678295665156841,2.546207162091136
1789482975539179800,8.3271796875,0.3717477385342121,2.2854835112839935,2.593009245276451
1789482975549229800,8.337229736328124,0.6441570048294961,1.8873519159540533,2.575677586725354
1789482975559278800,8.34727880859375,0.7747944323040544,1.488006560920179,2.580711489239335
1789482975569329000,8.357328857421875,0.830577694324404,1.118841240094602,2.569704357534647
1789482975579377700,8.367377685546876,0.8685479440174997,0.8790627621605992,2.525605688089132
1789482975589427700,8.377427734375,0.9112126351371407,0.7852306322529912,2.439142041122913
1789482975599476700,8.387476806640626,0.9464297867298126,0.7928869922250509,2.3264666790574786
1789482975609526800,8.39752685546875,1.018546928435564,0.9048720339387655,2.1820693140387535
1789482975619575800,8.407575927734374,1.1132302683450281,1.029384256531298,1.9795535220503806
1789482975629625900,8.4176259765625,1.19311424465999,1.1496887983009219,1.730723722654581
1789482975639674600,8.427674560546874,1.2390858683705328,1.2503341153547167,1.5110072050184011
1789482975649724700,8.437724609375,1.3143009760916233,1.330778940422833,1.3254904786258934
1789482975659774000,8.44777392578125,1.4238849480129778,1.420837981532514,1.0963052908986806
1789482975669823700,8.45782373046875,1.5610919631361961,1.5169032773196696,0.8221072414904832
1789482975679872800,8.467872802734375,1.6581543071366847,1.6119760549381374,0.5618845259428024
1789482975689922800,8.4779228515625,1.7505075966633856,1.7111548065707087,0.3687327746272087
1789482975699971600,8.4879716796875,1.8273112887501715,1.8103233290702103,0.1948784289777279
1789482975710021600,8.498021728515624,1.8981657170437276,1.9316300336197016,0.06720365070104599
1789482975720071000,8.50807080078125,1.939040163745731,2.052152017532289,0.10348317082822323
1789482975730120700,8.51812060546875,1.9301262049280106,2.147593628463149,0.2816904509902
1789482975740170800,8.528170654296876,1.848243017619848,2.3050755159825087,0.4936386727124452
1789482975750219800,8.5382197265625,1.6899379771493375,2.594434309643507,0.5220142878472804
1789482975760269600,8.54826953125,1.4704256037831305,2.9018904855310916,0.5127817645996808
1789482975770318800,8.55831884765625,1.2347275270305573,3.109608522337675,0.5332967293620109
1789482975780369000,8.568368896484374,0.9659472648873925,3.198690535108745,0.536783986955881
1789482975790417700,8.578417724609375,0.7341828743219375,3.25834274751693,0.5179091906160116
1789482975800467700,8.5884677734375,0.5476654464542865,3.3176071296513077,0.49254386321306226
1789482975810516700,8.598516845703125,0.38689372360929847,3.339620808538794,0.44724341676235196
1789482975820566500,8.60856640625,0.30371172866225243,3.334733621019125,0.47599078781902787
1789482975830615800,8.61861572265625,0.2932942334137857,3.3792607450097796,0.5365840804696083
1789482975840665900,8.628665771484375,0.31646723840422925,3.4857454357415434,0.5733949309945107
1789482975850714600,8.638714599609376,0.2855107399307191,3.5592414645850656,0.5766951415836811
1789482975860764700,8.6487646484375,0.18612696724534034,3.6159839270263907,0.5310334606051444
1789482975870814000,8.65881396484375,0.1016178153477609,3.65224123532176,0.49904140853881834
1789482975880863700,8.66886376953125,-0.029941695407778024,3.6679198659688232,0.43722354252934453
1789482975890912800,8.678912841796874,-0.10458747880831361,3.6395606174468993,0.4604050961524248
1789482975900962800,8.688962890625,-0.08342515605315566,3.583687339055538,0.5432160658299923
1789482975911011600,8.699011474609375,-0.030753011790663,3.551742048740387,0.5709621508896351
1789482975921061600,8.7090615234375,0.017465367933362723,3.5651615022838112,0.7035036584198474
1789482975931111000,8.71911083984375,0.0577072888854891,3.5523166337579486,0.9218927268445491
1789482975941160700,8.72916064453125,0.06444470738172531,3.5995278822660444,1.0804735155165195
1789482975951209700,8.739209716796875,-0.003575958790630102,3.6404011599242687,1.3716098402440546
1789482975961259800,8.749259765625,-0.12189838683232665,3.6788451646089553,1.7383751141905783
1789482975971308800,8.759308837890625,-0.3307645707607269,3.7339533038467168,1.9656524224698542
1789482975981358800,8.76935888671875,-0.5543851831633597,3.849221605014801,2.177679554647207
1789482975991407900,8.779407958984375,-0.8688929580628871,3.9336622217208146,2.296566046312451
1789482976001457700,8.789457763671875,-1.2101437784593552,3.951843190577626,2.357074583289027
1789482976011506700,8.799506591796876,-1.5157283883213997,3.8761265630751844,2.365075518915057
1789482976021556700,8.809556640625,-1.7086615284502504,3.6916181369423864,2.3263439294606445
1789482976031605800,8.819605712890626,-1.7146224826812744,3.3931665207654236,2.300777526527643
1789482976041655800,8.82965576171875,-1.4985364305019377,3.0598715547442437,2.2884505443960426
1789482976051704600,8.83970458984375,-1.1357166793107987,2.7399253151178358,2.3444185153335333
1789482976061754600,8.849754638671875,-0.7940227182567119,2.405306991538405,2.654492764765024
1789482976071804000,8.859803955078124,-0.5101799846034497,1.963845665308833,3.0633775170385835
1789482976081854200,8.869854248046876,-0.2720690745554864,1.4213298567026853,3.3516187048465014
1789482976091903200,8.8799033203125,-0.10994381820969283,0.8601531867682933,3.5801036353498694
1789482976101953000,8.889953125,0.05291676667332649,0.4199485826015472,3.6966993857294317
1789482976112002000,8.900001953125,0.2733668592810631,0.18334785792082547,3.7179829967767
1789482976122052000,8.910052001953124,0.5056335733454674,0.22553309496045112,3.6754987767904996
1789482976132101000,8.92010107421875,0.5255506452798843,0.41468934689909215,3.5348201400339603
1789482976142151200,8.930151123046874,0.7300596569120884,0.8307555351093411,3.2626784386336802
1789482976152200200,8.9402001953125,0.8894085073471069,1.327485159574449,2.9298370615988967
1789482976162250000,8.95025,0.8606477653522044,1.5906275619611143,2.6167595386981963
1789482976172299300,8.96029931640625,0.7549813322007656,1.7120128847047686,2.351617486926913
1789482976182349300,8.970349365234375,0.6505611727833748,1.7662138459697365,2.1237632555425168
1789482976192398000,8.980398193359376,0.6219358937364071,1.7346286211386321,2.0612802036225792
1789482976202448100,8.9904482421875,0.752880560529232,1.686813853779435,2.2412422184973955
1789482976212497200,9.0004970703125,1.0102830310244113,1.736443853867054,2.5215754096597434
1789482976222547000,9.010546875,1.1920635665632784,1.9807140902623532,2.5227310094356534
1789482976232596200,9.02059619140625,1.2455951041340827,2.350819030025601,2.3505407976061106
1789482976242646300,9.030646240234375,1.161992180361226,2.7443384553849697,2.123050723358989
1789482976252695000,9.040695068359375,0.9761188225507735,3.1088357843995094,1.8486153580635785
1789482976262745000,9.0507451171875,0.7089302865784615,3.343429845432937,1.640899659344554
1789482976272794400,9.06079443359375,0.4505541487455368,3.3775001650780436,1.5108780256807803
1789482976282844200,9.07084423828125,0.2146282545864582,3.288878171034157,1.481601662313938
1789482976292893200,9.08089306640625,0.10832246408555656,2.962985882484913,1.5528127950906752
1789482976302943200,9.090943115234374,0.013206687575578689,2.3293194381400943,1.7536755591750144
1789482976312992000,9.100991943359375,-0.13371986712720244,1.491527136261761,1.9232517891138792
1789482976323042000,9.1110419921875,0.07372216574959456,0.7459560219630599,1.9552824196249246
1789482976333092000,9.121092041015626,0.8310487459022551,0.3451823876917362,2.386574818539619
1789482976343141000,9.13114111328125,1.2657786449849604,-0.2477387892886996,3.2233395309358834
1789482976353191200,9.141191162109376,1.395709823886305,-1.17500034969002,3.5942139937669038
1789482976363240200,9.151240234375,1.8378116399765014,-1.7177454370073972,3.677372169446945
1789482976373290000,9.1612900390625,2.21398172499761,-1.948223587154597,3.583340717574954
1789482976383339300,9.17133935546875,2.306691719007492,-2.0946661942653355,3.376309493988752
1789482976393389300,9.181389404296874,2.3265933741770684,-2.2274514474235474,3.2793677076280114
1789482976403438000,9.19143798828125,2.323702475041151,-2.364081977833062,3.2077474095284937
1789482976413488000,9.201488037109375,2.1881728916108605,-2.4802964738100766,3.0552801353007553
1789482976423537000,9.211536865234375,1.9962883837521075,-2.539580145166814,2.708132000494003
1789482976433587200,9.221587158203125,1.7787831124246118,-2.5709946896061298,2.4058371528923512
1789482976443636200,9.23163623046875,1.621230059365183,-2.5397587166041133,2.164270037975907
1789482976453686300,9.241686279296875,1.5937014164485037,-2.4799127351894974,1.8935025475382803
1789482976463735000,9.251735107421876,1.5547290039755404,-2.481138769853115,1.6726520574361086
1789482976473785000,9.26178515625,1.5034182111941277,-2.5301743111789223,1.4763637616604566
1789482976483834000,9.271834228515624,1.482584535871446,-2.5628189819350835,1.2219319044739008
1789482976493884200,9.28188427734375,1.4323651915885507,-2.625378313961625,0.9606009354233741
1789482976503933200,9.29193310546875,1.3794870033599436,-2.7956580159947273,0.7398696877866983
1789482976513983200,9.301983154296876,1.334999919118732,-3.055489394137263,0.5461433514535426
1789482976524032000,9.312031982421875,1.3560240024469792,-3.3348779979258776,0.31139409985840316
1789482976534082000,9.32208203125,1.3802782998681067,-3.6102661339014768,0.030720132434368132
1789482976544131000,9.332131103515625,1.3594541230261326,-3.9349744733631606,-0.29187925204932685
1789482976554181000,9.34218115234375,1.377693690202385,-4.210183161118627,-0.6148153211414814
1789482976564230100,9.352230224609375,1.380012926930189,-4.437416630256176,-0.8984545681118965
1789482976574280000,9.362280029296874,1.328640613219887,-4.664799152475595,-1.1302940697401762
1789482976584329200,9.3723291015625,1.2793348766505717,-4.872307053662836,-1.3527712842613457
1789482976594379300,9.382379150390625,1.2149158882319926,-5.019639595350623,-1.61612060739696
1789482976604428000,9.392427978515625,1.1228640658698976,-5.0536733823776245,-1.9275579618752001
1789482976614478000,9.40247802734375,1.0428934341847895,-5.072837517052888,-2.199815983131528
1789482976624527000,9.412527099609376,1.0023394516088069,-5.122245398822426,-2.414580431318283
1789482976634577200,9.4225771484375,0.9735880619641393,-5.180568408453464,-2.6426281394481657
1789482976644626200,9.432626220703124,0.9257751943010837,-5.167588515371084,-2.835308766120672
1789482976654676200,9.44267626953125,0.9532593404889106,-5.136865460327267,-3.0625808137029407
1789482976664725000,9.45272509765625,0.9354032927375286,-5.107552272081374,-3.2287796761631964
1789482976674775000,9.462775146484375,0.9095533966880291,-5.062053672710061,-3.3546903673768043
1789482976684824300,9.47282421875,0.7929354344766587,-5.016487853321433,-3.473282844531536
1789482976694874000,9.4828740234375,0.641373657721281,-5.0116836679100984,-3.518581537416577
1789482976704923100,9.492923095703125,0.47037872009091075,-5.03954431926012,-3.5315690292835233
1789482976714973200,9.50297314453125,0.2851567023286596,-5.108105229789018,-3.5063334657400844
1789482976725022000,9.51302197265625,0.11743044763803481,-5.272618915641307,-3.435693410849571
1789482976735072300,9.523072265625,-0.043414742301963266,-5.48196133877933,-3.357446972608566
1789482976745121300,9.533121337890625,-0.15845445887856185,-5.662666865497827,-3.3105414290487762
1789482976755171000,9.543171142578124,-0.1787993643036112,-5.734187794876099,-3.162942053118348
1789482976765220000,9.55322021484375,-0.13102171408440916,-5.733312181085348,-3.0399440344810484
1789482976775270100,9.563270263671875,-0.16383096428513527,-5.710372035002708,-2.916378445088863
1789482976785319200,9.573319091796876,-0.29782672574426977,-5.703866306370497,-2.7378122684866186
1789482976795369200,9.583369140625,-0.4598621118495241,-5.687694339248537,-2.399152560561895
1789482976805418000,9.59341796875,-0.6379729093670845,-5.750780033236742,-1.8755057030767202
1789482976815468000,9.603468017578125,-0.8891022178769111,-6.002554069390893,-1.2105015789210796
1789482976825517000,9.61351708984375,-1.086063882869482,-6.359351491552591,-0.46854222537875173
1789482976835567400,9.6235673828125,-1.1458324151337147,-6.688698012208938,0.27350656001269813
1789482976845616000,9.6336162109375,-1.129145484226942,-6.894858882701397,1.1090624811410903
1789482976855666200,9.643666259765626,-1.0968377903401851,-6.8991007580548525,2.0359365035295487
1789482976865715000,9.65371484375,-0.9549895983476191,-6.615762539857625,2.801545028206706
1789482976875765000,9.663764892578126,-0.7982569948256015,-6.11457242885232,3.2252637769967314
1789482976885815000,9.67381494140625,-0.7969863173026591,-5.518976771965622,3.4699849720299243
1789482976895864300,9.6838642578125,-0.9026081806600094,-4.969034612751007,3.64366220754683
1789482976905914000,9.6939140625,-1.0811199236612767,-4.463877351680398,3.787601891925931
1789482976915963100,9.703963134765624,-1.2481716766238211,-3.9294437272429463,3.848835820567608
1789482976926013200,9.71401318359375,-1.3084183477938174,-3.29963337380439,3.784599202978611
1789482976936062200,9.724062255859375,-1.2738672588944435,-2.58971926382035,3.6288492538183927
1789482976946112300,9.7341123046875,-1.121135196250677,-1.813472148489952,3.417196800172329
1789482976956161000,9.7441611328125,-0.8882230969548225,-1.0529860083278269,3.130121733534336
1789482976966211000,9.754211181640626,-0.6300631591558457,-0.43955509074945,2.8252666800558566
1789482976976260000,9.764260009765625,-0.3584381751060486,0.04387392077893019,2.468928107577562
1789482976986310100,9.77431005859375,-0.09896072496771811,0.48097339853718873,2.1555518939912317
1789482976996359200,9.784359130859375,0.16903788527846336,0.908836992046982,1.8913643664658069
1789482977006409200,9.7944091796875,0.4906803343635052,1.2784784059517085,1.7566794171661138
1789482977016458000,9.8044580078125,0.7130535770535469,1.559574982701987,1.7557476892739534
1789482977026508000,9.814508056640625,0.9261609787482767,1.692033926515281,1.8632868574947117
1789482977036557300,9.824557373046876,1.057881744480133,1.6709768177002668,2.1544132453501224
1789482977046607000,9.834607177734375,1.0904315034944563,1.5158809485346079,2.4512661941587925
1789482977056656100,9.84465625,1.0718844778042287,1.2662313571885226,2.610230429190397
1789482977066706200,9.8547060546875,1.0014811542790383,0.9911379663757979,2.646357389104366
1789482977076755000,9.8647548828125,0.8976116144817322,0.7122199027083814,2.6166934877246617
1789482977086804500,9.874804443359375,0.7965443456888198,0.42390491901189087,2.6077789443850516
1789482977096853500,9.884853515625,0.7476818959075957,0.1713240965195,2.608119720646739
1789482977106903300,9.8949033203125,0.7189303601324558,-0.0744791946619749,2.5447172157943245
1789482977116952300,9.904952392578124,0.7458113527953625,-0.25748890666961666,2.4512732084214686
1789482977127002400,9.91500244140625,0.7770259907484054,-0.33210020327866074,2.270659451639652
1789482977137051400,9.925051513671875,0.7556547744829207,-0.3045090165197849,1.9741881956249474
1789482977147101400,9.935101318359376,0.7608581883449107,-0.1425774561151862,1.6187065322369336
1789482977157150500,9.945150390625,0.7504232305049896,0.0661135173767805,1.2326596347153187
1789482977167200300,9.9552001953125,0.7223614305596798,0.26774258965849873,0.8698170871704817
1789482977177249500,9.96524951171875,0.670809011042118,0.4670972872674465,0.5554214674085378
1789482977187299600,9.975299560546874,0.6153600955426692,0.5557835787191987,0.36772798149883745
1789482977197348400,9.985348388671875,0.6055448039710521,0.5634489987805485,0.26311492985785007
1789482977207398400,9.9953984375,0.6654640698175877,0.5995628069519996,0.09982289475500583
1789482977217447400,10.005447509765625,0.7187539075870066,0.6366989439085126,-0.07744447420835494
1789482977227497200,10.015497314453125,0.7906161246836185,0.6259402340069413,-0.23139584951400755
1789482977237546500,10.02554638671875,0.8459960666000843,0.5779270214661956,-0.3885428059905767
1789482977247596500,10.035596435546875,0.8856383411586284,0.5366586070105434,-0.5228150828361511
1789482977257645300,10.045645263671876,0.9285844065029174,0.5045440976083279,-0.6238637199938297
1789482977267695400,10.0556953125,0.9519967732071876,0.5194681104958057,-0.7139110706657171
1789482977277744600,10.06574462890625,0.9552068943601101,0.5445698185265064,-0.7285305476486682
1789482977287794400,10.07579443359375,0.9227180717527865,0.6088412151679397,-0.713331224951148
1789482977297843500,10.085843505859375,0.8200900564491749,0.6944210650369524,-0.7627543042898177
1789482977307893500,10.0958935546875,0.6736299867469817,0.8035951409831643,-0.8381067746549844
1789482977317942300,10.1059423828125,0.5170423446536064,0.9077432054609059,-0.8840332440495491
1789482977327992300,10.115992431640626,0.37823834266252815,0.9666013448819517,-0.8870563912630081
1789482977338041600,10.12604150390625,0.3127146078724414,1.0034186251476407,-0.8245756774306296
1789482977348091400,10.13609130859375,0.323378479097411,1.0417167916208505,-0.6938859352469444
1789482977358140400,10.146140380859375,0.39392676405124366,1.1208099098190665,-0.6157862120002507
1789482977368190500,10.1561904296875,0.4679636948384344,1.2268261062562464,-0.48792497124075884
1789482977378239500,10.166239501953125,0.5308570080596954,1.3611571275517345,-0.3220487648636102
1789482977388289500,10.17628955078125,0.5817548361260444,1.5287389688029884,-0.14857611200809479
1789482977398338300,10.18633837890625,0.5863397527635097,1.710911937725544,0.05165419939160347
1789482977408388400,10.196388427734375,0.5579449945367873,1.9257944593340157,0.2243880165785551
1789482977418437400,10.206437255859376,0.5113876798927783,2.1129013775274155,0.3353384545475244
1789482977428487400,10.2164873046875,0.4296878132622689,2.271157464289665,0.4151818065911531
1789482977438536400,10.226536376953124,0.39253216788768763,2.451095221506059,0.5210743766486644
1789482977448586500,10.23658642578125,0.3675999712049961,2.6336799860998985,0.6631541123747825
1789482977458635300,10.24663525390625,0.3531810582954436,2.771859499517083,0.8732780412793159
1789482977468685300,10.256685302734375,0.3807365161538124,2.8962673849523064,1.1054162335932254
1789482977478735400,10.2667353515625,0.34580198089480396,3.023653409415483,1.2788321878254414
1789482977488784400,10.276784423828126,0.28648827972598373,3.1802930008918047,1.4641875861763953
1789482977498834400,10.28683447265625,0.21200389743223785,3.3447423893362282,1.6314485249102115
1789482977508883500,10.296883544921876,0.11248889958262442,3.4903070445686577,1.8090835581421851
1789482977518933500,10.30693359375,-0.02075410728044808,3.6198692440271376,1.9836358229279516
1789482977528982500,10.316982421875,-0.12236154736466705,3.7510131597191094,2.1752169639259575
1789482977539032600,10.327032470703125,-0.21072942051701246,3.871539819806814,2.3071827173948285
1789482977549081300,10.337081298828124,-0.26425423608608545,3.948523106244206,2.37323836710453
1789482977559131400,10.34713134765625,-0.29318324731998147,4.046730967018008,2.392524666854739
1789482977569180400,10.357180419921875,-0.3034207098264247,4.147155919319391,2.4322300697773693
1789482977579230200,10.367230224609376,-0.38502570124771446,4.186750263082981,2.5250679279506203
1789482977589279500,10.377279541015625,-0.5554091924488544,4.0476919210046525,2.8037966065257787
1789482977599329500,10.38732958984375,-0.7544868266820907,3.7236663031101225,3.2553309984803196
1789482977609378300,10.39737841796875,-0.9880956760704517,3.2928356764882802,3.6418402528166767
1789482977619428400,10.407428466796874,-1.0243103142678738,2.7842852658480406,4.122031999456882
1789482977629477400,10.417477294921875,-1.0519476782560349,2.159939899817109,4.6782320500224825
1789482977639527400,10.42752734375,-0.9498024780333042,1.628252943739295,5.17318998863995
1789482977649576400,10.437576416015625,-0.8571557585179805,1.2760200530141592,5.553332630553841
1789482977659626500,10.44762646484375,-0.7578350411314517,1.2381021180301903,5.73308480207026
1789482977669675300,10.45767529296875,-0.5591138191204518,1.673969569775462,5.5887055572301145
1789482977679725300,10.467725341796875,-0.39447625116016716,2.487282094913721,5.0589060223340985
1789482977689774600,10.477774658203124,-0.2992845598697662,3.290685220456123,4.442618290552496
1789482977699824400,10.487824462890625,-0.3446329371154308,3.7892923292309044,3.96274627738595
1789482977709873400,10.497873291015624,-0.43833764125108715,4.125018321791291,3.5765450660854574
1789482977719923500,10.50792333984375,-0.523582012088038,4.327162357857823,3.2145611811965704
1789482977729972500,10.517972412109375,-0.5571440534174442,4.360371969020367,2.847466236904263
1789482977740022500,10.5280224609375,-0.4706032130291685,4.310910311236977,2.5399229672551153
1789482977750071600,10.538071533203125,-0.3354255483090877,4.019880369493365,2.255952296373248
1789482977760121300,10.548121337890626,-0.1296703360080719,3.6889679146945475,1.9792606765836476
1789482977770170400,10.55817041015625,0.10497191154863685,3.4166134473264216,1.6940040575444697
1789482977780220400,10.568220458984374,0.295593852125667,3.19680632879734,1.398019708263874
1789482977790269400,10.57826953125,0.4134966299831867,2.9847584460929033,1.1400947482645511
1789482977800319500,10.588319580078124,0.45333650947306303,2.757575538098812,0.9570067103236913
1789482977810368500,10.598368408203125,0.4302992962241173,2.53601660746634,0.8356424303680657
1789482977820418300,10.608418212890625,0.3840624457061291,2.2405165345713494,0.8365805880010128
1789482977830467600,10.618467529296876,0.288989923815988,1.87439598826915,0.8759884692817926
1789482977840517600,10.628517578125,0.2991512888789177,1.4508777304872869,0.9707511580377817
1789482977850566400,10.63856640625,0.34234738346152005,0.970368296200037,1.1727303589314222
1789482977860616400,10.648616455078125,0.2530943980377167,0.3688219142153859,1.409025086402893
1789482977870665200,10.658665283203124,0.2238952646255493,-0.3139543057352304,1.3575129258304834
1789482977880715300,10.66871533203125,0.8012835761051624,-0.6884454977586865,1.0863701723396777
1789482977890764500,10.6787646484375,1.4600480021536348,-0.8121180546566843,0.9650871409267187
1789482977900814600,10.688814697265625,1.9021733452498912,-0.8710346462666988,1.187247544583678
1789482977910863400,10.69886328125,2.1586907765388488,-0.930041254247725,1.684943383732438
1789482977920913400,10.708913330078126,2.1217513311982152,-1.1356611497312783,2.059951000845432
1789482977930962400,10.71896240234375,1.9898247406959533,-1.1772928445413708,2.1433727958977222
1789482977941012500,10.729012451171876,1.9887642718575893,-0.9055445263728499,2.3477783471554514
1789482977951061500,10.7390615234375,1.8519149841308593,-0.8030252321407199,2.6150977429658173
1789482977961111300,10.749111328125,1.6853507954895495,-0.7933408734723925,2.7583260642051695
1789482977971160300,10.759160400390625,1.633108420946449,-0.7158347322046756,2.9447254186511036
1789482977981210400,10.76921044921875,1.5607878656230867,-0.6470429355293512,3.0340467931360005
1789482977991259400,10.77925927734375,1.4445533497713505,-0.5947630054548383,2.967095655891299
1789482978001309400,10.789309326171875,1.3517758434832094,-0.5708206965923309,2.8128882599979637
1789482978011358500,10.7993583984375,1.373259653277695,-0.5753415350176394,2.654287597581744
1789482978021408300,10.809408203125,1.428877787864208,-0.6505731554821134,2.485429745045304
1789482978031457500,10.81945751953125,1.5444997247755528,-0.8222590710513293,2.3345243133068085
1789482978041507600,10.829507568359375,1.675262970586866,-1.1272609125893562,2.1923867099136114
1789482978051556400,10.839556396484374,1.7906163196898996,-1.4787740376725793,1.94456696434319
1789482978061606400,10.8496064453125,1.8771502554133532,-1.8551596651405096,1.6457459303319453
1789482978071656400,10.859656494140625,1.9145256079532205,-2.2626596850574017,1.3705302283138037
1789482978081705200,10.869705322265625,1.9109590015128253,-2.6589865690529346,1.0496528453171252
1789482978091755800,10.879755859375,1.9274564011968671,-3.0264021236017347,0.7521826413929462
1789482978101804800,10.8898046875,1.9955340582534669,-3.3585020346194505,0.49862172182202336
1789482978111854800,10.899854736328125,2.0212755254924297,-3.6887604094237085,0.2352981176495552
1789482978121903600,10.909903564453124,1.9946610748112201,-4.055817652054131,-0.032177930027246476
1789482978131953700,10.91995361328125,1.924836574087292,-4.340104257017374,-0.3088461689412594
1789482978142003000,10.9300029296875,1.7893289102278649,-4.591611458928883,-0.6451438239097594
1789482978152052700,10.940052734375,1.6737351764976978,-4.836334699788689,-1.0135545269757509
1789482978162101800,10.950101806640625,1.590684991236776,-5.0610757675886155,-1.374164200901985
1789482978172151800,10.96015185546875,1.5253938961587845,-5.201539884811639,-1.711303567391634
1789482978182200600,10.97020068359375,1.4832476759552955,-5.333945783263444,-2.051344500541687
1789482978192250600,10.980250732421876,1.4746132647313177,-5.417905922976136,-2.320174300915003
1789482978202300000,10.9902998046875,1.4443044895768165,-5.463706720164418,-2.5841911480486393
1789482978212349700,11.000349609375,1.3351660694658756,-5.443423810592294,-2.817789476042986
1789482978222398700,11.010398681640625,1.2138123839695005,-5.432256519889831,-3.0082442433595658
1789482978232448800,11.02044873046875,1.0703962850730866,-5.37201920107007,-3.140927205187082
1789482978242497800,11.030497802734375,0.8531084558885544,-5.307389784771203,-3.2186651093840597
1789482978252547800,11.0405478515625,0.6404009402316063,-5.255001425886154,-3.2379367960870264
1789482978262596900,11.050596923828126,0.42081835117340083,-5.255601145344972,-3.245622089892626
1789482978272646700,11.060646728515625,0.21151516406722365,-5.343572274264693,-3.2356068918347356
1789482978282695700,11.07069580078125,0.018088614398241044,-5.440356239715218,-3.207767283272743
1789482978292745700,11.080745849609375,-0.11242577121853828,-5.541870740818977,-3.1634482490748166
1789482978302794800,11.090794677734374,-0.1551636371722445,-5.6550341786623,-3.123627695339918
1789482978312844800,11.1008447265625,-0.14117372679710388,-5.756832172882556,-3.10275441865921
1789482978322893800,11.110893798828124,-0.09268763604760169,-5.82670708861947,-3.0857781494170426
1789482978332943600,11.120943603515625,0.16832820263914763,-5.686744491177797,-3.070909081587195
1789482978342993000,11.130992919921875,0.28216983200497925,-5.489536157947779,-2.9354899727940555
1789482978353043000,11.14104296875,0.3756149353563785,-5.353675150606036,-2.7300655998826024
1789482978363091700,11.151091796875,0.3273486979026347,-5.356563273262977,-2.344936986249685
1789482978373141800,11.161141845703124,0.1731482432067394,-5.592680890601873,-1.795856996822357
1789482978383190800,11.171190673828125,-0.08097381737828255,-6.050076283544302,-1.0064140075713395
1789482978393240600,11.181240478515624,-0.2941221356052905,-6.560963612699508,-0.18385960683524608
1789482978403289900,11.191289794921875,-0.32191958552598954,-7.014377827051281,0.4880886373698711
1789482978413340000,11.20133984375,-0.22577172602191567,-7.4538213837176555,1.119889580103755
1789482978423388700,11.211388671875,-0.0035059622943401335,-7.792382891964912,1.5978706649571657
1789482978433438700,11.221438720703125,0.3286053469002247,-7.792681582650542,1.8926281027913092
1789482978443487700,11.23148779296875,0.61141428052634,-7.498758257552981,2.0559873579114676
1789482978453537800,11.241537841796875,0.7950827487036586,-6.921580885410308,2.293065344715118
1789482978463586800,11.2515869140625,0.8833389051098376,-6.182224992364644,2.5255244395464658
1789482978473636900,11.261636962890625,0.827099496819824,-5.560142895090579,2.6943431291162967
1789482978483685600,11.271685546875,0.6140940211296081,-4.987843358117342,2.949986700180173
1789482978493735700,11.281735595703125,0.3722784844100475,-4.329725778605043,3.1296880182921885
1789482978503784700,11.29178466796875,0.14991948944106698,-3.6039836926311253,3.0798645414590835
1789482978513834800,11.301834716796876,-0.07853387688025831,-2.8227432990580796,2.852033106428385
1789482978523883800,11.3118837890625,-0.32123671782836316,-1.9972979991860687,2.5587030710488556
1789482978533933600,11.32193359375,-0.6267863294422626,-1.1750418507441878,2.2739076397806404
1789482978543982800,11.33198291015625,-0.9682803840100764,-0.3713330202534795,1.931795745575428
1789482978554033000,11.342032958984374,-1.30046885009408,0.3211658445492387,1.6094173103660343
1789482978564081700,11.35208154296875,-1.5152759683787822,0.8988159487701952,1.3743109158962965
1789482978574131700,11.362131591796874,-1.6270876993522048,1.3456931625686586,1.261450844913721
1789482978584180700,11.3721806640625,-1.633125079820305,1.6597605732895433,1.2892290786772966
1789482978594230500,11.38223046875,-1.4505227795697748,1.835861674952507,1.5379326213449238
1789482978604279800,11.39227978515625,-1.1775791141368448,1.7739315807402134,1.8061363987743853
1789482978614329900,11.402329833984375,-0.8500212304629385,1.5799512696459888,2.116301833620667
1789482978624378600,11.412378662109376,-0.47078795847892757,1.3359580966264009,2.4468764347672463
1789482978634428700,11.4224287109375,-0.1313197837155312,0.9750488552317023,2.6268746899992226
1789482978644478000,11.43247802734375,0.12320084773302077,0.5031041279330849,2.6079782663494346
1789482978654527700,11.44252783203125,0.3020024405263364,0.04036269778758287,2.500799163612723
1789482978664577800,11.452577880859375,0.4234872781217098,-0.2876438064366579,2.4059645786643027
1789482978674626800,11.462626708984375,0.5086952259384095,-0.49368689576834435,2.3935166005015374
1789482978684675600,11.472675537109374,0.6189151576757431,-0.7982187086418271,2.1253648455202576
1789482978694725600,11.4827255859375,0.667992784577608,-0.7460442847684026,1.949190532490611
1789482978704776000,11.49277587890625,0.8094155176997184,-0.45586774498373267,1.8850111980468034
1789482978714824700,11.50282470703125,0.8053213802538811,-0.09825842191725968,1.7552040839165448
1789482978724874800,11.512874755859375,0.940102921795845,0.23010025674551723,1.5706266842007637
1789482978734923800,11.522923828125,1.2411001308023928,0.38284547113180156,1.2712602912664412
1789482978744973600,11.5329736328125,1.3737082738280295,0.8011696674019098,1.2928899392724036
1789482978755022800,11.54302294921875,1.3851310005962847,1.2192463186517357,1.2167518714874983
1789482978765073000,11.553072998046876,1.3467713131941854,1.406078511556983,0.8136819429725408
1789482978775121700,11.56312158203125,1.2060523444272577,1.5640578272044658,0.4754407527208328
1789482978785171700,11.573171630859376,1.1252515455283223,1.7453467067688702,0.32355332420766353
1789482978795220700,11.583220703125,1.127002626979351,1.8806082869127392,0.2604436648219824
1789482978805270800,11.593270751953124,1.172010812485218,1.9483897375017403,0.18594927259087562
1789482978815319800,11.60331982421875,1.2323146206699311,1.9889508804708718,0.10917641403377056
1789482978825369900,11.613369873046874,1.248071138858795,2.0593492355599996,0.11478548608720301
1789482978835418600,11.623418701171875,1.2439419300995767,2.1378882270067927,0.13444587984681128
1789482978845468700,11.63346875,1.2158616446495056,2.1902470675364136,0.1768874297350645
1789482978855518000,11.64351806640625,1.2043792966485023,2.269125081679225,0.3212725197941065
1789482978865567700,11.653567626953125,1.2078091249667107,2.408577391511202,0.48621056853830813
1789482978875616800,11.66361669921875,1.202745119575411,2.6238386833041907,0.5706809958606958
1789482978885666800,11.673666748046875,1.1457188717566429,2.862841500690579,0.6590349866181612
1789482978895715800,11.6837158203125,1.0565735844910145,3.055090165686607,0.7616501424401998
1789482978905766000,11.693765869140625,1.0048949813105166,3.1831969056397673,0.8767799119204283
1789482978915815000,11.70381494140625,0.9982888610437511,3.316373788464069,1.0352958186626433
1789482978925864700,11.71386474609375,1.0148515810489653,3.451862455362081,1.1980886720716952
1789482978935913700,11.723913818359375,1.08092491254583,3.5831676990956067,1.3568775505363941
1789482978945963800,11.7339638671875,1.1581320708669722,3.6647400668889283,1.4958873772978782
1789482978956012800,11.7440126953125,1.2259668590784072,3.7264147250354287,1.6350433345317839
1789482978966062800,11.754062744140626,1.2798494020439684,3.7633085776686666,1.7500398330211637
1789482978976111600,11.764111572265625,1.2577763941846787,3.8238615383088588,1.7709692238032817
1789482978986161700,11.77416162109375,1.1906887710787355,3.860025323101878,1.7917641745507715
1789482978996210700,11.784210693359375,1.1429987991429864,3.8087943175584074,1.8571856180101631
1789482979006261000,11.794260986328124,1.0749008299507201,3.777296186488867,1.961730865111947
1789482979016309800,11.804309814453125,1.055728511969,3.8070278924077745,2.059322639814019
1789482979026359800,11.81435986328125,0.9909832142055034,3.8333196870058774,2.1425199784606694
1789482979036408600,11.82440869140625,0.8775390597246586,3.875119431859255,2.2042799768030643
1789482979046458600,11.834458740234375,0.8004092044234276,3.9452608895778654,2.2196195847541094
1789482979056508000,11.8445078125,0.6937840823076665,4.0188562871426345,2.242019048088789
1789482979066557700,11.8545576171875,0.5406419044930487,4.049284743154049,2.3089117331445217
1789482979076606700,11.864606689453124,0.41087212669849393,4.036131831592321,2.426958266854286
1789482979086656300,11.87465625,0.2644552385509014,3.9842292103976007,2.5185224518299103
1789482979096705300,11.884705322265624,0.09347425638064742,3.9284330888956784,2.621637373867631
1789482979106755300,11.89475537109375,-0.015750672969967124,3.8620781639784574,2.7048358815580604
1789482979116804400,11.904804443359374,-0.0652068508606404,3.808571614718437,2.7989497510164973
1789482979126854100,11.914854248046876,-0.1456242033999413,3.7120331484615803,2.7940561337560412
1789482979136904200,11.924904296875,-0.28635018642954524,3.546144667124748,2.8522259986519813
1789482979146953500,11.934953369140626,-0.4820282413523644,3.2024569019049403,3.133696669411659
1789482979157003500,11.94500341796875,-0.7086626486182213,2.718390359658003,3.4670904196321963
1789482979167052300,11.95505224609375,-0.8102315833229571,2.2042928362846372,3.6851369582295415
1789482979177102300,11.965102294921875,-0.868977129215002,1.7204203553050756,3.949884457725286
1789482979187151000,11.975151123046874,-0.83076693328619,1.1949965512752532,4.209520313295722
1789482979197201200,11.985201171875,-0.6262439661938697,0.8182020507454871,4.312385644486546
1789482979207250400,11.99525048828125,-0.45090486187934875,0.6531546964079141,4.311775403633713
1789482979217300500,12.005300537109376,-0.29075989263057705,0.6635065790742636,4.159275980702042
1789482979227349200,12.015349365234375,0.03213701349496841,1.056979242682457,3.750868782812357
1789482979237399300,12.0253994140625,0.22704700665473937,1.492816299289465,3.4967595817089077
1789482979247448300,12.0354482421875,0.3192658926794305,1.804102262598276,3.501127129268646
1789482979257498400,12.045498291015624,0.3466109591901302,2.018963741418719,3.5071430285573
1789482979267547400,12.05554736328125,0.3655833706855774,2.198027346149087,3.4060400308638807
1789482979277597200,12.06559716796875,0.4296259635398164,2.357660858744383,3.187278621995449
1789482979287646200,12.075646240234375,0.5118529593169688,2.5209131463587284,2.8862697225511074
1789482979297696300,12.0856962890625,0.6024305444080382,2.593971368306875,2.5906846017211675
1789482979307745300,12.095745361328126,0.6745921097774058,2.6269337267100807,2.3417501729071137
1789482979317795300,12.10579541015625,0.7553928356111049,2.6703821155533194,2.116809198620915
1789482979327844400,12.11584423828125,0.8289560844719409,2.700805018606782,1.9114789337337017
1789482979337894100,12.12589404296875,0.8776315603137016,2.690963131289184,1.7050509367376565
1789482979347943400,12.135943359375,0.8876829987287521,2.5593413689523934,1.532167481946945
1789482979357993500,12.145993408203125,0.8771826475024223,2.3033301336199044,1.4858698411524296
1789482979368042200,12.156042236328124,0.8955424800574779,1.9151210896283386,1.5440519810080526
1789482979378092300,12.16609228515625,0.9377437914490699,1.4112228887081146,1.6809984454989433
1789482979388141300,12.176141357421875,1.0367968708753585,0.9013789311259984,1.8271189810484647
1789482979398191000,12.186191162109376,1.124706624996662,0.3695654260590672,2.0352572890937326
1789482979408240400,12.196240478515625,1.2926771733045577,-0.15064970341175793,2.2573767762184143
1789482979418290400,12.20629052734375,1.5729881526350975,-0.6276862008914351,2.4767273831516503
1789482979428339200,12.216339111328125,1.7959937749445438,-1.1111284737601876,2.6276018352299926
1789482979438389200,12.22638916015625,2.066739638072252,-1.519133228328824,2.689105228462815
1789482979448438500,12.2364384765625,2.3330852204144,-1.836518093034625,2.6749597987323996
1789482979458488300,12.24648828125,2.463790160167217,-2.1221464679956434,2.5812907504320144
1789482979468537300,12.256537353515625,2.550791567271948,-2.369469954481721,2.5011457850933074
1789482979478587400,12.26658740234375,2.5709867985606194,-2.5387454479083416,2.3896833059489726
1789482979488636200,12.27663623046875,2.446073301690817,-2.56871067032218,2.2375410258919
1789482979498686200,12.286686279296875,2.1910078227758407,-2.453991235208511,2.0407821899950505
1789482979508735500,12.296735595703124,1.889935794967413,-2.2629871634460983,1.8156138366937635
1789482979518785300,12.306785400390625,1.6578572238862515,-2.134785292555392,1.5958125633835791
1789482979528835300,12.31683544921875,1.505852306473255,-2.0744299003139135,1.4166776469826698
1789482979538884400,12.32688427734375,1.4088240108728407,-1.957264241091907,1.216686989557743
1789482979548934100,12.33693408203125,1.387327633857727,-1.823619448494911,1.0296990215688944
1789482979558983400,12.3469833984375,1.3582463546715675,-1.7462139911226928,0.846487064987421
1789482979569033500,12.357033447265625,1.336727911955118,-1.7279364300236104,0.6896376301527023
1789482979579082200,12.367082275390626,1.3318528532646596,-1.8559462854735551,0.5626303758740425
1789482979589132300,12.37713232421875,1.3458733414411543,-2.1053651368036865,0.42296062389910216
1789482979599181300,12.387181396484374,1.4150244729481636,-2.3947654315188527,0.18870061712563035
1789482979609231400,12.3972314453125,1.489064691670984,-2.680998494374752,-0.10520867944657802
1789482979619280400,12.4072802734375,1.5716856917344033,-3.0034084937661882,-0.43815877755284305
1789482979629330400,12.417330322265625,1.6425554637275634,-3.2950127282664177,-0.7346206812173127
1789482979639379200,12.427379150390625,1.697161790923029,-3.5005069515436884,-1.0222364306032656
1789482979649429200,12.43742919921875,1.7131925960086285,-3.6754876708745954,-1.2593594255924223
1789482979659478300,12.447478271484375,1.7228993126392365,-3.847234815111756,-1.5059990214675665
1789482979669528300,12.4575283203125,1.6846739191412925,-3.977941800691187,-1.759770953440666
1789482979679577300,12.467577392578125,1.6243068364620208,-4.088590333104134,-2.013725256243348
1789482979689627400,12.47762744140625,1.5577273090086876,-4.185658960714936,-2.285567097914219
1789482979699676200,12.48767626953125,1.4847136568546295,-4.222235417962074,-2.559610833543539
1789482979709726200,12.497726318359375,1.4278326627254485,-4.222443507754803,-2.8203561116605997
1789482979719775200,12.507775146484375,1.4332989653073251,-4.2454140489757055,-2.9536890618294476
1789482979729825300,12.5178251953125,1.3856484485991298,-4.286836192688345,-3.0925691247314213
1789482979739874300,12.527874267578126,1.3823780486263333,-4.270081749503314,-3.228329009786248
1789482979749924000,12.537924072265625,1.3894997171998023,-4.2627644122272725,-3.2962007690072057
1789482979759973400,12.547973388671876,1.4084557620823384,-4.2695109638780355,-3.2902468290388582
1789482979770023400,12.5580234375,1.3699978750027715,-4.319545160852372,-3.265134599614143
1789482979780072200,12.568072265625,1.3647802864849568,-4.37469830827564,-3.253350053796172
1789482979790122200,12.578122314453125,1.3278046007871627,-4.429262549895048,-3.248184049335122
1789482979800171300,12.588171142578124,1.2747957719162106,-4.523429610845446,-3.243008692523837
1789482979810221300,12.59822119140625,1.2592111031629145,-4.6330637055188415,-3.230330412736535
1789482979820270300,12.608270263671875,1.229563860657066,-4.722894783091545,-3.277779561653733
1789482979830320400,12.6183203125,1.2100794079862534,-4.792923428085446,-3.2904291998684405
1789482979840369200,12.628369140625,1.1432198945477605,-4.877287472423911,-3.227379161715507
1789482979850419200,12.638419189453124,1.1250924094438552,-5.02072505249977,-3.0520874767392874
1789482979860469200,12.64846923828125,1.1339539074219762,-5.203372360935807,-2.772384984695911
1789482979870518300,12.658518310546874,1.1315629206322133,-5.389854132968187,-2.400680500781536
1789482979880567300,12.6685673828125,1.0270201577484608,-5.621811708018184,-1.8239380129247902
1789482979890617300,12.678617431640625,0.7981938664615154,-5.941506603232026,-1.1233715770006178
1789482979900667100,12.688667236328126,0.4672352344334125,-6.370551515480876,-0.45219723977744575
1789482979910716400,12.69871630859375,0.1135223342835903,-6.83437080399096,0.21080431238412856
1789482979920766500,12.708766357421876,-0.23816227490901945,-7.389613407701254,0.9545745147407054
1789482979930815200,12.718815185546875,-0.5090894859530032,-7.860156451508402,1.57878310264945
1789482979940865300,12.728865234375,-0.6104875210702418,-8.18344089564681,1.9450731602996587
1789482979950914300,12.738914306640625,-0.4954499599181115,-8.35783943117559,2.175975088816881
1789482979960964000,12.748964111328124,-0.14442249945998192,-8.307043309918045,2.434565234726667
1789482979971013400,12.759013427734375,0.29834713288918135,-7.935752082979679,2.670495805060863
1789482979981063400,12.7690634765625,0.8137278279408812,-7.242405076915025,2.767116688904166
1789482979991112200,12.7791123046875,1.3180372400104998,-6.4195402950555085,2.8293910665094852
1789482980001162200,12.789162353515625,1.6542779040947555,-5.494189536711573,2.913361143094301
