time,seconds_elapsed,z,y,x
1789483535144724500,0.053724365234375,-3.139696202087402,-2.3335519611433146,-0.3205002202473581
1789483535154774800,0.06377490234375,-2.702197934269905,-1.0414569716408848,-0.11410188773721455
1789483535164824600,0.073824462890625,-1.0321890848189592,0.15878347163721918,-0.09930734644830226
1789483535174874600,0.08387451171875,0.11742109528779983,0.6885469123065471,0.26739889078736306
1789483535184924700,0.093924560546875,0.7317547703921794,0.9701843179352581,1.2561197130188346
1789483535194974700,0.103974609375,1.02066172863245,0.8329083292290568,1.7951880115196108
1789483535205023500,0.1140234375,0.4940852474361658,0.4011912751615047,2.179752561528981
1789483535215073500,0.124073486328125,-0.4590665410250425,-0.06918927156031131,2.0457591016247867
1789483535225123600,0.13412353515625,-1.3879010498315094,-0.42168636617958544,1.2327785849198698
1789483535235173600,0.144173583984375,-2.672109669998288,-1.0292278969258069,0.3675388886675238
1789483535245223400,0.154223388671875,-3.0580303107917306,-1.121340363433957,-0.5939680556848644
1789483535255273500,0.1642734375,-4.128095829540491,-0.5727262379527092,-1.3974851629957556
1789483535265323500,0.174323486328125,-7.235580199331045,-0.034661855797469616,-1.0437789848476648
1789483535275373800,0.184373779296875,-7.559088515353203,-0.009272270736098289,0.450712261916697
1789483535285423600,0.194423583984375,-6.115172148311138,-0.43400896439701314,1.561386562168598
1789483535295472600,0.20447265625,-3.698779114612937,-0.4660086152479052,2.0003984494194387
1789483535305522700,0.214522705078125,-1.1247487105727194,-0.11928455107212066,1.8054495855540036
1789483535315572500,0.224572509765625,0.46350832286477084,0.342344241656363,1.2110206343591212
1789483535325622500,0.23462255859375,0.3413268813073635,0.7689712791085243,0.48196167892217634
1789483535335672600,0.244672607421875,-0.1669797837048769,0.8281351234778761,0.10991641874611377
1789483535345722600,0.25472265625,0.24404314964115617,0.32202100007385015,0.07590279772430658
1789483535355772400,0.2647724609375,0.00808452225625515,-0.5733280032381415,-0.33918826184347267
1789483535365822500,0.274822509765625,-0.0424421344101429,-0.9588111293971538,-0.851165432062
1789483535375872500,0.28487255859375,0.29847324348688126,-0.7453110020577907,-1.147294742771238
1789483535385922600,0.294922607421875,-0.6922492739558219,-0.5621694803640246,-0.8036847189627587
1789483535395971600,0.3049716796875,-1.3729232609301805,-0.7223414837501942,-0.2869460334308445
1789483535406021600,0.315021728515625,-1.3129337793916462,-0.9183457018874585,-0.06539616288766265
1789483535416071700,0.32507177734375,-1.2296452553302049,-0.8763440047211944,0.14749693846926093
1789483535426121700,0.335121826171875,-0.07365852592885494,-0.6084285427138209,0.3894194061620161
1789483535436171500,0.345171630859375,0.7111889522254466,-0.2022061415173113,0.6984186833057552
1789483535446221600,0.3552216796875,0.9630471595317125,-0.03872881297543645,0.6648095514316111
1789483535456271600,0.365271728515625,0.8019295458585023,-0.07656871428713202,0.791626909161359
1789483535466321700,0.37532177734375,0.20031389802992342,-0.45286724799349903,0.9009295068580657
1789483535476371500,0.385371337890625,-0.05907587382495403,-1.1317683800764382,0.8247543949984013
1789483535486420700,0.395420654296875,-0.2916822681725025,-1.6092194497063754,0.8760229560732841
1789483535496470800,0.405470703125,-0.41528818957507607,-1.654129435534775,1.0972471748586743
1789483535506520600,0.4155205078125,-0.6152566351681947,-1.6570982222124933,1.3504840501070021
1789483535516570600,0.425570556640625,-0.9480091648757457,-1.7925868891105055,1.565126040957868
1789483535526620700,0.43562060546875,-1.4654483998924492,-1.946563544987887,2.0360497546456755
1789483535536670700,0.445670654296875,-2.093867883494496,-2.2785215633168816,2.2656550674811005
1789483535546720500,0.455720458984375,-2.495685766121745,-2.5668548133224247,2.2625033254519105
1789483535556770600,0.4657705078125,-3.1328678173720834,-2.8626711125597355,2.1899330331511795
1789483535566820600,0.475820556640625,-3.6597973497897383,-2.397540887581557,1.693888760601729
1789483535576870700,0.48587060546875,-3.2834143526703117,-1.7123761650592089,1.0876125736162066
1789483535586919400,0.49591943359375,-2.2385575094580648,-1.7783127184338867,0.8773127036228775
1789483535596969000,0.505968994140625,-1.5088339526325463,-2.525026426896453,0.737028034619987
1789483535607019000,0.51601904296875,-1.5714116970986127,-3.1545898198366165,0.27744506850540634
1789483535617069000,0.526069091796875,-1.7908429680526257,-3.6018981185287235,0.14329934064894914
1789483535627119000,0.536119140625,-2.079502089011669,-3.9121354495674368,-0.055009062777459615
1789483535637169000,0.5461689453125,-2.4644471627712248,-4.157858222858607,0.1296703360080719
1789483535647219000,0.556218994140625,-2.3197288952350616,-4.769801495695114,0.6600321809619665
1789483535657269000,0.56626904296875,-2.4607249273777008,-5.177842782881855,0.6788906106889248
1789483535667319000,0.576319091796875,-2.209645887750387,-5.163300462788343,0.3674164313316345
1789483535677367800,0.586367919921875,-2.034876765343547,-4.8366246226459735,0.05667465790212154
1789483535687418000,0.596418212890625,-1.8680279145419596,-4.7972693483352655,-0.31059856556653975
1789483535697468200,0.60646826171875,-1.6784472997114062,-5.416143589478731,-0.3344488122314215
1789483535707518000,0.61651806640625,-1.6416998698115348,-6.529004293859004,0.015015198302268981
1789483535717568000,0.626568115234375,-2.1406512619793414,-7.436736393404007,0.8418541444897651
1789483535727618000,0.6366181640625,-1.6772306173980236,-7.385714062175154,1.0911328566968441
1789483535737668000,0.646668212890625,-0.7312820383138954,-6.170538061702251,0.5258674561440945
1789483535747718000,0.6567177734375,-0.16568799032866954,-5.151138900351524,-0.48381285974681376
1789483535757768000,0.666767822265625,0.04600706035010516,-5.246361607834697,-0.884053702315688
1789483535767818000,0.67681787109375,0.021757073777914047,-4.710443882319331,0.16004910765886307
1789483535777867000,0.686866943359375,0.5322475125700235,-4.123694087450206,0.8418167350888252
1789483535787916800,0.696916748046875,0.6917465851306915,-4.3814591807126995,1.0492489406913519
1789483535797966800,0.706966796875,0.4787000467777252,-4.657433592143654,2.0514403621315953
1789483535808017000,0.717016845703125,0.9060369860649108,-3.9077722859218715,3.709993167066574
1789483535818067200,0.727067138671875,1.2351824311912059,-2.4018534900836643,5.782974329876899
1789483535828117000,0.737116943359375,1.5265829598128795,-0.9477934762984513,8.105059432849288
1789483535838167000,0.7471669921875,1.5470891567468643,0.16300773826874793,10.007335069429875
1789483535848217000,0.757217041015625,1.6196727469205856,1.1894481233678758,11.082457871568202
1789483535858267100,0.76726708984375,2.1013924337804317,2.2033460569538175,11.621965730530023
1789483535868316000,0.77731591796875,2.5040403374910354,3.1439556130975483,11.816371865820884
1789483535878366000,0.787365966796875,2.407898177075386,3.891386968310177,12.128887663185596
1789483535888416000,0.797416015625,1.8849761267334222,5.090623349112272,12.882801658415794
1789483535898465800,0.8074658203125,1.0381021082550286,6.3629708510935306,13.421707459831238
1789483535908515800,0.817515869140625,0.07299969669394195,7.08262134219408,14.335783959966896
1789483535918566000,0.82756591796875,-2.4443529076389967,6.87478523196578,14.052064048975705
1789483535928616000,0.837615966796875,-3.9336926168590782,7.771206832945347,14.034230286121367
1789483535938666000,0.847666015625,-4.622093983215093,9.15120923848152,12.685221569263934
1789483535948716000,0.857716064453125,-6.2211331074297425,10.172767623692751,11.466776337862013
1789483535958765000,0.86776513671875,-7.718747746911644,10.299205553650856,10.593238768863678
1789483535968815000,0.877815185546875,-8.044723914352058,10.176426730722188,9.661555884888768
1789483535978865000,0.887864990234375,-7.9482514990687365,9.791066061899066,8.559621063670516
1789483535988915000,0.8979150390625,-7.732321514233947,8.745663275241851,6.9787395274370905
1789483535998965000,0.907965087890625,-7.444960031870007,7.753847701865435,5.262867336955666
1789483536009015000,0.91801513671875,-6.993396413820982,7.306388012003898,4.282786625036597
1789483536019064800,0.92806494140625,-6.715280898708104,6.5413955733984706,3.1956098124891517
1789483536029115000,0.938114990234375,-6.70728756186664,4.94112719964981,1.6127297959148883
1789483536039165000,0.9481650390625,-6.248948750594258,3.477679910446703,0.2190063235402107
1789483536049215000,0.958215087890625,-5.684358472824097,1.9155324469082056,-1.3764520195782184
1789483536059264000,0.968263916015625,-6.424222899913787,-1.6238621614344417,-4.681203759309649
1789483536069314000,0.97831396484375,-5.830647935199737,-4.59264255554229,-6.720415923509002
1789483536079364000,0.988364013671875,-5.9030421402812,-2.7758476923704145,-5.010462601682543
1789483536089414000,0.998413818359375,-4.667201245181262,-0.974562533019483,-4.625334572571516
1789483536099464000,1.0084638671875,2.061632524191588,-1.5902685193903743,-3.73879665222466
1789483536109514000,1.018513916015625,1.4715880716912448,-2.16006849463284,-2.692569105181098
1789483536119564000,1.02856396484375,1.2779776168227195,-1.8721809425681828,-2.5521622711032625
1789483536129613800,1.03861376953125,2.425005963742733,-1.508875745947659,-2.7151380798637867
1789483536139664000,1.048663818359375,1.1256773697249591,-3.171513482108712,-2.8721681319624186
1789483536149713200,1.058713134765625,0.0713191231958568,-4.023197823478282,-2.799512645596266
1789483536159763000,1.068762939453125,0.18049086105450987,-4.2511233665332195,-2.9810148756504056
1789483536169813000,1.07881298828125,0.45391631865501403,-4.340495886683464,-3.4134283875495193
1789483536179863000,1.088863037109375,0.5280547370553016,-4.71799882774353,-3.999824254414439
1789483536189913000,1.0989130859375,0.7197603812158108,-5.229188939237594,-5.1948313270837065
1789483536199963000,1.108962890625,1.0277608200479298,-5.149600438737869,-6.493924212649464
1789483536210013000,1.119012939453125,0.7366460495650767,-4.632280738447606,-6.821290957665443
1789483536220063000,1.12906298828125,-0.9396937564730644,-3.537321601460874,-4.963264797177911
1789483536230113000,1.139113037109375,-1.990024647182226,-2.9267677371561525,-2.070986774122715
1789483536240163000,1.1491630859375,-1.5595651919603346,-2.617567932471633,0.3967635218471288
1789483536250211800,1.1592119140625,0.9507528375606983,-1.510731310686469,3.2753882826030254
1789483536260262000,1.169261962890625,1.8206218741141258,-1.1823238244459033,3.9172213745296
1789483536270312200,1.179312255859375,-0.07601115346960723,-0.8473568335592746,6.1679229107677935
1789483536280362000,1.189362060546875,1.3131005142606793,1.3241323420152067,8.200572647711635
1789483536290412000,1.199412109375,0.6918412776768207,2.657564135034382,8.508066233000159
1789483536300462000,1.209462158203125,-0.9927835416257381,3.361204863837361,8.90458308660984
1789483536310512000,1.21951220703125,-1.2150807234048844,4.11428679215759,8.157768694251775
1789483536320562000,1.22956201171875,-2.0369221535660325,4.296771603508294,6.486337118521332
1789483536330612000,1.239612060546875,-1.7732067735970019,4.086521710136533,4.989135736015439
1789483536340661000,1.249660888671875,-1.055498064213991,3.7485564142167567,4.517264073953032
1789483536350710800,1.259710693359375,-0.8543595519281924,4.2996562190338965,3.92154800555706
1789483536360760800,1.2697607421875,-0.7477695741910487,4.929544313883781,3.277044817638397
1789483536370811000,1.279810791015625,-0.7164636777579784,4.7312899787321685,1.6735814472407102
1789483536380861000,1.28986083984375,-1.0639338841259478,3.393421080048382,-0.7186573884099722
1789483536390911000,1.299910888671875,-1.3196996202647686,1.9777938189014792,-2.81192555244565
1789483536400961000,1.3099609375,-1.0919792443931102,0.87278528932631,-4.615220005792379
1789483536411011000,1.320010986328125,-1.0284627577722072,0.42241906436830756,-5.919531502789258
1789483536421061000,1.33006103515625,-1.393465113699436,0.3661512337014079,-6.695832686394453
1789483536431110000,1.34010986328125,-1.356122348254919,0.4005056309849024,-6.977282314366102
1789483536441160000,1.350159912109375,-0.60575406280756,1.1550251908928155,-6.666124945873022
1789483536451210000,1.3602099609375,0.4335398855805397,1.6704881574004888,-6.586058306467533
1789483536461260000,1.370260009765625,1.809315028810501,1.690674620860815,-6.292777370926737
1789483536471309800,1.380309814453125,3.306974676477909,1.2040882047474384,-5.921797694155574
1789483536481360000,1.39035986328125,4.4034944869101045,0.5351736291497945,-5.346892943120002
1789483536491410000,1.400409912109375,4.548088835805654,0.416136915358901,-4.61264343330264
1789483536501460000,1.4104599609375,4.237407268130779,0.896493497171998,-4.028565780252218
1789483536511510000,1.420510009765625,3.5257442686527964,1.4072697671681642,-3.6835499812990427
1789483536521560000,1.43056005859375,2.4387176782310007,1.882035397106409,-3.3169390211313963
1789483536531609000,1.440609130859375,1.3817705842524766,2.551728555861115,-2.7241794644534587
1789483536541659000,1.450658935546875,-0.3089227413088083,3.3822061508119106,-1.8589310003727673
1789483536551709000,1.460708984375,-2.3456705612212416,4.419357826474308,-1.75150172226727
1789483536561759000,1.470759033203125,-3.2660967226445674,4.211131255623698,-2.4657313573628663
1789483536571809000,1.48080908203125,-3.9046979930430648,4.128411471360922,-2.4475696777284144
1789483536581858800,1.49085888671875,-3.626800504595041,5.228073086950182,-2.640348504078388
1789483536591908900,1.500908935546875,-2.54026841969192,6.259401755547523,-2.473112992046773
1789483536601959000,1.510958984375,-1.958774937915802,6.75891136611998,-2.0205092172950505
1789483536612008700,1.5210087890625,-1.4894354246795176,7.14647802055478,-1.7288377627775071
1789483536622058000,1.53105810546875,-0.6987608478069305,7.094338083472848,-1.6895951550610362
1789483536632108000,1.54110791015625,0.04107550396574661,5.705320012310147,-2.1875972836799917
1789483536642157800,1.55115771484375,1.7905360940605402,1.3636661877632141,0.014959741787984966
1789483536652207900,1.561207763671875,4.266602967476844,-16.761240005564687,7.362853411069512
1789483536662258000,1.5712578125,7.578956998905539,-30.732767459535598,4.923082424393296
1789483536672308000,1.581307861328125,8.76284237357974,-32.543616273784636,2.3244297664023934
1789483536682357800,1.591357666015625,6.934435106286406,-27.625100718915462,3.3334134783312677
1789483536692407800,1.60140771484375,4.326288497632742,-17.864859418869017,1.6271601800665259
1789483536702457900,1.611457763671875,1.7251603894390164,-9.577330956760049,-1.5877001302070914
1789483536712508000,1.6215078125,-0.31883155638277527,-3.5927053427696225,-3.4250428374975916
1789483536722557000,1.631556884765625,-6.660024290910362,1.8388339687615631,-5.281723428595066
1789483536732607000,1.64160693359375,-9.715030285444856,4.952175832408666,-6.164129948225617
1789483536742657000,1.651656982421875,-6.490640368673205,5.337334256657957,-5.065726223742962
1789483536752707000,1.66170703125,-4.101862487131357,4.778469370797276,-4.071614648383855
1789483536762756900,1.6717568359375,-2.2114988221406935,3.286679491946101,-3.107870446498692
1789483536772807000,1.681806884765625,-0.5883365526039153,1.4757266328006982,-1.5283081761702895
1789483536782857000,1.69185693359375,0.42461701280400155,0.0931447321653366,0.06881956146508456
1789483536792907000,1.701906982421875,0.7553494348607956,-0.7456102772653103,1.2143763014625757
1789483536802956800,1.711956787109375,0.6392576154153794,-1.2340525503784416,1.4184101698637008
1789483536813005800,1.722005859375,0.6763970403075218,-1.3313415427416562,0.8987983400482684
1789483536823056000,1.732055908203125,0.8596533474873751,-1.078708259409666,0.35744032317511737
1789483536833106000,1.74210595703125,1.0024391856562345,-0.7161766775101422,0.18217757203243673
1789483536843156000,1.752156005859375,1.0738204873681068,-0.23796704459786414,0.3212911514293402
1789483536853206000,1.7622060546875,1.1910539511293172,0.1611228743702173,0.4975316615629941
1789483536863256000,1.772256103515625,1.1666852335482836,0.4840887540787458,0.7121586740404368
1789483536873305900,1.782305908203125,1.0299714818347245,0.6954068612039089,0.8608437263157218
1789483536883356000,1.79235595703125,0.8678397226829081,0.7255699442774057,1.0383828248925506
1789483536893406000,1.802406005859375,0.4502122399726882,0.5258581037938594,1.2279828750759363
1789483536903456000,1.8124560546875,-0.1078501338660717,0.11138239964544773,1.245044192253053
1789483536913504800,1.8225048828125,-0.6797211432289332,-0.3667413085490465,1.1515339147109538
1789483536923554800,1.832554931640625,-1.405845287322998,-0.36552316493093967,0.9485300469446927
1789483536933604900,1.84260498046875,-2.0557178933203217,-0.33508360300362106,0.7220709962457418
1789483536943654700,1.852654541015625,-2.4454309121340514,-0.4382926330655813,0.5188734325382858
1789483536953705000,1.862705078125,-2.5487831500589846,-0.6825555629372596,0.25356501122415065
1789483536963755000,1.872755126953125,-2.333379819446802,-0.8685323080569505,-0.023936171382665634
1789483536973805000,1.88280517578125,-1.989504422700405,-0.9274375014901161,-0.3189782713770866
1789483536983854800,1.892854736328125,-1.7843167811542748,-0.872813346377015,-0.5997292495600879
1789483536993905000,1.90290478515625,-1.708906443122029,-0.6771738698989153,-0.8703240137793123
1789483537003954000,1.912953857421875,-1.56397540961802,-0.39478666881620883,-1.0018621894858777
1789483537014004000,1.92300390625,-1.3866028267145156,-0.16642565695345402,-0.9568518120229244
1789483537024053800,1.9330537109375,-1.235301673656702,-0.1483750364780426,-0.8624044728264212
1789483537034103800,1.943103759765625,-1.2435890250086783,-0.46051673983335495,-0.7715690405167639
1789483537044153900,1.95315380859375,-1.6691197916567324,-1.1778379112035036,-0.6808266933180391
1789483537054204000,1.963203857421875,-2.421547932243347,-1.8892326151341199,-0.5177447938345372
1789483537064253700,1.973253662109375,-2.8550258585035797,-2.632168704754114,-0.3586702302962541
1789483537074303700,1.9833037109375,-2.7402619997262954,-3.3571418521821497,-0.2774899305604398
1789483537084354000,1.99335400390625,-2.4036136316239833,-3.9915105995774267,-0.10170490910932421
1789483537094404000,2.003404052734375,-2.544680975437164,-4.158099338138103,0.8297953117750585
1789483537104452900,2.013452880859375,-2.9551673176884647,-3.7715918373674153,2.548345927685499
1789483537114503000,2.0235029296875,-2.0961238457277416,-3.408825862190127,4.4077018754720685
1789483537124553000,2.033552978515625,-1.3064227900624275,-3.4803204880833625,4.931591309541464
1789483537134602800,2.043602783203125,-0.7541627092942595,-3.8969688600957393,4.76937947089076
1789483537144652800,2.05365283203125,0.31110856091529127,-3.52631593106091,3.520418689715862
1789483537154702800,2.063702880859375,0.9900909415408968,-2.851428126272559,1.5472987078443168
1789483537164753000,2.0737529296875,1.216041677391529,-1.9610043044030665,0.26329467033892867
1789483537174802700,2.083802734375,1.4815242131635546,-0.9080144236177206,-0.3265389158897102
1789483537184852700,2.093852783203125,1.4874696775645018,-0.6277332549035549,-0.44348990944772954
1789483537194902000,2.103902099609375,1.7502675042971967,-0.8945441166698932,-0.015454028110951184
1789483537204952000,2.1139521484375,2.2005326069682836,-1.1913842059969901,0.7125979422405362
1789483537215001900,2.124001953125,2.0262316865950822,-1.3669856875747441,1.1417096361152828
1789483537225052000,2.134052001953125,1.4042922126621007,-1.1943769580721855,1.151846999248117
1789483537235102000,2.14410205078125,0.44553953545391556,-0.9659943188995123,0.6886220233693718
1789483537245152000,2.154152099609375,-0.5904138703346252,-0.5416320115089416,0.037621582385897634
1789483537255201800,2.164201904296875,-1.0114520017385482,-0.09758651400506496,-0.7969476657927036
1789483537265251800,2.174251953125,-0.8413865269780159,0.38610476518869397,-1.7603769565097986
1789483537275302000,2.184302001953125,-0.14343933364152908,0.9414093282192945,-2.3989405252464113
1789483537285352000,2.19435205078125,0.7526093423724174,1.3265999011725187,-2.5188889470547435
1789483537295401000,2.20440087890625,1.4377128362268208,1.4227940840363502,-2.247815167146921
1789483537305451000,2.214450927734375,1.7456699473738668,1.353929222124815,-1.682362427328527
1789483537315501000,2.2245009765625,2.118887758460641,1.061501688542962,-1.1148767203778027
1789483537325550800,2.23455078125,2.354144959577918,1.085800848019123,-0.510269197256863
1789483537335601000,2.244600830078125,2.4199866742759943,1.2792553816735743,0.13339900114238262
1789483537345651000,2.25465087890625,2.357968317258358,1.5893103418827057,0.6354832845084368
1789483537355701000,2.264700927734375,2.0863257975518703,1.9700988804847002,0.9064192633807658
1789483537365750800,2.274750732421875,1.7920009059160946,2.453616556677222,1.010447208610177
1789483537375800800,2.28480078125,1.6306985833257437,2.8484400503724814,1.0669877187386154
1789483537385849900,2.294849853515625,1.5413438910931347,3.127450468498468,0.9309463863939046
1789483537395899600,2.304899658203125,1.4170359589010477,3.2127322122037407,0.579635432819277
1789483537405950000,2.314949951171875,1.3264958562761544,3.2713831386148926,0.2862999906122684
1789483537416000000,2.325,1.2971943584680556,3.132918670776486,0.09131254830211401
1789483537426050000,2.335050048828125,1.350314538758993,2.938188125836849,0.15144545689933
1789483537436100000,2.34510009765625,1.4018641087323427,2.7865625631302593,0.22871413614936173
1789483537446150000,2.35514990234375,1.497105520915985,2.702239435324073,0.23826946161054074
1789483537456200000,2.365199951171875,1.464257144281268,2.6953262949347496,0.19382650877200067
1789483537466250000,2.37525,1.281645491680503,2.6139433122336864,0.05098448343649506
1789483537476298800,2.385298828125,1.0446908389955758,2.4875346083700656,-0.1031150681681931
1789483537486348800,2.395348876953125,0.955278279095888,2.3956723172307015,-0.2531676094044
1789483537496398800,2.40539892578125,0.8527484634697436,2.3649516002744435,-0.6257324364751577
1789483537506449000,2.415448974609375,0.7357663441210984,2.3772733217090365,-1.1532774704426527
1789483537516498700,2.425498779296875,0.8614134159624576,2.4173113175868988,-1.4531404147222637
1789483537526548700,2.435548828125,0.6813268979251385,2.4269945072114467,-1.4401786418184637
1789483537536599000,2.44559912109375,0.24938334162533282,2.438920507326722,-1.3281950614094733
1789483537546649000,2.455649169921875,0.22005963198542594,2.222003265020251,-0.9127953742839395
1789483537556699000,2.465698974609375,0.285368262720108,1.8650275636821985,-0.15986805200353263
1789483537566749000,2.4757490234375,0.1944242554694414,1.5481810436367989,0.4612410355199128
1789483537576798000,2.4857978515625,0.37561084370315073,1.330269529595971,0.9767569743238389
1789483537586847700,2.49584765625,0.5291758500397205,1.0631313355714083,1.2203604173734783
1789483537596897800,2.505897705078125,0.380011709010601,0.9236667507797479,1.0897061118293554
1789483537606947800,2.51594775390625,0.000009352350234985351,0.9532470655292272,0.6426324986759573
1789483537616998000,2.525997802734375,-0.9253267929464578,0.8783516912817955,-0.19763678777515886
1789483537627047700,2.536047607421875,-2.7859394627958536,0.3761263920098543,-1.0805253918342292
1789483537637097700,2.54609765625,-5.874755956995487,-1.1869593752920626,-1.4929232667952774
1789483537647147800,2.556147705078125,-8.652039235126972,-3.753602007168531,-1.3925805859498679
1789483537657198000,2.566197998046875,-7.760119621741771,-6.12111790497303,-0.549809838071838
1789483537667246800,2.576246826171875,-3.777247086650133,-6.641841568487882,0.5432282677244394
1789483537677297000,2.586296875,-0.21511048514544961,-4.05327352052927,1.1505198422975838
1789483537687347000,2.596346923828125,0.8786182332634925,0.06261106221377849,0.4314931821838021
1789483537697396700,2.606396728515625,0.30026597212255,2.8934558346629142,-1.154292346573621
1789483537707446800,2.61644677734375,-0.9038947133392095,3.6432495350927114,-2.272577414090186
1789483537717496800,2.626496826171875,-1.8416911117583512,3.144427906784415,-3.1666561052054165
1789483537727547000,2.636546875,-2.359185291832685,2.2070903580486774,-3.0671693105369804
1789483537737596700,2.6465966796875,-1.597590094450116,0.865944629651308,-1.6724895603507757
1789483537747646700,2.656646728515625,0.5368067833095789,-0.7937333799213171,-0.09785948572754859
1789483537757696800,2.66669677734375,1.7789800963014364,-2.3454022656738758,0.5826879522576928
1789483537767745800,2.676745849609375,1.9355811093330382,-3.6207290757268664,0.8311755140870809
1789483537777795800,2.6867958984375,1.4246177923321723,-4.457686680346727,1.0340830088067798
1789483537787846000,2.696845947265625,1.1578560304045677,-4.632495550242066,1.2260501534476875
1789483537797896000,2.70689599609375,1.048444638571143,-3.9827135451376434,1.220787629809603
1789483537807945700,2.71694580078125,0.5938192948639393,-2.77175370105505,0.8751788333993404
1789483537817995800,2.726995849609375,0.48926294184625146,-1.5860679989606141,0.6779933695882558
1789483537828045800,2.7370458984375,1.0517226373285053,-0.671765873375535,0.6745723090983927
1789483537838096000,2.747095947265625,1.492984057071805,0.09991758730113506,0.6219657043527811
1789483537848146000,2.75714599609375,1.752930293765664,0.6641787792474031,0.4283636519864201
1789483537858195700,2.76719580078125,1.9475065249264238,1.045645363241434,0.34863720432072876
1789483537868245000,2.777244873046875,2.123517756348848,1.114838726454973,0.19659765398576853
1789483537878295000,2.787294921875,2.289149048054218,0.9100210872650146,0.16568623676300048
1789483537888344800,2.7973447265625,2.638141933944821,0.628967765134573,0.32127792662158605
1789483537898395000,2.807394775390625,2.6959175388261674,0.21974457468688488,0.5776642788767814
1789483537908445000,2.81744482421875,2.38170633572042,-0.24627193160653113,0.5912057513646781
1789483537918495000,2.827494873046875,1.7950415887862443,-0.7861381024867296,0.3492781325727701
1789483537928544800,2.837544677734375,1.4745599271088838,-1.2150795543611048,0.16910919694900511
1789483537938594800,2.8475947265625,1.312649117231369,-1.578009195667505,0.12821721459031105
1789483537948644900,2.857644775390625,0.8613333364635706,-1.62400989934206,0.10628332294076681
1789483537958693600,2.867693603515625,0.34147768795490263,-1.2886194223463534,0.11090791400149463
1789483537968743700,2.87774365234375,0.15999766973257065,-0.7193804419875145,0.3087446082629263
1789483537978794000,2.8877939453125,0.059091363655030725,-0.08851824140846729,0.639372547031939
1789483537988844000,2.897843994140625,0.2496560210868716,0.4167261134237051,0.9887652458950876
1789483537998893800,2.907893798828125,0.6049553136453032,0.7632926489502191,1.3400000654935835
1789483538008943900,2.91794384765625,0.7228942953273654,0.8963409369587898,1.4316311782255768
1789483538018994000,2.927993896484375,0.3009793810889125,1.2493798833698033,1.0592137237362562
1789483538029044000,2.9380439453125,0.1461149825915694,1.2907231166273354,1.0221626347146928
1789483538039093800,2.94809375,0.22633856612443923,1.4405372459977865,0.8941255989968776
1789483538049142800,2.958142822265625,0.4553717781603336,1.4384627778112888,0.5950542434863746
1789483538059192800,2.96819287109375,0.4746544246487319,1.2848860810369251,0.34205665688663717
1789483538069243000,2.978242919921875,0.29550781781002877,0.8572060274004936,-0.017308423805981875
1789483538079292700,2.988292724609375,0.413622886711359,0.2845984473913908,-0.27596038290560243
1789483538089342700,2.9983427734375,0.5454758274555206,-0.24433248797655105,-0.3923306539662182
1789483538099392800,3.008392822265625,0.5344434151791035,-0.9192027571082114,-0.2000996707573533
1789483538109443000,3.018443115234375,0.46893151695728297,-1.7749246834307908,0.07420826876610517
1789483538119492900,3.028492919921875,0.3201660198569298,-2.182897581556439,0.181093941514194
1789483538129543000,3.03854296875,0.0399976638674736,-2.0401935764521357,0.22663024254739284
1789483538139593000,3.048593017578125,-0.02329670443534851,-1.4610370131909847,0.2734929698787629
1789483538149641700,3.058641845703125,-0.058480099888890975,-0.7564408833593129,0.001154576862603426
1789483538159691800,3.06869189453125,-0.0021731062553822992,-0.14789865113794803,-0.31137773324549195
1789483538169741800,3.078741943359375,0.06414777026176452,0.34955051977336404,-0.4172838934369385
1789483538179792000,3.0887919921875,0.13545958693400026,0.6991945630490779,-0.4955881993450224
1789483538189841700,3.098841552734375,0.18416538484878836,0.946414004638791,-0.7943551650814712
1789483538199891700,3.1088916015625,-0.21153518394194543,1.064092289558053,-1.2338896149016916
1789483538209941800,3.118941650390625,-0.6123159055411815,1.0918559102743863,-1.6268068365842103
1789483538219991800,3.12899169921875,-0.8470167148847132,1.036450833916664,-1.8825329713650047
1789483538230041900,3.139041748046875,-1.1006945388335734,0.7941086429744958,-1.969226189303398
1789483538240091000,3.1490908203125,-1.1600234375715255,0.7224854222655296,-1.6503301893822848
1789483538250141000,3.159140869140625,-0.9847580560803413,0.6544377219557762,-1.3577424968026577
1789483538260191000,3.16919091796875,-1.0541220996856688,0.7797983780711889,-1.1576273362152278
1789483538270240800,3.17924072265625,-1.0488076266646384,0.9170651605576277,-0.6034826107442378
1789483538280290800,3.189290771484375,-0.9631751698255538,1.0164105009287596,0.07207359482496976
1789483538290340900,3.1993408203125,-0.8443535600900649,1.1686270152658222,0.5522095196247101
1789483538300391000,3.209390869140625,-0.8018260854840278,1.2165782684862614,1.0711524372026324
1789483538310440700,3.219440673828125,-0.762722155585885,1.088273960134387,1.3399480430454016
1789483538320490800,3.22949072265625,-0.8066191649794578,1.007634489277005,1.4515309336990116
1789483538330540000,3.2395400390625,-1.064709544673562,1.084409685921669,1.5033014529466628
1789483538340589800,3.24958984375,-1.05783147559762,1.0051976175189017,1.3424915900483727
1789483538350639900,3.259639892578125,-1.1347095480948686,0.7656003413707018,1.057458258371055
1789483538360690000,3.26968994140625,-1.6333534817487,0.13075228602588176,0.7759054622858762
1789483538370740000,3.279739990234375,-2.1016724197655914,-0.6141413674026728,0.5485276162415742
1789483538380789800,3.289789794921875,-2.2911142106473443,-1.1385855127453803,0.41459333917871116
1789483538390839800,3.29983984375,-2.1169103209078313,-1.4831716881096362,0.31116087562441824
1789483538400889900,3.309889892578125,-1.620947589161992,-1.6596674881786107,0.25865765818804504
1789483538410940000,3.31993994140625,-0.8283698090165853,-1.8243670519918203,0.23872137009650468
1789483538420988700,3.32998876953125,0.021698110132291913,-2.006191938129067,0.27647885382175447
1789483538431039000,3.3400390625,0.7264058105796575,-2.1681313895791767,0.346597369056195
1789483538441089000,3.350089111328125,1.4557909292310476,-2.4233354001820087,0.4921133628413081
1789483538451138800,3.360138916015625,2.2262311118483544,-2.7374089483827353,0.9236597365170717
1789483538461188900,3.37018896484375,3.091502956804633,-3.112503074735403,1.7508688311912117
1789483538471239000,3.380239013671875,3.925919060248136,-3.338970235675573,2.3970078036181626
1789483538481289000,3.3902890625,4.24809115923047,-3.364009984385967,2.264796843216568
1789483538491338800,3.4003388671875,3.7742408905714746,-3.4090696078181266,1.2151590493381024
1789483538501388800,3.410388916015625,2.2039152351438998,-3.239226835897565,-0.5231026676058769
1789483538511437800,3.420437744140625,-0.40955636792480943,-3.11877499461174,-1.6542178444705902
1789483538521488000,3.43048779296875,-2.0736101083636282,-3.242251152154803,-1.4999018736362457
1789483538531537700,3.44053759765625,-2.5832155810147523,-3.103260030093789,-0.8787015276327729
1789483538541587700,3.450587646484375,-2.8706255786955355,-2.717622882416844,-0.13914748166650534
1789483538551637800,3.4606376953125,-3.0413042169183493,-2.430287119016051,0.45041342510059473
1789483538561688000,3.47068798828125,-3.159790311089158,-2.1932015334278345,1.0007122887983917
1789483538571737900,3.48073779296875,-3.0887387527883052,-1.9333312845796347,1.392928522604704
1789483538581788000,3.490787841796875,-2.8393630099475384,-1.5824264275878668,1.5644158468618987
1789483538591838000,3.500837890625,-2.463492638525367,-1.205498656067252,1.5190838362291454
1789483538601887700,3.5108876953125,-2.1596363868258894,-0.965265420103073,1.102889929986
1789483538611937800,3.520937744140625,-2.18196351557672,-0.8607675192743539,0.6095651455283164
1789483538621987800,3.53098779296875,-2.189893724054098,-0.838534644678235,0.1599015158817172
1789483538632037600,3.54103759765625,-2.116412892779708,-1.0722925471484661,-0.42909912665411826
1789483538642087700,3.551087646484375,-2.4110025728315114,-1.3139625379174946,-0.8327285887479782
1789483538652137700,3.5611376953125,-3.1794618107646704,-1.4547791218400001,-0.9000247400380671
1789483538662187800,3.571187744140625,-4.25549646705091,-1.5071663116812706,-0.5752839596115052
1789483538672237600,3.581237548828125,-5.047138427650928,-1.53973002615571,-0.25328955528363584
1789483538682287600,3.59128759765625,-5.013945767623186,-1.8607775050222872,-0.10016498619094491
1789483538692337000,3.6013369140625,-3.91759429949522,-2.2389105606794355,0.5022220844015479
1789483538702386700,3.61138671875,-2.055323925566673,-2.5271383044838904,1.091563284003362
1789483538712436700,3.621436767578125,0.18821502556577324,-2.8757079965263603,1.1740698639068752
1789483538722486800,3.63148681640625,2.404242577177286,-2.5098195054143666,1.4083748058006167
1789483538732536800,3.641536865234375,3.9440003681227562,-1.612376160171628,1.5715373693048953
1789483538742586600,3.651586669921875,4.861267480993271,-0.805322695428133,1.1583402337249369
1789483538752636700,3.66163671875,4.967375739628077,-0.25567864237725735,0.7327478000175207
1789483538762686700,3.671686767578125,3.070161478090286,-0.21883739671409128,-0.06737104315720498
1789483538772736800,3.68173681640625,0.37208793027400966,-0.7690513586074114,-1.201235810991004
1789483538782785500,3.69178564453125,-1.0459186272248626,-1.688179296913743,-2.869012590540945
1789483538792835800,3.7018359375,-0.28768501522988077,-1.948421886205673,-3.8306256256163116
1789483538802886000,3.711885986328125,0.8348562484264374,-1.686746633762121,-2.9766607720941303
1789483538812936000,3.72193603515625,1.086753618699312,-1.5953946302324533,-1.5608197220660744
1789483538822985700,3.73198583984375,1.3225871583998203,-1.6853040337383747,-0.587204918225482
1789483538833035800,3.742035888671875,1.1463923871040345,-1.5533090541750192,0.11899353223629296
1789483538843085800,3.7520859375,1.4751771822243929,-1.3310112878739833,0.7884327892951667
1789483538853136000,3.762135986328125,2.028432411509752,-1.022187330764532,1.4100056218728423
1789483538863185700,3.772185546875,2.5976824977844952,-0.545809004932642,1.937201550141722
1789483538873234700,3.782234619140625,2.7636381991386414,-0.013029577443003653,1.8469198061920702
1789483538883284700,3.79228466796875,2.924962149038911,0.5871715274125338,1.1548838827259837
1789483538893334500,3.80233447265625,3.078606650352478,0.9890168825685978,0.00045906887911260127
1789483538903384600,3.812384521484375,3.081081516033411,1.446849497884512,-0.9470959955535828
1789483538913434600,3.8224345703125,3.1664228809714317,2.043891846448183,-1.441851251205802
1789483538923485000,3.83248486328125,3.3046348353534936,2.614743522700667,-1.731318473677337
1789483538933534700,3.84253466796875,3.5013130072295664,3.0611767921239137,-1.5656526951804757
1789483538943584800,3.852584716796875,3.4899843884855506,3.3757945302039385,-1.1571131761480122
1789483538953633800,3.8626337890625,3.4224510674387214,3.5686359003961083,-0.8186391269885003
1789483538963683600,3.87268359375,3.3079952516973017,3.7648137215346096,-0.6332333136245608
1789483538973733600,3.882733642578125,3.470806225284934,3.855511645069718,-0.49985491687878963
1789483538983783700,3.89278369140625,3.4003117163449526,3.7774060766041275,-0.36026173727139826
1789483538993833700,3.902833740234375,3.2152614384204146,3.67234586571753,-0.2441391573615372
1789483539003883800,3.9128837890625,3.443604914626479,3.4148867696642875,-0.12294789588525891
1789483539013933600,3.92293359375,3.502622920784354,3.1828035224080082,-0.07262209555320441
1789483539023983600,3.932983642578125,3.417822823116183,3.102720516389608,-0.19736308540031314
1789483539034033700,3.94303369140625,3.4056191751033067,3.1707150252074,-0.4074443807395175
1789483539044082700,3.953082763671875,3.380524481335282,3.3547511576533315,-0.6710397510580718
1789483539054132700,3.9631328125,2.9768080716103316,3.550068562570214,-0.8393661270663142
1789483539064182800,3.973182861328125,2.239314465305209,3.4913428173571823,-0.8735419529125094
1789483539074232800,3.98323291015625,1.1803010864466428,3.182336489418149,-0.8619717804975807
1789483539084282600,3.99328271484375,0.13213292672932148,2.6986569006621837,-0.6305424671053886
1789483539094332700,4.003332763671875,-0.6349860025107861,2.177640976202488,-0.25846600807346404
1789483539104382700,4.0133828125,-1.3820897332042454,1.750852902969718,0.1425605780456215
1789483539114432800,4.023432861328125,-2.0397072542399166,1.3690911354213953,0.44997890614084896
1789483539124481800,4.033481689453125,-2.2288696436583995,1.1672563114345074,0.8470830581191927
1789483539134531800,4.04353173828125,-2.1760563373595474,0.9714975924909114,1.0622570369549096
1789483539144582000,4.053581787109375,-2.121329890915751,0.6484615701556206,1.1021861656308174
1789483539154631700,4.063631591796875,-1.3425702082425355,0.32499475518763066,1.0134196485497058
1789483539164681700,4.073681640625,0.5079793327540159,-0.0869926392763853,0.41596638109758494
1789483539174731800,4.083731689453125,1.5151035344213246,-0.646431525632739,-1.3380913092628122
1789483539184781800,4.09378173828125,0.03490940081775188,-1.7355507044196128,-3.5877456745356318
1789483539194831600,4.10383154296875,-2.03863816370368,-3.785207105743885,-3.706189683130383
1789483539204881700,4.113881591796875,-2.639927648317814,-6.438831855502724,-0.5357268791183829
1789483539214930700,4.1239306640625,-0.3724035720944404,-9.201887286317348,1.1933167084295302
1789483539224980700,4.133980712890625,0.562400074249506,-8.73261207048893,-0.28076171877272427
1789483539235030500,4.144030517578125,-0.7778647796601057,-4.725735559475422,-1.387474933373928
1789483539245080800,4.154080810546875,-0.44989422353208064,-1.789805441698432,-1.8727282011874018
1789483539255131000,4.164130859375,0.7163479424238205,-0.4745826745867729,-2.1050497872442007
1789483539265181000,4.174180908203125,1.7572101630419492,0.1966466076940298,-1.7132321973666547
1789483539275230700,4.184230712890625,2.5496137556642293,0.3772194479435682,-0.8965327332038432
1789483539285280800,4.19428076171875,2.520262865756452,0.06604571283757686,-0.31240247318334874
1789483539295329800,4.204329833984375,1.6602520100682974,-0.6137900697469711,-0.24824878463745115
1789483539305379600,4.214379638671875,0.886138984157145,-1.3357500068336725,-0.37608094543293114
1789483539315429600,4.2244296875,0.8326017474979162,-1.7084136911690233,-0.4270882982883602
1789483539325479700,4.234479736328125,1.026527405795455,-1.7360265052378177,-0.4687195547070354
1789483539335529700,4.24452978515625,1.2879758637458085,-1.4773936892300843,-0.5309716474153101
1789483539345579500,4.25457958984375,1.3131979832857847,-1.0724930381566284,-0.5389443067949264
1789483539355629600,4.264629638671875,1.2494658080875873,-0.7555179232954978,-0.49291050456836816
1789483539365679600,4.2746796875,1.1262301813021303,-0.42845220705270765,-0.2970220217652619
1789483539375728600,4.284728759765625,0.8639668998375535,-0.13814181175529955,0.06676577074043452
1789483539385778700,4.29477880859375,0.7345338797166943,-0.011478840869665146,0.5244539360843599
1789483539395828700,4.304828857421875,0.7068842407688498,0.02507248193621635,1.0867021077077834
1789483539405878800,4.314878662109375,0.7939657273724675,0.020261282262206075,1.70757168738693
1789483539415928800,4.3249287109375,0.9153288382843137,-0.14167992275357247,2.300132506622374
1789483539425978600,4.334978515625,0.8603168528974056,-0.2509305710673332,2.7140622673258186
1789483539436028700,4.345028564453125,0.7301824065089225,-0.3235451409012079,2.8568545352354646
1789483539446078700,4.35507861328125,0.4781146481052041,-0.44583939518332477,2.786289299146831
1789483539456128800,4.365128662109375,0.21420739882588385,-0.47420039727091784,2.5854534230694175
1789483539466177800,4.375177734375,0.08205459835231303,-0.4570312358051538,2.41023071167618
1789483539476227800,4.385227783203125,0.04380260910838842,-0.19610826303362847,2.425257015894353
1789483539486278000,4.39527783203125,0.21851152576059102,0.06085515845715999,2.1884164911083874
1789483539496327700,4.40532763671875,0.30849282545894385,0.4403589179456234,1.0377576056662947
1789483539506377700,4.415377685546875,0.1871604019463062,0.9756085349410771,-0.0678416563436389
1789483539516427800,4.425427734375,-0.13707725126370787,1.5208277572870255,-0.17904153902903197
1789483539526477800,4.435477783203125,-0.47507118875607846,1.6314152071624994,-0.0977259224757552
1789483539536526600,4.445526611328125,-0.6148622290231287,1.4347744446873665,0.14392390228807925
1789483539546576600,4.45557666015625,-0.5846294417142868,1.174362928569317,0.6529163576073944
1789483539556626700,4.465626708984375,-0.5592145760811865,0.8208335682928561,1.198236263848841
1789483539566676700,4.4756767578125,-0.4249382075823843,0.5182061277359724,1.5338869992159305
1789483539576726800,4.485726806640625,-0.23068755511417985,0.315437822291255,1.8230587458722292
1789483539586776800,4.49577685546875,-0.12508885343670845,0.23552198953330516,2.039553232721984
1789483539596827000,4.505826904296875,-0.15782207925915717,0.31823183692395685,2.031759071714431
1789483539606876400,4.51587646484375,-0.18711831637024878,0.41662206852734085,1.7832725327983499
1789483539616925200,4.52592529296875,-0.16190094607062636,0.4546224210977554,1.4118248001240192
1789483539626975200,4.535975341796875,-0.05414908494725823,0.40485856549739835,1.0002024395801126
1789483539637025300,4.546025390625,-0.03499306051321328,0.41209202388226984,0.5667595846332609
1789483539647075000,4.556074951171875,-0.13801029433012008,0.453584310221672,-0.20447934714630245
1789483539657125000,4.566125,-0.36270405238959935,0.5091442848801613,-1.0894221072562038
1789483539667175200,4.576175048828125,-1.0790846915066241,0.5058166017621756,-2.0153904129765925
1789483539677225500,4.5862255859375,-1.5561094985485076,0.4886527009934187,-2.7467662670537827
1789483539687275300,4.596275146484375,-1.335985569155216,0.4188298077046871,-3.250319307798147
1789483539697324300,4.60632421875,-0.5486813454985618,0.2611924373626709,-3.4544390278518198
1789483539707374300,4.616374267578125,-0.5105418767184019,0.3572334754914045,-3.438170030096173
1789483539717424000,4.626424072265625,-0.7763789250165224,0.5773036288708449,-3.0403076070964334
1789483539727474200,4.63647412109375,-0.6520072799384593,0.7391840436100959,-2.2596122801855203
1789483539737524200,4.646524169921875,-0.3575976326286793,0.8054670723348856,-1.6386863672092555
1789483539747574300,4.65657421875,-0.3494394971469417,0.7766992430120706,-0.9146524003274739
1789483539757624000,4.6666240234375,-0.4971744456231594,0.7035702939152717,-0.1712890252061188
1789483539767674000,4.676674072265625,-0.6438789185404777,0.7923673522651195,0.2767398428454995
1789483539777723400,4.686723388671875,-0.7427583949655294,0.8468371935993433,0.5715452114745975
1789483539787773400,4.6967734375,-1.00333591530025,0.9287012378156184,0.6766393246307969
1789483539797823200,4.7068232421875,-1.5286603506088257,1.0345827019572258,0.6585561170600355
1789483539807873300,4.716873291015625,-2.0544138249844313,1.0282342097133397,0.6492988977625965
1789483539817923300,4.72692333984375,-2.2715233749926087,0.8369277940034866,0.7016502856381237
1789483539827973400,4.736973388671875,-2.1356208665966987,0.17586919260323047,0.4495201295226812
1789483539838023200,4.747023193359375,-1.8055436935782432,-0.7504892814785241,0.03104848760589957
1789483539848073200,4.7570732421875,-1.6181272710442542,-1.595704426833987,-0.32261165944337844
1789483539858122200,4.767122314453125,-1.5206442174136638,-2.2254379156440494,-0.5041984990410506
1789483539868172300,4.77717236328125,-1.3029197503775358,-2.6202947270870207,-0.3853486861243844
1789483539878222300,4.787222412109375,-0.9510803159493952,-2.820390013930201,-0.1180878886334598
1789483539888272400,4.7972724609375,-0.6492530858594924,-3.0555443391948938,0.14937807604074477
1789483539898322400,4.807322509765625,-0.2689852831959724,-3.467725210404396,0.37882249922603367
1789483539908372200,4.817372314453125,0.03588372574262321,-3.8419951608926057,0.8241824403293431
1789483539918422300,4.82742236328125,0.24002273501865565,-4.083250141119957,1.79046185978055
1789483539928472300,4.837472412109375,0.6657739394843578,-4.289601565748453,3.0210178002148864
1789483539938521000,4.84752099609375,1.2875275354564188,-4.211905747127533,3.983268840932846
1789483539948571100,4.857571044921875,1.8169107446365058,-3.6933395539075136,4.190174976834655
1789483539958621200,4.86762109375,2.1051655225783583,-3.021370851436257,3.2246523671001195
1789483539968671200,4.877671142578125,1.585732483395934,-2.57997440713644,1.6786255788877606
1789483539978721300,4.88772119140625,0.5629634072206914,-2.4012094930917023,0.499250959636271
1789483539988771300,4.897771240234375,-0.6521569906074554,-2.626913268443942,-0.4408423175483942
1789483539998821400,4.9078212890625,-1.785469458320737,-2.8759757075518366,-0.982660499279201
1789483540008870400,4.917870361328125,-2.5589292810201645,-2.6661487157672643,-1.0260847765944898
1789483540018920200,4.927920166015625,-2.9981951430320737,-2.111296572679281,-0.865165900363773
1789483540028970200,4.93797021484375,-3.1021903550356624,-1.4659446589767933,-0.6036949383206666
1789483540039020300,4.948020263671875,-2.960465424096584,-0.9253139334648847,-0.39588644675165413
1789483540049070300,4.9580703125,-2.626566646963358,-0.44250995849967,-0.20284312424659728
1789483540059120000,4.9681201171875,-2.1978034742653367,-0.07242343117594718,-0.06460822738036513
1789483540069170200,4.978170166015625,-1.9157985504984854,0.22371172475218773,0.06078413904756307
1789483540079220200,4.98822021484375,-2.323500814989209,-0.13892331752181053,-0.19024024778306484
1789483540089269200,4.998269287109375,-2.183414883428812,-0.12678805857002734,-0.1304062490671873
1789483540099319300,5.0083193359375,-2.8320611625015735,-0.3894090674310922,-0.38267917465418577
1789483540109369300,5.018369384765625,-3.767209676760435,-0.6595049422174691,-0.39932891535572707
1789483540119419400,5.02841943359375,-4.555336907237768,-0.9652467154026031,-0.1636908982273191
1789483540129469200,5.03846923828125,-4.5811412105798714,-1.4157593630939722,-0.0007250263389199971
1789483540139519200,5.048519287109375,-3.972037837344408,-1.8621026161462066,0.16442907630875706
1789483540149569300,5.0585693359375,-2.798652229374647,-2.0739093835711477,0.5977347878072411
1789483540159618300,5.068618408203125,-0.5319019140027463,-2.043294465076923,1.0932360395211727
1789483540169668000,5.078668212890625,2.442591012533009,-1.9374153390228748,1.415150729676336
1789483540179718100,5.08871826171875,4.640698145920038,-1.6741723988711832,1.5853607274740933
1789483540189768200,5.098768310546875,5.816504259034991,-0.838318371579051,1.7981085751414299
1789483540199818500,5.108818603515625,6.076896485930681,0.05240998619496822,1.6102259964004157
1789483540209868300,5.118868408203125,5.567302119195461,1.131004848358035,1.4751982250124216
1789483540219918300,5.12891845703125,3.835025029619038,1.6463392200499771,1.1045868700969963
1789483540229968400,5.138968505859375,-0.10301467653363942,0.9970318467199801,0.5304087528355419
1789483540240017200,5.14901708984375,-2.479137659163773,-0.41111061162948603,-0.44351613986752925
1789483540250067200,5.159067138671875,-2.4578049482777713,-2.005215202051401,-1.5232739813953637
1789483540260117200,5.1691171875,-0.574820872144401,-2.6970085489332676,-1.3693231906116008
1789483540270167300,5.179167236328125,0.5329837178900838,-2.7058915280908344,-0.004929346160963177
1789483540280217000,5.189217041015625,0.8362944645360112,-2.715099501419067,1.003021880915016
1789483540290267100,5.19926708984375,1.465435540410876,-2.796590036147833,0.7704202358078212
1789483540300317200,5.209317138671875,1.674917079758644,-2.5036837791383264,-0.06585954261571168
1789483540310366200,5.2193662109375,1.9041800088971852,-1.8184733177781105,-0.7269963238187134
1789483540320416300,5.229416259765625,2.299220360213518,-1.1232406440973282,-0.6739987469941378
1789483540330466300,5.23946630859375,2.581397717937827,-0.4759370118051767,-0.024663316613435744
1789483540340516400,5.249516357421875,2.763394453510642,-0.00952536871433258,0.35246553043723106
1789483540350566100,5.259566162109375,2.839543627211451,0.5938993743628264,0.20718962901830673
1789483540360616200,5.2696162109375,2.9624720877438784,1.161087267410755,-0.3718463766030967
1789483540370666200,5.279666259765625,3.2966631258219476,1.7080612244695423,-0.7510640126265585
1789483540380715300,5.28971533203125,3.4156004708915946,2.192401907482743,-0.8457821315884589
1789483540390765300,5.299765380859375,3.3506741174727677,2.6223639345765113,-0.713132268312946
1789483540400815400,5.3098154296875,3.2031898923546076,2.9214976877987384,-0.4522931744325906
1789483540410865400,5.319865478515625,3.176712804317474,3.1336358791351318,-0.3989215766638517
1789483540420915500,5.32991552734375,3.1476497914403674,3.245648977899551,-0.3476435901734978
1789483540430965200,5.33996533203125,3.2038854734033344,3.3215731106728312,-0.2748535176422447
1789483540441015300,5.350015380859375,3.206815097114444,3.371066917160153,-0.40539764081016183
1789483540451065300,5.3600654296875,3.3491765723913907,3.341509983286261,-0.4276001933332532
1789483540461114000,5.370114013671875,3.4077304681688547,3.3440725272506473,-0.3093189010195434
1789483540471164200,5.3801640625,3.271002614864707,3.2840707707524297,-0.33366825631298125
1789483540481214200,5.390214111328125,3.0926895362406968,3.1344173849016426,-0.43246743404343724
1789483540491264300,5.40026416015625,2.989087707468867,2.9794208844572303,-0.6007193565759807
1789483540501314000,5.41031396484375,2.988129676091671,2.811317065158486,-0.7243270315442234
1789483540511364000,5.420364013671875,2.947205545029044,2.745924847793579,-0.7112596063088625
1789483540521414400,5.430414306640625,2.5172142918407916,2.8486744436502454,-0.5971726238798349
1789483540531463200,5.440463134765625,1.7449474783182144,2.96668356795907,-0.4409948777616024
1789483540541513200,5.45051318359375,0.9338023603469133,3.019196430006623,-0.27379677513092754
1789483540551563300,5.460563232421875,0.3564233281522989,3.0263854647278783,-0.04294854956232011
1789483540561613300,5.47061328125,-0.042159810337424275,3.027888855028152,0.18143800571151078
1789483540571663400,5.480663330078125,-0.29482991854846474,2.9665993968069553,0.4288213326260447
1789483540581713200,5.490713134765625,-0.7023276003777981,2.6408956165671347,0.7177456803925335
1789483540591762400,5.500762451171875,-0.9666250180184841,2.249935812562704,0.8636050077226013
1789483540601812000,5.51081201171875,-0.9907242710083722,1.8924872330158948,0.8440519467949866
1789483540611862000,5.520862060546875,-1.0553326445192097,1.51007664617002,0.7298896341074258
1789483540621912000,5.530912109375,-0.6823182470500468,1.0664911673933266,0.4343560242690146
1789483540631962000,5.540962158203125,0.10793138240873813,0.3480880460053682,-0.11046762288808822
1789483540642012000,5.551011962890625,0.42758068491518497,-1.0078384874165058,-0.9860475113689899
1789483540652062000,5.56106201171875,-0.9031231444448232,-3.0588170772552488,-2.0766041756130753
1789483540662111000,5.571111083984375,-3.4059248800516126,-5.921998769685626,-1.8303877735860645
1789483540672160800,5.581160888671875,-4.80246399436891,-9.707800918713211,0.48982919742688535
1789483540682210800,5.5912109375,-3.0628052701085804,-13.125988483488559,2.2975316764742133
1789483540692260900,5.6012607421875,-1.489141994690895,-12.59272565639615,1.0920334587983787
1789483540702311000,5.611310791015625,-0.9876000015079974,-5.9239206776589155,0.2204806338764727
1789483540712361000,5.62136083984375,0.740523183259368,-0.7049807452350855,-0.9899480259388684
1789483540722411000,5.631410888671875,1.6908599142998455,2.124552944615483,-2.1218005771674213
1789483540732460000,5.6414599609375,1.2418290295988321,3.9817958457708356,-2.659807822307944
1789483540742510000,5.651510009765625,1.1819459310442209,4.221537498825788,-2.751248965425789
1789483540752559900,5.661559814453125,1.7655606427580117,3.467778986418247,-2.2220509035542606
1789483540762610000,5.67160986328125,2.412409809280932,1.989446555033326,-1.4068192469216882
1789483540772660000,5.681659912109375,2.4254116219341753,0.1590928298473358,-0.7087061954990029
1789483540782710000,5.6917099609375,1.9120242926567792,-1.580801456734538,-0.44745998212248084
1789483540792759800,5.701759765625,1.39180711735934,-3.0401287433981894,-0.47348026630282397
1789483540802809000,5.71180908203125,0.8971902472645044,-3.8753608393996952,-0.565144258391112
1789483540812859100,5.721859130859375,0.7545154682546854,-4.256638622823357,-0.5663458892658353
1789483540822909000,5.731908935546875,0.8745490841284393,-3.983520769867301,-0.3064500675849616
1789483540832959000,5.741958984375,0.84432550303936,-2.893750433695316,-0.17676190365925432
1789483540843009000,5.752009033203125,0.8349167464420199,-1.5602140112578868,-0.19292729490995406
1789483540853059000,5.76205908203125,0.8201374027222395,-0.2863374000132084,-0.20691855699196457
1789483540863108900,5.77210888671875,0.8542673436000943,0.6577244885414838,-0.24792481338009237
1789483540873158000,5.782157958984375,0.9283958251282572,1.2788228354752063,-0.05636646873578429
1789483540883208000,5.7922080078125,0.9996855760991573,1.6020166787207126,0.2764392524637282
1789483540893258000,5.802258056640625,1.1375532470881937,1.5737246502161024,0.5769928824212401
1789483540903308000,5.81230810546875,1.2390493357524275,1.4355577040195464,0.9143449418134987
1789483540913358000,5.822358154296875,1.3198507191732525,1.0488391908466814,1.371131262946874
1789483540923408100,5.832408203125,1.3218854398712514,0.3981389018535614,2.0182075162239372
1789483540933457000,5.842456787109375,1.061964337618649,-0.3171130620270967,2.5062849015474318
1789483540943507000,5.8525068359375,0.6775428493417799,-0.7480524097204208,2.7683436003506183
1789483540953557000,5.862556884765625,0.09856675721406936,-0.783614136967063,2.404669862678647
1789483540963607000,5.87260693359375,-0.22319062348753213,-0.6268319221496582,1.8788284177586436
1789483540973656800,5.88265673828125,-0.40876930920034643,-0.12034253569245337,1.4159154304385184
1789483540983707000,5.892706787109375,-0.45158860635980963,0.29643910731077194,0.8015653887212276
1789483540993757000,5.9027568359375,-0.3563375495649874,0.4871352821677923,0.2637101192720234
1789483541003806000,5.912805908203125,-0.3357353449106216,0.8423544952273369,-0.20350443769954144
1789483541013856000,5.92285595703125,-0.44518093127459285,1.192632160231471,-0.3082195614755153
1789483541023906000,5.932906005859375,-0.5900866842068732,1.3881722679883242,-0.15090981565266848
1789483541033956000,5.9429560546875,-0.5868168687559664,1.3465747677087783,0.0403068759471178
1789483541044006000,5.953005859375,-0.36680867469683287,1.1639584389328956,0.5686069660656153
1789483541054056000,5.963055908203125,-0.09797887432351708,0.9078156861752271,1.0961183900244533
1789483541064105000,5.97310498046875,0.19697452447414396,0.7246317866444587,1.5108192812308667
1789483541074154800,5.98315478515625,0.3754768420599401,0.5461503657162189,1.7987462885230778
1789483541084204800,5.993204833984375,0.38583003990054127,0.31708734306395053,2.0554837923035025
1789483541094254800,6.0032548828125,0.5165034154713154,0.3428782024025917,2.2626748826265333
1789483541104305200,6.01330517578125,0.5653811358869075,0.45735681449770926,2.306095214419067
1789483541114355200,6.023355224609375,-0.0014309095859527587,0.477736170181632,1.996055305648595
1789483541124404000,6.033404052734375,-0.5756628759264946,0.414072384044528,1.1900861290104687
1789483541134454000,6.0434541015625,-0.788434615926072,0.33587738372981546,0.18443068472146987
1789483541144504000,6.053504150390625,-0.9639186816692352,0.2603705995857715,-0.8315916936725377
1789483541154553900,6.063553955078125,-1.0902806968469172,0.27407413076758386,-1.5867326003491877
1789483541164604000,6.07360400390625,-0.8771616047143935,0.15369652376174925,-2.3679348538689315
1789483541174654000,6.083654052734375,-0.5480851331710815,0.0185872115701437,-2.8982985985189673
1789483541184703000,6.093702880859375,-0.9013491205096245,0.2901402994275093,-3.2238404661953446
1789483541194753000,6.1037529296875,-0.8862415677487849,0.725069593539834,-3.087095954017341
1789483541204803000,6.113802978515625,-0.7256430095136165,0.8470674952238798,-2.773827000197768
1789483541214853000,6.12385302734375,-0.7194236966073513,0.8531289872199297,-2.1996599157869814
1789483541224903000,6.13390283203125,-0.8652963948756456,0.7052817740082741,-1.4861040882997214
1789483541234953000,6.143952880859375,-1.221326924318075,0.4506891733020544,-0.42135289644151924
1789483541245002000,6.154001953125,-1.0293518155664205,0.48785132148265836,0.4693211007967591
1789483541255052000,6.164052001953125,-0.9837246213793754,0.5881260516583919,0.9001249855421483
1789483541265101800,6.174101806640625,-1.1637947728037834,0.7146580896407365,1.150798513108492
1789483541275152000,6.18415185546875,-1.4854004700750112,0.7377320912361145,1.2544986876882611
1789483541285202000,6.194201904296875,-1.8550012597084045,0.7354121238559485,1.3323162329927085
1789483541295252000,6.204251953125,-1.9359049344599246,0.6215998667150735,1.3782064620301127
1789483541305301000,6.214301025390625,-1.8153607387155293,0.3713257137298584,1.1920527529083191
1789483541315351000,6.22435107421875,-1.672946071946621,0.11743804642260074,1.0381693282723425
1789483541325401000,6.234401123046875,-1.4747703549891709,-0.11183949576318264,0.8075750043995678
1789483541335451000,6.244450927734375,-1.3124135549098253,-0.5146861369162797,0.5032834300227463
1789483541345501000,6.2545009765625,-1.1917307544123381,-1.023147700229287,0.33938846059069033
1789483541355551000,6.264551025390625,-0.9474830951750278,-1.525085999253392,0.4879154727600515
1789483541365601000,6.27460107421875,-0.4957739311754703,-1.905482323667407,0.9677380938269198
1789483541375650000,6.284650146484375,-0.017050430456921457,-2.154821826151013,1.6236618165567516
1789483541385700000,6.2947001953125,0.4991946263391524,-2.305861697924137,2.153798328322172
1789483541395750100,6.304750244140625,0.7391840436100959,-2.2986674025058744,2.272315548283607
1789483541405800000,6.314800048828125,0.8550006263107061,-2.27515793210268,1.9656347406826913
1789483541415850000,6.32485009765625,1.079101642641425,-2.364745264047384,1.7137451153248549
1789483541425900000,6.334900146484375,1.3499690863221883,-2.614807820108533,1.5726657888129352
1789483541435949000,6.344948974609375,1.6423387522369621,-2.920250318086147,1.2872466726884244
1789483541445998800,6.354998779296875,1.67966164393723,-3.248483909064531,0.6690447778485715
1789483541456049000,6.365048828125,1.3222551499664783,-3.6066409291416406,0.04499284180626273
1789483541466099000,6.375098876953125,0.692670714238286,-3.914202903491258,-0.36072175599858164
1789483541476149000,6.38514892578125,-0.09251169495880603,-4.171280891272425,-0.7023145947657525
1789483541486198000,6.395197998046875,-0.855399854761362,-4.072310813954473,-0.7661959691762924
1789483541496248000,6.405248046875,-1.3392267430335283,-3.5698464452296492,-0.6479669185064733
1789483541506298000,6.415298095703125,-1.6100649606198072,-2.8934365454405544,-0.4746456568203866
1789483541516348000,6.425347900390625,-1.8106820793800056,-2.2692823180675505,-0.25529139662533995
1789483541526398000,6.43539794921875,-1.8069237497597932,-1.793477408209443,0.06861059488952159
1789483541536448000,6.445447998046875,-1.697195400931686,-1.5354875662803649,0.2704305135682225
1789483541546496800,6.455496826171875,-1.526324601137638,-1.432861304542422,0.2684079216994345
1789483541556546800,6.465546875,-1.448964298081398,-1.51535487883389,0.07506473946496844
1789483541566596900,6.475596923828125,-1.570217518877983,-1.6741981178343295,-0.33315862629041076
1789483541576647200,6.485647216796875,-1.9376023860275744,-1.6165993308246134,-0.9071130908638239
1789483541586697000,6.495697021484375,-2.249581007775664,-1.7574077314406633,-1.4904890253856777
1789483541596747000,6.5057470703125,-2.6866420532196758,-1.786427489697933,-1.8522117751203477
1789483541606796300,6.51579638671875,-3.219904880312085,-1.62130531655848,-1.8880898748397825
1789483541616846300,6.525846435546875,-3.857893571770191,-1.4197194988965987,-1.6884062375374138
1789483541626896100,6.535896240234375,-4.5520191609919065,-1.1757897465020417,-1.1903478486865757
1789483541636946200,6.5459462890625,-4.789379471868276,-0.9391016357988119,-0.4784449760381132
1789483541646996200,6.555996337890625,-3.615916707009077,-0.8500684306055307,-0.08693937471918761
1789483541657046300,6.56604638671875,-1.645067884939909,-1.1434896513998507,-0.09327245019823312
1789483541667095300,6.57609521484375,-0.04306961865872144,-1.7284382420659063,0.5577081170409918
1789483541677145300,6.586145263671875,1.2993079896211623,-1.5111188486993312,1.2829248639665543
1789483541687195400,6.5961953125,2.781371424227953,-1.0710416703045367,1.828756957513839
1789483541697245200,6.6062451171875,3.6200665201649067,-0.1584305665463209,2.2468369697645305
1789483541707295200,6.616295166015625,3.7342517022714015,0.6373796196490525,2.1079193513311445
1789483541717345300,6.62634521484375,3.0081381526365876,0.7896697837442159,0.6853625101167709
1789483541727394000,6.63639404296875,0.9567956979215144,0.8026812410086392,-0.36400910710617895
1789483541737444000,6.646444091796875,0.17327070054262875,0.25372750830948354,-1.2291416897222398
1789483541747494100,6.656494140625,1.1477832569405435,-0.2723807708531618,-1.707823616321385
1789483541757544200,6.666544189453125,1.6641013789728283,-0.9061702570557594,-1.634502651783824
1789483541767594200,6.67659423828125,0.18545067541897295,-1.823140140545368,-1.6145539426021276
1789483541777644000,6.68664404296875,0.9725555771112442,-1.8612071286112069,-0.12308043622374534
1789483541787693300,6.696693359375,7.752205779877305,-2.1340578550636766,3.281914469501376
1789483541797743400,6.706743408203125,-5.968964519000053,-1.6357330703616142,0.4995204972926527
1789483541807793200,6.716793212890625,-1.538365459804237,-2.584752289062738,-1.0517561742719261
1789483541817843200,6.72684326171875,2.718181100821495,-2.253909392368793,0.9230210002221166
1789483541827893200,6.736893310546875,2.685470671352744,-1.7942934007674454,1.472942555040121
1789483541837942000,6.74694189453125,3.5732770042002198,-0.7398807937026023,1.8786331874474882
1789483541847992000,6.756991943359375,3.6867572529077526,0.28180677084624767,1.0924026574369519
1789483541858042400,6.76704248046875,3.1146324879795313,1.1277192508161067,-0.09878631824888288
1789483541868092400,6.777092529296875,2.9444968705922365,1.6539081939995288,-0.8878997102193534
1789483541878142200,6.78714208984375,3.221191997513175,2.0858751311749217,-1.2076163788735865
1789483541888192300,6.797192138671875,3.394866894942522,2.2810469901412724,-1.1406288551412522
1789483541898241300,6.8072412109375,3.798790225416422,2.6534868025928735,-0.9837364579476415
1789483541908291300,6.817291259765625,3.827805307498574,3.0844647287309166,-0.8644282337389886
1789483541918341000,6.827341064453125,3.6462206598579883,3.2393501700162886,-0.7634711473222822
1789483541928391200,6.83739111328125,3.3694267487376925,3.3107992032021283,-0.6860282074838876
1789483541938441200,6.847441162109375,3.2363848904699086,3.3191701411843297,-0.5971977948537096
1789483541948491300,6.8574912109375,3.166977592244744,3.2365000412821767,-0.5498508642019704
1789483541958540300,6.867540283203125,3.1116864976555108,3.0787714855253694,-0.5479885409288108
1789483541968590300,6.87759033203125,3.0633862848669287,2.9416432347267865,-0.6701869336210191
1789483541978640400,6.887640380859375,3.0037720663815737,2.9715298389464615,-0.7850237115040422
1789483541988690200,6.897690185546875,2.9400428137928247,3.0568180123925206,-0.8070650090508162
1789483541998740200,6.907740234375,2.876047603744268,3.151649674731493,-0.5633016261991113
1789483542008790300,6.917790283203125,2.575960495319962,3.263109231266379,-0.16434329772144554
1789483542018839000,6.927839111328125,2.0826210978150366,3.438412606680393,0.3107967184871435
1789483542028889000,6.93788916015625,1.3136936578482388,3.6153374458163974,0.6243691122327
1789483542038939100,6.947939208984375,0.5790303065329789,3.6603830407232043,0.8815553096286952
1789483542048989200,6.9579892578125,0.03982055373489857,3.537382683998346,1.0651252128023654
1789483542059039200,6.968039306640625,-0.1548579687565565,3.4075387449890373,1.2282263284429906
1789483542069088300,6.978088134765625,-0.17578794406056403,3.31446941614747,1.2829323166206479
1789483542079138300,6.98813818359375,-0.15414952822625635,3.195356129989028,1.2282970555916428
1789483542089188400,6.998188232421875,0.011404606589674949,3.0290672511577603,1.008351186178997
1789483542099238100,7.008238037109375,-0.2179080069094896,2.8091525806009767,0.5729377618115395
1789483542109288200,7.0182880859375,-0.8866086474955082,2.433681437629461,-0.09382891503721474
1789483542119338200,7.028338134765625,-1.2486322798728942,1.8628548958182334,-0.8803533864930272
1789483542129387300,7.03838720703125,-1.7399118222385643,0.6237935773670673,-1.964410605715215
1789483542139437300,7.048437255859375,-1.5373375780612228,-1.630045087853074,-3.6317440984770655
1789483542149487400,7.0584873046875,-2.3151690399736164,-4.078019839251041,-5.064873990827799
1789483542159537400,7.068537353515625,-4.115524517259002,-7.225212534573674,-4.255103376080095
1789483542169587200,7.078587158203125,-4.382029089555144,-11.300564031398295,-0.3476631716568023
1789483542179637200,7.08863720703125,-1.6838731241524219,-14.264023376613855,2.275213023290783
1789483542189686300,7.098686279296875,-0.1281798051893711,-11.047744285583496,1.5399191189870238
1789483542199736000,7.108736083984375,0.2420207039028406,-3.604862813553214,0.8364408142041414
1789483542209786000,7.1187861328125,1.431791044962406,0.927972923541069,-0.2509475222021341
1789483542219836200,7.128836181640625,1.4908552283495664,3.3355309088766574,-1.0744207182835788
1789483542229886200,7.13888623046875,0.9010708880901336,4.164723724713921,-1.4832054442487657
1789483542239936000,7.14893603515625,1.151988015154004,3.7524867394030093,-1.5922776672556995
1789483542249985300,7.1589853515625,1.6957190447688102,2.840743650650978,-1.0956038646310566
1789483542260035300,7.169035400390625,2.04717978207767,1.2514660419940948,-0.5397611030705273
1789483542270085400,7.17908544921875,1.6745853635862469,-0.7133212880790233,-0.05835428155213594
1789483542280135200,7.18913525390625,1.072428740748763,-2.7253812414586545,0.0010455635301768779
1789483542290185200,7.199185302734375,0.6862780905917286,-4.060368447226286,-0.28540676809959115
1789483542300234200,7.209234130859375,0.5137935719907284,-4.574769337460398,-0.6087786713257431
1789483542310284000,7.219283935546875,0.42449324029386043,-4.185460807794332,-0.5489533673729747
1789483542320334000,7.229333984375,0.4594488183408975,-2.7336966498613355,-0.4316837363198399
1789483542330384100,7.239384033203125,0.6785007345885038,-1.0392542008996009,-0.5953439471479505
1789483542340434400,7.249434326171875,1.021679965764284,0.4289250852614641,-0.6445150975521654
1789483542350484200,7.259484130859375,1.113904660475254,1.4995640199840068,-0.477129655655846
1789483542360533200,7.269533203125,1.1908420619443059,2.034195212820172,-0.1395374308321625
1789483542370583300,7.279583251953125,1.2898255832657217,2.0793185491383075,0.3537895455826074
1789483542380633000,7.289633056640625,1.2919395066797732,1.7151467988163231,0.9273780263878405
1789483542390683100,7.29968310546875,1.4933099280253053,1.0243681819349526,1.4335437338486312
1789483542400733200,7.309733154296875,1.6638883207440376,0.33887948815524577,1.9467349560320377
1789483542410783200,7.319783203125,1.8661551064074038,-0.7258458386093377,2.7380440314158796
1789483542420832300,7.329832275390625,1.7127452906325458,-0.6772142019093036,2.761982540886104
1789483542430882300,7.33988232421875,1.4348624152317642,-1.1422019496768712,2.885082266332209
1789483542440932400,7.349932373046875,0.8492977384939789,-1.2796955266565084,2.6557155845582483
1789483542450982400,7.359982421875,0.17544775232076643,-1.1565864488601685,2.165217840220034
1789483542461032200,7.3700322265625,-0.3852233061790466,-0.7210907530367374,1.478897664052248
1789483542471082200,7.380082275390625,-0.5578687144301832,-0.10452420431375503,0.8448268766902387
1789483542481131300,7.39013134765625,-0.6680664343357086,0.2442816345721483,0.17430917674489319
1789483542491181000,7.40018115234375,-0.8047326205804943,0.35701369526088234,-0.20037490750215947
1789483542501231000,7.410231201171875,-0.880502731835842,0.5259738391280174,-0.31605931519046426
1789483542511281200,7.42028125,-1.0532264660201966,0.7244049921512603,-0.4155413606185466
1789483542521331200,7.430331298828125,-1.1327100448407232,0.8921563447505235,-0.40096659956015646
1789483542531380200,7.440380126953125,-1.006581619223207,1.0051637152493,-0.09016520489789545
1789483542541430300,7.45043017578125,-0.5595952459618448,0.9315653950750827,0.3618880232989788
1789483542551480300,7.460480224609375,-0.14808978979587553,0.7855728698194027,0.8842094043340534
1789483542561530000,7.470530029296875,-0.30951354680880905,0.5202759197473525,1.4484462655566632
1789483542571580200,7.480580078125,-0.10486768398918211,0.14476795189678668,1.920656658054143
1789483542581630200,7.490630126953125,0.26341252456493675,-0.29934359658062454,2.3084546370267867
1789483542591679200,7.50067919921875,0.2702420052587986,-0.4141548016309738,2.4253951091907915
1789483542601729300,7.510729248046875,0.5481915161550045,-0.26955986821353434,2.511803080447018
1789483542611779300,7.520779296875,0.9419009841937571,-0.16948972069919108,2.4111811442688107
1789483542621829000,7.5308291015625,0.7546517349202185,0.016587562185525893,1.8037112174540757
1789483542631879200,7.540879150390625,0.11539287739582359,0.20556582720875738,0.8073059781998395
1789483542641929200,7.55092919921875,-0.8183972079914063,0.3814911339133978,-0.44577232129648325
1789483542651978200,7.560978271484375,-1.284886665558815,0.5972498538345098,-1.6527919033207
1789483542662028000,7.571028076171875,-1.0926163001876323,0.7237742930322885,-2.6507807585045695
1789483542672078000,7.581078125,-0.6708288847863674,0.6986755076110363,-3.6824101636141537
1789483542682128100,7.591128173828125,-0.9213105430424213,0.8339023087024688,-4.332264649432897
1789483542692178200,7.60117822265625,-1.0543056395590304,0.9807792155772447,-4.175131429220736
1789483542702228000,7.61122802734375,-0.9203367295742034,1.1503303110748528,-3.4879853236228224
1789483542712277200,7.62127734375,-0.6532879673987627,1.2833546336859465,-2.490178400877118
1789483542722327300,7.631327392578125,-0.6060165131360292,1.1682318784683943,-1.3378726980760693
1789483542732377000,7.641377197265625,-0.602009031060338,0.7735328879356383,-0.5355452389411628
1789483542742427100,7.65142724609375,-0.6120563412895426,0.3908610198050737,0.01244870881512761
1789483542752477200,7.661477294921875,-0.709496761354804,0.09025134881138801,0.5594426857486366
1789483542762526000,7.67152587890625,-1.0239449880868197,-0.04476210179030895,0.9154127171754837
1789483542772576000,7.681575927734375,-1.5972500488407908,-0.09660977792739868,1.3108245321527123
1789483542782626000,7.6916259765625,-2.0125439375042915,0.02002279733121395,1.7100089975364505
1789483542792676000,7.701676025390625,-2.537146488279104,0.09959434669613837,1.8805738001212478
1789483542802726100,7.71172607421875,-3.002818126657605,0.11336977407038211,1.9848691641151903
1789483542812776200,7.721776123046875,-2.802746220690012,0.2018845083475113,1.6904134857065976
1789483542822825200,7.7318251953125,-2.384229132196307,0.12694997113347053,1.2188052968859673
1789483542832875300,7.741875244140625,-2.1865356457978486,0.01963993549346924,0.8569275027200579
1789483542842925000,7.751925048828125,-2.0412860478639603,-0.15973054322898386,0.575626635569334
1789483542852975000,7.76197509765625,-1.6796645665466785,-0.7155722818762064,0.410020624435693
1789483542863025200,7.772025146484375,-1.1824018581181763,-1.4688216757178305,0.4657667693160474
1789483542873074200,7.78207421875,-0.6816219353489578,-2.1766326759427783,0.6680648269005119
1789483542883124200,7.792124267578125,-0.32986557609438893,-2.836066306489706,0.7921076784156262
1789483542893174300,7.80217431640625,-0.2517711135447025,-3.4393314750909805,0.7331047236964107
1789483542903224300,7.812224365234375,-0.4644944112926721,-3.911908070552349,0.6307565482474863
1789483542913274000,7.822274169921875,-0.8369844926267862,-4.2248342022836205,0.8337623157098889
1789483542923324200,7.83232421875,-1.0867403208263218,-4.373115715259313,1.7293348986446857
1789483542933373200,7.842373291015625,-0.7971035870067775,-4.284567663234472,3.1025708787858486
1789483542943423000,7.852423095703125,-0.16181392537429928,-3.7916637345373627,3.6697026577323673
1789483542953473000,7.86247314453125,0.3108217067979276,-2.905121138015389,2.754867155922949
1789483542963523000,7.872523193359375,-0.0008219839073717594,-2.26505037958622,1.45695208196491
1789483542973573000,7.882572998046875,-0.6905600056946277,-2.3493664931297302,0.5344470684409142
1789483542983623000,7.892622802734375,-1.2014147477544843,-2.506350367999077,-0.046523704635351895
1789483542993672200,7.902672119140625,-1.4926486876375973,-2.21223298163414,-0.3713840197883546
1789483543003722200,7.91272216796875,-1.7939685527272522,-1.686405857500434,-0.5999160043038427
1789483543013772300,7.922772216796875,-2.1295780793011185,-1.0101683916687965,-0.6078299922987819
1789483543023822000,7.932822021484375,-2.453622986418009,-0.27158056038618084,-0.30439050470665097
1789483543033872100,7.9428720703125,-2.7038117992073296,0.28793256025016306,0.05046440508514642
1789483543043922200,7.952922119140625,-2.880340917024016,0.5852624789208173,0.2940086652934551
1789483543053971000,7.962970947265625,-2.6889111671954393,0.21458675353229045,0.45482948797717687
1789483543064021000,7.97302099609375,-2.4996733744531867,-0.18868483503460884,0.6731416917733848
1789483543074071300,7.9830712890625,-2.525207044160366,-0.5750719242960214,0.4699675820067525
1789483543084121300,7.993121337890625,-2.8662650453984737,-0.9754863698661327,0.17328677489459512
1789483543094171100,8.003171142578125,-3.399910149806738,-1.1225070691257715,-0.09529358076229691
1789483543104220200,8.01322021484375,-3.6145173616051673,-1.026273723295331,-0.3603868249557912
1789483543114270200,8.023270263671876,-3.765374278026819,-0.7648574140489101,-0.3214105400253087
1789483543124320000,8.033320068359375,-3.6969022148251534,-0.7083797400236129,-0.06102269704379141
1789483543134370000,8.0433701171875,-2.37505286918059,-0.6347486866235733,0.5775648370902985
1789483543144420000,8.053420166015625,-0.08334332298859953,-0.6052513739824295,1.1479401280026882
1789483543154470100,8.06347021484375,2.071260330367088,-0.2517114923119545,1.8419608686104416
1789483543164519200,8.073519287109375,4.226299014139175,0.46754503103494643,2.420962533570826
1789483543174569200,8.0835693359375,5.235790529459715,0.9986088867783546,2.3693952818103132
1789483543184619300,8.093619384765624,5.4869093165755265,1.4757763171613216,2.200709132578969
1789483543194669300,8.10366943359375,5.061677825134992,1.395779820382595,1.8068910165339707
1789483543204719000,8.113718994140624,4.970999775344133,1.2076011813044547,1.6509239174917338
1789483543214768000,8.12376806640625,4.314837421552837,1.0636229184806347,1.4767698582433164
1789483543224818200,8.133818115234375,3.496785300672054,0.7493886267602443,0.42838820190578697
1789483543234868000,8.143867919921876,1.4353867313668132,1.0015577997118235,0.2236569258250296
1789483543244918000,8.15391796875,-0.5087409647762775,0.8215794182240963,0.47350788496211166
1789483543254968000,8.163968017578124,-1.0569532314583658,0.34093057546615596,1.659562566499412
1789483543265018000,8.17401806640625,-0.4538493908986449,-0.5434662411987781,2.3822268524631856
1789483543275067100,8.184067138671875,0.20576047299802303,-1.4162526995688676,3.2564076878011226
1789483543285117200,8.1941171875,0.08197188850492239,-1.8480875347971915,4.642874320915341
1789483543295167200,8.204167236328125,0.38105975675880904,-1.9219377839058636,5.237319638723135
1789483543305217000,8.214217041015624,1.9639026561930775,-1.7442390377879142,4.730510226531327
1789483543315267000,8.22426708984375,-0.5399643705576658,-1.382806941562891,2.020581113487482
1789483543325317000,8.234317138671875,0.5332473372623324,-1.1637158623486756,0.585520545335114
1789483543335366100,8.2443662109375,2.117395474076271,-0.7283014150679111,0.5091780410192907
1789483543345416200,8.254416259765625,2.112469415850937,0.004830488896369934,0.3329816622883081
1789483543355466200,8.26446630859375,2.4893916344136,0.6112661042273044,0.20020473856702445
1789483543365516300,8.274516357421875,2.9969314067065715,0.7463596343278884,-0.1811566314868629
1789483543375566300,8.28456640625,3.4326229173630476,1.2581576485872268,0.09492182484045625
1789483543385615000,8.294614990234376,3.507304356598854,1.6964526197403669,-0.06531462208405137
1789483543395665200,8.3046650390625,3.423880223459005,2.0115251158505676,-0.1859108402766287
1789483543405715200,8.314715087890624,3.5241830106854435,2.3445465256273743,-0.2781540935575962
1789483543415765000,8.324764892578125,3.459205219340324,2.7157243553191424,-0.48891588197425007
1789483543425815000,8.33481494140625,3.4902906779557465,3.05929989233613,-0.7150850828811526
1789483543435865000,8.344864990234376,3.5360558193087575,3.3713533328860996,-0.9384539855450391
1789483543445914000,8.3549140625,3.564053833302855,3.67712082503438,-1.1049698049999772
1789483543455964200,8.364964111328124,3.67532984996438,3.825511059081554,-1.351931326305866
1789483543466014200,8.37501416015625,3.668367609736323,3.848922914329171,-1.466888954089582
1789483543476064300,8.385064208984375,3.652056526404619,3.7280174840569495,-1.5572881869390607
1789483543486114000,8.395114013671876,3.6120366507053374,3.651039458316564,-1.590491952882707
1789483543496163000,8.4051630859375,3.43750425966382,3.654371233087778,-1.6248469346880912
1789483543506213000,8.415213134765626,3.1303292388051744,3.6778321881741283,-1.7798736841402947
1789483543516263200,8.42526318359375,2.8398344268515703,3.7578076421648263,-1.9805568538740277
1789483543526313000,8.43531298828125,2.44940507646203,3.885395326679945,-2.1372627885848283
1789483543536363000,8.445363037109376,1.8007915306150912,4.026718106558919,-2.3805001748010515
1789483543546413000,8.4554130859375,1.095688912566006,4.181518207648396,-2.429536154518276
1789483543556462000,8.465462158203126,0.30940088021457196,4.279241499775648,-2.088233530869335
1789483543566512000,8.47551220703125,-0.5624208247765898,4.076239970096945,-1.3924410313487052
1789483543576562200,8.485562255859374,-1.727683624306321,3.2739947824180122,-0.6354775854200124
1789483543586612200,8.4956123046875,-3.7042777120292185,1.9054379000037907,0.6036855859704315
1789483543596662000,8.505662109375,-6.5073021651387215,-0.15404665237367152,2.1657368956580756
1789483543606712600,8.515712646484374,-8.440470368111134,-2.979389904797077,3.64774684651196
1789483543616761300,8.52576123046875,-8.183563645243645,-5.672697261124849,5.241398432469368
1789483543626811400,8.535811279296874,-6.595823329156636,-7.458433845949172,6.629449704426527
1789483543636861400,8.545861328125,-4.491420899905264,-7.790043050840497,6.607935207232832
1789483543646911500,8.555911376953125,-2.2312451406180855,-6.274281344771385,5.474383597001433
1789483543656961500,8.56596142578125,-0.47972383686751124,-3.963210387766361,3.060989745119214
1789483543667010600,8.576010498046875,0.6577721270754933,-1.743883063957095,0.4363303930819034
1789483543677060400,8.586060302734374,0.3686699385240674,-0.25843524760901926,-1.6886059978932142
1789483543687110400,8.5961103515625,-1.232472295449674,0.6548246754467487,-3.098998573257029
1789483543697160400,8.606160400390625,-3.3980361726284025,0.14449088852107525,-4.088777672369778
1789483543707210500,8.61621044921875,-3.774498372463882,-2.8811498953193424,-4.913243167424202
1789483543717259500,8.626259521484375,-1.8925249346777795,-6.596797727146744,-5.1412265781462185
1789483543727309600,8.6363095703125,0.0490580454185605,-8.102771614173054,-4.037137501503527
1789483543737359600,8.646359619140625,1.0471423238009214,-6.0870122217535965,-1.3881797206424176
1789483543747409700,8.65640966796875,0.35659985376298425,-2.1730688459813594,0.8819130370251834
1789483543757459500,8.66645947265625,1.23081985206753,-0.09061609047055244,0.8929774518750607
1789483543767509500,8.676509521484375,3.477352285927534,0.38385552495718,0.11719188964180648
1789483543777558500,8.68655859375,4.356824797932803,0.9019581923186778,-0.1614420963872224
1789483543787608300,8.6966083984375,4.904639005208015,1.2491297080010175,0.3745180069651454
1789483543797658400,8.706658447265625,5.384526800465584,1.1909762097179888,0.9530162524480372
1789483543807708400,8.71670849609375,5.6328539110362525,0.9805115045517683,1.24912020952031
1789483543817758500,8.726758544921875,5.6871910659015175,0.6254436826616525,1.2780774239353834
1789483543827808300,8.736808349609374,5.451067603343725,0.20111761562824249,1.0963942112911491
1789483543837857500,8.746857421875,4.844953182791174,-0.10354103849530219,0.8707268954917788
1789483543847907600,8.756907470703124,4.133248097737133,-0.26402503044009207,0.6972657138783485
1789483543857957400,8.766957275390626,3.569600653775036,-0.2842062332034111,0.8795693234432488
1789483543868007400,8.77700732421875,3.251216548898816,-0.4399000682622194,1.2749683520041406
1789483543878057500,8.787057373046874,3.013830226798355,-0.5070043502420186,1.6450871741622686
1789483543888106500,8.7971064453125,2.629272398790717,-0.4414157335221767,1.8817859523899851
1789483543898156300,8.80715625,2.031687467782944,-0.2871305962175131,1.8741802996918557
1789483543908206300,8.817206298828125,1.3371204184040426,-0.03330255014300346,1.6295555507704615
1789483543918256600,8.827256591796875,0.5236600092276931,0.27020751846730706,1.2803370394304394
1789483543928306700,8.837306640625,-0.2166556687608361,0.5124678763449192,0.7429983412012457
1789483543938355500,8.84735546875,-0.6161258192181587,0.5976923369050026,0.23343407734334468
1789483543948405500,8.857405517578124,-0.6023905777238309,0.4664034597843885,-0.17230214777141808
1789483543958455600,8.86745556640625,-0.22022782815918326,0.12198621124625206,-0.3406168333418667
1789483543968505300,8.87750537109375,0.2370892388500273,-0.13500994347035883,-0.30406989445015786
1789483543978555400,8.887555419921876,0.538402089677006,-0.3368780852049589,-0.06375460622571408
1789483543988605400,8.89760546875,0.6330944896757602,-0.3482154717773199,0.33121918266043066
1789483543998654500,8.907654541015624,0.635032764261961,-0.17386135991215704,0.6618236674886196
1789483544008704500,8.91770458984375,0.6035575756765902,-0.14619067817628384,0.9606903672724961
1789483544018754600,8.927754638671875,0.6091887134313583,0.07098258471786975,1.074565022125095
1789483544028804600,8.9378046875,0.6979765655614435,0.3857943840652704,1.2045944737691432
1789483544038854400,8.9478544921875,0.9312545755602419,0.7033271328091621,1.3256757720649242
1789483544048903400,8.9579033203125,1.2074949444510041,1.0936100604653358,1.399596309930831
1789483544058953500,8.967953369140625,1.251820262259245,1.375072547918558,1.451579887407273
1789483544069003500,8.97800341796875,1.3067851936340331,1.4156371980190277,1.3473482362993061
1789483544079053300,8.98805322265625,1.1315456772364676,1.1919932778060436,1.1815256598055361
1789483544089103400,8.998103271484375,0.9304721930108963,0.7642167780578136,0.9606678631797433
1789483544099153400,9.0081533203125,0.8300318239446729,0.2766021879404783,0.6312016616664826
1789483544109202400,9.018202392578125,0.8202315838117152,-0.2211807449698448,0.34418957726210353
1789483544119252500,9.02825244140625,0.7099358103591948,-0.4505389511764049,0.1376126733146608
1789483544129302500,9.038302490234376,0.5705448022603988,-0.31980946150422096,-0.03604512684941292
1789483544139352600,9.0483525390625,0.37057043838314707,-0.05476151775717735,-0.19211510174423455
1789483544149402400,9.05840234375,0.10145670650191604,0.2254986081689596,-0.296669262804836
1789483544159451400,9.068451416015625,-0.20456512573361396,0.46847149823009965,-0.4389784233726561
1789483544169501400,9.07850146484375,-0.3300841872811317,0.621556027573347,-0.6353624346077442
1789483544179551500,9.088551513671876,-0.4385398858249187,0.5759048679888248,-0.8275885955110192
1789483544189601500,9.0986015625,-0.5740729763865471,0.2746107218623161,-0.9140463972583412
1789483544199651600,9.108651611328124,-0.6251566824138164,-0.025817747345566747,-0.7305177759431302
1789483544209700600,9.11870068359375,-0.6934662485301494,-0.178193836158514,-0.48252471963241694
1789483544219750400,9.12875048828125,-0.7567243764758109,-0.2107943755120039,-0.32806656384840605
1789483544229800400,9.138800537109375,-0.8686649945259094,-0.12789105137586593,-0.1888365184649825
1789483544239850500,9.1488505859375,-1.0486521438419818,-0.017052257087826726,-0.03999620256274938
1789483544249900500,9.158900634765626,-1.1876865205228329,0.06348609148263931,0.09843290170133114
1789483544259950300,9.168950439453125,-1.258358724117279,0.1425631353288889,0.3406212172560394
1789483544269999600,9.17899951171875,-1.2477251019001006,0.27968554090857506,0.6005792905181646
1789483544280049700,9.189049560546875,-1.2887690599501131,0.42597032710909843,0.9036559361472726
1789483544290099500,9.199099365234375,-1.2574398557066917,0.37890871620476246,0.9980230497144162
1789483544300149500,9.2091494140625,-1.1044786604821681,0.418964247739315,1.1110377267368137
1789483544310199600,9.219199462890625,-0.8265957850813865,0.32868308831155296,1.2609215603426098
1789483544320248300,9.229248291015624,-0.7383516844391822,0.3796808696210384,1.4249768349029124
1789483544330298400,9.23929833984375,-0.8111597310185432,0.3723907126128673,1.6526764602474868
1789483544340348400,9.249348388671875,-0.7329729140102863,0.30805297273695464,1.7982056057751177
1789483544350398500,9.2593984375,-0.9268588248193264,0.30075229433476924,2.0160976844631135
1789483544360448300,9.2694482421875,-1.1615899562358856,0.3219114022195339,2.2699795065514743
1789483544370497500,9.27949755859375,-1.2643857293218375,0.39264264252483844,2.5795149729311464
1789483544380547600,9.289547607421875,-1.2093465636670588,0.4174918370991945,2.788598160611093
1789483544390597600,9.29959765625,-1.1448299600929022,0.4586117829948663,2.9037051337376236
1789483544400647400,9.3096474609375,-1.243890053781867,0.48343292051851744,2.911608161947131
1789483544410697500,9.319697509765625,-1.5980162109076976,0.4080225824862718,2.8743495676547286
1789483544420747500,9.32974755859375,-2.074641789498925,0.20283669450581074,2.6722721670836207
1789483544430796300,9.33979638671875,-2.520671154296398,-0.07558452555537223,2.391592062179744
1789483544440846300,9.349846435546874,-2.8310587074607607,-0.3721002052336931,2.1169933230161666
1789483544450896400,9.359896484375,-3.0003555359363556,-0.7061188093543053,1.9695365704268215
1789483544460946400,9.369946533203125,-2.9353227995336053,-1.398762051063776,2.0988937488324937
1789483544470996500,9.37999658203125,-2.510717915558815,-2.3372879328012464,2.4793992327094077
1789483544481045500,9.39004541015625,-1.9275380881309507,-3.346060486197471,3.1302228558212515
1789483544491095600,9.400095458984374,-1.2722177381217479,-3.9502293256402012,3.5967569562479853
1789483544501145300,9.410145263671875,-0.8320388529181479,-3.9991327650189397,3.8899838235139845
1789483544511195400,9.4201953125,-0.29341888270676136,-3.6918028458595273,3.97311569570899
1789483544521245400,9.430245361328126,0.04356268113898113,-2.767902286323905,3.569242634117603
1789483544531294500,9.44029443359375,-0.05858427264941856,-1.8549819704860449,3.1352269477188583
1789483544541344500,9.450344482421874,-0.5705395415633917,-1.054883147186041,2.581974056521058
1789483544551394600,9.46039453125,-1.3217255731344222,-0.47969665659964084,2.0565300864860414
1789483544561444600,9.470444580078125,-1.2208312497556209,-0.17558745305240153,1.6115372251294553
1789483544571494700,9.48049462890625,-0.8078489990353583,0.1015367129355669,0.7699968227639794
1789483544581543400,9.49054345703125,-0.6060030691325664,0.5319359624028206,0.07260331778749823
1789483544591593500,9.500593505859374,-0.4179588700890541,1.0368138220101595,-0.37114991877153514
1789483544601643300,9.510643310546875,-0.11623685393929481,1.5188380447745322,-0.7044139051325619
1789483544611693000,9.520693115234375,0.010895561088994145,1.9652941105514763,-1.0742623859167097
1789483544621743000,9.5307431640625,0.033930399717763064,2.1737550746798515,-1.4348029401294886
1789483544631793200,9.540793212890625,0.7867409637507051,2.0281150161236523,-1.2880436682850123
1789483544641842200,9.55084228515625,1.5942250019311903,1.522141177973151,-0.8051773686733097
1789483544651892200,9.560892333984375,1.6230688190996645,0.8409434593856334,-0.04488492445237934
1789483544661942300,9.5709423828125,1.2982929673597217,0.13512743237018585,0.8482363198075443
1789483544671992300,9.580992431640626,1.9280374159552156,-0.8915209694564342,2.1482366025418043
1789483544682042000,9.5910419921875,2.4303370956376193,-2.3478584266543385,3.0401828116729854
1789483544692091100,9.601091064453126,2.636568985539675,-3.46585240226984,3.752584062297642
1789483544702141200,9.61114111328125,2.650496096344292,-3.848037363666296,4.225901246993243
1789483544712191200,9.621191162109374,1.6324819596111773,-3.298043182003498,4.269162881092727
1789483544722241300,9.6312412109375,0.7725634583815931,-1.9766811814844607,3.855845699329674
1789483544732291300,9.641291259765625,0.8004986362725496,-0.7709837879747152,3.227907277242839
1789483544742340400,9.65134033203125,1.3480048005118965,0.21080723499357698,2.904605005186796
1789483544752390100,9.66139013671875,1.749015750670433,0.858950825241208,2.664153742557764
1789483544762440200,9.671440185546874,1.7507082338020203,1.0398328775703907,2.434174481843412
1789483544772490200,9.681490234375,1.6676853749394416,1.150686284905672,2.592335583798587
1789483544782540300,9.691540283203125,1.7110510539352892,1.0426678087353707,3.135088123770058
1789483544792589300,9.70158935546875,1.6074460102930663,0.6269307063490152,3.4339912831068036
1789483544802639400,9.711639404296875,1.4981883477166293,-0.07673720272183418,3.692760292714834
1789483544812689400,9.721689453125,1.6896528765976428,-1.0731249063193797,3.939233884373307
1789483544822739200,9.7317392578125,2.196512265411019,-1.6571189727395772,4.144038079559802
1789483544832789200,9.741789306640625,2.8777129066079854,-1.5985259139955044,3.884605637606978
1789483544842838300,9.75183837890625,3.1335727507710454,-1.212415888109803,2.946255112436414
1789483544852888000,9.76188818359375,3.221181183858216,-0.7075093869298696,1.5907202086806296
1789483544862938000,9.771938232421874,3.5551723154500126,-0.14841478396654129,0.7923469670642167
1789483544872988200,9.78198828125,3.9072815797954794,0.3414730117797851,0.09084770726934074
1789483544883038200,9.7920380859375,4.09102252868712,0.6907423765242099,-0.621023674262315
1789483544893087200,9.802087158203125,4.086738567757607,1.090556518113613,-1.173900352558866
1789483544903137300,9.81213720703125,3.9310903254061933,1.5817232477545737,-1.4133005717650056
1789483544913187300,9.822187255859374,3.810639068642258,2.160695686620474,-1.2099441642340272
1789483544923237400,9.8322373046875,3.817034907159209,2.489524905404448,-1.177555221804604
1789483544933287200,9.842287109375,3.8736423450440167,2.556236388674378,-1.192727071973309
1789483544943336200,9.852336181640625,3.7438758551850913,2.5415438464552165,-1.1386052403591573
1789483544953386200,9.86238623046875,3.4271418556034563,2.5783979515999556,-1.283212740997225
1789483544963436000,9.87243603515625,3.2445155899554488,2.5160697979807853,-1.6517323112651705
1789483544973486000,9.882486083984375,2.618513688889146,2.476407065156102,-1.8727526049762964
1789483544983536000,9.8925361328125,2.0629902224108574,2.2569699489831923,-2.280640455166995
1789483544993585200,9.902585205078125,1.2553154108986257,2.1767636088460685,-2.466952715851366
1789483545003635200,9.91263525390625,0.2570613289073109,1.9198352586686611,-2.73042449632287
1789483545013685200,9.922685302734376,-0.7588125809267163,1.5737398477852345,-2.8182638155564663
1789483545023735300,9.9327353515625,-1.877396923650801,1.2668529962182045,-2.787221319299936
1789483545033785000,9.94278515625,-3.168363201384246,0.8287333816319704,-2.6023446443766356
1789483545043834000,9.952834228515625,-4.372508104754984,0.32773499380648136,-2.0588912626594302
1789483545053884200,9.96288427734375,-5.505840227016806,-0.44370062958896156,-0.8874382301874458
1789483545063934200,9.972934326171876,-5.813190604442358,-1.7533955731898545,0.4416046802230179
1789483545073984300,9.982984375,-5.083720145595073,-3.172042474418878,2.093601341512799
1789483545084034300,9.993034423828124,-3.821902805456519,-4.380922589617968,3.759363347174227
1789483545094083300,10.003083251953125,-2.4629598468229172,-4.617539973172545,4.435523363855481
1789483545104133000,10.013133056640624,-1.6693974395543336,-4.052704780730605,3.138422528889775
1789483545114183200,10.02318310546875,-1.8915549206018447,-2.6286393615841863,1.0174740385070442
1789483545124233200,10.033233154296875,-2.131405294728279,-0.8457406305342913,-0.15298596433959902
1789483545134283300,10.043283203125,-2.0863421641647815,0.43423371306359765,-0.9283893953874707
1789483545144332300,10.053332275390625,-1.7663970935821531,1.815010610103607,-0.9416590651966631
1789483545154382300,10.06338232421875,-1.6167855010464787,3.1892677499860524,-0.6249459622725844
1789483545164432400,10.073432373046876,-2.0328888063967225,4.468417333197594,0.051726168649271126
1789483545174482200,10.083482177734375,-1.4340657118961213,5.219102429509163,0.9567219020329415
1789483545184532200,10.0935322265625,1.1985285247936843,4.10873938716352,1.5890592897310851
1789483545194581200,10.103581298828125,3.342501624672115,0.4536334100604057,1.6042498446002602
1789483545204631300,10.11363134765625,4.2148225113570685,-3.5977930212974547,1.9305569975607095
1789483545214681000,10.12368115234375,3.9681121883332726,-8.392208733767271,2.2970070680782197
1789483545224731100,10.133731201171875,3.150830467303097,-12.415242598855494,3.286112505713105
1789483545234781200,10.14378125,3.8304409166991706,-12.473229508399962,3.7376688172385095
1789483545244830200,10.153830322265625,3.7537788250401616,-7.15625122655034,3.2565228386133906
1789483545254880300,10.16388037109375,3.222297620667517,-1.8184212953299284,1.5685798346735536
1789483545264930300,10.173930419921875,3.1463764105036853,1.6354752962082624,-1.0590279919058083
1789483545274980400,10.18398046875,2.5555416844084857,3.546276769071817,-3.0258804378151893
1789483545285030100,10.194030029296876,2.4721900319829584,4.326014941388368,-3.869174551980197
1789483545295079200,10.2040791015625,2.884899310980737,4.2176241247743365,-3.753423727992177
1789483545305129200,10.214129150390624,3.216434573853016,3.278725318071246,-3.4110984832972284
1789483545315179000,10.224178955078125,3.208186969989538,1.861173226341605,-2.9543419727802274
1789483545325229000,10.23422900390625,3.362238590799272,0.2608914085894823,-2.077911312688887
1789483545335279000,10.244279052734376,3.619181846284866,-1.0951625506043434,-0.9255059489056467
1789483545345328400,10.254328369140625,3.6089816470488905,-1.8674094903826712,-0.2148484001431614
1789483545355378200,10.264378173828124,3.264090351258218,-1.9837398678243159,0.20421565470881758
1789483545365428200,10.27442822265625,2.136207726573944,-1.6452835735172033,0.7694932571560144
1789483545375478300,10.284478271484375,0.7928013597682118,-1.211002514180541,1.1182524804212153
1789483545385527000,10.294527099609375,0.0924224092401564,-0.7578355525881052,1.393984607528895
1789483545395577000,10.3045771484375,-0.08395005671009421,-0.2946966475576162,1.6589603628225624
1789483545405627100,10.314627197265626,0.16062208524122834,0.3268085266113281,1.9628684908397496
1789483545415677200,10.32467724609375,0.6239959680713713,0.8477759357541799,2.068029824013263
1789483545425727200,10.334727294921874,1.0242881024360657,0.9869570274293422,1.9144950666844844
1789483545435776300,10.3447763671875,1.6323687084950507,0.8850462204843759,1.9275949328847228
1789483545445826300,10.354826416015625,2.3012546425201,0.7833616235107183,2.124070421795547
1789483545455876000,10.3648759765625,2.699519654971361,0.6309913799166679,2.2304513598918914
1789483545465926100,10.374926025390625,2.5500024627208706,0.6095148766458034,2.432470016013086
1789483545475976200,10.38497607421875,1.898686087656021,0.4483130918204784,2.723447350786626
1789483545486025200,10.395025146484375,1.188556435225159,0.20020517695844173,2.7286104326382277
1789483545496075300,10.4050751953125,0.8271593372482806,0.009320786052942275,2.710838336843252
1789483545506125300,10.415125244140626,0.7527753465890884,-0.13568623529672622,2.5144880817472934
1789483545516175400,10.42517529296875,0.7836147214889526,-0.12766016522943974,2.0029948956534267
1789483545526225400,10.435225341796874,0.8750093951165676,-0.03617430618703365,1.6625317915685474
1789483545536274200,10.445274169921875,0.92649064909406,-0.07610358099341392,1.2342790526106953
1789483545546324200,10.45532421875,0.7641957352697849,-0.22549042486250398,0.5290313270024954
1789483545556374300,10.465374267578126,-0.07709493011832237,-0.31981004602611063,-0.22704423017576336
1789483545566424000,10.475424072265625,-1.2069523620069027,-0.36391865234375,-0.9928902168706059
1789483545576473300,10.485473388671876,-1.7277414919734,-0.4670148696810007,-1.5691121879845857
1789483545586523400,10.4955234375,-1.5160942990243433,-0.3951894043982029,-1.748304972052574
1789483545596573200,10.5055732421875,-0.9824772516667842,-0.3166080351144075,-1.817351328010857
1789483545606623000,10.515623046875,-0.49968905879259107,-0.3254997821003198,-1.9366181972958147
1789483545616673000,10.525673095703125,-0.2353811197578907,-0.23271569994091987,-1.8514194556988774
1789483545626721800,10.5357216796875,-0.02037058785557747,-0.05178980847001075,-1.4895856468051671
1789483545636771800,10.545771728515625,0.08172551252841949,0.045447161445021624,-1.102274136175215
1789483545646822000,10.55582177734375,0.1163327155292034,0.11959785480499267,-0.9751077458120881
1789483545656871700,10.56587158203125,0.12693476443118415,0.25535949342548847,-0.8824506510332226
1789483545666921000,10.5759208984375,0.0876852977156639,0.29392390961945053,-1.0123166557438672
1789483545676971000,10.585970947265626,-0.1558498841370456,0.3002139496743679,-1.2254086406737565
1789483545687020800,10.596020751953125,-0.5747825859606266,0.16089432631134987,-1.4483727619290352
1789483545697070800,10.60607080078125,-0.8131003436923027,-0.10989069978296756,-1.1390180589437484
1789483545707121000,10.616120849609375,-0.8466875559955834,-0.27799042742848395,-0.8665703603342175
1789483545717170000,10.626169921875,-1.0554138930618762,-0.38879356588125225,-0.6297773279517889
1789483545727219700,10.6362197265625,-1.1978396657466888,-0.40622751576304433,-0.2709098215177655
1789483545737269800,10.646269775390625,-1.5534072538524866,-0.3729138597041368,-0.07082987837418914
1789483545747320000,10.656320068359374,-1.6218734718352554,-0.20297931784689424,0.25084756895899774
1789483545757368800,10.666368896484375,-1.5959031642764805,0.06017302141189575,0.6265178877644241
1789483545767419000,10.6764189453125,-1.524446532306075,0.3845259715646505,0.872100083541125
1789483545777469000,10.686468994140625,-1.4268793075233697,0.7278057405054569,0.9427852927476167
1789483545787519000,10.69651904296875,-1.3413023802638053,1.0518518166661261,0.9730853000737726
1789483545797568800,10.70656884765625,-1.3200146775633097,1.2679676794618366,0.8939987577468156
1789483545807617800,10.71661767578125,-1.146430381026864,1.14608317502439,0.8785118502795696
1789483545817667800,10.726667724609374,-1.0825473261158913,0.7807868045866488,0.7333775492884218
1789483545827718000,10.7367177734375,-0.9672989717572927,0.14790157374739646,0.6164034671157598
1789483545837768000,10.746767822265625,-0.7788461919128894,-0.5081809928059577,0.7207290801174938
1789483545847817000,10.75681689453125,-0.452531074841693,-0.9554512975752353,0.8180528515331447
1789483545857867000,10.766866943359375,-0.13472593889720738,-1.2363555666238069,0.9840066531911492
1789483545867916800,10.776916748046874,0.09296301892288028,-1.4026497061520815,1.2428544271238147
1789483545877966800,10.786966796875,0.22918752581477164,-1.6000737279593944,1.4886194321215152
1789483545888017000,10.797016845703125,0.2406049918860197,-1.8916887761145829,1.6537674703545868
1789483545898066000,10.80706591796875,0.10484678733162581,-2.3643811069101095,2.0087796165347096
1789483545908116000,10.817115966796875,0.05289039012305438,-2.926869443964958,2.9190865350037813
1789483545918166000,10.827166015625,0.3007109394110739,-3.4837679981887337,4.32271180818975
1789483545928216000,10.837216064453125,0.7916606653004884,-3.9682653330683704,5.392184037220478
1789483545938264800,10.847264892578124,1.021224550146982,-4.1978298755019905,4.953060798549652
1789483545948315000,10.85731494140625,0.8309878094952553,-4.191519961702824,2.8482226082295177
1789483545958365000,10.867364990234375,0.03439085683636367,-3.8775194787383076,1.0122397911153733
1789483545968414700,10.877414794921876,-0.7639421989001334,-4.162809415525198,0.14452756726965307
1789483545978464800,10.88746484375,-1.061615670311451,-4.326147627857328,-0.22910233174934982
1789483545988514000,10.89751416015625,-1.314820762182027,-3.9228450596302746,-0.3150672354131937
1789483545998564000,10.907564208984375,-1.5710148067355154,-3.230367237615585,-0.2552650931403041
1789483546008614000,10.91761376953125,-1.8183014683425425,-2.5710873363256455,-0.09636457099467516
1789483546018664000,10.927663818359376,-1.7878800265938042,-2.0217419739603995,0.07530380891785025
1789483546028713000,10.937712890625,-1.6149714373618362,-1.6362953804194926,0.23241116403639314
1789483546038762800,10.9477626953125,-1.3634103133060038,-1.444980196881294,0.17477657506093383
1789483546048812800,10.957812744140625,-1.1195663394987583,-1.3748475069910286,-0.028277415457367894
1789483546058862800,10.96786279296875,-0.9184440476953982,-1.3113432953298092,-0.2633069452986121
1789483546068911900,10.977911865234375,-0.684278148946166,-1.395660577917099,-0.6102665717959403
1789483546078962000,10.9879619140625,-0.3839958102107048,-1.579549995368719,-1.0189400194063782
1789483546089012000,10.998011962890626,-0.10942483583688735,-1.8142179984211921,-1.4274829725049436
1789483546099062000,11.00806201171875,-0.23040331307901069,-1.9986247177451848,-1.7806183650277554
1789483546109111800,11.01811181640625,-0.9685831663489342,-1.9934628049373626,-1.7477984838351606
1789483546119160800,11.028160888671875,-1.8608125763356684,-1.8144465464800594,-1.386085232581198
1789483546129211000,11.0382109375,-2.359820082604885,-1.739036208447814,-1.0280736853893846
1789483546139261000,11.048260986328126,-2.278046493151039,-1.8465818064093589,-0.8512672850012779
1789483546149310700,11.058310791015625,-1.565337784012407,-1.9082026885420083,-0.3859516204535961
1789483546159360000,11.068360107421874,-0.06019304128661752,-1.994993083244562,0.08333232667054981
1789483546169410000,11.07841015625,1.2134335407197474,-1.80795543089509,0.7496586758732795
1789483546179459800,11.0884599609375,2.3803018757499754,-1.2162234636992215,1.5367663540445267
1789483546189510000,11.098510009765626,3.059357175481319,-0.32260289161503314,2.6531922035604714
1789483546199560000,11.108559814453125,3.362379460574686,0.32815351147949695,3.114751730445027
1789483546209608700,11.118608642578126,2.849117218981683,0.5948720187872648,2.9443028093248604
1789483546219658800,11.12865869140625,1.8571075843378901,0.6021726971894502,2.889712848742306
1789483546229708800,11.138708740234375,2.1494024314507842,-0.41990298989415165,2.035412625785917
1789483546239758800,11.1487587890625,2.6349709026932713,-1.4202180960685014,1.323062228565663
1789483546249808000,11.158807861328125,1.8823902018934486,-1.4568746328145266,1.9858819944195447
1789483546259858000,11.16885791015625,1.6384060889631509,-1.9698720859915018,1.9728518324546516
1789483546269908000,11.178907958984375,0.9286521379768848,-2.1196733558803795,1.3098334752887486
1789483546279957800,11.188957763671874,1.8772300426512956,-1.8836960237950084,0.4629010046213865
1789483546290006800,11.1990068359375,1.4746031817287206,-1.75541801892817,0.20893150424957274
1789483546300056800,11.209056884765625,0.5843430259883403,-1.1004589034467935,0.6974451620984822
1789483546310107000,11.21910693359375,2.2910545894145966,-1.1463660836189984,-0.03051455197584582
1789483546320157000,11.229156982421875,3.6005689157515763,-0.3069493954092264,-0.2450991615001112
1789483546330207000,11.23920703125,3.8177392560362815,0.7242839961200952,-0.4097098779860884
1789483546340256000,11.249256103515625,3.7018618830591437,1.5812088684916494,-0.5851707820493728
1789483546350305800,11.259305908203125,4.062987105292081,2.2496406290084123,-0.6824540022589266
1789483546360355800,11.26935595703125,4.1175557308256625,2.710329218277335,-0.9679241179183125
1789483546370406000,11.279406005859375,4.149589283946156,3.0787469356060027,-1.0594872069153933
1789483546380454700,11.28945458984375,4.068877332374453,3.223116828095913,-1.1571691441189498
1789483546390505000,11.2995048828125,4.138502657264471,3.2695576767534016,-1.2321278659261763
1789483546400555000,11.309554931640625,4.073262415590882,3.159498634666204,-1.1004894447155296
1789483546410605000,11.31960498046875,3.7677006751477715,2.9545716898828744,-0.8215138787072152
1789483546420653800,11.32965380859375,3.6126188345074652,2.6686773574620486,-0.5593698031755164
1789483546430703900,11.339703857421876,3.5265298660725355,2.37560743432343,-0.33667375827189533
1789483546440754000,11.34975390625,3.2345985915750264,2.5029817683488127,-0.05046427722098305
1789483546450804000,11.359803955078124,2.9635645591557025,2.7494974455833434,0.13079249017210676
1789483546460853800,11.369853759765626,2.701481310433149,2.9434038146585224,0.2583967970284633
1789483546470903000,11.379903076171875,2.576495917370915,2.8763141457259653,0.2673672900727019
1789483546480953000,11.389953125,2.901921465191245,2.5233377431571484,0.0735126055189874
1789483546491003000,11.4000029296875,3.171709881463647,2.122671368652582,-0.07002122887242584
1789483546501053000,11.410052978515624,3.0013030459195376,1.8113403971582651,-0.07948325002696364
1789483546511102000,11.42010205078125,2.302036002156138,1.5630121175438165,-0.008753324895910918
1789483546521151700,11.43015185546875,1.344197517183423,1.5663853933691978,-0.01745419808537699
1789483546531201800,11.440201904296876,0.5609831931889057,1.8098282390296458,0.022218083452363497
1789483546541251800,11.450251953125,-0.17413257806897162,2.2396324452131986,0.08036797870593144
1789483546551302000,11.460302001953124,-0.6887696151465177,2.625298234462738,0.1753273773441091
1789483546561351000,11.470350830078125,-0.9817454302608967,2.7649288234710694,0.43464499727822836
1789483546571401000,11.48040087890625,-1.1532307086914777,2.74978386130929,0.8128345323629677
1789483546581451000,11.490450927734376,-1.1797726786583662,2.6482909875154492,1.336320938589424
1789483546591501000,11.5005009765625,-1.1705658743739127,2.5585358977884054,1.8349490901522338
1789483546601550300,11.51055029296875,-0.7779600567281246,2.406680617979169,1.8546173749573527
1789483546611600100,11.52060009765625,0.03643266486227512,2.2596464747160674,1.3653019722715019
1789483546621650200,11.530650146484374,0.509939234650135,2.529240829721093,1.4752594536803663
1789483546631700200,11.5407001953125,-1.7626579070538282,2.792270419383049,1.8848750044465064
1789483546641749200,11.550749267578125,-4.94828876184225,1.014886067840457,1.5118347418837248
1789483546651799300,11.56079931640625,-4.685451479882001,-5.649378344857692,-3.1068916645944116
1789483546661849300,11.570849365234375,-8.113396468561888,-12.591202392351626,-5.752352397119998
1789483546671899400,11.5808994140625,-2.7803292216986417,-16.024088929086922,-1.9342492762073873
1789483546681949200,11.59094921875,3.72479033870399,-12.437772410571574,0.028760084407776592
1789483546691998200,11.600998291015625,1.4082482568114996,-3.6743466841459274,-1.9002055523082613
1789483546702048300,11.61104833984375,0.03643149581849575,1.8443764053195715,-3.896294321835041
1789483546712098000,11.62109814453125,-0.9693857149034738,4.84623650059998,-4.603328492468595
1789483546722148000,11.631148193359374,-0.6886176394551992,6.292676833161711,-3.451090886467695
1789483546732197400,11.641197265625,1.9307880298376083,5.67232199807167,-1.1469364308528602
1789483546742247200,11.6512470703125,4.3749569592118265,3.634975043222308,0.7531619347538798
1789483546752297200,11.661297119140626,4.43104943331182,1.0920587393701076,1.8836974850997328
1789483546762347300,11.67134716796875,3.1331016261279583,-1.5646721597105264,2.8210245124414564
1789483546772397300,11.681397216796874,1.7464853554099797,-4.612001628267765,3.0680253428444266
1789483546782446000,11.691446044921875,0.6213385854303837,-6.923813174507021,2.1714793848328293
1789483546792496000,11.70149609375,-0.1253963119506836,-7.200700609129667,1.0751628418877721
1789483546802546200,11.711546142578126,-0.18167261818498373,-5.742993617144227,0.36741336259171364
1789483546812596200,11.72159619140625,0.22364918090999125,-3.534330310690403,-0.22910094350986182
1789483546822645200,11.731645263671876,0.5842050788223743,-1.2952268577873707,-0.8946827214229851
1789483546832695300,11.7416953125,0.8562661162018775,0.45647126383483405,-1.4226120054677127
1789483546842745300,11.751745361328124,0.9553554359853267,1.487176247575879,-1.6857818803831934
1789483546852795100,11.761795166015625,1.0748226501479745,1.9018910211771725,-1.6106455369867383
1789483546862844200,11.77184423828125,1.3456497618183494,1.981798086106777,-1.3643969862557948
1789483546872894200,11.781894287109376,1.623276616631448,1.9796482145965097,-1.0055985995352268
1789483546882944000,11.791944091796875,1.9440011471539735,1.8468337353438138,-0.711538057924062
1789483546892994000,11.801994140625,2.322833290991187,1.6304624364823102,-0.3423331357404589
1789483546903044000,11.812044189453125,2.4744369341269135,1.0707347963124514,0.1864351564116776
1789483546913093400,11.82209326171875,2.2740049626752734,0.19692893176674842,0.8061447524007409
1789483546923143200,11.83214306640625,1.8656486181899905,-1.2485849335998296,1.713397617061436
1789483546933193200,11.842193115234375,1.0694088084056972,-2.7371634491890666,2.3389110039584335
1789483546943243300,11.8522431640625,-0.0301616217687726,-3.3050083448410033,2.106555077240616
1789483546953292000,11.8622919921875,-0.7811629444226622,-2.7194214562714096,1.2443006804093717
1789483546963342000,11.872342041015624,-0.9206570475697516,-1.4463105687022209,0.41619112976416944
1789483546973392100,11.88239208984375,-0.8750980963133275,-0.11483984662294387,0.03259703222215175
1789483546983442400,11.8924423828125,-0.718301414579153,0.7868763536334037,-0.12216302911788224
1789483546993492200,11.9024921875,-0.6408955188155174,1.3951988056242466,-0.14027451293505727
1789483547003541200,11.912541259765625,-0.5983773965597152,1.8816396757870912,0.05225815663412213
1789483547013591300,11.92259130859375,-0.38550387668609615,2.0747972723215815,0.3196539056163281
1789483547023641000,11.93264111328125,-0.060965486963838335,2.1467314586758612,0.670916782265529
1789483547033691100,11.942691162109375,0.22623452122807503,1.9493588747948407,1.0946833157200366
1789483547043740200,11.952740234375,0.4803776246011257,1.5577905835032462,1.5186600578591227
1789483547053790200,11.962790283203125,0.6861201235510408,1.2708780139505862,1.9711672403685747
1789483547063840300,11.97284033203125,0.7230722822427749,1.2146487617284059,2.234722022948414
1789483547073890300,11.982890380859375,0.6480288778267801,1.1390858634829522,2.1918734996944664
1789483547083939300,11.992939208984374,0.40435704571604725,0.9790303260833024,2.019325414337963
1789483547093989000,12.002989013671876,-0.0974842226743698,0.9061807784497737,1.4660983882337808
1789483547104039200,12.0130390625,-0.834971910695359,0.7334761873573065,0.7392806358523667
1789483547114089200,12.023089111328124,-1.51268770545125,0.45385845098793504,0.1342091484814882
1789483547124139300,12.03313916015625,-1.6915233466446398,0.19219839611351489,-0.4350860921092331
1789483547134188300,12.043188232421874,-1.3359399764478206,-0.03769055596888065,-0.6978352573946118
1789483547144238300,12.05323828125,-1.028198553878069,-0.18619652535021303,-0.8757913392744958
1789483547154288400,12.063288330078125,-0.5680442176163196,-0.06417290470302105,-1.049852751803398
1789483547164338200,12.073338134765624,-0.14043372208476065,0.18392331972122192,-1.230356472339481
1789483547174387200,12.08338720703125,0.0027215156520716843,0.4293073625773191,-1.4705883931294084
1789483547184437200,12.093437255859374,-0.19157588030099867,0.5643026930004358,-1.457324276278168
1789483547194487300,12.1034873046875,-0.37731823214292526,0.6411749202787875,-1.269235215179622
1789483547204537000,12.113537109375,-0.5405675971478223,0.7152215687423944,-1.2455362135536967
1789483547214587100,12.123587158203126,-0.6298164909183979,0.638300241625309,-1.1514540544077754
1789483547224636400,12.133636474609375,-0.5604314045250416,0.5751917512834072,-0.8565965172000228
1789483547234686200,12.143686279296874,-0.6989905649095773,0.37789573976993557,-0.6495208699502051
1789483547244736300,12.153736328125,-1.087910387519002,0.1690489911943674,-0.3379118121668696
1789483547254786300,12.163786376953125,-1.4899001195818184,-0.06792027453780174,-0.0018283844709396362
1789483547264835000,12.1738349609375,-1.960154994097352,-0.38363574472665785,0.23294088699892163
1789483547274885000,12.183885009765625,-2.4078227737516165,-0.6892752265810966,0.5202408484339713
1789483547284935200,12.19393505859375,-2.9410476069211957,-0.9772691616296768,0.8107322993867099
1789483547294985200,12.203985107421875,-3.3205846841573714,-1.2215350141108035,1.0773805179372429
1789483547305035000,12.214034912109375,-3.4037861144572497,-1.4143711236059664,1.2795780377566814
1789483547315084300,12.224084228515625,-3.065143357667327,-1.441903273653984,1.36477867904976
1789483547325134300,12.23413427734375,-2.416277882885933,-1.4657967749387024,1.331284259596467
1789483547335184400,12.244184326171874,-1.5716712248176334,-1.7112427771151064,1.1691298502214251
1789483547345234200,12.254234130859375,-0.6938737333524971,-2.1386159567594527,0.9224445155084132
1789483547355283200,12.264283203125,0.10442490865774452,-2.638134335160255,0.5704942411169409
1789483547365333200,12.274333251953125,0.6807119078319519,-3.1183798578143116,0.07186009820476173
1789483547375383000,12.284383056640625,0.7521826413929462,-3.4862767661392686,-0.3754584296204149
1789483547385433000,12.29443310546875,0.4126380403924733,-3.7523125518798826,-0.5472361151263118
1789483547395483100,12.304483154296875,0.2513022539239377,-4.0333249574780465,-0.13336553726419806
1789483547405532200,12.3145322265625,0.8068612301070243,-4.325107763415574,1.2359557536512613
1789483547415582200,12.324582275390625,1.9054682951420545,-4.225378976684809,2.792937943381071
1789483547425632300,12.33463232421875,2.407407763209939,-3.52997153095901,3.0615929717093704
1789483547435682300,12.344682373046876,2.0826105764210223,-2.546251585754752,1.4395916357107459
1789483547445731000,12.35473095703125,0.6025123774725943,-1.7269535564661025,-0.6869941299065947
1789483547455781000,12.364781005859374,-1.5018717124044894,-1.5145236887067555,-1.7809060959279537
1789483547465831200,12.3748310546875,-2.423960838603973,-1.4499609079033136,-1.890250560005009
1789483547475881200,12.384881103515625,-2.4687071583032605,-1.1063953077584505,-1.5261754019252955
1789483547485931300,12.39493115234375,-2.4687749628424642,-0.7483247969210147,-1.0996215758398176
1789483547495980300,12.404980224609375,-2.4593185677111147,-0.30356968984305854,-0.7132961536377668
1789483547506030300,12.4150302734375,-2.360508649390936,0.025593875461816785,-0.36856224036589263
1789483547516080000,12.425080078125,-2.2872329852998257,0.24305180051624772,-0.018218524388223887
1789483547526130200,12.435130126953124,-2.018410199189186,-0.0337497093886137,0.2955105942890048
1789483547536179200,12.44517919921875,-1.900261958670616,-0.342495340564847,0.39830870546251534
1789483547546229200,12.455229248046875,-1.8507856878399849,-0.8679892872214316,0.5766112626925111
1789483547556279300,12.465279296875,-2.7221090879201886,-1.3895447253853082,0.7468486599538475
1789483547566329300,12.475329345703125,-3.7342706992328165,-1.8266455183178185,0.9129721190903335
1789483547576379400,12.48537939453125,-4.814934768885374,-1.9640046552628279,0.8046531986687332
1789483547586428200,12.49542822265625,-5.791434699708223,-2.0167542486757037,0.5599642984699458
1789483547596478200,12.505478271484375,-4.465985722136497,-2.192400153917074,0.34677798632010814
1789483547606528500,12.515528564453126,-1.5246854556284843,-1.962365071362257,0.5776395828269422
1789483547616578600,12.52557861328125,1.3677087411522864,-1.6335539727568626,0.43294513455778355
1789483547626627600,12.535627685546874,3.066405632688105,-1.1988421207875013,0.31434198987856504
1789483547636677400,12.545677490234375,4.041908076906204,-0.6592419073671102,0.24774222335480153
1789483547646727700,12.555727783203125,4.220453502981364,0.09625088148713111,0.3048465048458427
1789483547656777700,12.56577783203125,4.0196471452593805,1.1065741714566946,0.36474458177387714
1789483547666826500,12.575826416015625,4.214349048626422,1.4543535899043083,-0.38881577771306036
1789483547676876500,12.58587646484375,2.9292347117915747,1.0582429790079593,-1.6134490501001477
1789483547686926600,12.595926513671875,0.26497341720610856,0.6858312236070633,-1.893768943389505
1789483547696976600,12.6059765625,-1.0805424890995026,-0.16584347315132617,-2.1430331886798144
1789483547707026400,12.6160263671875,0.40747810034602877,-0.7284662502408027,-2.204723044395447
1789483547717075700,12.62607568359375,1.4661854819953442,-0.7681850971668959,-1.0857619042482227
1789483547727125800,12.636125732421876,1.533905850046873,-0.7304027712613343,0.41034908920507873
1789483547737175800,12.64617578125,0.9995710098087787,-1.090233862030506,1.6815759531259535
1789483547747225600,12.6562255859375,0.6073991996660828,-1.705574083828926,2.2303911541372536
1789483547757275600,12.666275634765626,0.5894114152938127,-2.4247084421008824,1.6278195207580923
1789483547767324700,12.67632470703125,0.5623778624176978,-2.5368957283884286,0.8393206074241548
1789483547777374500,12.68637451171875,0.6610726299256086,-1.8921674995422362,0.5976246419636533
1789483547787424500,12.696424560546875,1.0358797560304402,-1.3681874645799397,0.6110030328443273
