time,seconds_elapsed,z,y,x
1789692868736637000,0.048636962890625,-1.4504144968897104,-0.03102437607795,-0.2148583370152861
1789692868746601700,0.058601806640625,-1.4047417099952697,-0.23390578650832175,-0.5539359050258994
1789692868756566800,0.06856689453125,-1.2561369564145803,-0.2679232069224119,-0.6773672735791653
1789692868766531800,0.07853173828125,-1.1257727929234504,-0.04090571862310171,-0.6879300225172191
1789692868776497000,0.088496826171875,-0.749946845164895,0.29484891550987957,-0.4484236395228654
1789692868786462000,0.0984619140625,-0.39402386775016784,0.4474129281103611,-0.1134115673854947
1789692868796426800,0.1084267578125,-0.2248106259047985,0.3122612380817532,0.07870813746862113
1789692868806391800,0.118391845703125,-0.103584293115139,0.19124211830198765,-0.15537731645554304
1789692868816356900,0.12835693359375,0.4782990647614002,0.20428952366262673,-0.381561568801105
1789692868826322000,0.138322021484375,0.578181580749154,0.6657160718172789,0.1859767451196909
1789692868836286700,0.14828662109375,-0.04365910898447036,0.9260062996432185,0.5242389781594277
1789692868846250800,0.158250732421875,-0.8755354648172855,0.39809740079939365,-0.0800695620149374
1789692868856215800,0.1682158203125,-1.460068460419774,-0.40492870812416076,-1.1231076653674243
1789692868866180900,0.178180908203125,-2.454205754742026,-1.135510927605629,-2.184534096717089
1789692868876146000,0.18814599609375,-3.2736201038867234,-1.3775517975136637,-2.0423264968276023
1789692868886110700,0.19811083984375,-3.947358154118061,-1.3317013159647584,-1.5748177061498163
1789692868896075800,0.20807568359375,-3.4549130751043555,-0.962738531973958,-0.0365425549775362
1789692868906040800,0.218040771484375,-2.497660865586996,0.4788721884742379,2.661659587654471
1789692868916006000,0.228005859375,-2.8713784428894518,0.3455746018797159,3.079670772452652
1789692868925970700,0.237970703125,-3.518784951034188,0.46674072891473767,3.4678640343531963
1789692868935935700,0.247935791015625,-3.102504827812314,0.22960662800967693,3.7650872777789828
1789692868945899800,0.257899658203125,-2.9087971961796284,0.0018237082958221435,4.074643056294322
1789692868955864800,0.26786474609375,-3.2682764047712087,0.22715105155110357,4.451441648477315
1789692868965830000,0.277829833984375,-3.955619201985001,0.06327391003668308,4.825954760071635
1789692868975794700,0.287794677734375,-4.009813148987293,-0.5525476655378937,5.370136456063389
1789692868985759700,0.297759765625,-2.6875807953745126,-1.6133987812176347,4.741961302611232
1789692868995724800,0.307724853515625,-1.3076292432427405,-2.185954923300445,3.9237212579429146
1789692869005689900,0.31768994140625,-2.4941332759827373,-2.1477964575588704,4.172494358715415
1789692869015655000,0.327655029296875,-4.149928306642175,-2.5984242560625073,4.318076549604535
1789692869025619700,0.33761962890625,-4.732772033983469,-3.0496511895030736,4.214124592220783
1789692869035585000,0.3475849609375,-4.691191484838724,-2.955426260885596,4.229042759889364
1789692869045549800,0.3575498046875,-4.25985992295742,-2.995551642785966,4.408440126618743
1789692869055513900,0.367513916015625,-3.8397587801426645,-3.2708409945622083,4.493077142679691
1789692869065479000,0.37747900390625,-3.5557243963748215,-3.230276052200794,4.191100859507918
1789692869075443700,0.387443603515625,-3.0597651717603207,-3.0834733796060085,3.3320337144106627
1789692869085409000,0.397408935546875,-2.3770775068759917,-3.1115272154405713,2.0091998877733945
1789692869095373800,0.407373779296875,-1.8517647620052098,-3.6552965312391517,0.9557692774832248
1789692869105339000,0.4173388671875,-2.0333774666965008,-3.8828877277731895,0.2522293787062168
1789692869115303700,0.4273037109375,-1.61890000898242,-2.838862951470911,-0.3369569956600666
1789692869125269000,0.43726904296875,1.161912027797103,-1.9405724878795443,1.4339169510751961
1789692869135233800,0.44723388671875,1.3916302994877099,-2.107353241880983,0.9268529796004294
1789692869145198800,0.45719873046875,-0.5720411782979965,-2.1871092079021035,1.7052146028667687
1789692869155163600,0.46716357421875,-1.0747183129906654,-2.388345043082535,1.5916823317110538
1789692869165127700,0.477127685546875,-0.973941478511691,-3.2119676575720306,-0.31972529035210606
1789692869175093000,0.487093017578125,-0.7875126057103276,-3.837876327396929,-1.5870073256373405
1789692869185057800,0.497057861328125,-0.06902268282175064,-3.003698708884418,-1.5511562600553035
1789692869195022800,0.50702294921875,0.854517811229825,-2.2732326631285247,-1.3814479281693697
1789692869204987600,0.516987548828125,1.4651584770351647,-2.234868884073198,-2.006630914068222
1789692869214953000,0.526952880859375,1.4279732402399181,-1.9569117743924258,-2.0385610068142412
1789692869224918000,0.53691796875,1.1563453335806726,-1.7382634705096482,-1.4629086522817611
1789692869234882800,0.5468828125,0.8092837080135941,-1.7283339049085973,-0.7646884872227907
1789692869244847900,0.556847900390625,0.4844944122701883,-1.7644386529907583,-0.29987025080323215
1789692869254812700,0.566812744140625,0.36448739214241505,-2.0118352047130466,-0.277591198977828
1789692869264777000,0.57677685546875,-0.16869769353866576,-2.603778184311092,-0.8609042973965406
1789692869274742000,0.586741943359375,-0.6110600602611899,-3.3107188314422964,-1.448156488829851
1789692869284706800,0.596706787109375,-0.24381007153764367,-3.660331602796912,-1.7336603606283663
1789692869294672000,0.606671875,-0.14530805012285708,-3.5008541575461622,-2.480993223902583
1789692869304636700,0.61663671875,0.2213292135298252,-3.1948104788050053,-3.1605636335492133
1789692869314602000,0.62660205078125,0.5902414363771676,-2.8824107090353963,-3.677659169694781
1789692869324566800,0.63656689453125,0.46840953890979287,-2.6780565957039593,-4.031796432736516
1789692869334531800,0.64653173828125,0.358911053314805,-2.4986487075805663,-4.510394188183546
1789692869344496600,0.65649658203125,0.4614869731049984,-2.20702956777215,-5.003159585192799
1789692869354462000,0.6664619140625,0.3157205847553909,-1.9950123724669218,-5.356065845134854
1789692869364426000,0.676426025390625,-0.10321721336841583,-2.066842513924837,-5.940317101186514
1789692869374390800,0.686390869140625,-0.35711306398212905,-2.282884726962447,-6.190901635295153
1789692869384355800,0.69635595703125,-0.15599778644144535,-2.4300632471323014,-6.104919634366035
1789692869394320600,0.706320556640625,0.16463767755813896,-2.2996254338830706,-6.139560155114531
1789692869404286000,0.716285888671875,0.2976799742173403,-2.0964584845095873,-6.5032514284431935
1789692869414250800,0.726250732421875,0.35235615177862345,-1.876772362011671,-6.838634891176223
1789692869424215800,0.7362158203125,0.5166962346296757,-1.6145289542913437,-6.974136417555808
1789692869434180900,0.746180908203125,0.6794581814438104,-1.2282079160034656,-6.983841234490275
1789692869444146000,0.75614599609375,0.79180679577291,-0.8588935420960188,-6.895633958727121
1789692869454111000,0.766111083984375,0.3772614604543894,-0.8012398100286722,-6.762972039687633
1789692869464075800,0.77607568359375,0.42190680399723346,-0.13452712838947772,-6.906682591485977
1789692869474039800,0.786039794921875,1.0040485205490142,0.47094168773591516,-6.816787216505408
1789692869484004600,0.796004638671875,1.0293278501689433,0.5714625016272068,-7.147073063838482
1789692869493970000,0.805969970703125,0.9269119432460516,0.6721808839172124,-6.961615374156832
1789692869503935000,0.81593505859375,0.9934569108426571,0.8355728722631931,-6.705093851214647
1789692869513899800,0.825899658203125,0.8459365184325724,0.9025707712590694,-6.743634886533021
1789692869523864800,0.83586474609375,0.6146166567642242,0.9464940841376781,-6.653674629622698
1789692869533830000,0.845829833984375,0.49174124159328636,0.9830641116440295,-6.370259254536032
1789692869543795000,0.855794921875,0.5269902496289461,0.8367495148271322,-6.22497984598577
1789692869553759700,0.865759765625,0.5841273374110459,0.5432680882781744,-6.293604469400644
1789692869563724800,0.875724853515625,0.5242319638967514,0.38895957009792326,-6.239187819558381
1789692869573688800,0.885688720703125,0.44948798081874847,0.24939152493178843,-6.14502777287066
1789692869583653600,0.895653564453125,0.41035898954458533,0.25613924562633034,-5.867809498858452
1789692869593618700,0.90561865234375,0.28585571744348853,0.29970366206467147,-5.547505531835555
1789692869603583500,0.91558349609375,0.16529983126129955,0.32306407938599585,-5.015645557278394
1789692869613548500,0.925548583984375,0.12696516870260238,0.6276636967986822,-4.066666378326714
1789692869623513600,0.935513671875,0.19453767098234964,0.9880237798780203,-3.0276681980147955
1789692869633478700,0.945478759765625,0.14453178678704426,1.2603005058348178,-1.960676972144842
1789692869643443700,0.955443603515625,0.06273204911178909,1.3344739955484866,-0.9409753207162022
1789692869653408500,0.965408447265625,-0.020987842971086502,1.1495265934765337,-0.20555705938041208
1789692869663373600,0.97537353515625,-0.07864625121355057,1.035520275068283,0.524978690610826
1789692869673338600,0.985338623046875,0.08042319775819778,1.2555752308785915,1.1821662957966328
1789692869683302700,0.995302734375,0.424725295484066,1.6047569173395633,1.5224334389179943
1789692869693267500,1.005267333984375,0.7843371905446052,1.8782038561195133,1.4837018494635819
1789692869703232500,1.015232421875,1.1837830833435057,2.0809037725031376,1.1121151467099786
1789692869713197600,1.025197509765625,1.6783680969953536,2.2074363950073717,0.6466808242186903
1789692869723162600,1.03516259765625,2.094673939180374,2.3369798897653817,0.2672822786703706
1789692869733127700,1.045127685546875,2.302864269673824,2.348094573497772,-0.022405308553576468
1789692869743092500,1.055092529296875,2.368124969613552,2.282567916098237,-0.25010990233421326
1789692869753057500,1.0650576171875,2.168198609596491,2.185501042053103,-0.45591772160530086
1789692869763022600,1.075022705078125,1.8790835615634918,2.042692407530546,-0.6488105297237634
1789692869772987600,1.084987548828125,1.6380957078397274,1.9242355394542217,-0.871506063170731
1789692869782951700,1.09495166015625,1.4558137255847454,1.886263243934512,-1.1397133477315307
1789692869792916500,1.10491650390625,1.3519009311676025,1.850413931918144,-1.6005547894746064
1789692869802881500,1.114881591796875,1.137983382133767,1.8494488862782716,-2.3358406566023824
1789692869812846600,1.1248466796875,0.8300806315224617,1.9183295302808283,-3.058695204441249
1789692869822811600,1.134811767578125,0.6825695183973759,2.208347664633393,-3.56123848362118
1789692869832776400,1.1447763671875,0.5020003679422661,2.5934710175693034,-4.071994003090262
1789692869842741500,1.154741455078125,0.3402303913075477,3.1195816348195073,-4.458170956732332
1789692869852706600,1.16470654296875,0.19941892195157707,3.6105607329338785,-4.860064827205241
1789692869862671600,1.174671630859375,0.04850479544997215,4.010796314805746,-5.274674094605445
1789692869872636700,1.18463671875,-0.0713373529722914,4.254596303340793,-5.636394360122084
1789692869882601500,1.1946015625,-0.0909878463923931,4.40920877290368,-5.922924067836999
1789692869892565500,1.2045654296875,0.0879459214132279,4.443417916497588,-5.995991057613492
1789692869902530600,1.214530517578125,0.5202092842519283,4.31424500861764,-5.898505081373453
1789692869912495600,1.22449560546875,1.116748943990469,4.106571395474672,-5.670809255421161
1789692869922460700,1.234460693359375,1.6836638653159142,3.876745571756363,-5.365488922518492
1789692869932425500,1.244425537109375,2.1754490191161633,3.6982179735988376,-4.918302204379439
1789692869942390800,1.254390869140625,2.452859600830078,3.5760809557050464,-4.516378523290157
1789692869952355600,1.26435546875,2.345146245086193,3.520927223759889,-4.238163639456033
1789692869962320600,1.274320556640625,1.8925661434710024,3.4858570794224737,-3.9325305873423813
1789692869972285400,1.284285400390625,1.3183271628677844,3.365382441782951,-3.5888019055902958
1789692869982250800,1.294250732421875,0.7529284913241863,3.2300439970105885,-3.287511266595125
1789692869992214800,1.30421484375,0.27861705316053703,3.0953046871751546,-2.9689339772343635
1789692870002179600,1.3141796875,-0.036280104649066926,2.9111037195563316,-2.654113994580507
1789692870012144600,1.32414453125,-0.08750526497364043,2.675636675080657,-2.4893887118041516
1789692870022109400,1.334109375,0.007379004335403442,2.314619589397311,-2.423810616478324
1789692870032074800,1.34407470703125,0.2557259886503219,1.830456601038575,-2.3334224895447493
1789692870042039600,1.35403955078125,0.5723451296806336,1.3534656962662934,-2.3258915095180273
1789692870052004600,1.364004638671875,0.7402502115368843,0.917047624900937,-2.332400745281577
1789692870061969400,1.373969482421875,0.759760383170843,0.3438052541196346,-2.4180185890734194
1789692870071934700,1.383934814453125,0.6635726300477981,-0.24382804558575152,-2.426570144319534
1789692870081899500,1.3938994140625,0.499383353844285,-0.659177025437355,-2.2398557325750588
1789692870091864600,1.403864501953125,0.2778021931136958,-1.0700240176945923,-1.9435925663530826
1789692870101828600,1.41382861328125,-0.06370704075694084,-1.4359043255001305,-1.5668109253048896
1789692870111793400,1.42379345703125,-0.4664829547613859,-1.8463263703435657,-1.1985697335869072
1789692870121758700,1.4337587890625,-0.8406482758313417,-2.4581074383556842,-0.8934913927465676
1789692870131723500,1.4437236328125,-1.028106783941388,-3.1912831814616918,-0.6016659167110919
1789692870141688600,1.4536884765625,-1.0572428620547056,-3.887310220390558,-0.25770401072502136
1789692870151653600,1.463653564453125,-0.9477280098468065,-4.281797613999247,0.163510646289587
1789692870161618400,1.473618408203125,-0.8613964648276567,-4.587424236372113,0.5581903475999832
1789692870171583700,1.483583740234375,-0.7843271806072444,-4.935207161951065,0.7691337761938571
1789692870181548500,1.493548583984375,-0.6732955671608447,-5.081240019217133,0.9615963762015104
1789692870191513600,1.503513671875,-0.5069330385714769,-4.957323132169247,1.1502484780102968
1789692870201477600,1.5134775390625,-0.276973943862319,-4.593505017590522,1.2014917585134506
1789692870211442400,1.5234423828125,-0.05314356116652488,-4.112907028236985,0.9317968657433986
1789692870221407700,1.53340771484375,0.04274608579277992,-3.6160125685989857,0.43065234744548797
1789692870231372500,1.54337255859375,-0.01160977377295494,-3.1437709041804074,-0.08433715633153915
1789692870241337600,1.553337646484375,-0.15841602656431494,-2.83154561419487,-0.6159206520348787
1789692870251302400,1.563302490234375,-0.34199199415259063,-2.604989605927467,-0.915590996351838
1789692870261267700,1.573267822265625,-0.39949908429086206,-2.2207740154862403,-0.967257470703125
1789692870271232500,1.583232421875,-0.30797468333635475,-1.5917776087790727,-0.8454384327173232
1789692870281197600,1.593197509765625,-0.13570260190963745,-1.0025099858701227,-0.658278030771017
1789692870291162400,1.603162353515625,0.10964110893607139,-0.6497638849258422,-0.5502759212136268
1789692870301126400,1.61312646484375,0.37203590782582757,-0.6044488254278898,-0.5253004699110985
1789692870311091700,1.623091796875,0.6622755759745836,-0.8478829032599926,-0.5727776758790016
1789692870321056500,1.633056396484375,0.9203169288951903,-1.338714117336273,-0.61752224201262
1789692870331021600,1.643021484375,1.063094510692358,-2.120212285062671,-0.5655792888075113
1789692870340986400,1.652986328125,1.0291706137806176,-2.933540300031006,-0.17657178791463374
1789692870350951700,1.66295166015625,0.7246300330787897,-3.5113808122575283,0.4798825345605611
1789692870360916700,1.672916748046875,0.3919452713778242,-3.7347087983891365,1.2100760469853877
1789692870370881500,1.682881591796875,0.16298925276398657,-3.6388758500531315,1.9263427408665417
1789692870380846600,1.6928466796875,-0.13822832099497318,-3.320762963333726,2.5160949324220416
1789692870390811600,1.702811767578125,-0.4586492289284244,-2.9101038948640228,2.8788778587341306
1789692870400775700,1.712775634765625,-0.7689858921557664,-2.413529168699682,2.9071412456661463
1789692870410740700,1.72274072265625,-0.9673750326681881,-1.8513351384162902,2.665496389338374
1789692870420705500,1.73270556640625,-0.8779425259590148,-1.2640773940250276,2.3333599457025525
1789692870430670600,1.742670654296875,-0.5509942986160516,-0.6638055620208382,2.0164567270338534
1789692870440635600,1.7526357421875,-0.23812431751880794,-0.1780357229873538,1.721076188865304
1789692870450600700,1.7626005859375,0.04805179098546505,0.19261194535046816,1.508970730754733
1789692870460565500,1.7725654296875,0.2892512781659141,0.5374824906140565,1.398435303327441
1789692870470530600,1.782530517578125,0.4530980245420709,0.84506229288131,1.356562493237853
1789692870480495600,1.79249560546875,0.518615293058753,1.1113967693075537,1.3991402367264032
1789692870490460700,1.802460693359375,0.5424158553630113,1.366014212194085,1.586314667198062
1789692870500425500,1.812425537109375,0.5375415273249149,1.5498092293605208,1.8691992964088915
1789692870510389500,1.822389404296875,0.44251982230655845,1.7084817879691718,2.208918157997727
1789692870520354600,1.8323544921875,0.34049927137680347,1.838161184066534,2.5617571979224683
1789692870530319600,1.842319580078125,0.20140293537564574,1.906526572023332,2.8435201296269894
1789692870540284700,1.85228466796875,0.05132920522093773,1.8522244884714483,3.0167502058982847
1789692870550249500,1.86224951171875,-0.06982464685440062,1.7661963103130458,3.1765111442655325
1789692870560214500,1.872214599609375,-0.21066526923961937,1.7034467164114118,3.2722008847385644
1789692870570179600,1.8821796875,-0.3619290859617293,1.5927037837132811,3.2779519956111907
1789692870580143900,1.892143798828125,-0.5435873102951795,1.4236772966116666,3.2008699249744414
1789692870590109000,1.90210888671875,-0.7622364178955554,1.2367606402933597,3.0227105756074186
1789692870600074000,1.912073974609375,-0.9289718714505434,1.0548580127447842,2.7742455178707837
1789692870610038000,1.9220380859375,-1.1292881806332618,0.7915972446754574,2.5063421846926213
1789692870620003000,1.932003173828125,-1.3544992770977318,0.46097120560258625,2.3177385982006786
1789692870629968000,1.9419677734375,-1.5852935074567793,0.04522358182221651,2.19279996688962
1789692870639933000,1.951932861328125,-1.6907409640952944,-0.43416210913211106,2.1252894421964883
1789692870649898000,1.96189794921875,-1.6522651029676199,-0.8817641300737857,2.1508821486145258
1789692870659863000,1.971863037109375,-1.5164572871178388,-1.3534455302610993,2.1448621576726437
1789692870669827800,1.981827880859375,-1.2844580648832022,-1.851790480968356,2.127382615083456
1789692870679793000,1.99179296875,-0.9400485612601042,-2.27948514765203,2.054016934621334
1789692870689758000,2.001758056640625,-0.5865962117426097,-2.6226664246544242,1.8526438829272984
1789692870699723000,2.011722900390625,-0.30825448665842414,-2.9708143841534853,1.538053617376089
1789692870709688000,2.02168798828125,-0.07615501891970634,-3.2390979488208886,1.157083292466402
1789692870719651800,2.03165185546875,0.10850589436106384,-3.33918124807775,0.8223580013811588
1789692870729617000,2.041616943359375,0.2116383520554751,-3.4160683806642886,0.42043841194510456
1789692870739582000,2.05158203125,0.11267243945598601,-3.817536719201505,-0.1327852531582117
1789692870749547000,2.061547119140625,-0.11039411926046014,-4.358545338115096,-0.5599684631884098
1789692870759512000,2.071511962890625,-0.26752324781939385,-4.954679339662194,-0.8217302248716354
1789692870769476900,2.081476806640625,-0.3632032706160098,-5.44583730147481,-1.048541669204831
1789692870779442200,2.091442138671875,-0.4579150329023599,-5.713243791046739,-1.2028209612905978
1789692870789407000,2.101406982421875,-0.5157563964962959,-5.824111811429262,-1.2654115652382374
1789692870799372000,2.1113720703125,-0.6306611981142312,-5.732839302876592,-1.1237059235215185
1789692870809336800,2.1213369140625,-0.6840215438365936,-5.402492080745101,-0.8188608069151639
1789692870819300900,2.13130078125,-0.6758137605268508,-5.0188984215945,-0.60952130638659
1789692870829266200,2.14126611328125,-0.49677879736907776,-4.4387353116393085,-0.43100481414496894
1789692870839231000,2.15123095703125,-0.17225275567173956,-3.614237960141897,-0.2630477098405361
1789692870849196000,2.161196044921875,0.23521219293177126,-2.73255040243566,-0.29608839417696
1789692870859160800,2.171160888671875,0.5894120728809387,-1.8895079249441622,-0.42064474817216396
1789692870869126000,2.1811259765625,0.7269692896813154,-1.178446983012557,-0.6335673678845167
1789692870879091000,2.191091064453125,0.6643219871103763,-0.7672025158703327,-1.0782862346053124
1789692870889056000,2.201055908203125,0.5169020594000816,-0.5472510204344988,-1.552904565027356
1789692870899020800,2.211020751953125,0.2579950295608491,-0.4279840050190687,-1.9330904615610838
1789692870908985900,2.22098583984375,-0.09001056232545525,-0.34547289507091045,-2.080086610901356
1789692870918950000,2.230949951171875,-0.4943079502761364,-0.2789011125326156,-1.8271324250519274
1789692870928915000,2.2409150390625,-0.8613263222008943,-0.21016426091492174,-1.2217407658159731
1789692870938880000,2.2508798828125,-1.084379875305295,-0.08843290121257305,-0.4991033678591251
1789692870948844800,2.2608447265625,-1.1915829434394836,0.09591770401000976,0.1954571056485176
1789692870958809900,2.270809814453125,-1.2317945423185825,0.27014322105944155,0.8186638230383396
1789692870968775000,2.28077490234375,-1.1706909620583057,0.46505438326299187,1.3257587741732597
1789692870978740000,2.290739990234375,-1.0635936923861502,0.6783569422036408,1.721081449562311
1789692870988705000,2.300705078125,-0.8927829522162676,0.9032663523077964,1.9872908383041619
1789692870998669800,2.310669921875,-0.6713029320389032,1.1525772132188081,2.1552678163528443
1789692871008635100,2.32063525390625,-0.35930209845900535,1.414358848646283,2.1976807246685026
1789692871018600000,2.330599853515625,0.046174872931372374,1.6809879241049288,2.0764152289122344
1789692871028564000,2.34056396484375,0.4517606019258499,1.9474451501280068,1.906153354796767
1789692871038529000,2.350529052734375,0.7976058374404906,2.1824948459744453,1.7957891922831535
1789692871048493800,2.360493896484375,1.0519114378988743,2.3281921876758336,1.6365905639737843
1789692871058459100,2.370459228515625,1.2684966717720032,2.434438977998495,1.458585528385639
1789692871068424000,2.380423828125,1.4353268178731202,2.5687591856390237,1.351169109761715
1789692871078389000,2.390388916015625,1.5582728140622377,2.676653158646822,1.2607985184848307
1789692871088353800,2.400353759765625,1.5894523807018994,2.72173324034512,1.1442477762907743
1789692871098319000,2.410319091796875,1.5523592061042786,2.790723774462938,1.0544581997722386
1789692871108284000,2.420283935546875,1.5576631577312945,2.9133079516023397,0.8856775041252374
1789692871118249000,2.4302490234375,1.5866028364896774,3.0224820275485516,0.646301177251339
1789692871128213000,2.440212890625,1.5654349607765674,3.1397675137579437,0.3108826432049274
1789692871138177800,2.450177734375,1.512193199932575,3.2585996448874472,-0.1456739608258009
1789692871148143000,2.46014306640625,1.4429589201867579,3.3609973585665225,-0.6025976446032524
1789692871158108000,2.47010791015625,1.329452952516079,3.34315424336195,-1.0602829604029655
1789692871168073000,2.480072998046875,1.20785252571702,3.235107710140943,-1.5071628045499323
1789692871178037800,2.490037841796875,1.0877636725246906,3.1034353866606947,-1.9397025731772184
1789692871188003000,2.500003173828125,1.0610779101729393,2.931401826697588,-2.24406779731214
1789692871197968100,2.509968017578125,1.103175176668167,2.721387203386426,-2.4776222861647605
1789692871207933000,2.519932861328125,1.1591466547369955,2.5206734923839567,-2.6911259206354616
1789692871217898000,2.52989794921875,1.2922200771868229,2.3601304637283085,-2.890049241089821
1789692871227863000,2.539863037109375,1.402051740258932,2.25451261895895,-3.233823515549302
1789692871237827000,2.5498271484375,1.4148095150232314,2.153233095654845,-3.6645588651031256
1789692871247792000,2.559792236328125,1.3704291060268878,2.1224580181628463,-4.161307778790593
1789692871257757000,2.5697568359375,1.2680746469676494,2.174903075671196,-4.715868829977512
1789692871267722000,2.579721923828125,1.0958674840033054,2.160805576735735,-5.288551813310384
1789692871277687000,2.58968701171875,0.8988964666604995,2.061118875581026,-5.839758293372392
1789692871287652000,2.599652099609375,0.7257365330159664,1.909637105259299,-6.323155558055639
1789692871297617000,2.609616943359375,0.5479682287931442,1.592149949222803,-6.803492850646376
1789692871307582000,2.61958203125,0.3784183023393154,1.0573287867724894,-7.340847915488481
1789692871317546800,2.629546630859375,0.2108394019638188,0.33120296217799183,-7.853318129920959
1789692871327512000,2.639511962890625,0.10112113613830878,-0.43628070872128005,-8.217084806573391
1789692871337476000,2.64947607421875,0.1325321551799774,-1.0790665713280438,-8.37184457565248
1789692871347441000,2.65944091796875,0.308688348031044,-1.4091244551241398,-8.378740180385112
1789692871357406000,2.669406005859375,0.5730804582178592,-1.4228601350098848,-8.422315118217467
1789692871367370800,2.679370849609375,0.8616577461123466,-1.1620528975725173,-8.37303816935122
1789692871377336000,2.689336181640625,1.1391957535982131,-0.5552957952022552,-8.13537975231111
1789692871387300900,2.69930078125,1.2794845142543314,0.33531565819382664,-7.832500967341661
1789692871397266000,2.709265869140625,1.3009060724675654,1.13261812877357,-7.584296021845937
1789692871407231000,2.71923095703125,1.3102829726219176,1.588923388391733,-7.49111446480155
1789692871417196000,2.729196044921875,1.4011831407308577,1.7604706261426208,-7.324501176321506
1789692871427161000,2.7391611328125,1.6600468428850172,1.561974006667733,-7.02234486040771
1789692871437124900,2.749124755859375,1.974664580965042,0.809772660574317,-6.693471217960119
1789692871447090000,2.75908984375,2.2481705564558503,-0.3263905934602022,-6.130751410236955
1789692871457055000,2.769054931640625,2.2733856617331503,-1.5603168871104716,-5.406460984376072
1789692871467020000,2.77902001953125,2.1835107450187206,-2.614354231122136,-4.504854674234986
1789692871476985000,2.788985107421875,2.1872657136380673,-3.1876895408838983,-3.336635655248165
1789692871486950000,2.798949951171875,2.2113667201936242,-3.1542870374977587,-2.1130098063379523
1789692871496915000,2.8089150390625,2.0776105761766432,-2.716688816437125,-1.168006837540865
1789692871506880000,2.8188798828125,1.595980905687809,-2.1776310393303633,-0.6242232009559869
1789692871516845000,2.828844970703125,0.9485422488391398,-1.6951204943537712,-0.5895879409044981
1789692871526809900,2.838809814453125,0.34576281792819497,-1.249382221457362,-0.9093950643211602
1789692871536775000,2.84877490234375,0.0017792891987832263,-0.8548878135859965,-1.3432599440723656
1789692871546739000,2.858739013671875,0.04658639460802078,-0.4382306737452745,-1.6728402734845875
1789692871556704000,2.8687041015625,0.26163667399883267,-0.10524725789129734,-1.8184300631582735
1789692871566669000,2.8786689453125,0.4264589874088764,0.09435060082376003,-1.7749492333501575
1789692871576633900,2.8886337890625,0.5887444758176803,0.11829261742532253,-1.5532693066865204
1789692871586599400,2.898599365234375,0.721274292910099,0.09609832127392291,-1.2364660412609576
1789692871596564200,2.908564208984375,0.8341174127578734,0.06188683959245681,-0.8400579087227582
1789692871606529500,2.918529541015625,0.8163152140855788,-0.0552080924808979,-0.4259311641424894
1789692871616494300,2.928494384765625,0.7616296841740607,-0.2457902855694294,-0.018823358413577077
1789692871626459400,2.93845947265625,0.7077765134334564,-0.45622401107549665,0.45884325366318224
1789692871636424200,2.948424072265625,0.6118623896200209,-0.7218944706350564,0.9392442591398954
1789692871646388200,2.95838818359375,0.4752268177092075,-1.0762544365167617,1.3267512923419476
1789692871656353500,2.968353515625,0.41463527862429617,-1.492331146121025,1.6875830845862625
1789692871666318300,2.978318359375,0.480598500810191,-1.879752546866238,2.0980244186520576
1789692871676283400,2.988283447265625,0.5092962240388617,-2.2592878705367445,2.5278508366674184
1789692871686248200,2.998248291015625,0.5104126973807811,-2.680004807162285,2.954680410954356
1789692871696213500,3.008213623046875,0.5051227742791176,-3.075510730163753,3.3814152926951646
1789692871706178300,3.01817822265625,0.4531038697609678,-3.4685628302723166,3.757541100183129
1789692871716143400,3.028143310546875,0.37892800542712207,-3.9097783650472757,4.167045445659756
1789692871726108400,3.0381083984375,0.2909831982587464,-4.285139325642586,4.5903696421742435
1789692871736073200,3.0480732421875,0.21750059515237807,-4.56002214244455,5.014745393568277
1789692871746038500,3.05803857421875,0.1070972788053099,-4.79466033488065,5.418877982878684
1789692871756002300,3.068002197265625,-0.030826510851713826,-4.991758485734462,5.753349006941915
1789692871765967400,3.07796728515625,-0.12109656893014907,-5.125220615240932,6.067649349635839
1789692871775932400,3.087932373046875,-0.19948095433712004,-5.245778839510679,6.310872999587655
1789692871785897500,3.0978974609375,-0.27004268329441544,-5.280889900380373,6.507552340507507
1789692871795862500,3.107862548828125,-0.26583412568867204,-5.318726586821675,6.6109361426144835
1789692871805827300,3.117827392578125,-0.2085544876307249,-5.303662288680672,6.659831398686766
1789692871815792400,3.12779248046875,-0.08803308824002742,-5.278773346617817,6.6121712373673915
1789692871825757200,3.137757080078125,0.14561201977180316,-5.272989502519369,6.4197963156431905
1789692871835722500,3.147722412109375,0.4513976138323545,-5.339319877517223,6.155922091850638
1789692871845687300,3.157687255859375,0.7496808877050877,-5.3895291387975215,5.9342597008436915
1789692871855652400,3.16765234375,1.0220692573428154,-5.565502960819005,5.661158214500546
1789692871865616400,3.177616455078125,1.2382500020682812,-5.883640689718723,5.405099632894992
1789692871875581200,3.187581298828125,1.4179630106180905,-6.341254109326004,5.101040113708376
1789692871885546500,3.19754638671875,1.4989023412048816,-6.9615253577858205,4.737574465829134
1789692871895511300,3.20751123046875,1.433205003413558,-7.569744349402189,4.505299495393038
1789692871905476400,3.217476318359375,1.1882844864159823,-8.062536049896478,4.402149502041936
1789692871915441200,3.227441162109375,0.9266535845708102,-8.36173643861413,4.400307673567533
1789692871925406500,3.237406494140625,0.7393336081486195,-8.447611472037433,4.346871266934276
1789692871935371500,3.24737158203125,0.6303045666962862,-8.217745900830627,4.279354312500358
1789692871945336300,3.25733642578125,0.5880331126779318,-7.67483670899272,4.140924915975332
1789692871955301400,3.26730126953125,0.5916753416378051,-7.0391901967465875,3.6712539788275955
1789692871965265200,3.27726513671875,0.6197779850501567,-6.372448289012908,2.961898087248206
1789692871975230500,3.28723046875,0.586410552977398,-5.8457005429029465,1.9928250915557144
1789692871985195500,3.297195556640625,0.3863713071703911,-5.546921009945869,0.8448305299520492
1789692871995160300,3.307160400390625,0.14487966864295304,-5.457999448433518,-0.24032091424763202
1789692872005125400,3.31712548828125,-0.06516370583865791,-5.508807844650745,-1.2864672127485275
1789692872015090400,3.32709033203125,-0.2879243769437074,-5.5362482247620814,-2.0777040996789933
1789692872025055500,3.337055419921875,-0.5135614437352866,-5.383486351501942,-2.5427520532011982
1789692872035020300,3.347020263671875,-0.7841998279005289,-4.97497803132534,-2.610302909904718
1789692872044985300,3.3569853515625,-1.0875275987464934,-4.274978873895108,-2.320604509025812
1789692872054950400,3.366950439453125,-1.396132287082076,-3.3928426956385374,-1.8915104969382286
1789692872064915500,3.37691552734375,-1.6823644731551408,-2.520354927954078,-1.5472732811421155
1789692872074879500,3.38687939453125,-1.8991098660260437,-1.7117016267985103,-1.3178162907361983
1789692872084844300,3.39684423828125,-1.9657289948374033,-0.9821242004454135,-1.1352508153647183
1789692872094809300,3.406809326171875,-1.9664765983343124,-0.3252478531658649,-0.9045271660238504
1789692872104774400,3.4167744140625,-1.8936586148828267,0.2536158646285534,-0.5974269639670848
1789692872114739500,3.426739501953125,-1.7187100442558525,0.7184744330585002,-0.3519493976086378
1789692872124704300,3.436704345703125,-1.497185600414872,1.0173229395985603,-0.13314531864225865
1789692872134669300,3.44666943359375,-1.222820962268114,1.1988684242725371,0.12434358802735805
1789692872144634400,3.45663427734375,-0.9255747032929211,1.2904799555212259,0.39277240638434885
1789692872154599400,3.466599365234375,-0.6390244642466306,1.2951239819347857,0.712736181667447
1789692872164564500,3.476564453125,-0.39797523572444915,1.2494599628686904,1.0175222615629433
1789692872174529300,3.486529296875,-0.17760588020272552,1.1681401085317134,1.2611024698674678
1789692872184493300,3.496493408203125,0.04185176730155945,1.122526358348131,1.5243740515917539
1789692872194458400,3.506458251953125,0.278506487191841,1.0978852535665033,1.732443386054039
1789692872204423400,3.51642333984375,0.5202976201225071,1.0667699843347072,1.8545201981931925
1789692872214388500,3.526388427734375,0.7760930207472294,1.055231522232294,1.8720938488066194
1789692872224353300,3.536353271484375,1.0128022473037241,1.1003799929916858,1.8037194007605313
1789692872234318300,3.546318359375,1.2648767277091741,1.094838725477457,1.5256909794092177
1789692872244283400,3.556283447265625,1.5092846190094946,1.0559656817257403,1.025281789648533
1789692872254248400,3.56624853515625,1.7445353903859853,1.1504396166682243,0.4334738346070051
1789692872264213200,3.576213134765625,1.9466344182670114,1.2654992435216903,-0.18995149396955965
1789692872274178300,3.58617822265625,2.0869740323275328,1.3012030095875262,-0.966115899452567
1789692872284142300,3.596142333984375,2.1670050158977507,1.233190380591154,-1.8060323538780212
1789692872294107400,3.606107421875,2.2452608064889907,1.192837327414751,-2.5417373232007026
1789692872304072400,3.616072509765625,2.3241619092464445,1.1026444307923315,-3.38781989904046
1789692872314037200,3.626037353515625,2.273638175189495,0.9302566505640745,-4.35764225179553
1789692872324002300,3.636002197265625,2.1434113743424414,0.8213900331318378,-5.295089690646529
1789692872333967400,3.64596728515625,2.050288854008913,0.7880167558401823,-6.185128897112608
1789692872343932400,3.655932373046875,1.9555121367275714,0.7681254759341478,-7.044970533713698
1789692872353897200,3.665897216796875,1.8797756354808806,0.7874836718767881,-7.771319645670056
1789692872363862300,3.6758623046875,1.9929870041191577,0.9268529796004294,-8.498013041019439
1789692872373827600,3.68582763671875,2.3016508022308346,1.1601432645589111,-9.383512850490211
1789692872383792400,3.69579248046875,2.5612042402148245,1.5643150168359279,-10.177702157485484
1789692872393756400,3.70575634765625,2.835841850084066,1.9688912582606075,-10.874938572204112
1789692872403721200,3.71572119140625,2.986958294224739,2.1066087071239945,-11.521405753672122
1789692872413686300,3.725686279296875,2.9603356602370736,1.8317179992765187,-12.227442729961872
1789692872423651600,3.735651611328125,2.828628849965334,1.5371294882684945,-12.615623716902732
1789692872433616400,3.745616455078125,2.8648084168493746,1.0204226591795682,-12.887931422519683
1789692872443581400,3.75558154296875,2.9460499452531335,0.4121200809329748,-13.052889345008134
1789692872453546200,3.765546142578125,3.0372622480511664,0.030830607071518898,-12.94858608996868
1789692872463511600,3.775511474609375,3.0183482887446877,-0.15449848779439926,-12.743373313981294
1789692872473476400,3.785476318359375,2.8265315854251383,0.46165363490879535,-11.936251460176706
1789692872483441400,3.79544140625,2.8548341353237627,1.4379372926324605,-10.856271281135081
1789692872493405400,3.805405517578125,2.796936073106527,2.0914619913965464,-10.059406617450714
1789692872503370200,3.815370361328125,2.665576468837261,2.4156045136690136,-9.456813649022578
1789692872513335600,3.82533544921875,2.4239468100786206,2.433494975146651,-8.775691918280721
1789692872523300400,3.83530029296875,2.1606664605259893,2.1118629743903874,-8.054730344581603
1789692872533265400,3.845265380859375,1.946256817126274,1.314004623493552,-7.434880536404251
1789692872543230200,3.855230224609375,1.7460288438141345,0.11204290938079356,-6.980827439627051
1789692872553195500,3.865195556640625,1.5379764604866504,-1.0705670385301111,-6.305405381831527
1789692872563160300,3.875160400390625,1.3859908322960137,-2.0838217057764528,-5.372047258120775
1789692872573125400,3.88512548828125,1.245833589065075,-2.707737448218465,-4.215856822840869
1789692872583090700,3.895090576171875,1.1737906816393135,-2.8306255767405033,-3.018915274977684
1789692872593056000,3.905055908203125,1.117252144272253,-2.5958131967812776,-1.9498440279632805
1789692872603020000,3.91502001953125,0.901814399933815,-2.3100386913478372,-1.2565285860806703
1789692872612984800,3.92498486328125,0.5979471153836697,-2.0401661039233208,-0.9268529796004294
1789692872622950000,3.934949951171875,0.39477147124707695,-1.7772674471646546,-1.080437275159359
1789692872632914700,3.944914794921875,0.35979441202059387,-1.499696121931076,-1.5271131211668252
1789692872642880000,3.9548798828125,0.4681991110295057,-1.112416467744112,-1.8506500787615774
1789692872652844800,3.9648447265625,0.5648065508693456,-0.8343465453386306,-2.0535218445807693
1789692872662809900,3.974809814453125,0.6108481710761785,-0.7093564761012792,-2.183372213330865
1789692872672775000,3.98477490234375,0.6959136416822671,-0.6614180823624134,-2.164501508644223
1789692872682740000,3.994739990234375,0.7984206609547138,-0.6843944688022137,-2.030428553763032
1789692872692705000,4.004705078125,0.9057844726085662,-0.7640233013123273,-1.8778239168912172
1789692872702669800,4.014669921875,0.9122112907856702,-1.0336913060754538,-1.6525205390334128
1789692872712633900,4.0246337890625,0.8813269077003002,-1.392004978018999,-1.4112345791459082
1789692872722599000,4.034598876953125,0.7801853315621614,-1.7927566927194594,-1.0081541292369365
1789692872732564000,4.04456396484375,0.7082792022585869,-2.1266858649909497,-0.4020727341711521
1789692872742529000,4.054529052734375,0.6210404792666435,-2.4763205559164283,0.05090016615390777
1789692872752493800,4.064493896484375,0.4500900383651256,-2.8911364518046376,0.39554362466335297
1789692872762459000,4.074458984375,0.2803238388121128,-3.3204742095202207,0.7679448586702347
1789692872772424000,4.084423828125,0.1744710345094092,-3.76695774782598,1.1343950753182173
1789692872782389000,4.094388916015625,0.1416758128340356,-4.181080108492076,1.536070919126272
1789692872792353800,4.104353759765625,0.13684766202522441,-4.572446155209839,1.9393699802219866
1789692872802318800,4.11431884765625,0.08591476264549419,-4.992534730803966,2.359148466953635
1789692872812283000,4.124282958984375,-0.014987744039762765,-5.442904170632362,2.8031273289620873
1789692872822248000,4.134248046875,-0.153760200115107,-5.869710364043712,3.2198978660494086
1789692872832213000,4.144212890625,-0.2837912591943517,-6.235508838784694,3.678213296446204
1789692872842177800,4.154177734375,-0.430256589593552,-6.489590567359328,4.186345189413428
1789692872852142800,4.164142822265625,-0.569832306609489,-6.649272010749578,4.722897121179104
1789692872862108000,4.17410791015625,-0.751591689762473,-6.735292005601525,5.251435842359066
1789692872872073000,4.184072998046875,-0.97161215878129,-6.808194160205125,5.663528450763225
1789692872882037800,4.194037841796875,-1.225415070414543,-6.902811303010583,6.040061670008301
1789692872892002800,4.2040029296875,-1.459230840551853,-6.92374127831459,6.4148120974898335
1789692872901968000,4.2139677734375,-1.5863409706830978,-6.791243609926104,6.795555627906322
1789692872911933000,4.223932861328125,-1.6399710001923142,-6.576856178358197,7.1597758935451505
1789692872921897000,4.23389697265625,-1.6114327418416738,-6.429213547807931,7.376393276122212
1789692872931861800,4.24386181640625,-1.5371914475888013,-6.462097580277919,7.411705997043848
1789692872941826800,4.253826904296875,-1.3666764754951,-6.622597354313731,7.370608262979984
1789692872951791900,4.2637919921875,-1.0994576174497603,-6.90257398712337,7.100014375543594
1789692872961757000,4.2737568359375,-0.8098485022895038,-7.24918553083539,6.7375207875669
1789692872971722000,4.283721923828125,-0.5829724682874977,-7.6165739051163195,6.404880486062169
1789692872981686800,4.293686767578125,-0.472959018907696,-7.913735481482743,6.19763941911757
1789692872991651800,4.30365185546875,-0.43889585965573785,-8.156825275921822,6.014703941389918
1789692873001617000,4.313616943359375,-0.5174287136226892,-8.375580255049467,5.91525806325376
1789692873011582000,4.32358203125,-0.6300055837497115,-8.338045766425132,6.021878363063931
1789692873021546800,4.333546630859375,-0.6932137350738048,-7.937817198815941,6.241176363027096
1789692873031510800,4.3435107421875,-0.7418518015146255,-7.465859612035751,6.243285902526974
1789692873041475800,4.353475830078125,-0.7643611549645661,-7.0578738544285295,5.869254436969757
1789692873051441000,4.36344091796875,-0.7590871600843966,-6.691940355131029,5.280865934982896
1789692873061406000,4.373406005859375,-0.7214363516040146,-6.472081214153766,4.56370667617619
1789692873071370800,4.383370849609375,-0.7876533293552697,-6.433630195206403,3.747792444106936
1789692873081335800,4.393335693359375,-0.9337354325905441,-6.561088700383901,2.9111165790379046
1789692873091300900,4.40330078125,-0.9563820025540888,-6.78808193102479,2.0235493156433106
1789692873101266000,4.413265869140625,-0.8937019667573273,-6.968641911792755,1.1419570350050925
1789692873111231000,4.42323095703125,-0.8561329913415014,-7.071900041693449,0.2977063507676124
1789692873121195800,4.43319580078125,-0.7368874571055174,-6.983609763821959,-0.33503333412110803
1789692873131161000,4.4431611328125,-0.6505728632211685,-6.614699879062175,-0.769794285929203
1789692873141124900,4.453124755859375,-0.5325387506015599,-5.912606087440252,-1.0250585022866725
1789692873151090000,4.46308984375,-0.5764537340432405,-5.065713364261389,-1.206727905601263
1789692873161055000,4.473054931640625,-0.7323221950165927,-4.0965296016708015,-1.3237182082563639
1789692873171019800,4.483019775390625,-0.8959552255768328,-3.08927066770792,-1.3645552455574272
1789692873180985000,4.492985107421875,-1.0050591588962823,-2.1222171951442954,-1.3785171354144812
1789692873190950000,4.502949951171875,-0.9873504106611013,-1.2532856586366892,-1.3761059826195239
1789692873200915000,4.5129150390625,-0.8740303209513425,-0.501748329409957,-1.349091134443879
1789692873210879700,4.522879638671875,-0.6846838071376085,0.1474684430271387,-1.2574819412827491
1789692873220845000,4.532844970703125,-0.4041623268615454,0.6646212623178959,-1.1269085189551113
1789692873230809900,4.542809814453125,-0.1359885061789304,1.0083961212992667,-0.9793979903519153
1789692873240775000,4.55277490234375,0.07964454153589903,1.1625678613573311,-0.7955062348127364
1789692873250739000,4.562739013671875,0.1486397518288344,1.1852876426875592,-0.5316197360605001
1789692873260703700,4.572703857421875,0.06590184738747776,1.1062158595383167,-0.059115621313452715
1789692873270669000,4.5826689453125,-0.08727021410875022,0.9005448183894157,0.30479484772384163
1789692873280633900,4.5926337890625,-0.24041911392509935,0.599545271295309,0.5518406863123179
1789692873290599000,4.602598876953125,-0.3893523688077926,0.3621639176309108,0.7550006214231252
1789692873300563700,4.612563720703125,-0.526046831298992,0.09641220952868461,0.9289572584033012
1789692873310528800,4.62252880859375,-0.6039473056465386,-0.16512977192401884,1.0261959818840025
1789692873320493800,4.632493896484375,-0.6197996123600751,-0.31964696441888807,1.0842653090149164
1789692873330459000,4.642458984375,-0.5547077661812305,-0.42103988496959205,1.030757006189227
1789692873340424000,4.652423828125,-0.36380985820703204,-0.4695815052986145,0.7405898187547921
1789692873350387700,4.6623876953125,-0.028212533527612684,-0.4747451716721058,0.1981190183341503
1789692873360353000,4.67235302734375,0.379726462328434,-0.377624521613121,-0.7158727261275053
1789692873370317800,4.68231787109375,0.7952414463967085,-0.28690906242132186,-1.7985294309020041
1789692873380283000,4.692282958984375,1.0488280849307774,-0.17473346657156943,-2.889819523987174
1789692873390248000,4.702248046875,1.141903843513131,0.010526654711365699,-3.9052965434581037
1789692873400212700,4.712212646484375,1.1758926223546267,0.15099953976273536,-4.847687283930182
1789692873410178000,4.722177978515625,1.11286771864295,0.34371465322673317,-5.728488706451654
1789692873420142800,4.732142822265625,1.0294693044662475,0.5732014542490244,-6.436094539493322
1789692873430108000,4.74210791015625,0.9325438847184181,0.8576414962083101,-7.058341471940278
1789692873440072700,4.75207275390625,0.719200409245491,1.1121505102843046,-7.616241896682977
1789692873450038000,4.7620380859375,0.4946434658408165,1.3164882570028305,-8.115774303609133
1789692873460002800,4.7720029296875,0.2707715820908546,1.4874305145978928,-8.555567404365538
1789692873469966800,4.781966796875,0.05823065517246723,1.599073026484251,-8.998681758499146
1789692873479932000,4.791931884765625,-0.12087561965584755,1.571806833896041,-9.406547104597092
1789692873489896700,4.801896728515625,-0.2285182482510805,1.4254606728971004,-9.796771580064297
1789692873499862000,4.811862060546875,-0.2049076555609703,1.156822011181712,-10.272484719985723
1789692873509826800,4.821826904296875,-0.07412146726548671,0.856710937359929,-10.792436814606189
1789692873519791900,4.8317919921875,0.07656418424248695,0.6888689838677644,-11.292877568548917
1789692873529756700,4.841756591796875,0.24893384429216384,0.6448199987828731,-11.673571999126672
1789692873539722000,4.851721923828125,0.5022527718007564,0.690050302606821,-11.97425122822523
1789692873549686800,4.861686767578125,0.7305237672924995,0.7679951275527477,-12.240478737145661
1789692873559651800,4.87165185546875,0.9145978936612605,0.9166606714099645,-12.387192562413215
1789692873569616000,4.881615966796875,1.1930898408710955,1.2795569949686527,-12.27824703452587
1789692873579580200,4.891580078125,1.544666898036003,1.9091513675689695,-11.916159104740618
1789692873589545000,4.901544921875,1.9150620529174804,2.6119565223306416,-11.370394523471592
1789692873599510000,4.911510009765625,2.241856551003456,3.13919643587172,-10.81847258861661
1789692873609474800,4.921474853515625,2.510542558991909,3.311105492672324,-10.330181706672906
1789692873619439900,4.93143994140625,2.738938642168045,3.0581425389945505,-9.827690449941159
1789692873629405000,4.941405029296875,2.9252234303236007,2.383296819782257,-9.215054810926318
1789692873639370000,4.951369873046875,2.9345827948212624,1.383992936477065,-8.494367962515353
1789692873649334800,4.961334716796875,2.769620196157694,0.05734393546581268,-7.827942865645885
1789692873659299800,4.9712998046875,2.6902666734576224,-1.2008704117447138,-7.0709086925685405
1789692873669265200,4.98126513671875,2.707169877463579,-2.0349112521350383,-6.0710460063368075
1789692873679229000,4.99122900390625,2.6805460744321343,-2.4596406392723322,-4.764958439578115
1789692873689194000,5.001194091796875,2.5478058294594286,-2.2860914140492676,-3.291993088184297
1789692873699158800,5.01115869140625,2.2412322816252708,-1.7073410935014486,-2.179365900298953
1789692873709123800,5.021123779296875,1.8108710260808467,-1.1340490383595228,-1.6586638640940188
1789692873719089200,5.031089111328125,1.4446680621922015,-0.7801420769423246,-1.7436615301609037
1789692873729054000,5.041053955078125,1.1804150682151318,-0.5814513962000608,-2.2629653900057076
1789692873739019000,5.05101904296875,1.1690279972821473,-0.3930617447197437,-2.7455788108348846
1789692873748983800,5.06098388671875,1.219846330371499,-0.1834703152567148,-2.9977310326516626
1789692873758949000,5.07094921875,1.1857926696002483,-0.16174012948572636,-3.1176731708496805
1789692873768914000,5.080913818359375,1.114458787226677,-0.2821329340606928,-3.0524259149134156
1789692873778879000,5.09087890625,1.064272906821966,-0.4549088368237018,-2.799239089351892
1789692873788843000,5.100843017578125,0.9903180282950401,-0.6962193466305733,-2.358998829349875
1789692873798807800,5.110807861328125,0.9437982691824436,-1.0365057789742946,-1.7923884439289568
1789692873808773000,5.120773193359375,0.8737257850468159,-1.4375082535654307,-1.2972720998793839
1789692873818738000,5.130738037109375,0.8294517590343952,-1.8405360965043305,-0.8504711661875247
1789692873828703000,5.140702880859375,0.8129004372060299,-2.2827707451939583,-0.4905635030508041
1789692873838667800,5.150667724609375,0.7910521780133247,-2.750810866269469,-0.14732406612038612
1789692873848633000,5.160633056640625,0.7970634011268615,-3.19173384783864,0.16756079846322536
1789692873858598000,5.170597900390625,0.7996200998723506,-3.5950872694700955,0.4601069899886846
1789692873868563000,5.18056298828125,0.8061410260736942,-4.009806719246506,0.7648609211802482
1789692873878528000,5.190528076171875,0.7802817776739597,-4.428223854497075,1.10824239692986
1789692873888491800,5.20049169921875,0.7231471010446548,-4.83305085581243,1.4746756624430417
1789692873898457000,5.21045703125,0.7233586979687213,-5.230723893719912,1.9198551324129103
1789692873908422000,5.220421875,0.7570072850704193,-5.556838008326292,2.383841594183445
1789692873918387000,5.230386962890625,0.7418366039454937,-5.892348312309384,2.811602896362543
1789692873928352000,5.24035205078125,0.6968167280018329,-6.230609960827231,3.2518717979371545
1789692873938317000,5.250317138671875,0.6548176611840725,-6.4875628609240055,3.7453637556552883
1789692873948282000,5.2602822265625,0.6147627141714096,-6.6822974975168705,4.236182110249996
1789692873958247000,5.270246826171875,0.5813888523578643,-6.781435917139053,4.686429969525337
1789692873968212000,5.2802119140625,0.5068342543721198,-6.891684928840398,5.072416661292314
1789692873978177000,5.290177001953125,0.40562078204154967,-6.96156276718676,5.444726125362515
1789692873988142000,5.30014208984375,0.33823476051092144,-6.96066903321743,5.800308326515555
1789692873998106000,5.310106201171875,0.29395373850213363,-6.853815509173273,6.124494687929749
1789692874008071000,5.32007080078125,0.31853169665336606,-6.670934391981363,6.387405035126209
1789692874018036000,5.330035888671875,0.4079413339436054,-6.463033984345198,6.534977523049712
1789692874028001000,5.3400009765625,0.4547673825263977,-6.236167010432482,6.557813039714097
1789692874037966000,5.349966064453125,0.4962906485259533,-6.208294668644666,6.287557005929947
1789692874047931000,5.359930908203125,0.6429091967254876,-6.2972787739992135,5.918906648889184
1789692874057896000,5.36989599609375,0.8027011147528886,-6.358173095422983,5.693576967546344
1789692874067860700,5.37986083984375,0.8635627029508351,-6.56198594148457,5.531417151343822
1789692874077826000,5.389825927734375,0.8271037346035242,-6.922520796608924,5.449641369932889
1789692874087790800,5.399790771484375,0.7192670447409153,-7.235707040581107,5.594792183667421
1789692874097756000,5.409755859375,0.4713181198328733,-7.453094823008775,5.743309843486547
1789692874107720000,5.419719970703125,0.2239694989055395,-7.664407084915042,5.812937506464124
1789692874117684700,5.429684814453125,0.07167699672281741,-7.82910898681581,5.849775244995952
1789692874127650000,5.439650146484375,-0.09021339142117649,-7.853250325381755,5.879613918420672
1789692874137614800,5.44961474609375,-0.2660562805393711,-7.667984943401813,5.924648991933465
1789692874147580000,5.459579833984375,-0.37908290372788905,-7.267593878707289,5.889943589255213
1789692874157545000,5.469544921875,-0.40288054342269897,-6.71474898378849,5.632146639549732
1789692874167510000,5.479510009765625,-0.39846678210105746,-6.1801861800134175,5.050125334507227
1789692874177475000,5.48947509765625,-0.4146300544599071,-5.717001682275534,4.32537664348483
1789692874187439900,5.49943994140625,-0.4918588400909677,-5.39805380603671,3.395377182552218
1789692874197405000,5.509405029296875,-0.6256400820165873,-5.267355880546569,2.4128473239153623
1789692874207369000,5.519368896484375,-0.8044611101627349,-5.29752948501408,1.3779641777068377
1789692874217334000,5.529333984375,-1.0787813246458768,-5.338633648818731,0.4650146357744932
1789692874227299000,5.539299072265625,-1.3767296674758196,-5.2496752624273295,-0.06330372065305709
1789692874237264000,5.549263916015625,-1.5247271028131246,-5.008728909757733,-0.21388941891789434
1789692874247229000,5.55922900390625,-1.575439637440443,-4.646569376040995,-0.03883329626321792
1789692874257194000,5.569194091796875,-1.627252826786041,-4.2075098502561445,0.3930664208948612
1789692874267159000,5.579158935546875,-1.5658528939276932,-3.724712889553606,0.8655769653826951
1789692874277123800,5.589123779296875,-1.4152274481743574,-3.2551059575527903,1.1021505097955464
1789692874287089000,5.5990888671875,-1.1614695447266101,-2.775705361290276,1.0861369481056928
1789692874297054000,5.609053955078125,-0.8522861066550016,-2.2736171324014665,0.9516799623429775
1789692874307019000,5.61901904296875,-0.6629951224207877,-1.7420044106036423,0.794964383020997
1789692874316983000,5.628983154296875,-0.5703489874273538,-1.2517939587742088,0.6121008014857768
1789692874326947800,5.63894775390625,-0.5620341270139441,-0.8685580270200968,0.3997784857541323
1789692874336913000,5.648912841796875,-0.5340244591146707,-0.544128504499793,0.17169512178897856
1789692874346878000,5.6588779296875,-0.5169675258517265,-0.2722270415961742,-0.03496200778782368
1789692874356843000,5.668843017578125,-0.45935704840421676,-0.09368366134762764,-0.15393267060518265
1789692874366808000,5.67880810546875,-0.3292056508809328,0.028296120157837865,-0.23533143539726734
1789692874376772900,5.68877294921875,-0.14968789090858772,0.08343582357764244,-0.3301549144297838
1789692874386738200,5.69873828125,0.08325053013861179,0.08168518051803111,-0.40504619702398775
1789692874396703000,5.708702880859375,0.3430477137506008,0.08529168057739735,-0.4827431846886873
1789692874406668000,5.71866796875,0.5736538741916418,0.07487725406885147,-0.5495815092086792
1789692874416632000,5.728632080078125,0.7202589783877134,0.0482236404210329,-0.6799743142724036
1789692874426596900,5.738596923828125,0.8675660933732986,0.056411623051762574,-0.8710334772229195
1789692874436562200,5.748562255859375,1.0632745434343813,0.11218553272187709,-1.1282499966919421
1789692874446527000,5.75852685546875,1.2422855411946774,0.22041969746947288,-1.4832313093423843
1789692874456492000,5.768491943359375,1.39504332280159,0.3029904286503792,-1.8325667250603437
1789692874466456800,5.778456787109375,1.5536895779252051,0.2914233249753713,-2.3412042294621465
1789692874476422100,5.788422119140625,1.6941630474984646,0.2477414196372032,-2.9676468600332737
1789692874486387000,5.798386962890625,1.865000091153383,0.1701864707916975,-3.6061370712727308
1789692874496352000,5.80835205078125,2.0679659649968145,0.15855623875260352,-4.169081335401534
1789692874506316800,5.81831689453125,2.2915584472835064,0.2824754638880491,-4.677475970958173
1789692874516281900,5.82828173828125,2.4805519098758695,0.4762812951982021,-5.1910734358549115
1789692874526246100,5.83824609375,2.543093413984775,0.7793769377887249,-5.784034068062901
1789692874536211000,5.8482109375,2.4278841495275496,1.1031395208328962,-6.411771999141574
1789692874546176000,5.858176025390625,2.0921382832229134,1.376090785050392,-7.118370700967311
1789692874556140800,5.868140869140625,1.6269851157605648,1.6434212867766618,-7.865780136609077
1789692874566105900,5.87810595703125,1.221623861438036,1.9035943179637194,-8.691572204092145
1789692874576071000,5.88807080078125,0.8448270228207111,2.05766084408164,-9.6308527035892
1789692874586036000,5.898035888671875,0.6014449674367904,2.1152105312526226,-10.407842453980445
1789692874596001000,5.9080009765625,0.50238016104009,2.111544994482398,-10.918802263849972
1789692874605966000,5.917966064453125,0.36599491062853484,1.936070354154706,-11.352122369199991
1789692874615931100,5.92793115234375,0.18690675597880035,1.5192717600166796,-11.68092411545515
1789692874625895000,5.93789501953125,0.08434533963799476,1.0647399398118258,-11.878284424376487
1789692874635860000,5.94785986328125,0.11907879936695098,0.7737813097387551,-11.961489946329593
1789692874645825000,5.957824951171875,0.22114804827664047,0.6212386321872473,-11.97188157648444
1789692874655790000,5.9677900390625,0.38047819401118904,0.5126069925546646,-11.959804185199737
1789692874665755100,5.977755126953125,0.577916792333126,0.6883464212983846,-11.741854677236079
1789692874675720000,5.987719970703125,0.801165575748682,1.3297446289390324,-11.136505103576182
1789692874685685200,5.997685302734375,0.9242471810162067,2.2820669808387755,-10.33558385797739
1789692874695650000,6.007650146484375,1.0023182626903056,3.0792063698112964,-9.661410338938236
1789692874705615000,6.017614990234375,0.9970680870771408,3.523684413513541,-9.053920246118306
1789692874715580000,6.027579833984375,0.8260299678921699,3.6488328881829974,-8.503135790860652
1789692874725544000,6.0375439453125,0.678151775020361,3.256557909926772,-8.033728473085164
1789692874735509200,6.04750927734375,0.5579588769316673,2.4792852509409187,-7.4301114223062985
1789692874745474000,6.05747412109375,0.4370259741306305,1.45953479193449,-6.820283241927624
1789692874755439000,6.067439208984375,0.38107203171849247,0.34631752920150755,-6.060608198952674
1789692874765404000,6.07740380859375,0.41871407237052916,-0.7122562891960144,-5.187443554919958
1789692874775369200,6.087369140625,0.5469131667822599,-1.6302864953935146,-4.38895508942604
1789692874785334000,6.097333984375,0.6703004769980907,-2.3061311625152823,-3.60166197168529
1789692874795299000,6.107299072265625,0.720110509827733,-2.5929543002188202,-2.865904395392537
1789692874805264000,6.117263916015625,0.648193859130144,-2.6101748996108767,-2.2615800731271505
1789692874815229200,6.127229248046875,0.42304070339798927,-2.4627409433752296,-1.9206173489570617
1789692874825193200,6.137193115234375,0.17882687336504458,-2.1590046647936103,-1.868066492986679
1789692874835158000,6.147157958984375,0.005081248787045478,-1.7683435514748096,-2.1153461403310296
1789692874845123000,6.157123046875,-0.03161622275756672,-1.3695342030137776,-2.443036710473895
1789692874855087900,6.167087890625,0.08912380608618259,-0.9641747022569179,-2.6000527340471744
1789692874865053200,6.17705322265625,0.1338525809956249,-0.7353519181013107,-2.696550283771753
1789692874875018200,6.187018310546875,0.2463070029199123,-0.6824217074245214,-2.6989982614457606
1789692874884983000,6.196983154296875,0.4356786511749029,-0.6882686798870563,-2.6473376323133704
1789692874894948000,6.206947998046875,0.661711512351036,-0.8431547056943177,-2.481663085988164
1789692874904913200,6.2169130859375,0.9603963527619838,-1.0612047514230012,-2.161008990353346
1789692874914878200,6.226878173828125,1.2586170827925205,-1.347780051845312,-1.8011521806210278
1789692874924842200,6.23684228515625,1.4653823489189146,-1.7034505158036946,-1.357605280289054
1789692874934807000,6.24680712890625,1.6029238566935062,-2.0845628795325757,-0.8797562973827123
1789692874944772000,6.256772216796875,1.672222433847189,-2.465603347069025,-0.35789690783619876
1789692874954737200,6.266737060546875,1.6535294238150118,-2.867545148336887,0.1005079544097185
1789692874964702200,6.2767021484375,1.6068004058659076,-3.270485312992334,0.5591226600140333
1789692874974667000,6.2866669921875,1.5486206040978432,-3.635021804973483,1.0324199709653854
1789692874984632000,6.296632080078125,1.4532196174383163,-3.9809719621673225,1.5170879862368105
1789692874994597000,6.30659716796875,1.3802093262851238,-4.293161304056644,2.003140733864903
1789692875004562200,6.316562255859375,1.27364981675148,-4.573016356313229,2.4553929186999794
1789692875014527000,6.32652685546875,1.1648772342782467,-4.910267951005697,2.850501659077406
1789692875024491000,6.336490966796875,1.0767056874155998,-5.281258149170875,3.2621143750101327
1789692875034456000,6.3464560546875,0.9502537289321422,-5.648235020041465,3.6596143944382664
1789692875044421000,6.356421142578125,0.8319102581024169,-5.94599397777915,4.12625107845664
1789692875054386200,6.36638623046875,0.7159937221586704,-6.174034671646356,4.611828609788417
1789692875064351000,6.37635107421875,0.6448106464326381,-6.317732363963127,5.0953591454625125
1789692875074316000,6.38631591796875,0.566225185495615,-6.4254720231920475,5.52894228566289
1789692875084281000,6.396281005859375,0.42972412668466564,-6.472346587091684,5.925828557106852
1789692875094246100,6.40624609375,0.3198117995917797,-6.467030945026874,6.241901754692196
1789692875104211200,6.416211181640625,0.24373503354005513,-6.43302112339735,6.462641185635328
1789692875114176000,6.426176025390625,0.23260106058530508,-6.321396731689572,6.6562102855801575
1789692875124141000,6.43614111328125,0.307093772315979,-6.176441148266196,6.729045804688334
1789692875134105000,6.44610498046875,0.4460428088009357,-6.104540279659629,6.59758916978538
1789692875144070100,6.456070068359375,0.7135796467542648,-6.08279138918817,6.299562501022219
1789692875154035200,6.46603515625,0.9635656304478645,-6.121911685699224,6.021772564601898
1789692875164000000,6.476,1.0500304464578627,-6.359959394317865,5.739860579815507
1789692875173965000,6.485965087890625,1.0770832885563373,-6.7755556269288055,5.449780486142635
1789692875183930000,6.49593017578125,1.07849549344182,-7.1364148917019365,5.333239680820703
1789692875193895200,6.505895263671875,1.0277905575990676,-7.368883923405408,5.494611561515927
1789692875203860000,6.51585986328125,0.8563760063171386,-7.599458519664406,5.65240383015871
1789692875213825000,6.525824951171875,0.5608364781945944,-7.8726698961228125,5.719046339845657
1789692875223789000,6.5357890625,0.39390813241600986,-7.931582103818655,5.928154369705915
1789692875233754000,6.545754150390625,0.38246253622882065,-7.712168368521333,6.192732942375541
1789692875243719200,6.55571923828125,0.4966764695057645,-7.3052762513697145,6.275654386690259
1789692875253684000,6.56568408203125,0.587851947424747,-6.7965709424287075,6.028268356361985
1789692875263649000,6.57564892578125,0.6388245577603578,-6.37406799916923,5.32554445014298
1789692875273614000,6.585614013671875,0.6087251510402187,-6.054800973978638,4.477768514388799
1789692875283579100,6.5955791015625,0.41447566761579363,-5.835130049049854,3.463426051905751
1789692875293544000,6.6055439453125,0.043689431057497854,-5.841410152232647,2.343493801704049
1789692875303509000,6.615509033203125,-0.46970893107056616,-6.014024142432213,1.2503490206629038
1789692875313474300,6.625474365234375,-0.9503998594045638,-6.197791394808888,0.35364918726384637
1789692875323439000,6.635439208984375,-1.3728987110108137,-6.275888779968023,-0.2899146739780903
1789692875333403100,6.645403076171875,-1.6355530376195906,-6.082055476129055,-0.6051397303014994
1789692875343368000,6.655367919921875,-1.8347393929243088,-5.543531367507577,-0.6345382587432861
1789692875353333000,6.6653330078125,-2.0198153898119924,-4.749736320526898,-0.48342473721206186
1789692875363298300,6.67529833984375,-2.1364175699323416,-3.8915076720803974,-0.27181086201071736
1789692875373263000,6.68526318359375,-2.1258121508963406,-3.081135584308207,-0.16244214027523993
1789692875383228200,6.695228271484375,-1.9616642296165228,-2.3182146912798283,-0.06273205824494361
1789692875393193000,6.70519287109375,-1.695572329774499,-1.6628741752654312,-0.001339139649271965
1789692875403158300,6.715158203125,-1.3422235867619514,-1.105448966819048,0.008162848189473151
1789692875413123000,6.725123046875,-0.9716285253942012,-0.6530488979458808,-0.035062545552849766
1789692875423087000,6.735087158203125,-0.6064210022836923,-0.3227116126865148,-0.07132160741388797
1789692875433052200,6.74505224609375,-0.2481950086236,-0.11121055020987987,-0.09326455915272236
1789692875443017000,6.755016845703125,0.028563246661424634,0.07609832029640674,-0.08290507770180702
1789692875452982300,6.764982177734375,0.2383517330665141,0.22844518301486968,-0.05754734908342361
1789692875462947000,6.774947021484375,0.23756080188453196,0.3485843050897121,0.010621931779384612
1789692875472912100,6.784912109375,0.0027384119879454373,0.2813210331559181,0.5111491949617862
1789692875482877000,6.794876953125,-0.2802484354883432,0.18517302752137182,0.9019926791101693
1789692875492842200,6.80484228515625,-0.4303735305041074,0.18883564168214798,1.0644944406181573
1789692875502807000,6.81480712890625,-0.498454548561573,0.18038813133239745,1.258117901098728
1789692875512772000,6.824772216796875,-0.4882289226233959,0.168548055934906,1.3269137894272804
1789692875522736000,6.834736083984375,-0.3292238441247493,0.09134089761376381,1.3098708846896887
1789692875532701000,6.844700927734375,0.002888780244067311,-0.02446399464905262,1.1035305659770964
1789692875542666200,6.854666259765625,0.5284487778741866,-0.10490706615149974,0.6943073755294085
1789692875552631000,6.864631103515625,1.093792431294918,-0.13725859917998312,0.21524200257062912
1789692875562596000,6.87459619140625,1.5468541789472101,-0.16005027670264244,-0.30538287674486636
1789692875572561200,6.88456103515625,1.8902216261714695,-0.16407997061014173,-0.8128121744006872
1789692875582526500,6.8945263671875,2.141650209888816,-0.12544015109241008,-1.2914409095078705
1789692875592491300,6.9044912109375,2.415191841214895,-0.06901800664663314,-1.8588409840017557
1789692875602456300,6.914456298828125,2.744906610661745,-0.05618015238344669,-2.6234844630390404
1789692875612421400,6.92442138671875,3.113450000196695,0.0038473230779170987,-3.4556998415678737
1789692875622385200,6.93438525390625,3.5546775176703926,0.11695932299494742,-4.454458365949988
1789692875632350500,6.9443505859375,4.12958869844675,0.2759013461947441,-5.66105709221363
1789692875642315300,6.954315185546875,4.559947615903615,0.5740478419452906,-6.764824974077939
1789692875652280300,6.9642802734375,4.839864627480507,0.8858417547762394,-7.845451634329557
1789692875662245400,6.974245361328125,5.0346612233936785,1.1222662461072206,-8.8406492513597
1789692875672210400,6.98421044921875,5.1306689437747,1.1392448534369468,-9.715436528158188
1789692875682175500,6.994175537109375,4.992731130158901,1.1379267565757036,-10.3689483674407
1789692875692140300,7.004140380859375,4.610460828566551,1.2235153742730618,-10.698618713223933
1789692875702105300,7.014105224609375,4.244118748468161,1.1117290700018405,-11.192656614387035
1789692875712069400,7.0240693359375,3.819194715541601,0.8674386676013469,-11.88924537885189
1789692875722034400,7.034034423828125,3.3238930780529974,0.5794996776103973,-12.604085254800319
1789692875731999500,7.04399951171875,2.8557506656467915,0.38827041878998275,-13.1764163559556
1789692875741964300,7.05396435546875,2.4754396814286705,0.35892274375259875,-13.488485578596592
1789692875751929300,7.063929443359375,2.1974890014886856,0.5860346323370933,-13.425025206077098
1789692875761894400,7.073894287109375,1.9972189426004885,1.0239484952181577,-13.012846088433266
1789692875771859500,7.083859375,1.8591151247680187,1.5299585737258194,-12.357124756407737
1789692875781824300,7.09382421875,1.7970482524335383,2.0239345155686137,-11.52105387149453
1789692875791789300,7.103789306640625,1.8262731778740882,2.5115683949083087,-10.486886180078983
1789692875801754400,7.11375439453125,1.7858125726699827,2.8953666367202997,-9.430027933427692
1789692875811718400,7.123718505859375,1.6761562661647795,3.0083021110266444,-8.443431556004285
1789692875821683500,7.133683349609375,1.5301204862892628,2.881643231794238,-7.581427772933244
1789692875831648300,7.143648193359375,1.322686527121067,2.4116163208156824,-6.842450065550207
1789692875841613300,7.15361328125,1.134145484471321,1.7008616683542728,-6.1847448662310835
1789692875851578400,7.163578369140625,1.0748118364930153,0.9612380642831325,-5.456822805869579
1789692875861543400,7.17354345703125,1.0988234111994504,0.30880759049654005,-4.702959371782839
1789692875871508500,7.183508544921875,1.1716548386543988,-0.2743453489243984,-3.9534664078652857
1789692875881473300,7.193473388671875,1.2274047829270363,-0.6180459736257791,-3.1938404647290706
1789692875891438600,7.2034384765625,1.252107262507081,-0.7263707392662763,-2.4919606081187724
1789692875901403400,7.2134033203125,1.225931787765026,-0.6271802971959114,-1.9412462954878806
1789692875911367400,7.223367431640625,1.1249912871569394,-0.5113964477211237,-1.6560598190754652
1789692875921332500,7.23333251953125,0.9137240334361791,-0.46961365400254723,-1.6115601676136255
1789692875931297300,7.24329736328125,0.6754682350248098,-0.4105892181038856,-1.6536229473173618
1789692875941262600,7.2532626953125,0.44110009170174597,-0.3073386869877577,-1.5770196001082657
1789692875951227400,7.263227294921875,0.271098877816461,-0.2868091091781855,-1.4263631746947765
1789692875961192400,7.2731923828125,0.18892273544371127,-0.34995968509614467,-1.2766186034291982
1789692875971157200,7.2831572265625,0.20815233657062052,-0.3509247307360172,-1.093055933713913
1789692875981122300,7.293122314453125,0.2346855569754727,-0.41067280473411083,-0.9181365891814232
1789692875991087400,7.30308740234375,0.24586919602453708,-0.5329448471844196,-0.7359265031188726
1789692876001051400,7.313051513671875,0.2322206099003553,-0.7121329550772905,-0.5841437040239572
1789692876011016400,7.323016357421875,0.25898060653209687,-0.9649451021075248,-0.4352198014914989
1789692876020981200,7.332981201171875,0.3252618816912174,-1.2092770055621862,-0.2501736152201891
1789692876030946600,7.342946533203125,0.3810977506816387,-1.4716414093136787,-0.07502630715072155
1789692876040911400,7.352911376953125,0.4518950784930959,-1.69588738707304,0.15462065286934376
1789692876050876400,7.36287646484375,0.49189387487173075,-1.9601836356699465,0.38105215797424313
1789692876060841200,7.37284130859375,0.5267312333665788,-2.220057976171374,0.5991992343366146
1789692876070806300,7.38280615234375,0.5697288827676326,-2.4793618233084675,0.8129892845332622
1789692876080771300,7.392771240234375,0.6249510037738829,-2.7118893072009085,1.0735153669416904
1789692876090735400,7.4027353515625,0.7059248211521655,-2.9087501421675084,1.3306862937033175
1789692876100700400,7.412700439453125,0.7924830875992774,-3.131714263422787,1.5769997263640165
1789692876110665200,7.422665283203125,0.8709725408159196,-3.3905727048799394,1.809818886679411
1789692876120630300,7.43263037109375,0.9667875151038169,-3.7040515020579097,2.0600749194860457
1789692876130595300,7.44259521484375,1.0864484982728957,-4.031138845610618,2.3337311171025035
1789692876140560400,7.452560302734375,1.211114157861471,-4.4000542833283545,2.6040327435940505
1789692876150525400,7.462525390625,1.304522071007639,-4.818892858861386,2.870889198067784
1789692876160490200,7.472490234375,1.3807180064596234,-5.249416903752088,3.1439275560468434
1789692876170455600,7.48245556640625,1.4884475826859473,-5.648068431302905,3.498536528253555
1789692876180420400,7.49242041015625,1.5567619711078702,-6.003742402392626,3.9043776750475168
1789692876190384400,7.50238427734375,1.6511621101617813,-6.294630889838934,4.310095487722754
1789692876200349400,7.512349365234375,1.7480723323404788,-6.49713966756463,4.720529807525873
1789692876210314200,7.522314208984375,1.8862346023619174,-6.592827654471993,5.05364532532692
1789692876220279600,7.532279541015625,2.0266881981909273,-6.673544866740703,5.263571101310849
1789692876230244400,7.542244384765625,2.2380513135015963,-6.695880617189407,5.416149434697628
1789692876240209400,7.55220947265625,2.380092470782995,-6.64482905986607,5.502893067649007
1789692876250174200,7.56217431640625,2.451667176175117,-6.636112669447064,5.404236294063925
1789692876260139500,7.572139404296875,2.489941669511795,-6.779062758266925,5.2213148448616264
1789692876270104300,7.582104248046875,2.4291256740212437,-6.976603099930286,5.070259190997481
1789692876280068400,7.592068359375,2.27775087120533,-7.127680965626239,5.06140309984684
1789692876290033400,7.602033447265625,1.9898282478272913,-7.336727036166191,5.113653511565923
1789692876299998200,7.611998291015625,1.5746797589838504,-7.62793058091104,5.101346403178573
1789692876309963500,7.621963623046875,1.165501576721668,-7.892828887054324,5.091581380489468
1789692876319928300,7.63192822265625,0.8485293844699859,-8.022649445188046,5.227676196587085
1789692876329893400,7.641893310546875,0.6613923633992671,-7.759738513469696,5.5497272995382545
1789692876339858200,7.651858154296875,0.645443099117279,-7.0993836764246225,6.054546122434735
1789692876349823500,7.661823486328125,0.7062193471193313,-6.24318127310872,6.294421631002426
1789692876359788500,7.67178857421875,0.8274293132960796,-5.5503410475224255,5.9338318308204405
1789692876369752300,7.68175244140625,0.9334861340045928,-5.111075770032405,5.11140310229063
1789692876379717400,7.69171728515625,0.973639280694723,-4.840858899214863,4.199170184195041
1789692876389682200,7.70168212890625,0.7173907294750214,-5.005733235073089,3.0905782431751487
1789692876399647500,7.7116474609375,0.39842531757950783,-5.375854249188303,1.9571224945336578
1789692876409612500,7.721612548828125,0.01676759492754936,-5.659303526544571,1.0231956310242414
1789692876419577300,7.731577392578125,-0.3917863179564476,-5.7366609069913626,0.574082328736782
1789692876429542400,7.74154248046875,-0.735205787628889,-5.52597642159462,0.6490063445568084
1789692876439507500,7.751507568359375,-0.9690484457731247,-5.0355871060669415,1.1814911730140447
1789692876449472500,7.761472412109375,-1.0609937390208244,-4.419069364921748,1.8216291514605283
1789692876459437300,7.771437255859375,-1.0330407332122324,-3.7723189825981853,2.2186481093734503
1789692876469401300,7.7814013671875,-0.8919839107930659,-3.118239864821732,2.4122709853321314
1789692876479366400,7.791366455078125,-0.6631646337687969,-2.544552380621433,2.3357979865044354
1789692876489331500,7.80133154296875,-0.3780921391248703,-1.9763976883679628,2.1503099016845226
1789692876499296500,7.811296630859375,-0.11003507668972015,-1.4310419801607728,1.9807260729610918
1789692876509261300,7.82126123046875,0.004102170055243186,-0.9990934554249048,1.7495833214253187
1789692876519226400,7.831226318359375,-0.13805822512507437,-0.6235585995674133,1.523845643803477
1789692876529191200,7.841191162109375,-0.3753764504253864,-0.32788229332268237,1.3284428986907004
1789692876539156500,7.851156494140625,-0.6864952404737472,-0.03527940317392349,1.2076274847894906
1789692876549121300,7.861121337890625,-1.0890502052038908,0.17471651543676853,1.0997568926572798
1789692876559085300,7.871085205078125,-1.3737526974916456,0.3322200302660465,1.0750240179389714
1789692876569050400,7.88105029296875,-1.4875556022822856,0.4553951590359211,1.1305039130985737
1789692876579015400,7.891015380859375,-1.4445751232117414,0.4895084410399198,1.1457079119712115
1789692876588981000,7.90098095703125,-1.3504659299284218,0.4538467605501413,0.9865800108104944
1789692876598945800,7.91094580078125,-1.129725329941511,0.4138572799891233,0.7389630943357944
1789692876608910800,7.920910888671875,-0.7269938396006822,0.3908785554617643,0.37521746047139165
1789692876618875600,7.930875732421875,-0.19520051880525424,0.35681261973083017,-0.2076917333215475
1789692876628841000,7.940841064453125,0.19607669885158538,0.4005512236922979,-0.8273182541370392
1789692876638805800,7.9508056640625,0.3570902676284313,0.3975713310986757,-1.5801462076961994
1789692876648769800,7.960769775390625,0.3092810532271862,0.26553952665627,-2.5130349603295326
1789692876658734800,7.97073486328125,0.08881463053915649,0.14808978979587553,-3.5127041698157786
1789692876668699600,7.98069970703125,-0.2531546768575907,0.1504489201426506,-4.640061601582169
1789692876678665000,7.9906650390625,-0.7215291444540023,0.24446400540173052,-5.7621536601662635
1789692876688629800,8.000629638671874,-1.1932406475186348,0.4535550841271877,-6.700514706730842
1789692876698594800,8.0105947265625,-1.6633488070398568,0.7726800704985857,-7.409680044174194
1789692876708560000,8.020559814453126,-2.1050363432407377,1.0383096135258674,-8.141186392763256
1789692876718525000,8.03052490234375,-2.4477818591743707,1.161643147727847,-9.155782537746429
1789692876728490000,8.040489990234375,-2.63654034396708,1.2765426155835389,-10.172767623692751
1789692876738453800,8.050453857421875,-2.472889412423968,1.583845062214136,-10.735988366675377
1789692876748418800,8.060418701171875,-2.248745725995302,1.8636860859453677,-11.308055263936518
1789692876758383900,8.0703837890625,-1.9781728813469408,2.005405756187439,-11.94767418694496
1789692876768349000,8.080348876953124,-1.5222569133073092,2.1515011572957037,-12.3968453568995
1789692876778314000,8.09031396484375,-0.9459341121673583,2.2959254103213547,-12.751335671162604
1789692876788278800,8.10027880859375,-0.33061493315696716,2.290039274892211,-12.96968265401125
1789692876798243800,8.110243896484375,0.3961374989032745,1.9621961445361376,-13.25232119950652
1789692876808209000,8.120208984375,1.2459832266688347,1.3734335485398768,-13.394711900877951
1789692876818173000,8.1301728515625,2.023833393281698,0.7325017893671989,-13.145684533083438
1789692876828138000,8.140137939453124,2.7202795344054698,0.29107494992911814,-12.391153282737731
1789692876838102800,8.150102783203126,3.2154630984723567,0.10597381860017775,-11.195795496934652
1789692876848067800,8.16006787109375,3.316470819097757,-0.06629822629392147,-10.041389314723014
1789692876858033000,8.170032958984375,3.1053941195130346,-0.35371523823738094,-9.244176275992393
1789692876867998000,8.179998046875,2.785067940658331,-0.47015667483806606,-8.495444651836156
1789692876877962800,8.189962646484375,2.4646786334395405,-0.13253975396454334,-7.6172157101511955
1789692876887927800,8.199927734375,2.2430080591261388,0.5208481666773558,-6.795845550763606
1789692876897892600,8.209892578125,1.8852794935941695,1.2372364411115646,-6.08760375790596
1789692876907857000,8.21985693359375,1.4783388611257076,1.6896400171160697,-5.738536637735367
1789692876917822000,8.229822021484376,1.060018756508827,1.7514333332061767,-5.691539908760785
1789692876927786800,8.239786865234375,0.6632067193448543,1.485057940247655,-5.716849706584215
1789692876937751800,8.249751708984375,0.40393443638980386,0.8392027531981467,-5.706796514603496
1789692876947716900,8.259716796875,0.28293898974657056,-0.1117366199105978,-5.646438199752569
1789692876957682000,8.269681884765625,0.27725042271614075,-1.0602011273384093,-5.35333086721301
1789692876967646700,8.279646728515624,0.29555823282301424,-1.761642008009553,-4.628126249116659
1789692876977611800,8.28961181640625,0.4720803363770246,-2.1468857724547386,-3.6893595443606375
1789692876987576800,8.299576904296876,0.8015028448790311,-2.1421558213233944,-2.6634330270677804
1789692876997540900,8.309540771484375,1.0108300704479216,-1.8601795391291378,-1.8145301331102848
1789692877007506000,8.319505859375,1.015467667120695,-1.5831763691723346,-1.3606091382801533
1789692877017470700,8.329470703125,0.9624562079012393,-1.3754559942781925,-1.3807465019017457
1789692877027435800,8.339435791015624,1.026105965512991,-1.2223562673658133,-1.7333055558413266
1789692877037400800,8.34940087890625,1.1041688638806342,-0.9295113851547241,-2.0282067860603332
1789692877047366000,8.359365966796876,1.2153016726791859,-0.6698463034898042,-2.1935329573392868
1789692877057331000,8.3693310546875,1.3259843996226788,-0.546114709880948,-2.3431962800621986
1789692877067295700,8.379295654296875,1.3932149383306502,-0.4729968667000532,-2.3250655800879
1789692877077260800,8.3892607421875,1.419942786258459,-0.4805307693362236,-2.161720938014984
1789692877087224800,8.399224853515625,1.5033014529466628,-0.548343491846323,-1.8892893137574194
1789692877097190000,8.40918994140625,1.5678022744297981,-0.6877233209639787,-1.547326472634077
1789692877107155000,8.419155029296874,1.5492413663446902,-0.9046446549236774,-1.065257826206088
1789692877117119700,8.42911962890625,1.487372062408924,-1.2286036373227833,-0.4959884507089853
1789692877127084800,8.439084716796875,1.4135504548728466,-1.62678871640563,-0.03582067044377327
1789692877137049900,8.4490498046875,1.4022294349133968,-2.015678728398681,0.3682867844253778
1789692877147015000,8.459014892578125,1.4522434658825396,-2.3962486558139324,0.7814525750190019
1789692877156979700,8.468979736328125,1.570318056643009,-2.8196324735611675,1.1783674880355597
1789692877166944800,8.47894482421875,1.63706461122632,-3.2219530450135467,1.6000275507301092
1789692877176908800,8.48890869140625,1.6858149058699607,-3.604735972303152,2.02608672516644
1789692877186873900,8.498873779296876,1.7241082500375806,-3.9194975027680394,2.4901532664358617
1789692877196839000,8.5088388671875,1.7191314845383165,-4.227021775455773,2.9497593211650845
1789692877206803700,8.5188037109375,1.7133727748811245,-4.542507820802927,3.3624756144255397
1789692877216768800,8.528768798828125,1.6625275537848472,-4.88101000007838,3.780892749676108
1789692877226733800,8.53873388671875,1.6231833853900433,-5.2068029199063774,4.187546966418624
1789692877236699000,8.548698974609374,1.5547814648151397,-5.514423930966854,4.617897700569033
1789692877246664000,8.558663818359374,1.4750550171494483,-5.782931075257062,5.1126457958281035
1789692877256628700,8.568628662109376,1.4479893155694008,-5.90127103895545,5.617133779335021
1789692877266592800,8.5785927734375,1.4907038371801375,-5.953009994021058,6.073247900295257
1789692877276557800,8.588557861328125,1.4412826575376092,-5.9804047814249985,6.496605999079346
1789692877286523000,8.59852294921875,1.3883262895062565,-6.041584349530935,6.829552005532384
1789692877296488000,8.608488037109375,1.4096025940299033,-6.065127137681841,6.972560546541214
1789692877306452700,8.61845263671875,1.4503005151212214,-6.034461365783214,7.077942828989029
1789692877316418000,8.62841796875,1.5330278981685637,-5.9437809779047965,7.054803945463895
1789692877326382800,8.6383828125,1.570806716942787,-5.88653641116023,6.847232623651624
1789692877336348000,8.648347900390625,1.5374761097490786,-6.002534195646644,6.464051052433252
1789692877346311700,8.658311767578125,1.4739900182664394,-6.229746037474274,6.097713063988089
1789692877356276700,8.66827685546875,1.415619662362337,-6.468458347481489,5.869852402862906
1789692877366242000,8.678241943359374,1.3137994563102722,-6.847435452747344,5.711234789311885
1789692877376206800,8.688206787109374,1.0572995606780051,-7.2964119769126174,5.616469177946448
1789692877386172000,8.698171875,0.8674738119799643,-7.662765162926912,5.6457396960943935
1789692877396136700,8.70813671875,0.9207318663716315,-7.8498934161692855,5.734371919271349
1789692877406102000,8.71810205078125,1.0557213515758515,-7.767288198196887,5.891651562216878
1789692877416066800,8.72806689453125,1.101806226402521,-7.579120080512761,6.041644555285573
1789692877426031900,8.738031982421875,1.168207913070917,-7.204391280341148,6.138675773495435
1789692877435996000,8.747995849609374,1.3153694821059703,-6.660443977627158,5.920623974201082
1789692877445960700,8.757960693359376,1.4266718022525309,-6.225564952397346,5.254732545816898
1789692877455926000,8.767926025390626,1.4343430675327777,-5.822525419020653,4.264930065828562
1789692877465890800,8.777890869140625,1.277866557663679,-5.444368397966027,3.1217624859899282
1789692877475856000,8.78785595703125,0.9454571423053741,-5.356822800981998,1.802388444417715
1789692877485820700,8.797820556640625,0.5372352378547192,-5.341032526654005,0.5649199481159448
1789692877495786000,8.807785888671875,0.059755663649505,-5.275173860821128,-0.4242091626554727
1789692877505750800,8.817750732421874,-0.4143067773222923,-5.269607458865642,-1.2538625817418099
1789692877515715800,8.8277158203125,-0.8381891922414302,-5.128538946008682,-1.8059253863722085
1789692877525679900,8.837679931640626,-1.1680617825984954,-4.763917406092584,-1.9506804787874221
1789692877535644700,8.847644775390625,-1.4252946686804293,-4.177853839921951,-1.7486393185734748
1789692877545610000,8.85760986328125,-1.6091548600375651,-3.5562317613750696,-1.3874118050098418
1789692877555574800,8.86757470703125,-1.5651917996704579,-3.0024007780283686,-1.10249830031991
1789692877565539800,8.877539794921875,-1.2529729394257068,-2.4578578475087878,-0.9524462705403566
1789692877575505000,8.8875048828125,-0.7745289132356643,-1.8729238698899744,-0.8360656242161989
1789692877585469700,8.8974697265625,-0.371813204985857,-1.2634177610725164,-0.7240946110278368
1789692877595434800,8.907434814453126,-0.054316112077236176,-0.8183540264368057,-0.6689174982070922
1789692877605399600,8.917399658203125,0.22314588929666204,-0.4322703040361404,-0.717380208081007
1789692877615363600,8.927363525390625,0.4450841929018497,-0.009187515062093735,-0.7625006217896938
1789692877625329000,8.937328857421875,0.593166968435049,0.35294893004000183,-0.7485714651584625
1789692877635293700,8.947293701171875,0.6372352427423,0.5733054991453885,-0.6852332577139139
1789692877645258800,8.9572587890625,0.6758733086943626,0.6988239761710167,-0.489034393787384
1789692877655223600,8.9672236328125,0.7069967612326145,0.8071510798990726,-0.18618834204375742
1789692877665188900,8.97718896484375,0.590153173571825,0.8505945003062486,0.14938918195664883
1789692877675153700,8.987153564453125,0.36850364204645153,0.7301017424881457,0.33805940394401546
1789692877685118700,8.99711865234375,0.2263876659631729,0.6841618290901184,0.5059393513590097
1789692877695082800,9.007082763671875,0.18809680601358414,0.7552046195626259,0.7281558691173792
1789692877705047600,9.017047607421874,0.2075917800784111,0.8233446743309497,0.7976455849289894
1789692877715012900,9.027012939453124,0.2130371860027313,0.840285872259736,0.720904875075817
1789692877724977700,9.036977783203126,0.23596622616946697,0.9042150313347578,0.4765647883147001
1789692877734942700,9.046942626953125,0.24461948822438714,0.9434797047525644,0.029164135164022446
1789692877744907500,9.056907470703125,0.2258089892923832,0.9721201083034277,-0.5654261440724134
1789692877754872800,9.066872802734375,0.21249591873288154,1.076347375497222,-1.2447265046060085
1789692877764837600,9.076837646484375,0.16039397557377813,1.203978899154067,-2.024219762250781
1789692877774802700,9.086802734375,-0.0035807856627972793,1.3110849366545676,-2.7744711433202025
1789692877784766700,9.0967666015625,-0.18910159914195537,1.393853236234188,-3.537273378404975
1789692877794731500,9.1067314453125,-0.2527788292825222,1.4727835650861263,-4.242971331998706
1789692877804696800,9.11669677734375,-0.16960954768657682,1.5861849033385513,-4.932992993032932
1789692877814661600,9.12666162109375,-0.048287348740431474,1.6525585329562424,-5.59705077624917
1789692877824626700,9.136626708984375,0.10109540804200805,1.724274692645669,-6.181873110187054
1789692877834591700,9.146591796875,0.32780572095513344,1.8496248273670672,-6.751357589739561
1789692877844556800,9.156556884765624,0.5152233125329018,1.9608920762002466,-7.312903092986345
1789692877854521900,9.16652197265625,0.6538496929347515,1.8927759868293998,-7.87618170363605
1789692877864486700,9.176486572265626,0.8962614419817924,1.4961130027472973,-8.644033623325825
1789692877874450700,9.18645068359375,1.1062100143194198,1.2601087826550006,-9.400708899962902
1789692877884415700,9.196415771484375,1.115747073471546,1.0645926402956247,-10.011413863176108
1789692877894380800,9.206380859375,0.9231436036884784,0.6576976005345583,-10.711577563518285
1789692877904345900,9.216345947265625,0.6624702217638492,0.0697124186515808,-11.4343868109107
1789692877914310700,9.226310546875,0.348746802175045,-0.3668096976101398,-11.915497425961494
1789692877924275700,9.236275634765626,0.11101824250817298,-0.39415304708778853,-12.017695233154296
1789692877934240800,9.24624072265625,0.011264319052861536,-0.16017536438703536,-12.015513797461987
1789692877944205800,9.256205810546875,-0.10447159734368323,0.21053543231487273,-11.93059211924076
1789692877954170600,9.266170654296875,-0.21196341929137705,0.7774129442393779,-11.55742633060217
1789692877964134700,9.276134765625,-0.19243045130372047,1.5556196692049502,-11.036773978757857
1789692877974099700,9.286099609375,-0.09635493551664985,2.269205161178112,-10.52346205280423
1789692877984064800,9.296064697265624,0.031811443935567514,2.669771582439542,-9.927024099874496
1789692877994029800,9.30602978515625,0.24000061451839283,2.768431278634071,-9.316697906845807
1789692878003994600,9.31599462890625,0.45609716982543463,2.323040211740136,-8.72524417206943
1789692878013959700,9.325959716796875,0.5967588554471731,1.400416248011589,-8.142920669209957
1789692878023924500,9.335924560546875,0.6138023447066545,0.23843407758772373,-7.558622066885232
1789692878033889800,9.345889892578125,0.6293225699216127,-0.932786461302638,-6.816101572328805
1789692878043853800,9.355853759765624,0.871148043513298,-1.8073843530088662,-5.853419154456257
1789692878053818600,9.365818603515624,1.2249012756735085,-2.174732979801297,-4.65546492241919
1789692878063783700,9.37578369140625,1.5803507903575895,-2.0375977147400377,-3.4724083997845647
1789692878073748500,9.38574853515625,1.6852777302533388,-1.633911115631461,-2.6354016953259705
1789692878083713800,9.3957138671875,1.51074826182127,-1.1674532953113317,-2.221126482185721
1789692878093678600,9.4056787109375,1.185246726155281,-0.7857827131778001,-2.418780805617571
1789692878103643600,9.4156435546875,0.9387631976246833,-0.5183680402994155,-3.004285276600718
1789692878113608700,9.425608642578124,0.8536883746683597,-0.15009703796505927,-3.3837785146951673
1789692878123573800,9.43557373046875,0.7804349224090575,0.11259703613221644,-3.6022394793123005
1789692878133537800,9.445537841796876,0.789302119475603,0.20870470975637434,-3.679463004246354
1789692878143502600,9.455502685546875,0.8613432733356953,0.20773264985382556,-3.576542143476009
1789692878153467600,9.465467529296875,0.9150140732467174,0.153982354965806,-3.3105110339105126
1789692878163432700,9.4754326171875,0.9782581726670264,-0.0812678318887949,-2.9962019233882424
1789692878173397800,9.485397705078125,1.0911679280102253,-0.44033378350436686,-2.622513572180271
1789692878183362800,9.49536279296875,1.172016657704115,-0.846664175119996,-2.157985258617997
1789692878193327600,9.50532763671875,1.2289280469715596,-1.2874690832674502,-1.6981857271432876
1789692878203292700,9.515292724609376,1.282333473944664,-1.807427607628703,-1.2842939603626726
1789692878213257700,9.5252578125,1.3101146303176878,-2.3169407258212567,-0.858913415840268
1789692878223221800,9.5352216796875,1.376359665119648,-2.8303391610145567,-0.44561435425579543
1789692878233186800,9.545186767578125,1.3661913223266602,-3.333442996686697,-0.0009510171145200729
1789692878243151600,9.555151611328125,1.386190154260397,-3.812432381799817,0.4648573993861675
1789692878253116700,9.56511669921875,1.4318296234071255,-4.216935557988286,0.9413625664681196
1789692878263081700,9.575081787109376,1.461329274135828,-4.529448432743549,1.491626212722063
1789692878273046800,9.585046875,1.4788158309876918,-4.8307718049645425,2.0251865614563225
1789692878283011600,9.595011474609375,1.4978174685776233,-5.0874318595945835,2.5174977849572895
1789692878292976600,9.6049765625,1.5199287626206874,-5.343902529132366,3.0223253756821156
1789692878302940700,9.614940673828125,1.5498060144901276,-5.598872146457434,3.4632203002005815
1789692878312905700,9.62490576171875,1.5238332227133213,-5.835179148888588,3.9002743313819166
1789692878322870800,9.634870849609374,1.4853881951153278,-6.081426530575752,4.331283237180114
1789692878332835600,9.644835693359376,1.4415151511192321,-6.263633109506964,4.795884031456708
1789692878342800600,9.654800537109375,1.3122820374846458,-6.387381069728732,5.214330977323651
1789692878352765700,9.664765625,1.22215212309584,-6.485599451896548,5.604246825233101
1789692878362730800,9.674730712890625,1.1938931200779974,-6.553885637137293,5.974660684815049
1789692878372695800,9.68469580078125,1.1472213122088462,-6.524028259012103,6.339349152487516
1789692878382660600,9.69466064453125,1.0486007059156894,-6.485804034557939,6.598651246058941
1789692878392624600,9.704624755859374,1.0733705516435206,-6.367251304891705,6.861209711077809
1789692878402589700,9.714589599609376,1.107052967949584,-6.166576172333955,7.083466560846567
1789692878412554800,9.7245546875,1.2220891408622263,-6.066819913074374,7.1468316562980405
1789692878422519800,9.734519775390625,1.4649848740339277,-6.054729662308096,7.004460828670859
1789692878432484600,9.744484619140625,1.7110989847302436,-6.150566702297329,6.742295162361859
1789692878442450000,9.754449951171875,1.7652888400793074,-6.399687009072303,6.605935557848214
1789692878452414700,9.764414794921874,1.6511422364175319,-6.763907274711132,6.59227352772057
1789692878462379800,9.7743798828125,1.5016963558375835,-7.162658755505085,6.593761720451712
1789692878472343800,9.78434375,1.376685828334093,-7.44338766798675,6.72258216163218
1789692878482308600,9.79430859375,1.3013561543226242,-7.584087347531319,6.85261022503674
1789692878492274000,9.80427392578125,1.271325757718086,-7.743895632171631,6.822253665217757
1789692878502238700,9.81423876953125,1.2688427087306975,-7.858581165015697,6.710753192150593
1789692878512203800,9.824203857421875,1.2972095560371875,-7.7501102689027785,6.631795390769839
1789692878522168600,9.83416845703125,1.369768596291542,-7.486969035559892,6.377196944844722
1789692878532134000,9.8441337890625,1.4263351176440715,-7.187073650315403,5.783112861564755
1789692878542098700,9.8540986328125,1.4266156881511212,-6.84516750781536,4.9286371359109875
1789692878552063700,9.864063720703125,1.3739771538972854,-6.372620138448476,4.016562623247504
1789692878562027800,9.87402783203125,1.0671382331252097,-6.027777942496538,2.916087937709689
1789692878571992600,9.88399267578125,0.6105588327407837,-5.910173307335376,1.7464467769652603
1789692878581957400,9.893957275390624,0.17778700892329216,-5.796328316968679,0.7619318819910288
1789692878591922200,9.903922119140624,-0.33067572343349455,-5.591967189374566,-0.006023498073220252
1789692878601887500,9.913887451171876,-0.7541548182487487,-5.3606771383225915,-0.538524108621478
1789692878611852300,9.923852294921875,-0.9934884750247001,-5.0216392447352405,-0.7018599828660488
1789692878621817300,9.9338173828125,-1.0091858103722333,-4.597091059383749,-0.6365431688249111
1789692878631782400,9.943782470703125,-0.8224363273143768,-4.100301813685894,-0.375256038916111
1789692878641746200,9.95374609375,-0.4528302769839763,-3.6697529266148803,-0.10675766245424746
1789692878651711500,9.96371142578125,0.010689151796698569,-3.261739111956954,0.11264847405850886
1789692878661676300,9.97367626953125,0.45664369779229164,-2.748915846303105,0.227085000577569
1789692878671641300,9.983641357421876,0.8262439029037952,-2.232270392012596,0.24018355160355567
1789692878681606400,9.9936064453125,1.0782482406824827,-1.6733844633638857,0.1443488497018814
1789692878691571500,10.003571533203125,1.149744620141387,-1.1445230861008167,-0.11907003153860568
1789692878701536500,10.01353662109375,1.143457502695918,-0.7082616666018963,-0.40925884628295894
1789692878711501300,10.023501220703125,1.0523603507101535,-0.3207756761878729,-0.7265893504530191
1789692878721466400,10.03346630859375,0.843521785441041,0.028480829074978828,-0.9735030870944261
1789692878731430400,10.043430419921876,0.5509013596355915,0.30611177554130553,-1.175130990332365
1789692878741395500,10.0533955078125,0.16888004610193894,0.5872691425681114,-1.2915782721519469
1789692878751360500,10.063360595703125,-0.24328794735968112,0.8294757244318723,-1.3002490698635578
1789692878761325300,10.0733251953125,-0.7189221768260001,0.9892483532369136,-1.2452841384887694
1789692878771290400,10.083290283203125,-1.1403197891920804,1.0853636256456374,-1.1793284420222043
1789692878781255400,10.09325537109375,-1.4820675262600183,1.151060963436961,-1.13649760055542
1789692878791220500,10.103220458984374,-1.7132406729340552,1.2056933018565177,-1.0735469311237336
1789692878801185300,10.113185302734376,-1.8533418020635841,1.1465537151455878,-1.101979829403758
1789692878811149300,10.1231494140625,-1.8094991532057523,1.0291747054338454,-1.2392115405768156
1789692878821114400,10.1331142578125,-1.6556781262814997,0.9436942242860793,-1.3807546852082013
1789692878831079400,10.143079345703125,-1.4763035559058189,0.8997586364477872,-1.661800408554077
1789692878841044500,10.15304443359375,-1.2899153073757885,0.7907593325465917,-2.123144831383228
1789692878851009300,10.16300927734375,-1.1252537374854088,0.8521627725362777,-2.663553438577056
1789692878860974300,10.172974365234374,-1.2533558012634516,0.974625953644514,-3.4692718553245068
1789692878870939400,10.182939453125,-0.9407640160530805,1.0005693731963634,-3.864652106119692
1789692878880904400,10.192904541015626,-0.7007943994611501,1.3361235163211822,-4.4697743007645006
1789692878890868500,10.202868408203125,-0.7536872007369995,1.563777841219306,-5.121736864778399
1789692878900833300,10.212833251953125,-0.9158101920604705,1.6629168453633785,-5.829855908039212
1789692878910798300,10.22279833984375,-0.983593103954196,1.8752625419706106,-6.420269193851947
1789692878920763400,10.232763427734374,-0.9569505962222814,2.047607067579031,-7.007981404012441
1789692878930728400,10.242728515625,-0.8976999503523111,2.13462951747179,-7.617291113474964
1789692878940693500,10.252693603515626,-0.7506839272677898,2.049600871744752,-8.265116139292717
1789692878950658300,10.262658203125,-0.48533959439005697,1.8664684101402758,-8.904329404109715
1789692878960623400,10.272623291015625,-0.22374153536856173,1.6479700361222027,-9.459397235774993
1789692878970587400,10.28258740234375,-0.056428007930982856,1.27603700414896,-10.021351904344558
1789692878980552400,10.292552490234375,-0.06643732423735782,0.7850006228893995,-10.516848772144318
1789692878990517500,10.302517578125,-0.045452403875719756,0.2829167779147625,-10.964138950657844
1789692879000482300,10.312482421875,-0.01260229194164276,0.009134908092021941,-11.15247424160242
1789692879010447400,10.322447265625,0.0016986206114292144,0.05090133519768714,-11.153470266902445
1789692879020412400,10.332412353515625,-0.0023117840737104413,0.08089490692317486,-11.189171694880724
1789692879030377500,10.34237744140625,-0.0525906125920359,0.10700549973547457,-11.256886217713355
1789692879040342300,10.35234228515625,-0.018597732964158058,0.2878957353711128,-11.096426775687933
1789692879050306300,10.362306396484374,0.25502982307970523,0.9351169500768184,-10.548303064072131
1789692879060271400,10.372271240234374,0.5605290196806192,1.903669721287489,-9.805200385713576
1789692879070236400,10.382236328125,0.6928729588121175,2.6835335658103228,-9.095966659209132
1789692879080201500,10.392201416015626,0.5788637177944183,3.109121615603566,-8.428114159885048
1789692879090166300,10.402166259765625,0.24694062464833258,2.940526797917485,-8.07401956694126
1789692879100131300,10.41213134765625,-0.007805139059294015,2.2111948707580567,-7.837894350817799
1789692879110096400,10.422096435546875,-0.16176060601817444,1.1602958247721193,-7.432499778747558
1789692879120061400,10.4320615234375,-0.2848918773800134,-0.1047913308173418,-6.965556805258989
1789692879130025500,10.442025390625,-0.18583644159985704,-1.330866326445341,-6.309808585226535
1789692879139990300,10.451990234375,0.060188200714718545,-2.234581591564417,-5.502616588795185
1789692879149955300,10.461955322265625,0.3836374982923269,-2.7010259678810833,-4.531318902790546
1789692879159920400,10.47192041015625,0.620616116374731,-2.706037658563256,-3.4369600697845217
1789692879169885400,10.481885498046875,0.7179214753508567,-2.3465829998910426,-2.539227970728278
1789692879179850200,10.491850341796875,0.6701070002526044,-1.7883657642841337,-1.9657167198777197
1789692879189815300,10.501815185546874,0.5754290671706199,-1.2795277688741684,-1.8884850116372107
1789692879199780400,10.5117802734375,0.5624795692265033,-0.9521703762084245,-2.2807973992943764
1789692879209744400,10.521744384765626,0.6952595616877079,-0.582219457963109,-2.477496029436588
1789692879219709400,10.53170947265625,0.8640402573347091,-0.32574002059698104,-2.54756091478765
1789692879229674200,10.54167431640625,1.038802950000763,-0.25817922702133655,-2.5217928518027066
1789692879239639300,10.551639404296875,1.2075158411085605,-0.2782750895887613,-2.3714380396842953
1789692879249604400,10.561604248046875,1.304106914335489,-0.4157224893391132,-2.0905320170700548
1789692879259569400,10.5715693359375,1.3300620243251322,-0.6561486175268888,-1.7112012760609387
1789692879269534500,10.581534423828124,1.3059095798432827,-0.9625532385349274,-1.2237100200623272
1789692879279499300,10.591499267578126,1.2143605924367904,-1.3265923023879527,-0.686195380744338
1789692879289463300,10.60146337890625,1.092746137112379,-1.7012088743567466,-0.27845687589645385
1789692879299428400,10.611428466796875,1.030206971091032,-2.0957266631036995,0.06387772114872932
1789692879309393400,10.621393310546875,1.0645558154165744,-2.437830958524346,0.4368979638367891
1789692879319358500,10.6313583984375,1.1081705007374285,-2.8100726180553433,0.7477893748700618
1789692879329323300,10.6413232421875,1.157221239632368,-3.1949031255245206,1.0835545303970575
1789692879339288600,10.65128857421875,1.239268239200115,-3.484256658488512,1.4969365940898656
1789692879349253400,10.66125341796875,1.3019582118690014,-3.7560654746726154,1.8793921891212462
1789692879359218400,10.671218505859375,1.3269371703028678,-3.9687127845749255,2.272905184739828
1789692879369182500,10.681182373046875,1.3459551745057106,-4.229643940652907,2.6561756032854316
1789692879379147300,10.691147216796875,1.3246597268901765,-4.524412776663899,3.017354017010331
1789692879389112600,10.701112548828124,1.3034662783443927,-4.786057341708243,3.4348715730726718
1789692879399077400,10.711077392578124,1.2587702275276182,-5.0842216653764245,3.802212016558647
1789692879409042400,10.72104248046875,1.2028665539979935,-5.4331771418660875,4.195943038842082
1789692879419007200,10.73100732421875,1.1230852343399076,-5.794491164669394,4.584228655201197
1789692879428972500,10.74097265625,1.0432276345752178,-6.1219549403190605,5.032174667274951
1789692879438937300,10.750937255859375,0.9596493337869644,-6.390075131118297,5.532450001522898
1789692879448901400,10.7609013671875,0.8351998011671006,-6.625572570732236,6.024650750386715
1789692879458866400,10.770866455078124,0.7985786279954016,-6.840638632214069,6.503997862896322
1789692879468831200,10.780831298828126,0.8149113386370241,-6.904082053598761,7.024241049417853
1789692879478796500,10.790796630859376,0.8515783237118274,-6.879288388603925,7.426968448105454
1789692879488761300,10.80076123046875,0.9840426743526011,-6.760930889248848,7.652426139742135
1789692879498726400,10.810726318359375,1.1826632124681025,-6.6607742324948305,7.6880206002146005
1789692879508691200,10.820691162109375,1.3988637578725813,-6.622817719066143,7.442896085077524
1789692879518656500,10.830656494140625,1.5871955416858194,-6.7105930331528185,6.904716844370961
1789692879528620500,10.84062060546875,1.7199860555410384,-6.897595614188909,6.344490607029199
1789692879538585300,10.85058544921875,1.7833330308139324,-7.158270165157318,5.880387825402617
1789692879548550400,10.86055029296875,1.7575018394649027,-7.488118790116905,5.49345011652112
1789692879558515200,10.87051513671875,1.6276678373277187,-7.755306083980202,5.361290301784873
1789692879568480500,10.88048046875,1.3655004174530505,-8.031406752139329,5.244384754803776
1789692879578445300,10.8904453125,0.9349532839477062,-8.392311609619856,4.998668703514337
1789692879588410000,10.90041015625,0.4924854110240936,-8.512408061596751,4.905327571994066
1789692879598375400,10.91037548828125,0.18205400045169517,-8.288633793002367,4.9019028582423925
1789692879608339200,10.920339111328126,-0.048759665260184555,-7.804206016227602,4.801266309016943
1789692879618304300,10.93030419921875,-0.22614099772572516,-7.062357137322426,4.45715944160223
1789692879628269300,10.940269287109375,-0.3483925819098949,-6.403100616908073,3.7231367262780664
1789692879638234000,10.950234130859375,-0.39092593826744704,-5.888360703977942,2.848893054836988
1789692879648199400,10.960199462890625,-0.5059329581508413,-5.522127929472923,1.8744909730762243
1789692879658164200,10.970164306640624,-0.6816437087893485,-5.445913289320469,0.7868874595493077
1789692879668129300,10.98012939453125,-0.8949088583290576,-5.496336485612392,-0.24591537325382232
1789692879678094000,10.990093994140626,-1.0635855090796946,-5.479899730074405,-1.0625538279443978
1789692879688058000,11.00005810546875,-1.2208932090759277,-5.327757450017333,-1.6035457879841326
1789692879698023400,11.0100234375,-1.2917887000322341,-4.982396783149242,-1.7288725418299435
1789692879707988200,11.01998828125,-1.2185878547430038,-4.440506120704114,-1.4826508791059254
1789692879717953300,11.029953369140625,-1.0463502966403961,-3.764488727363944,-1.0664034891098737
1789692879727918000,11.03991796875,-0.8289233512461185,-3.0520740327358244,-0.6141396138370037
1789692879737883100,11.049883056640626,-0.6742413235783576,-2.4187083249032497,-0.32787469453811646
1789692879747848200,11.05984814453125,-0.6071721129119396,-1.7925807516306638,-0.16696107900440693
1789692879757813200,11.069813232421875,-0.5525275360653177,-1.2318822206020354,-0.05614391202628612
1789692879767777300,11.07977734375,-0.5114192440748214,-0.7106389171272516,-0.05983341419398784
1789692879777742000,11.0897421875,-0.47546066299770023,-0.21796002935767173,-0.06406885980665683
1789692879787707100,11.09970703125,-0.4570212989330292,0.12905892611145972,-0.06879004310965538
1789692879797672200,11.109672119140624,-0.4107224890947342,0.38639877969920633,-0.05130640886723995
1789692879807637200,11.11963720703125,-0.36798926278352734,0.5238847578942776,-0.0034217911422252654
1789692879817602000,11.12960205078125,-0.2934206362724304,0.529842789515853,0.10453297214210033
1789692879827567000,11.139567138671875,-0.22162030543088912,0.488721090054512,0.35807577153444287
1789692879837531100,11.14953125,-0.23913258124589917,0.4206424100846052,0.6510965948343277
1789692879847496200,11.15949609375,-0.276812104364112,0.25024901854395865,0.776338593006134
1789692879857461200,11.169461181640624,-0.19150343611929566,0.16273907739520072,0.8209154013574123
1789692879867426000,11.179426025390624,-0.06307108094096184,0.25342531049251554,0.8983744886130094
1789692879877391000,11.18939111328125,-0.01894784330977127,0.3672837448626756,0.8249287286520004
1789692879887356200,11.199356201171875,0.023995792615413663,0.5008733001410961,0.635856940126419
1789692879897321200,11.2093212890625,0.12116207191441207,0.6561345890015363,0.29883798514604565
1789692879907286300,11.219286376953125,0.26804303390979767,0.8460808222740888,-0.2805237452983856
1789692879917250000,11.22925,0.47996615772340445,0.9812152689069509,-0.9287100056439638
1789692879927215000,11.239215087890624,0.6690215431034564,1.0821592766463757,-1.5881056422680615
1789692879937180200,11.24918017578125,0.7543523866474628,1.147716913706064,-2.3414584964841603
1789692879947145200,11.259145263671876,0.7755483194112778,1.2129723529487848,-3.0216777254283427
1789692879957110300,11.2691103515625,0.7511667423486709,1.2622598232090472,-3.6884307390779254
1789692879967075000,11.279074951171875,0.6760065796852112,1.347759593579173,-4.399997876965999
1789692879977040400,11.289040283203125,0.5462661010503769,1.4533604872137307,-5.094187179073691
1789692879987005200,11.299005126953125,0.35686230409145353,1.5376795233666896,-5.798803182649612
1789692879996969200,11.30896923828125,0.2222784770786762,1.6019640717506407,-6.588539017367363
1789692880006934300,11.318934326171876,0.14304068971276282,1.724914159592986,-7.306937462580204
1789692880016899000,11.328899169921876,0.11312712442092597,1.8126789522856472,-7.9892253144919865
1789692880026864400,11.338864501953125,0.11074943550415337,1.8376660940259695,-8.687292919337748
1789692880036829200,11.3488291015625,0.11737670815680175,1.852590691435337,-9.349094448059796
1789692880046794200,11.358794189453125,0.11767017467804253,1.8188707926630974,-9.970915848571062
1789692880056759000,11.368759033203125,0.16933482239842415,1.6743495090037583,-10.577670612853765
1789692880066723000,11.37872314453125,0.29080782342553135,1.419253050428629,-11.194223133051395
1789692880076688400,11.3886884765625,0.503128385591507,1.1071984408348798,-11.746102982330322
1789692880086653200,11.398653076171875,0.8168647377271204,0.9560106850236654,-12.079181090730428
1789692880096618200,11.4086181640625,1.1545266667861491,0.996077322474122,-12.204496738660335
1789692880106583000,11.4185830078125,1.4320891511261462,1.0561439609020948,-12.26409575957656
1789692880116548400,11.42854833984375,1.609505573171377,0.9849427649974822,-12.224653391504287
1789692880126513200,11.43851318359375,1.8040870650291443,1.0151064325928687,-11.971857026565074
1789692880136477200,11.448477294921876,2.025784527349472,1.3809592678695917,-11.406622021150588
1789692880146442200,11.458442138671876,2.1593583005368706,1.9684750786751508,-10.601543655872344
1789692880156407000,11.468406982421875,2.089741743475199,2.3857857139885423,-9.82494319705963
1789692880166372400,11.478372314453125,1.6604805581271647,2.3783424122452734,-9.079438718256354
1789692880176337200,11.488337158203125,1.0899637398522346,1.9557991369754075,-8.504104928153753
1789692880186302200,11.49830224609375,0.6899743147611618,1.2629174103349448,-8.122869230306149
1789692880196267000,11.50826708984375,0.5242204195894301,0.4456926801890135,-7.750363951402902
1789692880206232300,11.518232421875,0.5701064108431338,-0.5262871428608894,-7.236283963686227
1789692880216196400,11.5281962890625,0.6742763948917389,-1.5365408747255802,-6.699286041718721
1789692880226161200,11.5381611328125,0.8373427314799279,-2.3440432522803545,-5.974730242919922
1789692880236126200,11.548126220703125,1.0253436759036034,-2.6832816368758676,-5.051802912330627
1789692880246091000,11.558091064453125,1.1251520306766032,-2.556917941197753,-4.106227112081647
1789692880256056300,11.568056396484375,1.124343052381277,-2.1384429382801056,-3.3725264683187004
1789692880266021400,11.578021484375,1.0130325489282608,-1.6563216848820448,-3.033604310065508
1789692880275986200,11.587986083984376,0.8485632867395877,-1.2942384312719106,-3.1191356446176766
1789692880285951200,11.597951171875,0.7896212684273719,-0.9344359820753335,-3.368465210229158
1789692880295915000,11.6079150390625,0.8492880938827991,-0.5796878936588764,-3.372190368232131
1789692880305880300,11.61788037109375,0.8665466871976852,-0.4446089766055345,-3.3526813656419514
1789692880315845400,11.627845458984375,0.9397966323256493,-0.4354086020618677,-3.1198855862021446
1789692880325810200,11.63781005859375,1.0523451531410217,-0.485619616907835,-2.7513340133607387
1789692880335775200,11.647775146484374,1.1736322031419724,-0.6516963142931461,-2.2803718673586846
1789692880345740300,11.657740234375,1.262704059845209,-0.9369389048069715,-1.6643430787742137
1789692880355705300,11.667705322265626,1.2412614588439463,-1.311297118100524,-1.0722767650574445
1789692880365669400,11.67766943359375,1.0974375097990035,-1.7168804907411337,-0.5576075792759656
1789692880375634200,11.68763427734375,1.0621849946320057,-2.153571533828974,-0.028546880048513412
1789692880385599200,11.69759912109375,1.1309282759904862,-2.5471868207782506,0.40582127304971216
1789692880395564300,11.707564208984374,1.1761983273029326,-2.9303292290300127,0.8220879522681236
1789692880405529300,11.717529296875,1.1148481518704443,-3.330619171437621,1.2230904268592595
1789692880415494100,11.727494140625,1.0515746802251786,-3.72400707937181,1.590780998957157
1789692880425459200,11.737459228515625,0.9971171869158745,-4.080433622394502,1.9659534512430428
1789692880435423200,11.74742333984375,0.9360415906410664,-4.463045869292318,2.3388491907685993
1789692880445388300,11.75738818359375,0.9065642978746443,-4.774381809222698,2.714363003838062
1789692880455353300,11.767353271484374,0.8302046962935477,-5.066242356571554,3.0917759285271167
1789692880465318100,11.777318115234374,0.7197709026098251,-5.380631546592712,3.504796757692098
1789692880475283200,11.787283203125,0.6373438907485455,-5.681372150489688,3.9146260973393914
1789692880485248000,11.797248046875,0.5571230836946517,-5.953544831550121,4.340934278100729
1789692880495213300,11.80721337890625,0.46743514091968535,-6.159317579507827,4.783752864158153
1789692880505178000,11.81717822265625,0.380754051810503,-6.348278893396258,5.191151761788129
1789692880515142100,11.82714208984375,0.2844203143455088,-6.516749207919836,5.588296976429223
1789692880525107200,11.837107177734374,0.17865327036380768,-6.693797381174564,5.955490120398998
1789692880535072300,11.847072265625,0.08087189137376845,-6.809440945395827,6.322581557559967
1789692880545037300,11.857037353515626,-0.0019020342290401457,-6.817486304685473,6.678544866985082
1789692880555002000,11.867002197265625,-0.005751768459752202,-6.690432288655638,6.99780078625977
1789692880564967200,11.87696728515625,0.08770641356892883,-6.46662820944488,7.178555412817001
1789692880574932200,11.88693212890625,0.25080321836061775,-6.290940218627452,7.109430438664555
1789692880584895700,11.896895751953124,0.43651868219561873,-6.220383165845274,6.690490156322717
1789692880594861000,11.906861083984374,0.7396048993706703,-6.09881079609692,6.350310691484808
1789692880604825900,11.916825927734376,0.9693757780313491,-6.1546653697878115,6.06567015851736
1789692880614791000,11.926791015625,1.0463140562832356,-6.505497161543369,5.666716433149576
1789692880624756000,11.936755859375,1.0919090287011115,-6.915984672838449,5.474134590676426
1789692880634721000,11.946720947265625,1.1186626686573027,-7.364246326732635,5.536665573391318
1789692880644686000,11.95668603515625,0.9908522813022136,-7.868848876529931,5.580695853775739
1789692880654649900,11.96664990234375,0.6884814458549022,-8.40463216201067,5.578994310554862
1789692880664615000,11.976614990234374,0.4446048849523067,-8.773516912329196,5.743742974206805
1789692880674580000,11.986580078125,0.3778770350694656,-8.827305785661935,5.956804125607014
1789692880684545000,11.996544921875,0.40035891599059104,-8.548340375721454,6.214649590629339
1789692880694510000,12.006510009765625,0.4891781861722469,-7.93382783691883,6.3013856247961515
1789692880704475000,12.016474853515625,0.6098807873487472,-7.201777882972359,5.9480257758677
1789692880714440000,12.02643994140625,0.5934814412117004,-6.598672873368859,5.0480894447654485
1789692880724405000,12.036405029296875,0.5121171632111072,-6.0700996653974055,3.96740900849998
1789692880734369000,12.046369140625,0.3519067275106907,-5.613079535508155,2.833181106442213
1789692880744334000,12.056333984375,0.08065817555785179,-5.414450229564308,1.616105994349718
1789692880754299000,12.066298828125,-0.1610591614842415,-5.3833583412081,0.4570113620609045
1789692880764264000,12.076263916015625,-0.3310381270051002,-5.2159167852103705,-0.3729658821523189
1789692880774229000,12.08622900390625,-0.37703766163587565,-4.982148361346125,-0.8865589631348848
1789692880784194000,12.096194091796875,-0.33618776485323904,-4.656777174061537,-1.0754179856926203
1789692880794158800,12.106158935546874,-0.3239934691905975,-4.2493373598992825,-0.9467372452437877
1789692880804123000,12.116122802734376,-0.3229261322200298,-3.8310210546746846,-0.6294482421278953
1789692880814088000,12.126087890625,-0.28960137024521826,-3.3656893157750365,-0.277367327094078
1789692880824053000,12.136052978515625,-0.24270284094810485,-2.849154336121678,-0.09776654674708843
1789692880834018000,12.14601806640625,-0.1327577714962419,-2.3114631711930036,-0.06102642337083816
1789692880843982800,12.15598291015625,-0.005054945302009582,-1.7687801893264055,-0.1312567284166813
1789692880853948000,12.165947998046875,0.054107985751889645,-1.2548176905095576,-0.30433190638720986
1789692880863913000,12.175912841796874,0.0222188643370755,-0.7519359731554984,-0.45528994509577747
1789692880873877000,12.185876953125,-0.10184357779449783,-0.37288580265343185,-0.6332002881377935
1789692880883842000,12.195842041015625,-0.18410218341946602,-0.12632920888662338,-0.8845125519990921
1789692880893806800,12.205806884765625,-0.19167992519736288,0.08946107521653175,-1.0288818599671126
1789692880903772000,12.21577197265625,-0.18375965359210966,0.21627660631537435,-1.0780471651524304
1789692880913737000,12.225737060546875,-0.14227380612664856,0.2891419360399246,-1.0948358028680085
1789692880923702000,12.235701904296874,-0.06908464214205741,0.3452916932851076,-1.0126824203163385
1789692880933667000,12.2456669921875,0.03491348333782516,0.3692565062403679,-0.9405658631324767
1789692880943630800,12.255630859375,0.09183423408865928,0.33635260002613065,-0.9369085096687078
1789692880953596000,12.265595947265625,0.14184241983890533,0.2936380784153938,-1.0349439364850521
1789692880963561000,12.27556103515625,0.16127309649586677,0.31782676325440407,-1.2070938163042069
1789692880973526000,12.285526123046875,0.16343582748770713,0.36697687087059017,-1.4480769938528537
1789692880983490800,12.29549072265625,0.19746669190526006,0.45674832721054553,-1.712571395370364
1789692880993455900,12.305455810546874,0.24498832153677938,0.6196838039606809,-2.016323456043005
1789692881003421200,12.315421142578124,0.33148236364126205,0.8220090418130159,-2.4037346276551483
1789692881013385000,12.325385009765625,0.47082419883608817,1.0087287142544985,-2.8535920263081787
1789692881023350000,12.33535009765625,0.5255927673885599,1.155031620633602,-3.3212931246876716
1789692881033314800,12.345314697265625,0.5879249761283397,1.2970096495509147,-3.824913093188405
1789692881043280000,12.35527978515625,0.6605576661407947,1.5389128645539283,-4.242221974936127
1789692881053245200,12.3652451171875,0.7444166835665702,1.8233219268530607,-4.65639723483324
1789692881063210000,12.3752099609375,0.754143127810955,2.092811067917943,-5.161644512274861
1789692881073175000,12.385175048828126,0.6323498087882995,2.3122505221784113,-5.723812531334161
1789692881083138800,12.395138916015625,0.4436088596522808,2.475731942373514,-6.290608210194111
1789692881093103900,12.405103759765625,0.2451309448778629,2.6174083579957483,-6.864074452859163
1789692881103069200,12.415069091796875,0.02807106096399948,2.695453720706701,-7.482580445212125
1789692881113034000,12.425033935546875,-0.2008160023331642,2.6145190662950277,-8.152969769537448
1789692881122999000,12.4349990234375,-0.436767615455389,2.3860388119667766,-8.756917659705877
1789692881132963800,12.4449638671875,-0.6024643736124038,2.082337020176649,-9.247755888044834
1789692881142929000,12.454928955078126,-0.6637526627898216,1.7724059786081312,-9.63269979276061
1789692881152893200,12.46489306640625,-0.6323883872330188,1.3859990156024693,-10.043891068410872
1789692881162858000,12.47485791015625,-0.5268693266630172,0.8543646664947271,-10.511560018086433
1789692881172823000,12.484822998046875,-0.36104046655893324,0.34303251618146896,-10.909562141817808
1789692881182787800,12.494787841796875,-0.16989245628118513,0.06882979059815407,-11.147619202786684
1789692881192753200,12.504753173828124,0.1517617380405776,0.039565702190995214,-11.300420239013432
1789692881202718000,12.514718017578126,0.49917234144210815,0.17825638000071048,-11.398474955052137
1789692881212683000,12.52468310546875,0.7756430119574069,0.44616322031021116,-11.406886225044726
1789692881222647000,12.53464697265625,1.0280945089817046,0.9651245503276586,-11.266885049158335
1789692881232611800,12.54461181640625,1.1266004759192465,1.7065461437314748,-10.935054310470818
1789692881242577200,12.5545771484375,1.0858160455882548,2.4361796841859817,-10.425538269668817
1789692881252542000,12.5645419921875,0.926193638908863,2.850060929572582,-9.929204366523027
1789692881262507000,12.574507080078124,0.6895405995190144,2.708937471657991,-9.491922371804714
1789692881272471800,12.584471923828126,0.4324292939901352,2.075553643646836,-8.938501722824572
1789692881282436900,12.594436767578125,0.12377134109735488,1.0940408530980348,-8.244103746402264
1789692881292401200,12.604401123046875,-0.020440730482339856,-0.15155658912360667,-7.585324195849895
1789692881302366000,12.614365966796875,0.25218378599882124,-1.209212123632431,-6.690159901455044
