time,seconds_elapsed,z,y,x
1789756023387887000,0.09988720703125,0.6602081220507622,0.3360153308957815,0.5270318237483501
1789756023397896000,0.10989599609375,0.5948515605211258,0.28337913472950454,0.49979485725462436
1789756023407905800,0.11990576171875,0.3858960908740759,0.15329524948447942,0.3528359711848199
1789756023417915000,0.129914794921875,0.11208382591307163,-0.005902794302999973,0.17918445463106036
1789756023427924000,0.139924072265625,-0.18085457980036734,-0.1376040516167879,-0.0184488260127604
1789756023437933000,0.14993310546875,-0.35518472626805303,-0.10955781456679105,-0.23535642370805143
1789756023447943000,0.15994287109375,-0.47065585653185843,-0.01382365043014288,-0.3723972884841263
1789756023457951700,0.16995166015625,-0.39282150622308254,0.11594663882106541,-0.3251994839794934
1789756023467960800,0.1799609375,-0.2711164500057697,0.20725480320900677,-0.11054536429941654
1789756023477970000,0.189969970703125,-0.23416589874923227,0.3048477469548583,0.10956409817710518
1789756023487979800,0.199979736328125,-0.21293431015014647,0.4250277855619788,0.2710626739919185
1789756023497988900,0.20998876953125,-0.18638766400814055,0.3436912723511457,0.32191929326504465
1789756023507998000,0.219998046875,-0.1369768596291542,0.08611205704957246,0.23488486067354677
1789756023518006800,0.2300068359375,0.05614391202628612,-0.34299817552044987,0.02743979558944702
1789756023528017000,0.240016845703125,0.06611468642055988,-0.2587310156852007,-0.15803864461928605
1789756023538026000,0.25002587890625,0.05335574261248111,-0.10476751155033708,-0.4266581632427871
1789756023548034800,0.260034912109375,0.23057693434655666,-0.06060016078278422,-0.5073252527594566
1789756023558044000,0.2700439453125,0.1004781437933445,-0.2224425815992057,-0.2144596200212836
1789756023568054000,0.280053955078125,-0.0423287371635437,-0.20600494927838445,-0.0986797160692513
1789756023578062800,0.290062744140625,-0.05798398693501949,-0.07144523379355669,-0.06180471426695585
1789756023588072000,0.300072021484375,-0.12981822004616259,0.016983575765788555,0.05005217102244496
1789756023598080800,0.310080810546875,-0.2200923652112484,0.11088716347441077,0.1506494111508131
1789756023608091000,0.3200908203125,-0.28535423419475553,0.20647870426997542,0.1678553974956274
1789756023618100000,0.330099853515625,-0.22891806122362612,0.2867994645670056,0.14064283479079603
1789756023628109000,0.340109130859375,-0.11261398726701735,0.29150165090858937,0.11410174160674214
1789756023638118000,0.350117919921875,-0.011984452304244041,0.2500900285899639,0.09634279755428433
1789756023648127700,0.360127685546875,0.09635025020837783,0.21301848130226134,0.06290931450799107
1789756023658136800,0.37013671875,0.03164367702007294,0.17291779545173047,0.06964929028749466
1789756023668145700,0.380145751953125,-0.0809060128390789,0.16496449835970997,0.06772095257341862
1789756023678154800,0.39015478515625,-0.08070084565579891,0.2095442293204367,-0.03930675899386406
1789756023688164600,0.40016455078125,0.07938041070699692,0.2341695520110428,-0.10621829488053917
1789756023698173700,0.410173583984375,0.29543723679184913,0.17956366320699452,-0.02492503628954291
1789756023708182800,0.420182861328125,0.3814712601691484,0.09904957229495048,0.06556245936527848
1789756023718191900,0.43019189453125,0.39358664537668225,0.0357573959492147,0.08991437194198369
1789756023728202000,0.440201904296875,0.2956207766652107,-0.016623948673158882,0.047025370547175406
1789756023738210600,0.45021044921875,0.05880874732136726,-0.018149258544296026,0.002234919445216656
1789756023748219600,0.4602197265625,-0.10443652603030204,-0.013449410290271043,-0.047469168791919945
1789756023758228700,0.470228759765625,-0.22476561771929263,0.03685337449237704,-0.11499883657693863
1789756023768238800,0.48023876953125,-0.2146580652028322,0.06055997490286827,-0.15499284718260167
1789756023778248000,0.490248046875,-0.060792614614963526,0.03843172972500324,-0.1354363521888852
1789756023788256800,0.5002568359375,0.1327589496731758,0.02021028272733092,-0.09204378518611192
1789756023798265600,0.510265625,0.29290508796572684,-0.002594108146429062,-0.02276069786250591
1789756023808275700,0.520275634765625,0.43246027365028855,-0.01644508497491479,0.10184037205725907
1789756023818284800,0.530284912109375,0.4702151270270347,0.020372049160301685,0.22629136598184704
1789756023828294000,0.5402939453125,0.30762393366992474,0.06877820654138922,0.24180501532554624
1789756023838303000,0.550302978515625,0.09237959301173686,0.10457988002374767,0.19798633186519146
1789756023848312800,0.560312744140625,-0.048582536861300464,0.18511764407232403,0.07070829782113433
1789756023858321700,0.57032177734375,-0.1272434011220932,0.2364972643062472,-0.04924596920609474
1789756023868330800,0.580330810546875,-0.133429980802536,0.23735081239566205,-0.07889438075572251
1789756023878339800,0.59033984375,-0.14043547565042971,0.19263883335739374,-0.09121069536283612
1789756023888349700,0.600349609375,-0.10819675534665583,0.11114537601917981,-0.04953837628141045
1789756023898358800,0.61035888671875,0.0005056114345788955,0.04650733802244067,-0.023038491890579462
1789756023908368000,0.620367919921875,0.053641573816537856,0.017937953881174324,-0.03483940432146192
1789756023918376700,0.630376708984375,0.10298165104687214,0.015115736067295073,-0.012876140446960926
1789756023928386800,0.64038671875,0.10145020369589328,0.03586436345502734,-0.010903379069268703
1789756023938395600,0.650395751953125,0.06419102488160133,0.02183393840640783,-0.01706204782947898
1789756023948404700,0.66040478515625,-0.034517186629772184,0.014410218146443367,-0.06584098404571413
1789756023958413800,0.670413818359375,-0.14813245989382265,0.001158230124413967,-0.10000672688931227
1789756023968424000,0.680423828125,-0.25763503714203834,-0.01737842030227184,-0.11234773754626512
1789756023978432800,0.690432861328125,-0.35614743382036684,-0.03783113348335027,-0.09379384372383355
1789756023988441600,0.700441650390625,-0.3672019117981195,-0.04310205962359905,-0.09153905053436756
1789756023998450700,0.71045068359375,-0.29097908833920955,-0.059468380273878574,-0.04709346734732389
1789756024008460800,0.720460693359375,-0.20253449668884277,-0.05842880809307098,0.04022657725252211
1789756024018470000,0.730469970703125,-0.07474573664367198,-0.03337970703244209,0.07780220160484314
1789756024028479000,0.74047900390625,0.01945814918577671,0.00037000235617160797,0.08902326832115649
1789756024038487600,0.750487548828125,0.06473521476089954,0.014542612354457378,0.08677300517633557
1789756024048497700,0.76049755859375,-0.029090485405921934,-0.001525309871137142,0.05874744558818638
1789756024058506800,0.7705068359375,-0.14049334331750868,-0.04069207587242126,0.009396993094310163
1789756024068515800,0.780515869140625,-0.17919804476499557,-0.0954588543266058,-0.02734663741327822
1789756024078525000,0.79052490234375,-0.20062194106578826,-0.16584318089038133,-0.05896583757922053
1789756024088534800,0.80053466796875,-0.19872809014320372,-0.22092384759932754,-0.061776803346723315
1789756024098543600,0.810543701171875,-0.28262743957936765,-0.22043372599482536,-0.08665515095032751
1789756024108552700,0.820552734375,-0.3193891902655363,-0.18481676142960785,-0.12733736301586032
1789756024118561800,0.830561767578125,-0.26771219452023504,-0.09674509474486112,-0.0860975170675665
1789756024128571600,0.840571533203125,-0.19474398894309997,-0.04456073399931192,-0.005693754662200809
1789756024138580700,0.850580810546875,-0.1783954962104559,0.013941723851859569,0.07248181029967964
1789756024148589800,0.86058984375,-0.20897592791318892,0.02980623245984316,0.14180734852552412
1789756024158598700,0.8705986328125,-0.22906126908659932,0.09827361948639154,0.05150331967882812
1789756024168608800,0.88060888671875,-0.20918927840292453,0.15500439148992298,-0.029988676354661584
1789756024178617600,0.89061767578125,-0.17862755140066147,0.14610299989283085,-0.032778964660316705
1789756024188626700,0.900626708984375,-0.03860650177001953,0.12402706942409276,-0.01720247921347618
1789756024198635800,0.9106357421875,0.10582651908397674,0.052421384371817106,0.036263591905683276
1789756024208646000,0.92064599609375,0.16659809091091154,-0.0138042150773108,0.07849303341321646
1789756024218655000,0.930655029296875,0.18615210168659685,-0.03202317785695195,0.11551299664415418
1789756024228663800,0.940663818359375,0.2047942583143711,-0.022881693893671035,0.0856735195018351
1789756024238672600,0.950672607421875,0.19548107104599474,0.009306611397117377,0.05346241785734892
1789756024248682800,0.960682861328125,0.17957213877439498,0.03907441154271364,0.00863945272527635
1789756024258691800,0.97069189453125,0.1472773043692112,0.0216534672729671,-0.04098777088336646
1789756024268701000,0.980700927734375,0.08716974940896034,-0.018005320028960704,-0.025752646220102905
1789756024278709800,0.990709716796875,-0.0028220716834068296,-0.06630626346990466,-0.024800021670386193
1789756024288719600,1.0007197265625,-0.015351298388838768,-0.06112491530925035,-0.0297694075807929
1789756024298728700,1.010728759765625,0.07188567103743553,-0.06728504537418484,-0.03358282838910818
1789756024308737800,1.02073779296875,0.1727174505740404,-0.07641790763959289,-0.041271629326045514
1789756024318747000,1.030746826171875,0.2585591662496328,-0.08255655652508138,-0.07398154733814298
1789756024328756700,1.0407568359375,0.31341771464049817,-0.07949322343170642,-0.07102459722869098
1789756024338765800,1.050765869140625,0.3082043639063835,-0.08622048586010933,-0.06813121387474239
1789756024348774700,1.060774658203125,0.23277765926122665,-0.1038259929165244,-0.06544613950923085
1789756024358784800,1.07078466796875,0.08253975152075291,-0.08423647243604064,-0.04627922835499048
1789756024368793600,1.080793701171875,-0.019423077872395514,-0.026945874592661855,-0.03441767177805304
1789756024378802700,1.090802734375,-0.04870411741435528,0.027091274412721394,0.02026763893775642
1789756024388811800,1.100811767578125,-0.08487433194816112,0.06414850091412663,0.049641763590648764
1789756024398822000,1.11082177734375,-0.10129939704835414,0.0851455501049757,0.04727225798033178
1789756024408830700,1.120830810546875,-0.06634498804509639,0.09534209607914089,0.02550722009167075
1789756024418839800,1.13083984375,-0.07864099051654339,0.10499240634739399,0.0410028953872621
1789756024428848600,1.1408486328125,-0.08576923496127128,0.08738339215964078,0.026879239097237585
1789756024438858800,1.150858642578125,-0.11362521013617514,0.06326850320920348,0.04389313693605363
1789756024448867800,1.160867919921875,-0.1354249540120363,0.05509045745059848,0.026475115275755523
1789756024458877000,1.170876953125,-0.15384674588739872,0.03747603643536567,0.011481398152932525
1789756024468885800,1.1808857421875,-0.12156652452945708,0.03261398335695267,-0.004377557497099041
1789756024478895600,1.1908955078125,-0.04926818103790283,0.019327800804376603,-0.018370061688125133
1789756024488904700,1.20090478515625,0.059331894412636754,0.005742050783336162,0.0008838701624423264
1789756024498913800,1.210913818359375,0.1626315253674984,-0.05148337286934256,0.04473031841255724
1789756024508923000,1.2209228515625,0.11993746202290058,-0.05784881624802947,0.04754829844273627
1789756024518932700,1.2309326171875,0.07456921103298664,-0.0049868485018610955,0.036465105827152726
1789756024528941800,1.24094189453125,0.05451368047595024,0.03887538183927536,0.056009471991658205
1789756024538950700,1.25095068359375,0.01960486418008804,0.08090279796868562,0.0971514105234295
1789756024548959700,1.260959716796875,-0.0248830968439579,0.08374298983067274,0.11390293109901249
1789756024558969900,1.270969970703125,-0.07354746676981448,0.0818174285955727,0.09235840409323573
1789756024568978700,1.280978759765625,-0.06986907051801682,0.08957315728887916,0.04798756664283573
1789756024578987800,1.29098779296875,-0.045026890206336975,0.056825756810605525,0.05037460790984332
1789756024588996600,1.30099658203125,-0.013580197063088417,0.016514789210259912,0.06141257314421236
1789756024599006700,1.3110068359375,-0.019919336956739423,0.0007139934882521629,0.057713937821984286
1789756024609015800,1.321015869140625,-0.0990793829113245,-0.003096066319197416,0.02756159533821046
1789756024619024600,1.331024658203125,-0.1442225929737091,-0.02383914074897766,0.018516776682436464
1789756024629034800,1.34103466796875,-0.1827653818577528,-0.0765185915350914,0.004802687573991715
1789756024639043800,1.3510439453125,-0.23892975215017795,-0.10603066335394978,-0.016996873638778925
1789756024649053000,1.361052978515625,-0.2790899131029844,-0.09545651623904705,-0.03472370551992208
1789756024659061800,1.371061767578125,-0.23442834907770155,-0.01854717182070017,-0.03880348564684391
1789756024669071600,1.381071533203125,-0.1006213516563177,0.03939443727731704,0.047973830378428096
1789756024679080700,1.391080810546875,0.017960019582509992,0.08173515713959932,0.11668379398919641
1789756024689089800,1.40108984375,0.07478489961028098,0.1315261930078268,0.1967189057452604
1789756024699099000,1.411098876953125,0.05784487072527408,0.16988573427945375,0.22274481594879178
1789756024709108700,1.421108642578125,0.04525777635276317,0.18347323786616324,0.2190331750145182
1789756024719117600,1.43111767578125,0.07059563122689723,0.16695727961212395,0.2067054256979376
1789756024729126700,1.441126708984375,0.07046060667037964,0.12421148608028888,0.1581288436533883
1789756024739135700,1.4511357421875,-0.0023667291313409803,0.0728103846669197,0.08780914329104125
1789756024749145900,1.461145751953125,-0.07651917605698108,0.047029023808985944,0.00946103477384895
1789756024759154700,1.47115478515625,-0.08707271877527237,0.0013728957884013653,-0.04262333619594574
1789756024769163800,1.481163818359375,-0.08261515484452248,-0.0006926584392786026,-0.049799840229190886
1789756024779172600,1.491172607421875,-0.08277005314528942,0.017719781085848808,-0.06753149441592395
1789756024789182700,1.5011826171875,-0.038111411729454994,0.05522299778908491,-0.08440883332826196
1789756024799191800,1.51119189453125,0.05858604448139667,0.0820117821238935,-0.05448332187030464
1789756024809200600,1.52120068359375,0.12611644291877747,0.08987871610671282,0.017665749343670902
1789756024819210800,1.531210693359375,0.1642950746655464,0.09597352585047483,0.05186159506458789
1789756024829219800,1.5412197265625,0.1375876850038767,0.10109773699641227,0.03608450901173055
1789756024839229000,1.55122900390625,0.0865484026402235,0.12138853761404753,0.0026890564208850265
1789756024849237800,1.56123779296875,-0.024155951613187787,0.10718611699938774,-0.041430034758150575
1789756024859247600,1.57124755859375,-0.051562429454922676,0.08172580478936434,-0.044903884881176054
1789756024869256700,1.581256591796875,0.02254851641654968,0.07143032848536968,-0.03169632052276283
1789756024879265800,1.591265869140625,0.14136311188936232,0.08543795718029142,-0.03321088980417698
1789756024889276000,1.60127587890625,0.21000877809226512,0.09203574801012873,-0.031133499008230862
1789756024899284700,1.61128466796875,0.14502163439691065,0.06488236814662814,-0.01982248898614198
1789756024909293600,1.62129345703125,0.09278700476884841,0.02573532975912094,-0.035177842495590445
1789756024919302700,1.631302734375,0.09783084415495395,0.021104601218551396,-0.07803564503453672
1789756024929312800,1.641312744140625,0.10072422750890254,0.004387713564932346,-0.07861465049888938
1789756024939321900,1.65132177734375,0.07968260852396487,-0.006875730988383293,-0.08634835002347827
1789756024949330700,1.66133056640625,-0.051045127582550046,-0.02738748088032007,-0.09066252342816442
1789756024959339800,1.67133984375,-0.14741817414462566,-0.009074848467856646,-0.10844780749827623
1789756024969350000,1.681349853515625,-0.17641572057008742,0.0210837045609951,-0.11490323071535676
1789756024979358700,1.691358642578125,-0.13226152154505252,0.06292319690287113,-0.0834032364822924
1789756024989367800,1.701367919921875,-0.04576689491868019,0.08720949689745902,-0.015402224858477712
1789756024999377000,1.711376953125,-0.00044599020183086393,0.07984159847795963,0.012967691187933087
1789756025009386800,1.72138671875,0.041273675152659416,0.030356121427565812,0.04865746526103466
1789756025019395800,1.731395751953125,0.005122749841213226,0.0010794657997786998,0.06657762775719166
1789756025029404700,1.74140478515625,-0.03436871806979179,-0.0502934324324131,0.07240874506346881
1789756025039414500,1.75141455078125,-0.12315583954751491,-0.06842047914490103,0.039747050107270476
1789756025049423600,1.761423583984375,-0.17410452101826668,-0.04476487826928496,0.06580777589585632
1789756025059432700,1.7714326171875,-0.21097616181969642,0.012484218519926071,0.061641596127115186
1789756025069441800,1.78144189453125,-0.26783377507328987,0.03580868774503469,0.09096274848375469
1789756025079452000,1.791451904296875,-0.32288404664397236,0.06752323804423213,0.0885439238389954
1789756025089460700,1.801460693359375,-0.3161258045554161,0.10862433310896158,0.06380363299921155
1789756025099469600,1.811469482421875,-0.25960721399784087,0.10650573351979255,0.07946027101017535
1789756025109478700,1.821478759765625,-0.21475100418329238,0.07315364514663815,0.08785418800916522
1789756025119488800,1.83148876953125,-0.17786591937839985,0.06544760081395506,0.05096577873602509
1789756025129497900,1.841497802734375,-0.1310387017518282,0.07412891991958022,0.04552760627008974
1789756025139507000,1.8515068359375,-0.08657645969092845,0.043164603465795516,0.0669404331875965
1789756025149515800,1.861515869140625,-0.08382336159050464,0.032691286376863714,0.09117507606018334
1789756025159526000,1.87152587890625,-0.10737257948219775,0.026564035668224094,0.09879808175191282
1789756025169534700,1.88153466796875,-0.13341127610206605,0.03362126070335507,0.09419402202256023
1789756025179543800,1.891543701171875,-0.11359715308547019,0.05406301409900188,0.08148096318282186
1789756025189553700,1.9015537109375,-0.07555588398277759,0.07413140413761138,0.09206917535569518
1789756025199562800,1.911562744140625,-0.050290509822964666,0.06150953071266412,0.08942030481472611
1789756025209571800,1.92157177734375,-0.011695698490738869,0.05403422639593482,0.08515256436765194
1789756025219580700,1.93158056640625,0.010316811352968216,0.055837184164673086,0.08033745570350438
1789756025229590500,1.941590576171875,-0.03763327282369137,0.04176467353999615,0.05789608945585787
1789756025239599600,1.951599609375,-0.08460720544457435,0.03422127242311835,0.00687200466133654
1789756025249608700,1.961608642578125,-0.09949848510622977,0.02110416282713413,-0.04025021385643631
1789756025259617800,1.97161767578125,-0.07563596348166465,0.01662716354355216,-0.06537417025156318
1789756025269628000,1.9816279296875,-0.0683574969112873,-0.0048025779761374,-0.0634975261921063
1789756025279636700,1.99163671875,-0.053799979248642917,-0.02661927298679948,-0.00638235798086971
1789756025289645600,2.0016455078125,-0.0513823967128992,-0.014711539180576801,0.051766062268242236
1789756025299654700,2.011654541015625,-0.053584875193238256,-0.002520458388328552,0.07772617722656577
1789756025309664800,2.021664794921875,-0.07396715348660945,0.040503421432524916,0.10792392975464463
1789756025319673900,2.031673828125,-0.09851181215643882,0.07589607572257519,0.11514416333176195
1789756025329683000,2.041682861328125,-0.12384323728978633,0.09766557059064507,0.10375559456143528
1789756025339691800,2.05169189453125,-0.15405600472390651,0.09852335646376013,0.08503650023993105
1789756025349701600,2.06170166015625,-0.13092121285200117,0.07263035192489624,0.08358626489900052
1789756025359710700,2.071710693359375,-0.09340075275301933,0.03375555460751056,0.1128910506427288
1789756025369719800,2.0817197265625,-0.0904483326882124,0.02554550627544522,0.12917597661986946
1789756025379729000,2.09172900390625,-0.1405535490721464,0.0005650865368545055,0.14288250347636638
1789756025389738800,2.10173876953125,-0.0921907924413681,0.020746873822063205,0.12775208129659293
1789756025399747800,2.111747802734375,-0.048612931999564166,0.06415040061026811,0.12674063923172652
1789756025409756700,2.121756591796875,-0.04381050015389919,0.06144888656660914,0.11732848510090262
1789756025419766800,2.131766845703125,-0.055470542809367175,0.06246171687096357,0.09606661096140742
1789756025429775600,2.141775634765625,-0.06753390556871891,0.06605550357922911,0.10657335539590566
1789756025439784700,2.15178466796875,-0.03905307649374008,0.07513283626511692,0.12608721682429314
1789756025449793800,2.161793701171875,-0.05029518599808216,0.02568929866030812,0.10818342094104737
1789756025459804000,2.171803955078125,-0.001816109511256218,-0.05801788920462131,0.09661408877633511
1789756025469813000,2.18181298828125,0.08441840487420559,-0.011444792469590901,0.09661481942869722
1789756025479821600,2.191821533203125,0.10477496420443057,-0.035082711558043954,0.011927169159054755
1789756025489830700,2.20183056640625,0.15137947899103163,-0.18094328099712728,-0.07595186103042215
1789756025499840800,2.2118408203125,0.22165186961293218,-0.37876916160359975,-0.12437949959095566
1789756025509849900,2.221849853515625,0.28500118297338484,-0.4705154251478612,-0.1424910564733669
1789756025519859000,2.23185888671875,0.20984511196315286,-0.4293500326752662,-0.07588632151354104
1789756025529867800,2.24186767578125,0.0935410380065441,-0.30436463961303234,0.02617635152488947
1789756025539877600,2.251877685546875,-0.0018202011644840239,-0.10242489394694566,0.1498493468143046
1789756025549886700,2.26188671875,-0.008089782953262329,0.028491642729938028,0.2441619902478531
1789756025559895800,2.271895751953125,0.08863689935207367,-0.12440174795538186,0.2443780806839466
1789756025569905000,2.28190478515625,0.12934884896874427,-0.30644553754031656,0.18536548135355113
1789756025579914800,2.291914794921875,0.05988426759839058,-0.30426877802312374,0.06208999748174101
1789756025589923800,2.301923828125,-0.11734627648591994,-0.197992761605978,0.04821246143989265
1789756025599932700,2.3119326171875,-0.23632979878485202,-0.12701485306322574,0.100095355020836
1789756025609941800,2.321941650390625,-0.3930740196794271,-0.0219943896651268,0.11432400605529545
1789756025619951600,2.33195166015625,-0.5964443826705217,0.12883008579164743,0.14096972865760327
1789756025629960700,2.341960693359375,-0.717587128829956,0.308714359255135,0.18584427784644067
1789756025639969800,2.3519697265625,-0.7965951990932225,0.40402474502176045,0.28683073648810387
1789756025649979000,2.361978759765625,-0.7774030073672532,0.5508452455341816,0.35429413410387933
1789756025659988700,2.37198876953125,-0.7535983534097671,0.6752399792268872,0.4519610198687762
1789756025669997600,2.38199755859375,-0.7769412350744008,0.7209943069249392,0.5266154249671846
1789756025680006700,2.392006591796875,-0.7048176636278629,0.6844625656023621,0.48114364053756
1789756025690015700,2.402015625,-0.5495692342489957,0.5967116553045809,0.32931524873524903
1789756025700025900,2.41202587890625,-0.4354389972001314,0.43591450575739144,0.18817849294766784
1789756025710035000,2.422034912109375,-0.3076981679499149,0.18702742321640253,0.05473616412021219
1789756025720043800,2.432043701171875,-0.13605623765289782,-0.07049874672368169,-0.044112478775158524
1789756025730052600,2.442052490234375,0.07354805129170418,-0.20606588568538425,-0.1422444978337735
1789756025740062700,2.452062744140625,0.2275204693853855,-0.21532120528668164,-0.22561982339583336
1789756025750071800,2.46207177734375,0.3034147915422916,-0.16190496465861795,-0.2510331546589732
1789756025760081000,2.472080810546875,0.301127557387948,-0.0818302880771458,-0.2180693349510431
1789756025770090000,2.482090087890625,0.21125205615162848,0.012449293337017296,-0.14366547054760156
1789756025780099800,2.492099853515625,0.23255028024613855,0.03493278169333935,-0.09566226794421673
1789756025790108700,2.502108642578125,0.370983183902502,-0.027142712339013813,-0.04225742549300193
1789756025800117800,2.51211767578125,0.45188335152268405,-0.07311579735428095,-0.018982859824225304
1789756025810126800,2.522126953125,0.3810024736136198,-0.1257920332700014,-0.02831774746775627
1789756025820136700,2.53213671875,0.2847159362912178,-0.09336465852633118,-0.09751870946586132
1789756025830145800,2.542145751953125,0.21692016491591928,-0.019619331096857786,-0.16559030210785566
1789756025840154600,2.552154541015625,0.13858312578201293,0.017838731290400027,-0.1828519641626626
1789756025850163700,2.562163818359375,0.11477087303996085,0.015209259569644928,-0.23085655500553548
1789756025860173800,2.572173828125,0.1562134750187397,-0.03826192611604929,-0.2427869390349835
1789756025870182700,2.5821826171875,0.2442909869223833,-0.08968275514319539,-0.20191680318191646
1789756025880191700,2.592191650390625,0.2769604998588562,-0.11177417544201015,-0.12952833372149616
1789756025890200800,2.602200927734375,0.18165712835490702,-0.08459390757158398,-0.06736768215633929
1789756025900211000,2.6122109375,0.03475917869210243,-0.03600961714461445,-0.05683288067113608
1789756025910219800,2.6222197265625,-0.059223757863044735,0.039413288108259434,-0.08638400585874914
1789756025920228600,2.632228515625,-0.11577274355888366,0.08328121753782033,-0.08265994383431971
1789756025930237700,2.64223779296875,-0.1583656846165657,0.1079892500758171,-0.07258720690291375
1789756025940247800,2.652247802734375,-0.17758242626190185,0.12035919456630945,-0.08565141726788134
1789756025950257000,2.6622568359375,-0.07445055308938026,0.09516951599121093,-0.03772727125007659
1789756025960266000,2.672265869140625,0.0649240153312683,0.04285451460331678,0.08853840741366148
1789756025970274600,2.682274658203125,0.12419921112060546,-0.018348288247734306,0.16339776049964128
1789756025980284700,2.69228466796875,0.043965398454666134,-0.04994359608143568,0.1972244806472212
1789756025990293800,2.702293701171875,-0.03886310687959194,-0.08065612973123788,0.18720994017645715
1789756026000302800,2.712302734375,0.020603812089562416,-0.06764891025051474,0.18028755703475324
1789756026010312000,2.72231201171875,0.03229717249274253,-0.11847060434073209,0.2132572584941983
1789756026020321800,2.73232177734375,0.03894026376903057,-0.10333031835407018,0.247146632081829
1789756026030330600,2.74233056640625,-0.03863163621127605,0.009038754241168498,0.3504978836260736
1789756026040339700,2.752339599609375,-0.02272854915857315,0.2501594405643642,0.5690325345339253
1789756026050348800,2.762348876953125,-0.02984627220928669,0.48512993369475005,0.7825096828565001
1789756026060358700,2.772358642578125,-0.12021861705183982,0.6266146261371672,0.8423419280067086
1789756026070367700,2.78236767578125,-0.07296411392390728,0.6944511679142713,0.7016092229753732
1789756026080376800,2.792376953125,0.11886077270209788,0.5782657519012689,0.6864175721276551
1789756026090385700,2.8023857421875,0.20667408071160315,0.3345170551620424,0.7609685899168253
1789756026100395800,2.812395751953125,0.2792120781779289,0.1214241934493184,0.6928150180798024
1789756026110404600,2.822404541015625,0.41392625357210633,-0.1376568047173321,0.5345104890659451
1789756026120413700,2.83241357421875,0.3594301087528467,-0.4438986363790929,0.43753743078410623
1789756026130422800,2.8424228515625,0.10393033007383345,-0.6415460916787386,0.20171324343383312
1789756026140433000,2.852432861328125,-0.3034504473775625,-0.7572435780443251,-0.0559095187485218
1789756026150441700,2.862441650390625,-0.6846224323391914,-0.9155606012135744,-0.26005218128636476
1789756026160450800,2.872450927734375,-0.9283528627693652,-1.106871693098545,-0.3862533798791468
1789756026170459600,2.882459716796875,-1.1807155124664306,-1.2655989045038818,-0.43007147881761193
1789756026180469800,2.8924697265625,-1.3078583758234976,-1.3769118921749293,-0.25036855327039953
1789756026190478800,2.902478759765625,-1.2342822674810885,-1.5204254600964486,0.26929595658034083
1789756026200488000,2.912488037109375,-1.2024766778975724,-1.4175842404335737,0.9062800010405481
1789756026210496800,2.922496826171875,-1.1414818187087774,-1.1990163083106278,1.307921211926639
1789756026220505600,2.932505615234375,-1.036378353202343,-1.0279732206895946,1.4450725513398646
1789756026230515700,2.942515625,-1.0660405010163783,-1.0039391418904065,1.5451738246448337
1789756026240524800,2.95252490234375,-0.9230617706239223,-0.315694281270355,1.6440018631435929
1789756026250534000,2.962533935546875,-0.27171149328947064,0.20328779927417634,1.8348539592146873
1789756026260543000,2.97254296875,-0.7178752981215715,0.03180500506162643,1.5020878393732011
1789756026270552800,2.982552734375,-1.0602718544870615,-0.12629676792174577,0.9238746944420039
1789756026280561700,2.992561767578125,-1.8481863189965486,-0.7026819667734205,0.3278494139663875
1789756026290570800,3.00257080078125,-0.13897709353566168,-0.6166339148707688,0.2925328205872327
1789756026300579800,3.012579833984375,-0.10160685556232929,-1.3014561075657605,0.5908957355674356
1789756026310589700,3.022589599609375,0.2859381715625524,-1.2986581474103034,0.8158119407385587
1789756026320598800,3.032598876953125,-0.7630641008913517,-0.6336034621112048,0.16299341748245058
1789756026330607600,3.042607666015625,-1.91905375290215,0.49038434709161516,-2.1271976139053703
1789756026340616700,3.05261669921875,-2.427969489723444,1.108756337801367,-2.840159713283181
1789756026350626800,3.062626708984375,-2.017241155409813,1.084559469655901,-2.005976249551773
1789756026360635600,3.0726357421875,-1.7048381707698106,0.9792948222383856,-1.119398508651182
1789756026370644700,3.082644775390625,-1.697339923968911,0.6782922064043581,-0.6218950502693653
1789756026380653800,3.09265380859375,-1.8381302044063805,0.30268223948404194,-0.2762455930551514
1789756026390664000,3.102663818359375,-1.852243485432863,-0.19684490674510596,0.05168955383277498
1789756026400672800,3.1126728515625,-1.5661925011456013,-0.5881956097632646,0.2343415841097012
1789756026410681600,3.122681640625,-1.036497595667839,-0.9125498750902712,0.2936758896751329
1789756026420690700,3.132690673828125,-0.4609235670685768,-1.2600310412436724,0.17972849837988614
1789756026430700800,3.14270068359375,-0.05288812510073185,-1.467414000876993,-0.046212885120511055
1789756026440710000,3.1527099609375,0.11067220554947853,-1.488196530534327,-0.2915352609172463
1789756026450718700,3.16271875,-0.04069441395998001,-1.2452787316612899,-0.3870123815529048
1789756026460727800,3.172727783203125,-0.39634558869600295,-0.9653856854818761,-0.2140950244925916
1789756026470737700,3.182737548828125,0.7920020260840653,-0.6660289371587336,0.4654482048861682
1789756026480746800,3.192746826171875,1.2338614117205142,-0.5848334398537874,0.9548720363825559
1789756026490755800,3.202755859375,-2.0344541560173033,-0.49637306611239906,0.9149038908705115
1789756026500765000,3.212764892578125,-1.301600484472513,-0.4206522008262574,0.5933250816062092
1789756026510773800,3.222773681640625,-1.369794315254688,-0.6758823687836527,0.3943000543430447
1789756026520783600,3.23278369140625,-0.7644651998609304,-0.7461397079668939,0.39378158342689273
1789756026530792700,3.242792724609375,-0.17669219942390918,-0.912879399305582,0.7112272384092211
1789756026540801800,3.2528017578125,0.21673077982366085,-1.0517089010640979,0.7697332033917308
1789756026550811000,3.262810791015625,0.7593272524505853,-0.7752353079393506,0.09363485376983881
1789756026560820700,3.27282080078125,0.835078951266408,-1.5151204855561256,0.8725017962098122
1789756026570829800,3.282829833984375,-0.08407645956873894,-2.484088559569418,1.455508605158329
1789756026580838700,3.292838623046875,-1.0958803434848785,-1.5184160199701786,1.3324898359939454
1789756026590847700,3.30284765625,-1.1994143677175044,-1.2979039680421351,0.4762076454401016
1789756026600857900,3.31285791015625,-1.5481377890169619,-1.2841244490146637,0.6546031416505574
1789756026610866700,3.32286669921875,-1.7951491408139466,-1.3851084965035318,0.7600070514082908
1789756026620875800,3.332875732421875,-1.6849100659847258,-1.4570412215530872,0.9127852912813424
1789756026630884600,3.342884521484375,-1.4046148687452078,-1.4697130715996025,1.1322335133701562
1789756026640894500,3.35289453125,-1.2550450695246458,-1.6000211209893225,0.7514169177174568
1789756026650903600,3.362903564453125,-0.5261912812709808,-1.1770996600568293,0.3483674474686384
1789756026660912600,3.37291259765625,0.6768465376406908,-0.498708231061697,0.8682932386040687
1789756026670921500,3.38292138671875,1.715315141120553,-0.36712738525718447,1.2999234911710023
1789756026680931600,3.392931640625,2.3329595482081174,-0.6931801250651478,1.847014352607727
1789756026690940400,3.4029404296875,2.2898978205949065,-1.2069611298352478,2.047812234762311
1789756026700949500,3.412949462890625,1.7454805622816085,-1.4918693738281725,1.6615163309156893
1789756026710958600,3.42295849609375,0.7333586984574795,-1.6623463519990442,0.731164403283596
1789756026720968400,3.432968505859375,-0.2905278374403715,-1.7696666167721151,-0.5149216992378235
1789756026730977500,3.4429775390625,-1.1600573398411274,-1.7109537310406564,-1.5203887813478707
1789756026740986600,3.452986572265625,-1.7355471972882746,-1.4897384992793201,-1.6674170793920755
1789756026750995500,3.462995361328125,-1.5828034442067145,-1.3075246138244867,-1.2316963426411152
1789756026761004500,3.473004638671875,-0.7952502142250537,-1.2908850291907787,-0.778334150737524
1789756026771014400,3.483014404296875,0.07705576715171336,-1.3295891461163758,-0.9536217440605163
1789756026781023500,3.4930234375,0.803173992961645,-1.4559870363250373,-1.5352379754334686
1789756026791032600,3.503032470703125,1.0835533613532782,-1.5560858254119754,-1.7997148412942885
1789756026801041400,3.51304150390625,1.568583780196309,-1.8493205837234854,-1.4147808734506369
1789756026811051300,3.52305126953125,2.301749586430192,-2.356869123844802,-0.6404027668625116
1789756026821060400,3.533060302734375,4.485571297094226,-2.4263290290400383,0.6321066476821899
1789756026831069400,3.5430693359375,4.695633851200342,-2.1981562332257627,0.5333154340624809
1789756026841078500,3.55307861328125,3.0324615697711703,-2.0704647960752247,1.2083768418520688
1789756026851088600,3.563088623046875,4.1729076156914235,-2.392709668032825,1.908635819262266
1789756026861097500,3.573097412109375,4.210092560225725,-2.272867483077943,2.244547105261683
1789756026871106300,3.583106201171875,3.7461882237806914,-1.9168899989970027,2.153804173541069
1789756026881115400,3.593115478515625,2.8392209711283445,-1.535803646492213,1.662628676071763
1789756026891125500,3.60312548828125,1.616092550346255,-1.1914660390615464,1.3542688293427227
1789756026901134600,3.613134521484375,0.5274700690351426,-0.7259053137116134,1.1163789416342973
1789756026911143400,3.623143310546875,-0.4616363915130496,-0.056792439062893385,1.139707210251689
1789756026921152300,3.63315234375,-1.3136302372232078,0.6102404144413769,1.087494207933545
1789756026931161300,3.643161376953125,-2.062810628060251,0.9831031284801661,0.842514654225111
1789756026941171500,3.65317138671875,-2.5139371698662636,1.2630372373223304,0.4087134873598814
1789756026951180500,3.6631806640625,-2.780712668058276,1.5366989878967403,-0.1561263812571764
1789756026961189600,3.673189697265625,-2.79779795063287,1.9341690505780278,-0.40621699436902997
1789756026971198500,3.683198486328125,-2.8878409173905846,2.4411655097745357,-0.1343371587753296
1789756026981208600,3.69320849609375,-3.2538486509680746,2.647415373724699,0.05420739100575447
1789756026991217400,3.703217529296875,-3.6814725905030965,2.826843135592341,0.35763854916095733
1789756027001226500,3.7132265625,-3.537074056440592,3.0299758904352783,1.006556630912423
1789756027011235600,3.723235595703125,-3.0219477745413776,3.273413475398719,1.6637684937566517
1789756027021245400,3.733245361328125,-2.4004709496840833,3.494421201889217,2.323486201941967
1789756027031254500,3.743254638671875,-2.203828725904226,3.234043880301714,2.6476690562248226
1789756027041263600,3.753263671875,-1.8189475111611186,2.7253245428353545,3.152895290878415
1789756027051272400,3.7632724609375,-1.3831076780751346,2.5038462762236593,3.305678206926584
1789756027061282300,3.7732822265625,-1.1669470993548632,1.8626532357662915,3.0307898371666666
1789756027071291400,3.78329150390625,-0.7723802107691764,1.376841457287222,2.8732705402463674
1789756027081300500,3.793300537109375,-0.4836158758699894,1.5406697912238538,3.002338818708062
1789756027091309600,3.8033095703125,-0.465145568677783,1.2843472979851067,2.8677234275132415
1789756027101318400,3.813318359375,-0.2591319977015257,1.1947814472198486,2.821523986396193
1789756027111328300,3.823328369140625,-0.10302373662292957,1.3681734360545872,2.7812662102878094
1789756027121337300,3.83333740234375,0.11689122619479894,1.404072870822996,2.7382851466953753
1789756027131346400,3.843346435546875,0.09961042104810476,1.4558680861204862,2.81904970523715
1789756027141355500,3.85335546875,-0.24642273825407027,1.5123627112805842,2.810739557531476
1789756027151365600,3.86336572265625,-0.5011430569931864,1.4561426652781664,2.469391048914194
1789756027161374500,3.87337451171875,-0.7782301058411598,1.1360313712831587,1.9742975012183188
1789756027171383300,3.88338330078125,-1.009337493802607,0.7719261103261261,1.6097978341162205
1789756027181392400,3.893392333984375,-0.8061863265201449,0.5741406347952783,1.5021943684875965
1789756027191402500,3.903402587890625,-0.38421968209445473,0.4036969743721187,1.5149860455214976
1789756027201411600,3.91341162109375,0.08984159896671771,0.3212725197941065,1.5450187802135944
1789756027211420400,3.92342041015625,0.43127077160477634,0.5763113298978656,1.5388544123649597
1789756027221429200,3.93342919921875,0.8460308456525206,0.919292700413987,1.9165835633963346
1789756027231439400,3.943439453125,1.5619795596256851,1.2451760019391775,2.920476528057456
1789756027241448400,3.953448486328125,2.1524863689407705,1.5925561919361353,3.622244156464934
1789756027251457500,3.96345751953125,1.7593854612544177,2.003906165279448,3.8978912356376645
1789756027261466600,3.973466552734375,0.8000406633719801,2.229133847552538,3.736272686704993
1789756027271475500,3.983475341796875,0.06932721872627735,2.045494751600176,2.9088018723547457
1789756027281485600,3.993485595703125,-1.2094850953549146,1.6463380510061978,1.7647335442841052
1789756027291494400,4.003494384765625,-2.255224858881533,1.1536833478298039,1.1014514216154814
1789756027301503500,4.01350341796875,-1.9081053656473754,0.6931999988093972,1.2316828986376522
1789756027311512600,4.0235126953125,-0.575634965006262,0.527052939601615,1.6361200238525866
1789756027321522400,4.0335224609375,0.7177664309196173,0.7676311896111816,1.8675567898988723
1789756027331531500,4.043531494140625,1.2557847819760442,1.1146052099600434,1.8770009100705385
1789756027341540600,4.05354052734375,1.101567741471529,1.2337594126507638,1.3864748164206742
1789756027351549400,4.063549560546875,0.315825652565062,1.1483037736833095,0.5853460655510425
1789756027361559300,4.073559326171875,-0.1442281459316611,1.3578617392681538,0.5308972670048475
1789756027371568400,4.083568359375,-0.7519231136739254,1.4914070170134306,0.33503333412110803
1789756027381577500,4.093577392578125,-0.9502370700582862,1.3701570110872388,0.28330548497140406
1789756027391586600,4.103586669921875,-0.8052177737489342,0.5973408565862104,-0.5831307275891303
1789756027401595400,4.113595458984375,-1.2292805136710405,-0.4559989701479673,-1.4207476729005575
1789756027411605200,4.123605224609375,-0.47121232137084007,-0.890766424762085,-1.0487567732602356
1789756027421614300,4.1336142578125,0.4201610563084483,-1.2977758116178213,-1.8214163854926824
1789756027431623400,4.14362353515625,0.8301572769552469,-1.399210525483638,-2.1678087334960696
1789756027441632500,4.153632568359375,0.39675855341106653,-1.241121611981839,-2.2440923472315073
1789756027451642600,4.163642578125,-1.3519570452690124,-1.0384569130420684,-2.726049934500456
1789756027461651500,4.1736513671875,-2.515225456111133,-1.0785900398574768,-3.3838843131572007
1789756027471660300,4.183660400390625,-1.726355590572953,-0.8560502814941108,-3.028096360298991
1789756027481669400,4.19366943359375,-0.902828837673366,-0.5595121707882732,-3.091152243670821
1789756027491678500,4.203678466796875,-0.9092322749748826,-0.6228418296001851,-3.525637301146984
1789756027501688600,4.2136884765625,-1.3349781456783414,-0.9812930103182792,-3.995478918686509
1789756027511697400,4.223697509765625,-1.7381977117970584,-1.4203291552275419,-3.747458682107925
1789756027521706500,4.23370654296875,-0.9427961064025759,-1.5074161947891116,-2.6341099019497634
1789756027531715300,4.24371533203125,-0.1132198442056775,-1.5616580725863576,-1.1498305448591708
1789756027541725400,4.253725341796875,-0.40616029574573037,-1.5083298025026917,-0.309773805180192
1789756027551734500,4.263734619140625,-0.9991425552636385,-1.122475066552311,0.04405716839134693
1789756027561743600,4.27374365234375,-1.0920169460549949,-0.7536812093876302,0.5243757562816143
1789756027571752400,4.28375244140625,-0.8535843297719955,-0.49559185260683297,0.7659937246024608
1789756027581762600,4.293762451171875,-0.44693478920459745,-0.4044562683068216,0.80003160328269
1789756027591771400,4.303771484375,0.042751931011676784,-0.5096620251439512,0.8790414271116256
1789756027601780500,4.313780517578125,0.3571855446964502,-0.7473442614510655,0.7786345949888229
1789756027611789600,4.32378955078125,0.9050558660730719,-1.0951313517484813,0.6675543931603432
1789756027621798400,4.33379833984375,1.4645356689617037,-1.3584263874135911,0.5298047955930233
1789756027631808500,4.34380859375,2.284546814955771,-1.8859047858856617,0.28830314712822436
1789756027641818000,4.353818115234375,5.071701791021227,-2.7257410146817564,0.4422808259189129
1789756027651827000,4.363826904296875,3.649467678955197,-2.249029949764162,0.3302946151614189
1789756027661836000,4.3738359375,2.233814991106093,-0.5944843346439301,0.6960667864173651
1789756027671846000,4.383845947265625,3.390066508923471,0.19287432261370122,0.712577776235342
1789756027681855000,4.39385498046875,1.2628513593614101,1.4188880165085196,0.6271341199666262
1789756027691864000,4.403864013671875,-2.7291294880762695,2.8574063238993284,0.401464831405878
1789756027701873200,4.413873046875,-3.5338109629914163,3.93662603996247,0.25633155332803725
1789756027711882000,4.423882080078125,-3.1321763279765844,4.250696957814693,-0.40498482222557064
1789756027721891800,4.433891845703125,-2.6825857635661956,3.9852071155190467,-0.3415168509215116
1789756027731901000,4.44390087890625,-1.8940362160235642,3.4787706282928585,-0.29333588059842586
1789756027741910000,4.453909912109375,-1.6989824304789303,2.68777193403244,-1.0627578260838986
1789756027751919000,4.463919189453125,-1.9557155503451824,1.7353551818475126,-2.2824065880566833
1789756027761929000,4.473928955078125,-2.5538039008304474,1.4824831213235854,-2.389636544197798
1789756027771938000,4.48393798828125,-2.1426295763149854,1.6638959195286034,-2.1986749964028593
1789756027781947000,4.49394677734375,-1.701909423841536,1.4854054385110735,-2.6146874085992575
1789756027791956000,4.5039560546875,-1.6908429631650448,1.2126235395111142,-3.0372458814382552
1789756027801965000,4.513965087890625,-1.5758675074636934,1.2052432200014591,-2.8192613021612165
1789756027811975000,4.523974853515625,-1.244281391187012,1.3707283812344073,-2.053884248152375
1789756027821984000,4.53398388671875,-1.155944059303403,1.3608541990824043,-1.326698100849986
1789756027831992800,4.543992919921875,-1.0596192357972263,1.028384358773753,-0.9580670330315828
1789756027842002000,4.554001953125,-1.408706229712069,0.6522597203295678,-0.7774211275458336
1789756027852012000,4.564011962890625,-1.9316154205724596,0.4218018823180347,-0.8861112193673849
1789756027862020900,4.574020751953125,-1.632158134484291,0.3422673404952511,-0.9360685517132282
1789756027872030000,4.584030029296875,-1.9108681083589791,0.08860769152389839,-1.4417419456124305
1789756027882039000,4.5940390625,-1.8597598524123429,-0.5644935393974184,-2.449066053766012
1789756027892048000,4.6040478515625,-1.887314360422641,-1.0065119880530982,-2.383293312650919
1789756027902058000,4.61405810546875,-1.903216862953454,-1.4797178943939506,-2.500790395784378
1789756027912066800,4.62406689453125,-1.2005179450452328,-2.162690075308084,-2.63562615173161
1789756027922076000,4.634075927734375,-1.1010948632627724,-2.5813503716647626,-1.8161591956168412
1789756027932085000,4.6440849609375,-1.051180785536766,-2.640413678269088,-0.9189099116414785
1789756027942093800,4.65409375,0.5698053455373272,-1.8756898274719713,1.3665075486689806
1789756027952104000,4.66410400390625,3.3094203160643576,-0.500369003880769,6.574765928080677
1789756027962113000,4.674113037109375,6.9453872929334635,0.13937018450647592,11.7152215218544
1789756027972121900,4.684121826171875,9.31141382896304,-0.09107172528356314,9.521578674399851
1789756027982131000,4.694130859375,6.807033299732208,-1.0883949561655522,5.969232230025529
1789756027992141000,4.70414111328125,1.7830197270810604,-1.2771645468741655,3.306107245993614
1789756028002150100,4.714150146484375,-0.4692295500557869,-0.15944091263264418,1.8731646929085253
1789756028012159000,4.724158935546875,-1.283812314325571,0.4919239777490496,0.7446902398109435
1789756028022167800,4.734167724609375,-1.9890181004881857,1.0143795796230435,0.3567728722423315
1789756028032177000,4.744177001953125,-1.841980450093746,1.5689318629816174,-0.09366787925660609
1789756028042187000,4.75418701171875,-0.8670132817961275,1.6435127644523977,-0.5373246697038412
1789756028052196000,4.764196044921875,0.4701496605753898,0.7975178668960928,-0.1642120725572109
1789756028062205200,4.774205078125,0.5251286204755305,0.5114315190345049,0.08843991547524929
1789756028072214000,4.784214111328125,0.7484032689847052,-0.04891571433842182,-0.6956681424885988
1789756028082223900,4.794223876953125,0.14279299856200814,0.9760890119343996,-1.7589146288722752
1789756028092233000,4.80423291015625,-0.2708100144051015,3.107210229024291,-3.9040848295807837
1789756028102242000,4.814241943359375,0.695437402472645,2.8816607674509287,-3.77050111952126
1789756028112251100,4.824251220703125,0.6770017282024026,3.169966837188601,-2.595829563394189
1789756028122260000,4.834260009765625,0.15393749291077255,3.5366824267745014,-1.73915545091331
1789756028132269800,4.844269775390625,0.8010280669741332,3.9231455038815732,-0.8566103995949029
1789756028142279000,4.85427880859375,0.8968377805650234,4.444416864407062,0.695635993784666
1789756028152288000,4.8642880859375,0.03606163959279656,5.24842497010529,0.43674774171113967
1789756028162297000,4.874297119140625,-0.1873486179947853,5.9626125196248285,-0.26740035209208723
1789756028172306200,4.88430615234375,-0.343502471780777,6.466500199151039,-0.9668868838250636
1789756028182316000,4.89431591796875,-0.02255903781056404,7.0347256185531615,-1.8714222331553696
1789756028192324900,4.904324951171875,-2.008665050244331,7.591791930559277,-2.129362682984769
1789756028202334000,4.914333984375,-1.529578196106106,8.192702060467004,-2.0263938914194704
1789756028212343000,4.924343017578125,1.656958083089441,7.76426212837398,-2.237540002978593
1789756028222353000,4.934352783203125,1.2791126122020184,8.45920312563181,-1.8151335058309137
1789756028232362000,4.944362060546875,1.525876857370138,8.293560728010535,-1.6269347007475792
1789756028242371000,4.95437109375,1.8434990379631517,7.7608122801810495,-1.5279751448236405
1789756028252380000,4.9643798828125,3.2607682210981843,6.775023712009191,-0.7075596558123827
1789756028262389000,4.974388916015625,2.7964474128067494,2.093827551484108,0.3709890291213989
1789756028272398800,4.98439892578125,-0.7076666233181953,-8.522192373508215,2.532166946300864
1789756028282408000,4.994407958984375,-0.8672831847786903,-19.993129338181017,3.6197871187016366
1789756028292417000,5.0044169921875,1.7959201251864432,-27.602846801531314,1.7298318883813917
1789756028302425900,5.01442578125,4.973109899365902,-33.11758871240615,-0.09578377543203533
1789756028312435000,5.02443505859375,5.905290211468935,-29.00145804594755,-0.6951626771844923
1789756028322444800,5.03444482421875,4.214458938741684,-18.220346927475926,-0.4288495358072221
1789756028332454000,5.044453857421875,0.44240357551574705,-8.30610222967565,-0.5248717231050133
1789756028342463000,5.054462890625,-4.120425733304024,-0.5314034629613161,-0.354052799628675
1789756028352472000,5.06447216796875,-3.592085749566555,3.321808672994375,0.4575970529943704
1789756028362481000,5.07448095703125,-2.911408839982748,5.416022008925676,1.8790236480697988
1789756028372491000,5.084490966796875,-2.1079858406960965,6.673035163652896,2.305932425072789
1789756028382499800,5.094499755859375,-1.9062100534200668,7.427417360916733,1.769045562264323
1789756028392509000,5.104509033203125,-1.7424515698492526,7.32455027616024,0.3205804458767175
1789756028402518000,5.11451806640625,-1.0078336651109159,6.224564250922203,-1.6474517113365232
1789756028412527000,5.124527099609375,-0.29882278757691383,4.807173487234115,-3.2966151950269937
1789756028422537000,5.134536865234375,0.17264906151294707,3.173674459534883,-4.376675453567505
1789756028432545800,5.1445458984375,0.8418903848469257,1.5828127965569496,-4.937038469031453
1789756028442555000,5.154554931640625,1.654016038288176,0.16106617574691773,-5.156940864628553
1789756028452564000,5.16456396484375,2.27530756970644,-0.9759171624988316,-4.751903143171965
1789756028462574000,5.174573974609375,2.455528527778387,-1.6614298216760157,-3.40867096388936
1789756028472583200,5.184583251953125,1.7681062355875967,-1.7570599409162997,-1.4133362276002763
1789756028482591700,5.194591796875,0.5824176474163308,-1.5852537599682808,0.32470059454664585
1789756028492600800,5.204600830078125,-0.32670798884630203,-1.2521756515681743,1.3253893563389778
1789756028502610000,5.21460986328125,-0.35397823655512184,-0.7741828762769699,1.2607273529447613
1789756028512620000,5.2246201171875,0.0420762602398172,-0.404877854719758,0.6350111369520426
1789756028522629000,5.234629150390625,0.23917817395329474,-0.1679559352606535,0.1261303253136575
1789756028532638000,5.244637939453125,0.24631051005125043,0.03033668607473373,-0.05979775835871696
1789756028542646800,5.254646728515625,0.04697926638312638,0.18024609251320362,0.06320756680220366
1789756028552656000,5.26465576171875,-0.32160043657422066,0.2353109771311283,0.39529052668511866
1789756028562666000,5.274666015625,-0.7382231626886874,0.22492168506383894,0.7739737635709345
1789756028572675000,5.284675048828125,-1.1421872635643928,0.1263888301193714,1.0776163725197314
1789756028582684200,5.29468408203125,-1.3133119650542735,-0.02328969017267227,1.2019473933264613
1789756028592692700,5.304692626953125,-1.2073158615570514,-0.20319792903363704,1.23711427603662
1789756028602701800,5.314701904296875,-0.91701189600043,-0.3965507558792829,1.1948241173177956
1789756028612712000,5.3247119140625,-0.591243818352744,-0.5224859970122575,1.167820813449472
1789756028622721000,5.334720947265625,-0.36425058771185576,-0.5112421339422464,1.1338805499248206
1789756028632730000,5.344730224609375,-0.10628712233304977,-0.4157289190798998,1.0601873910740016
1789756028642739200,5.3547392578125,0.06433364822268485,-0.290601487198472,0.9922704775370657
1789756028652748000,5.364748046875,0.18356909945607183,-0.150627199319005,0.9552491991318762
1789756028662757000,5.374757080078125,0.23528759625554083,-0.04516834450364113,0.9342297919787466
1789756028672767200,5.384767333984375,0.25607567887082694,-0.011429156509041785,0.9054068714678287
1789756028682776300,5.3947763671875,0.23268530480265617,-0.020786767441034314,0.8529324417345225
1789756028692785200,5.40478515625,0.13319492993764578,-0.06278641878068447,0.7054051081269979
1789756028702794200,5.414794189453125,-0.06234517781920731,-0.05067161809504032,0.4653920907847583
1789756028712803000,5.424802978515625,-0.2831775477427989,-0.02827157023847103,0.21794380887523293
1789756028722813200,5.434813232421875,-0.5045802649002522,0.011025251883268356,0.001706657787412405
1789756028732822300,5.444822265625,-0.6820913794916122,0.036353754407167434,-0.15757541102170944
1789756028742831000,5.4548310546875,-0.7510614553432912,0.03926175080835819,-0.3046951867416501
1789756028752840200,5.464840087890625,-0.7259515640061348,0.035547698721289635,-0.4320971394263208
1789756028762849300,5.474849365234375,-0.5886941338699311,0.020244331127405167,-0.5097818521313369
1789756028772859400,5.484859375,-0.37477665790133174,0.0818038384616375,-0.5085952726952732
1789756028782868200,5.4948681640625,-0.12765490453243256,0.17111352250874043,-0.4537210883438587
1789756028792877300,5.504877197265625,0.12318915729522704,0.22638474335372447,-0.3876582782410085
1789756028802886100,5.51488623046875,0.3211095112521201,0.2538946815699339,-0.3058044631578028
1789756028812895200,5.524895263671875,0.4861842650532722,0.24217209507226942,-0.23791253793165087
1789756028822905300,5.5349052734375,0.5650199013590812,0.20204291377961633,-0.1724184676274657
1789756028832914200,5.5449140625,0.5577192229568958,0.15058978991806507,-0.07202011107206344
1789756028842923300,5.55492333984375,0.47577049613185224,0.10653729770183562,0.03255670021176338
1789756028852932000,5.56493212890625,0.36938400507755575,0.060738838601112365,0.11426336190924048
1789756028862941200,5.574941162109375,0.2858569960851222,0.0057400049567222595,0.20115999346524477
1789756028872951300,5.584951416015625,0.19165544834323225,-0.0548725769162178,0.28099866933375595
1789756028882960400,5.59496044921875,0.13437347219772636,-0.10164718757271766,0.32432401631921526
1789756028892969200,5.60496923828125,0.0911012436389923,-0.14899287611544132,0.37716786388680335
1789756028902978300,5.614978271484375,0.07675466531328856,-0.14721476052701474,0.4038184087947011
1789756028912987100,5.624987060546875,0.06751337423734366,-0.12831775235533713,0.37485724885687227
1789756028922997200,5.634997314453125,0.07719656386189162,-0.09994973600506782,0.3542980065613985
1789756028933006300,5.64500634765625,0.08222812828831375,-0.053933250239491456,0.3300881328038871
1789756028943015200,5.65501513671875,0.08389284663014114,-0.012017185530066489,0.2731719212308526
1789756028953024300,5.665024169921875,0.08107325916476547,0.019061843344569205,0.2102396642386913
1789756028963033000,5.675033203125,0.06726100691147148,0.031933015355467796,0.16427695448696614
1789756028973042200,5.685042236328125,0.07680266917347908,0.009946808996796607,0.14415084291175007
1789756028983052300,5.69505224609375,0.0672854837656021,-0.005028641816973686,0.11920900161787867
1789756028993061400,5.705061279296875,0.07164733223691583,0.0091454294860363,0.14907076365724206
1789756029003070200,5.7150703125,0.06765029849000274,0.028438158977031707,0.17063538360297678
1789756029013079000,5.7250791015625,0.0776176388181746,0.05926642796099186,0.19189473699182272
1789756029023088000,5.735088134765625,0.09675013624615966,0.08022679840326309,0.213676506819576
1789756029033098200,5.74509814453125,0.11983524375744163,0.09696750532388687,0.19158508652076123
1789756029043107300,5.755107421875,0.1198971300125122,0.12340309230685233,0.1734207765378058
1789756029053116400,5.765116455078125,0.08242102051191032,0.14304770397543906,0.1770880668736994
1789756029063125200,5.775125244140625,0.03192315154857933,0.1268295596241951,0.1918339467152953
1789756029073134000,5.785134033203125,-0.0356662835996598,0.09327040437161922,0.19859949532747267
1789756029083144200,5.795144287109375,-0.07204458792619407,0.04204933570027351,0.1878206194207072
1789756029093153300,5.8051533203125,-0.09471110469922422,-0.012176760005950927,0.19800810530558227
1789756029103162400,5.815162353515625,-0.05716032252721488,-0.10092705660462378,0.1985024646937847
1789756029113171200,5.825171142578125,0.017296075781062244,-0.2253022088140249,0.17839213520959019
1789756029123180000,5.835179931640625,0.11910108426399528,-0.40073242547810073,0.12964870869815348
1789756029133190100,5.845190185546875,0.22410693461485207,-0.5837053126066922,0.05173778602182865
1789756029143199200,5.85519921875,0.28446809900999065,-0.7000888815402985,-0.027951106112450358
1789756029153208300,5.865208251953125,0.31402393690533936,-0.7409826174646615,-0.09552432077825068
1789756029163217400,5.875217529296875,0.30126506616249676,-0.7077414421200752,-0.1930782476879656
1789756029173226200,5.885226318359375,0.2069897225320339,-0.5800087961763143,-0.27422552193701266
1789756029183235000,5.895235107421875,0.04654898520708084,-0.4139835367172956,-0.3341448608487844
1789756029193245200,5.9052451171875,-0.1389806006669998,-0.2507739192008972,-0.41158933505713935
1789756029203254300,5.915254150390625,-0.31832828303575517,-0.1478951440066099,-0.44138606903627514
1789756029213263400,5.925263427734375,-0.49371634105853734,-0.03173310886919498,-0.4444087778583169
1789756029223272400,5.9352724609375,-0.6263104555588215,0.07432780349254607,-0.35577217076718803
1789756029233281000,5.945281005859375,-0.711428533134982,0.22590543540418145,-0.172436587806046
1789756029243291100,5.955291015625,-0.6709248194415122,0.348668476241827,0.05812894836366176
1789756029253300200,5.96530029296875,-0.5501542675953358,0.4091571394741535,0.25842574912831184
1789756029263309300,5.975309326171875,-0.34638168047890067,0.3987169940024614,0.39110885708630083
1789756029273318400,5.985318359375,-0.06387070688605308,0.3706535135567188,0.41338688599839807
1789756029283327000,5.995326904296875,0.2500946316998452,0.3319774536818266,0.3261810423627496
1789756029293336000,6.005336181640625,0.5575695122878999,0.333026670473814,0.17297990090250967
1789756029303346200,6.01534619140625,0.8096971841853111,0.3906301336586475,0.039878859793394804
1789756029313355300,6.025355224609375,0.9562895019650459,0.48335459458529945,-0.06955752035081386
1789756029323364400,6.0353642578125,0.9907705213028937,0.6193342598706484,-0.09848740836754441
1789756029333373200,6.045373291015625,0.954751113416627,0.7433119371950626,-0.06854425165504217
1789756029343382000,6.055382080078125,0.8783295525152236,0.8360141862899064,-0.04374591048508882
1789756029353392000,6.06539208984375,0.7856034110881388,0.8888812686026096,0.07282631288841367
1789756029363401200,6.075401123046875,0.6251929227709769,0.8898030596226453,0.15609116381332278
1789756029373410300,6.085410400390625,0.5043594617564231,0.8306716562181711,0.24227526318579912
1789756029383419400,6.09541943359375,0.384970792722702,0.6998521501749754,0.3134352502971887
1789756029393428200,6.10542822265625,0.36447270602993664,0.5677063639640808,0.3125000152736902
1789756029403437000,6.11543701171875,0.3841722627561539,0.4224152649760246,0.2834421169631183
1789756029413447200,6.125447265625,0.4190601093292236,0.29999767657518384,0.17841536995470522
1789756029423456300,6.135456298828125,0.39103345376253124,0.1706792227447033,0.07453077871873974
1789756029433465300,6.14546533203125,0.3032511984784156,0.07123042199909686,0.03752455175220966
1789756029443474200,6.15547412109375,0.07614457059092819,-0.033657939451932906,0.004082154747098684
1789756029453483000,6.16548291015625,-0.23842527322676033,-0.20684300753772258,0.0013172200784087181
1789756029463493000,6.1754931640625,-0.5731214478153736,-0.40169221042096614,-0.017795330540090797
1789756029473502200,6.185502197265625,-0.9082114074945449,-0.5837094042599201,-0.029098960973322388
1789756029483511300,6.19551123046875,-1.1152676193915307,-0.737259213027358,-0.023746494029462335
1789756029493520400,6.205520263671875,-1.156678803318739,-0.8158651322305202,-0.01856236938983202
1789756029503529200,6.215529296875,-1.0783213059186936,-0.7760954319000244,0.00503521768823266
1789756029513538000,6.2255380859375,-0.9094423375289886,-0.607535101005435,0.02475786302909255
1789756029523548200,6.235548095703125,-0.764963797032833,-0.42461774345636366,0.004930296009033918
1789756029533557200,6.24555712890625,-0.6413421666044742,-0.2273819376975298,0.006042202773690223
1789756029543566300,6.25556640625,-0.548804095095396,-0.02908113305568695,0.10563391912132501
1789756029553575200,6.2655751953125,-0.4335678695660084,0.09677110596895218,0.22206337302327156
1789756029563584300,6.275584228515625,-0.3689537969667464,0.08945932165086269,0.3794385852977633
1789756029573594400,6.285594482421875,-0.2761222954690456,0.01367547413110733,0.49469475763663645
1789756029583603200,6.295603271484375,-0.19122874736376105,-0.11887655479311943,0.5549253544546664
1789756029593612300,6.3056123046875,-0.1347334646165371,-0.2884890250891447,0.5746608592770993
1789756029603621000,6.31562109375,-0.06382277609109878,-0.3829319803714752,0.5732219125151634
1789756029613630200,6.325630126953125,-0.003350479471683502,-0.3971393694221973,0.4943574885062873
1789756029623639000,6.33563916015625,0.06238141817636787,-0.35964229019880295,0.37702202567532656
1789756029633649200,6.345649169921875,0.09610128041598945,-0.2558271109372377,0.20838424563035368
1789756029643657700,6.35565771484375,0.09785367704126983,-0.09619885903894901,0.03361673065871
1789756029653666800,6.365666748046875,0.07530048444960266,0.04916296709775925,-0.08094605258852243
1789756029663676000,6.375676025390625,0.02111643778681755,0.1952262195020914,-0.15363631800711153
1789756029673684700,6.385684814453125,-0.020257190608978272,0.31022388703525067,-0.25949907744824885
1789756029683693600,6.395693603515625,-0.012132299809716642,0.3999941743314266,-0.32321780864298344
1789756029693703700,6.40570361328125,0.018929229940846563,0.39834582260251045,-0.31103593407049773
1789756029703712800,6.415712646484375,0.04897011140678078,0.31382454187572,-0.3345842751793563
1789756029713721900,6.425721923828125,0.1327191291194409,0.2212111401081085,-0.3171932876564562
1789756029723730700,6.435730712890625,0.21994038951992986,0.11688801132440567,-0.3100609515585005
1789756029733739800,6.44573974609375,0.34619244151711465,0.06594692863821983,-0.29510215961858627
1789756029743748600,6.45574853515625,0.3878349499821663,0.10095745174288749,-0.17175781176164745
1789756029753758700,6.4657587890625,0.38718266008589414,0.08855565080940724,-0.1416775846660137
1789756029763767800,6.475767822265625,0.34221878864578903,0.0549292755395174,-0.12825184751227497
1789756029773777000,6.48577685546875,0.2642273115465417,0.03863222073316574,-0.09838570155873894
1789756029783785700,6.49578564453125,0.14944829173274338,0.014025018221139907,-0.07682897265851497
1789756029793794800,6.505794921875,0.029909985095262527,-0.012579495587944984,-0.06318754692748188
1789756029803803600,6.5158037109375,-0.06769340697936713,-0.018172201028466225,-0.02773980144932866
1789756029813813800,6.525813720703125,-0.17573416804671285,-0.07000877124965191,0.016450784063339233
1789756029823822800,6.53582275390625,-0.262389538192749,-0.15837328340113163,0.05150500017926097
1789756029833831700,6.545831787109375,-0.3127707219738513,-0.28083412642180916,0.058695788466185325
1789756029843840800,6.5558408203125,-0.33979075778126716,-0.3914911344021558,0.097724461171031
1789756029853849600,6.565849609375,-0.3715325979461893,-0.4470990398555994,0.11710896059870719
1789756029863858700,6.575858642578125,-0.41245735006332396,-0.4026999261587858,0.16929902043268083
1789756029873868800,6.585868896484375,-0.4703776971776038,-0.267231133005023,0.22550722986683247
1789756029883877600,6.595877685546875,-0.5003109535505995,-0.09300853856503963,0.2948820871271193
1789756029893886700,6.60588671875,-0.5034474980106577,0.08215747420489787,0.35094445834979415
1789756029903895800,6.615895751953125,-0.4318271999111399,0.1768956130415201,0.3573576863929629
1789756029913904600,6.625904541015625,-0.29481293088104576,0.18442659306824205,0.2949436080560088
1789756029923913700,6.635913818359375,-0.13102755930330603,0.14887012651860712,0.20987653001472353
1789756029933923800,6.645923828125,0.03329319779276848,0.10314239456653594,0.12522066312283278
1789756029943932700,6.6559326171875,0.17252868653628975,0.05715981107056141,0.052679889177531
1789756029953941800,6.665941650390625,0.26448917735312133,0.016769933015108106,0.005825783544033765
1789756029963950800,6.675950927734375,0.34180739483330397,-0.010260112729668617,-0.04628463518247008
1789756029973959700,6.685959716796875,0.3505763922223821,-0.015422025537490844,-0.07591726464107632
1789756029983968800,6.69596875,0.30175233822278674,-0.006107084703445434,-0.11313377335742116
1789756029993977900,6.705977783203125,0.2259130341887474,0.01329202777147293,-0.11964841594845056
1789756030003987700,6.71598779296875,0.10573065749406814,0.019821721801161766,-0.13830313979685305
1789756030013996800,6.725996826171875,0.006629720338061452,0.028631635722517965,-0.1059801022104919
1789756030024005600,6.736005615234375,-0.1027039666166529,0.07839081514775753,-0.052316462692618367
1789756030034014700,6.7460146484375,-0.17757303737904875,0.12511691048741339,0.023915274725109337
1789756030044023800,6.75602392578125,-0.2062895383734256,0.16304010616838932,0.05982260053902864
1789756030054033000,6.766032958984375,-0.17800667955596,0.1463829858779907,0.0773415983557701
1789756030064042800,6.776042724609375,-0.13363101979997008,0.08832534918487071,0.05707622444033622
1789756030074051800,6.7860517578125,-0.06989011330604553,0.038970074385404584,0.05098974413350224
1789756030084060700,6.796060791015625,-0.017396613546088336,-0.01063245317339897,0.07739391306489705
1789756030094069800,6.80606982421875,0.040992556656338275,-0.023496026399731636,0.0841242442332208
1789756030104078800,6.816078857421875,0.07366963184475898,-0.003511222991347313,0.07429609318003058
1789756030114088000,6.826087890625,0.07978022367954253,-0.01002338136434555,0.047574382732063526
1789756030124097800,6.836097900390625,0.0734732690224424,0.0023848493099212645,0.03625146307647228
1789756030134107000,6.84610693359375,0.09400752300713211,0.050849897271394724,0.060101563610881564
1789756030144115700,6.85611572265625,0.11822883147411048,0.11657821472287178,0.12481997336745261
1789756030154124800,6.866124755859375,0.13188560090474782,0.20739421167969702,0.1512644743092358
1789756030164134000,6.8761337890625,0.14610117326192557,0.293565013179183,0.16031024281308054
1789756030174142700,6.886142822265625,0.1689524720173329,0.33588147538304325,0.1738726119585335
1789756030184151600,6.896151611328125,0.19771102205514907,0.32841946893930435,0.2146289852388203
1789756030194161700,6.90616162109375,0.23370120384693144,0.2646785259127617,0.26008082285895945
1789756030204170800,6.916170654296875,0.3234720756649971,0.20950608926713465,0.34049612957164643
1789756030214179800,6.926179931640625,0.41666232747249304,0.1547615226447582,0.3698094639480114
1789756030224189000,6.93618896484375,0.46214054164290425,0.1590764632344246,0.42517172407731413
1789756030234197800,6.94619775390625,0.46488194930553434,0.1513636969000101,0.4744900278672576
1789756030244206600,6.95620654296875,0.4623392060201615,0.18002572776079176,0.44464550922363993
1789756030254215700,6.966215576171875,0.4588075247626751,0.18548574673235416,0.3701389881633222
1789756030264225800,6.976225830078125,0.4724912917980924,0.16522095733880995,0.3338889863915741
1789756030274235000,6.98623486328125,0.5109937121391296,0.0928618235707283,0.3200058608591556
1789756030284243700,6.99624365234375,0.5662288022248074,0.0027390695750713345,0.2518967857509851
1789756030294252800,7.006252685546875,0.6288907543756067,-0.12077625093460083,0.18755261613428592
1789756030304261600,7.01626171875,0.7558499317288399,-0.1933615946739912,0.0983949077785015
1789756030314270700,7.026270751953125,0.8790367509365081,-0.21413784072101114,0.08278700428009032
1789756030324279800,7.03627978515625,0.9760708186905831,-0.20810849742889403,0.1600540760949254
1789756030334289700,7.04628955078125,1.0220821168243885,-0.21845161226689813,0.23545520790740845
1789756030344298800,7.056298828125,1.0603870052993296,-0.21973580685853958,0.28426468539237976
1789756030354307600,7.0663076171875,1.0537550199389456,-0.24805296980440616,0.2973712735943496
1789756030364316700,7.076316650390625,0.9875088160932064,-0.3044523178964853,0.25391601661890745
1789756030374325800,7.08632568359375,0.8587503342330455,-0.34561961006522174,0.21058277858793734
1789756030384334800,7.0963349609375,0.6261188054442405,-0.3654512687385082,0.1439348620735109
1789756030394344000,7.106343994140625,0.31569676548838616,-0.37342765444517134,0.08676262991279363
1789756030404353800,7.116353759765625,-0.0996913590635173,-0.4307634066045284,0.05452639382705092
1789756030414362600,7.126362548828125,-0.5936147122025489,-0.4444488176077604,0.06717851625978946
1789756030424371700,7.136371826171875,-1.0665057804405689,-0.46214404877424237,0.1268403732791543
1789756030434380800,7.146380859375,-1.5046891079127787,-0.4649819025486707,0.22183073331117628
1789756030444390000,7.156389892578125,-1.8075322370469569,-0.36828561538159843,0.35109044269174333
1789756030454399000,7.16639892578125,-1.9616881950139997,-0.23932664251327512,0.49223406661152835
1789756030464407800,7.17640771484375,-1.859918257844448,-0.1516600494980812,0.5930582473635673
1789756030474417700,7.186417724609375,-1.634260075199604,-0.12090659931600094,0.6732369688414037
1789756030484426800,7.1964267578125,-1.269953300321102,-0.13927403065562247,0.6729552292905747
1789756030494435800,7.206435791015625,-0.8964905745625495,-0.13611235175430775,0.6488799416981638
1789756030504445000,7.21644482421875,-0.5607154821634293,-0.08678864113688468,0.6784105720870196
1789756030514453800,7.226453857421875,-0.26703997608078645,-0.01614800172448158,0.7039861812397837
1789756030524462600,7.236462646484375,-0.020922376519441604,0.017958266016840935,0.6859273774579167
1789756030534471700,7.2464716796875,0.21183303437735884,0.04532674993574619,0.5926999354451894
1789756030544481800,7.256481689453125,0.39665070912241934,0.05785597664117813,0.5106117270842194
1789756030554491000,7.266490966796875,0.5538005882084369,0.08984159896671771,0.44139717495217917
1789756030564500000,7.2765,0.656545507889986,0.14309738833606242,0.4226648558229208
1789756030574508500,7.286508544921875,0.6853226895630359,0.16905951258838176,0.37661081452593204
1789756030584517600,7.296517578125,0.6770014359414577,0.1151344456553459,0.29897768587768075
1789756030594526700,7.306526611328125,0.5906535243093967,-0.027348610174655914,0.21740999425947666
1789756030604535800,7.316535888671875,0.47136433359477664,-0.17242752771675585,0.11535700236484407
1789756030614546000,7.3265458984375,0.29866615397678686,-0.2901642648249864,0.018960574927181003
1789756030624554800,7.3365546875,0.16214052698016165,-0.39206688846349713,-0.09787921334132552
1789756030634563600,7.3465634765625,0.024844518399238586,-0.45018882256448267,-0.2277411263987422
1789756030644573400,7.356573486328125,-0.056490542640024795,-0.4692535885185003,-0.3204934982456267
1789756030654582500,7.36658251953125,-0.08575989174419082,-0.4625491224437952,-0.37871275524124504
1789756030664591400,7.37659130859375,-0.018173954594135282,-0.4381406573742628,-0.4162503126055002
1789756030674600400,7.386600341796875,0.09274258110523223,-0.37347441619634625,-0.46265886642858384
1789756030684609500,7.396609619140625,0.1712765858496539,-0.29673429086506364,-0.474571276409924
1789756030694619400,7.406619384765625,0.24312369670867917,-0.23899989477694034,-0.49213747436925764
1789756030704628500,7.41662841796875,0.3007482026815414,-0.23649697204530237,-0.5725101109839975
1789756030714637300,7.42663720703125,0.3282955502986908,-0.2750999666839838,-0.6855287335291504
1789756030724646400,7.436646484375,0.2756079162061214,-0.2539543028026819,-0.7764397152930498
1789756030734655500,7.446655517578125,0.14521043496727942,-0.12136954065263271,-0.7842894058801233
1789756030744664300,7.456664306640625,-0.003292009016405791,0.08048924873173237,-0.73850965147987
1789756030754673400,7.46667333984375,-0.1455214006125927,0.2689607332766056,-0.6138973295137286
1789756030764683500,7.47668359375,-0.27541973669026043,0.33867432097196576,-0.39789822496548294
1789756030774692400,7.4866923828125,-0.3536030100345611,0.2961094369649887,-0.11854469249024986
1789756030784701400,7.496701416015625,-0.3640530558457598,0.1758627628624439,0.1337351012289524
1789756030794710300,7.506710205078125,-0.3466203115403652,0.0038601825594902035,0.35849677342548963
1789756030804719400,7.51671923828125,-0.3025520007004961,-0.16029752946197987,0.5508303402259945
1789756030814728400,7.526728515625,-0.22262217594981193,-0.29362697249948977,0.7085172487981617
1789756030824737300,7.5367373046875,-0.1431681154847145,-0.34417817908525467,0.8549361827723682
1789756030834746400,7.546746337890625,-0.06592351123001426,-0.29749416932165623,1.0189771365463733
1789756030844756500,7.556756591796875,-0.017792809789441526,-0.19535422979593275,1.1125703431315719
1789756030854765300,7.566765380859375,0.019249511403776703,-0.014393851533532141,1.109324785339087
1789756030864774400,7.5767744140625,0.0441150360584259,0.18643559480309485,1.0151648847818373
1789756030874783200,7.586783203125,0.07904610071871429,0.3497112632930279,0.9081187607750296
1789756030884792300,7.596792236328125,0.12759879043102262,0.4309989689260721,0.79259487741068
1789756030894801400,7.606801513671875,0.17455577191710472,0.3868716579079628,0.6017753684349357
1789756030904810500,7.616810546875,0.22335750448703764,0.2863917605489492,0.4197274871967733
1789756030914819600,7.626819580078125,0.231672912889719,0.25575696831047534,0.29856647472828624
1789756030924829400,7.636829345703125,0.1467278537929058,0.2218172893077135,0.22550284595265982
1789756030934838300,7.64683837890625,-0.03558686168789863,0.15905600496828556,0.16699571192637086
1789756030944847400,7.656847412109375,-0.292270224128291,0.10028642061352729,0.18751696029901505
1789756030954856400,7.6668564453125,-0.5579120421152561,0.03402151206731796,0.20499416480064392
1789756030964865500,7.676865478515625,-0.7787281184911727,-0.03753507314622402,0.2644599147260189
1789756030974874600,7.68687451171875,-0.862401257956028,-0.0793891785353422,0.3329591581955552
1789756030984883200,7.69688330078125,-0.8435025692839175,-0.10261749390959739,0.3471846674248576
1789756030994892300,7.706892333984375,-0.6933283013641833,-0.12820493963062762,0.32146365845203395
1789756031004902400,7.71690234375,-0.47209728751182556,-0.12641221099495886,0.29310981675758957
1789756031014911500,7.726911376953125,-0.22616087146997452,-0.11322422811985015,0.23016177767440676
1789756031024920600,7.736920654296875,0.03677227208018303,-0.07332710201740264,0.17104644862189888
1789756031034929200,7.74692919921875,0.2805307595610618,-0.005565817433595657,0.13595043919086455
1789756031044938200,7.756938232421875,0.4725837193218991,0.07201660394072532,0.11110752822682261
1789756031054947300,7.766947265625,0.6642074208199977,0.12021218731105326,0.05177870255410671
1789756031064956400,7.776956298828125,0.8033832517981528,0.20071721813380716,-0.039598727677762506
1789756031074965500,7.786965576171875,0.8920576336164027,0.24826222864091396,-0.12572832038402557
1789756031084975400,7.796975341796875,0.9156639885228127,0.2586392457485199,-0.2166251274921
1789756031094984200,7.806984130859375,0.9000479747831821,0.24153438169062136,-0.34159576137661934
1789756031104993300,7.8169931640625,0.7964566674053668,0.19728373655378817,-0.46327466023936864
1789756031115002400,7.82700244140625,0.6341151379603892,0.1735112313002348,-0.533039247469604
1789756031125011500,7.837011474609375,0.40025852435603737,0.19677403346598146,-0.5689589943736791
1789756031135020500,7.8470205078125,0.1108989269774407,0.27540041093528267,-0.5586902599461376
1789756031145029400,7.857029296875,-0.2072738732356578,0.3324029856175184,-0.5026597451664507
1789756031155038500,7.86703857421875,-0.48321957002878185,0.4237310237497091,-0.40756957802176474
1789756031165047300,7.87704736328125,-0.7550503788489847,0.4102981262028217,-0.25613997627869245
1789756031175057400,7.887057373046875,-0.9441314466595649,0.28901158765852447,-0.07164952419400215
1789756031185066500,7.89706640625,-1.0431178905904293,0.11392156273424625,0.13190057927817106
1789756031195075300,7.907075439453125,-1.0148702857494354,-0.050230304068326945,0.3209637461058795
1789756031205084400,7.91708447265625,-0.8746423153698444,-0.15101824446320533,0.5276482020810246
1789756031215093200,7.92709326171875,-0.6657166563391685,-0.17697218540906906,0.7175444587320089
1789756031225102300,7.937102294921875,-0.448975939643383,-0.15669862818717956,0.8568570678323507
1789756031235111400,7.947111328125,-0.2251017178058624,-0.12178747380375861,0.9046988693289458
1789756031245120300,7.957120361328125,-0.01439911223053932,-0.060604398566484446,0.9025335079886019
1789756031255129300,7.96712939453125,0.1476337896566838,-0.0885217485398054,0.8778693145923316
1789756031265139500,7.977139404296875,0.3232323486249894,-0.14293196864128113,0.7840909606985748
1789756031275148300,7.987148193359375,0.4382628224492073,-0.19093992048501968,0.6192490658052265
1789756031285157400,7.997157470703125,0.5112392843980342,-0.2669488089323044,0.3866286429323256
1789756031295166500,8.00716650390625,0.5204338137228042,-0.2614221544653177,0.12539105125367642
1789756031305175300,8.01717529296875,0.44250301730222996,-0.1771393586695194,-0.12713657974675296
1789756031315184400,8.027184326171875,0.3290356280762702,-0.04872808281183243,-0.35654183996543287
1789756031325193500,8.037193359375,0.1925461135726422,0.08316869707405566,-0.5647958833448589
1789756031335202600,8.04720263671875,0.05037526549696922,0.16807868485748767,-0.7090763439856469
1789756031345211400,8.05721142578125,-0.08481303021498024,0.1978665048778057,-0.7967009975552558
1789756031355221200,8.06722119140625,-0.1785422112047672,0.22211597999334334,-0.8050254660472274
1789756031365230300,8.077230224609375,-0.22571086268015206,0.21894261065423487,-0.7668636393047868
1789756031375239400,8.087239501953125,-0.20964578999876976,0.19412498026192188,-0.6509367280974984
1789756031385248500,8.09724853515625,-0.15663780137803404,0.13765607406497002,-0.474567477017641
1789756031395257600,8.107257568359374,-0.09763733087684959,0.07127016948759556,-0.2908396798685193
1789756031405266200,8.11726611328125,0.0024620792645961044,0.013269231417775154,-0.09604030747637152
1789756031415275300,8.127275146484376,0.11768296109437942,-0.02650222247838974,0.10004501307308673
1789756031425284400,8.137284423828126,0.17252280478477477,-0.029711832174658774,0.2620318107962608
1789756031435293400,8.14729345703125,0.23098200801610946,-0.027591771280765533,0.3593905073948204
1789756031445303600,8.157303466796876,0.2656593536436558,-0.0430301634311676,0.44447877435460686
1789756031455312400,8.1673125,0.27065350866913795,-0.036219898894429205,0.44787879205644127
1789756031465321200,8.1773212890625,0.23977438628077505,0.0010468787044286727,0.40677258242517705
1789756031475330300,8.187330322265625,0.19532504023406652,-0.003502455163002014,0.3197933871522546
1789756031485339400,8.19733935546875,0.12093173375725745,-0.018069325175881383,0.20131138463467357
1789756031495348500,8.207348388671875,0.05360416441559791,-0.03329728944599628,0.06994432771131395
1789756031505357300,8.217357421875,-0.0012579641718417406,-0.03851005565822124,-0.035953356912732125
1789756031515366400,8.227366455078124,-0.03456285240240395,-0.00987783541381359,-0.11686901436299085
1789756031525375500,8.23737548828125,-0.06871062119789421,0.00154021517932415,-0.16414865193217992
1789756031535384300,8.24738427734375,-0.0852583628296852,0.0009825812965631483,-0.16414017636477946
1789756031545394400,8.25739453125,-0.09172668206095695,0.028123101678490636,-0.16297829297855496
1789756031555403500,8.267403564453126,-0.062148778464272615,0.03763794899880886,-0.14398250060752033
1789756031565412400,8.277412353515626,-0.05597264711260795,0.05194704485833645,-0.10153817424029112
1789756031575421400,8.28742138671875,-0.04488890650775283,0.06720715783238411,-0.03868117444142699
1789756031585430300,8.29743017578125,0.0030582185268402096,0.05351940874159336,0.01491568345054984
1789756031595439400,8.307439453125,0.034939138368889684,0.039030280140042305,0.07331497318819165
1789756031605448400,8.317448486328125,0.08225746398065238,0.023483166918158528,0.11001403390169143
1789756031615457300,8.327457275390625,0.13337507227752357,-0.015063713619112967,0.15162176331430674
1789756031625466400,8.33746630859375,0.16032967816591262,-0.043185646253824234,0.18096183956712483
1789756031635475500,8.347475341796875,0.1812275412986055,-0.06085106680393219,0.17566913998648523
1789756031645484500,8.357484619140624,0.18619130118582397,-0.03469371224045753,0.19341683199256657
1789756031655493400,8.367493408203124,0.1570680460214615,-0.004080547311902046,0.19373188929110766
1789756031665502500,8.37750244140625,0.10267126992344856,0.035626024654507635,0.1745259613007307
1789756031675511300,8.38751123046875,0.05650573107600212,0.0469470446139574,0.16915625096112488
1789756031685520400,8.397520263671876,-0.0027542306115850806,0.05790916813313961,0.16069295852035284
1789756031695529500,8.407529541015625,-0.06484802748560906,0.023543957194685935,0.12137056356593966
1789756031705538600,8.41753857421875,-0.10645772965960204,0.0030775077491998672,0.10274433515965938
1789756031715547600,8.427547607421875,-0.15301727279331534,-0.034306174227595326,0.06162658122107386
1789756031725556500,8.437556396484375,-0.17841135136671363,-0.04105681753158569,0.03355740168690681
1789756031735565300,8.4475654296875,-0.17120419646687804,-0.034954993525147436,0.01855959291085601
1789756031745575400,8.457575439453125,-0.12942374083586036,-0.0015869769304990768,0.019361264682561156
1789756031755584500,8.46758447265625,-0.11281162873096763,0.016107669714093206,0.030691929253190753
1789756031765593600,8.477593505859375,-0.06314465763382614,0.02338379819691181,0.03424129229784011
1789756031775602700,8.487602783203124,-0.02260689554028213,-0.0005155483067035675,0.07932794986739754
1789756031785611300,8.497611328125,0.016328034466505048,0.003238251268863678,0.08880304969921708
1789756031795620400,8.507620361328126,0.07113046875596046,-0.00930266587436199,0.10794818741306662
1789756031805629400,8.51762939453125,0.09061835549287497,0.0028945523977279663,0.12327040583789348
1789756031815638500,8.527638427734376,0.10852120152805,-0.0007236380994319916,0.14923413752540945
1789756031825647400,8.5376474609375,0.10391871270127594,-0.008190320718288421,0.16145985123962164
1789756031835656400,8.547656494140625,0.0874982872435823,-0.00919862097799778,0.1287104049347341
1789756031845666300,8.557666259765625,0.09681790425274521,0.003872457519173622,0.11189385629892348
1789756031855675400,8.56767529296875,0.08489015057180076,0.017990414720773697,0.0853555395938456
1789756031865684500,8.5776845703125,0.0463117423851043,0.022341011145710944,0.09162614429593086
1789756031875693600,8.587693603515625,0.01588032723162323,0.02512625795006752,0.07741480972245335
1789756031885702400,8.597702392578125,-0.009249474382400513,0.0311398191511631,0.08808438003584743
1789756031895711500,8.60771142578125,-0.04046645042300224,0.017612229058146477,0.09404811074584722
1789756031905720600,8.617720458984374,-0.0644715953886509,-0.001370119309425354,0.10472674114853144
1789756031915729400,8.6277294921875,-0.07320080875661224,0.006384732601046562,0.1489873231574893
1789756031925738500,8.637738525390626,-0.06497885079104453,0.05211538716256618,0.18723434396535157
1789756031935747300,8.647747314453126,-0.07648578524403274,0.08118892143368721,0.21610577979311346
1789756031945756400,8.65775634765625,-0.08049096576478332,0.09718319390118121,0.2412253157414496
1789756031955766500,8.6677666015625,-0.10138879236485808,0.10412672942876815,0.2742709685139358
1789756031965775600,8.677775634765625,-0.12519753797557204,0.06373392876386642,0.2928445899501443
1789756031975784400,8.687784423828125,-0.14299502394013106,-0.017468436673283575,0.3155018274381757
1789756031985793300,8.697793212890625,-0.1602174134304747,-0.11680676278173922,0.3035606297537684
1789756031995802400,8.70780224609375,-0.21101002755668014,-0.22202830170989035,0.2814261009655893
1789756032005811500,8.7178115234375,-0.2876338330319151,-0.30655542765557764,0.2614567873872816
1789756032015820500,8.727820556640625,-0.36945286906268443,-0.3483370523303747,0.23849428334236145
1789756032025829600,8.73782958984375,-0.43808980396986,-0.3781155200004577,0.2278546697758138
1789756032035838500,8.74783837890625,-0.48106034616827964,-0.4146703499376774,0.1836937487490475
1789756032045847300,8.757847412109374,-0.5136171194452792,-0.4469499867737293,0.17133388726115226
1789756032055856400,8.7678564453125,-0.5258090039551258,-0.48559155985713004,0.13327362119704483
1789756032065865500,8.777865478515626,-0.5128735345363616,-0.4553220937997102,0.10888678343743086
1789756032075875600,8.78787548828125,-0.45973698763251303,-0.40380058087706566,0.0971972224265337
1789756032085884700,8.797884765625,-0.40783502402491867,-0.2849018142521381,0.06572773292958736
1789756032095893500,8.8078935546875,-0.3712626584310084,-0.09681260702311992,0.03185322811752558
1789756032105902300,8.81790234375,-0.3494237515885383,0.07610825716853141,-0.0489013935521245
1789756032115911400,8.827911376953125,-0.3805610865216702,0.21832535553872584,-0.13742562630996108
1789756032125920500,8.83792041015625,-0.5105388810437173,0.37314883750379085,-0.2367752044647932
1789756032135929600,8.8479296875,-0.6625239977777004,0.5683557677835226,-0.30786724090650675
1789756032145938400,8.8579384765625,-0.7661994763076305,0.7067132681161165,-0.3575529167041182
1789756032155947500,8.867947509765624,-0.7672771885417401,0.6910819837421178,-0.3696441903837025
1789756032165956600,8.87795654296875,-0.8641814193710684,0.613133651664853,-0.2557119601249695
1789756032175965400,8.88796533203125,-1.0503447731040418,0.4293213911026716,0.06161708274036645
1789756032185975600,8.8979755859375,-1.0313326141200958,0.3096335199266672,0.48598801182880996
1789756032195984400,8.907984375,-0.6693452220998704,0.16136252834498882,0.7109405304223299
1789756032205993500,8.917993408203126,-0.40509821947216984,-0.12945581647455692,0.8255448147237301
1789756032216002600,8.92800244140625,-0.3976560867726803,-0.30056875446140763,0.49365080154165625
1789756032226011400,8.938011474609375,-0.8575462191402912,-0.33522096564769743,0.349628480380401
1789756032236020500,8.9480205078125,-1.9661819993019103,-0.41768589836657044,0.04064224538132548
1789756032246029300,8.958029296875,-3.246951292669773,-0.6380570805191993,-0.24389650771208107
1789756032256038400,8.968038330078125,-3.883904795861244,-0.5251268669098615,-0.4246647244032472
1789756032266047500,8.978047607421875,-3.5654967255875465,-0.3079910134166479,-0.7523361514542252
1789756032276056600,8.988056640625,-2.1509327097579836,0.23420272362828254,-0.9863037511523812
1789756032286065700,8.998065673828124,-0.5915969426393508,0.37533845650255676,-1.2850503316879271
1789756032296074500,9.008074462890624,0.5979240998342633,0.2854115173399448,-1.29675713609457
1789756032306083300,9.018083251953126,0.9515770864903926,0.19216157123446465,-0.789183242336288
1789756032316093400,9.028093505859376,1.0416250216841698,0.05937514903247356,-0.16217574442401528
1789756032326102500,9.0381025390625,1.0244143591642378,-0.2962128973394632,0.481736637994647
1789756032336111600,9.048111572265626,1.1432570116877556,-0.4715016597062349,1.282758713619411
1789756032346120400,9.058120361328125,1.3553101550891995,-0.5441887102544307,2.1503616318717595
1789756032356129300,9.06812939453125,1.332673375867307,-0.6005249299824238,2.9209032290369272
1789756032366138400,9.078138427734375,1.1623527573019266,-0.4270300652951002,3.559716680881381
1789756032376147500,9.0881474609375,0.9087366004124283,-0.12680267161726952,3.909656784494221
1789756032386156500,9.098156494140625,0.5349237460419536,0.07130699436664581,3.7336610429018733
1789756032396165400,9.108165283203125,-0.07623422163575887,0.2298568033784628,3.014645342573523
1789756032406174500,9.118174560546874,-0.5488891430303454,0.46546939380466934,2.2234676384843883
1789756032416183600,9.12818359375,-0.8566913558766245,0.7755208468824625,1.6755870879746972
1789756032426192600,9.138192626953124,-0.9041124477431177,1.1261387036263941,1.3426361130855977
1789756032436202500,9.148202392578124,-0.7783619155272841,1.3629793745428322,0.9391766007311642
1789756032446211600,9.158211669921876,-0.6361436481133103,1.496724997165799,0.47055203083120284
1789756032456220400,9.168220458984376,-0.4146051757469773,1.643036671373248,0.07876885467991232
1789756032466229500,9.1782294921875,-0.19285043028146026,1.7657769158571957,-0.33589550390839573
1789756032476238600,9.188238525390625,-0.0741875182390213,1.871449705684185,-0.6482104449387639
1789756032486247400,9.198247314453125,-0.11371288841962814,2.014825326439738,-0.851716490073502
1789756032496256300,9.20825634765625,-0.28868893157541753,2.115757643741369,-1.0824461307637392
1789756032506265300,9.218265380859375,-0.4253352440759539,2.1852473595529793,-1.3367797882728278
1789756032516274400,9.2282744140625,-0.5712967896714807,2.202747360408306,-1.5725743111371993
1789756032526283500,9.238283447265625,-0.8631400936245918,2.0590204419970513,-1.7919475682936608
1789756032536292600,9.248292724609374,-1.395638073824346,1.758835133895278,-1.9330621122494338
1789756032546301400,9.258301513671874,-2.043633780033886,1.487812207391858,-1.8649334556579589
1789756032556310500,9.268310546875,-2.7473209783270955,1.2024509589344263,-1.5951462084293364
1789756032566320400,9.2783203125,-3.1139003743126987,0.8313783431828021,-1.3817729223400355
1789756032576329500,9.28832958984375,-3.1284421098843214,0.42805239408016205,-1.1954365501277149
1789756032586338600,9.298338623046876,-2.9733374728903175,0.042618660020828245,-1.0049959574669598
1789756032596347600,9.30834765625,-2.844387852372229,-0.20784195544719694,-0.7673261422500014
1789756032606356500,9.3183564453125,-2.7556907472655174,-0.3659393445163965,-0.5402667145051062
1789756032616365300,9.328365234375,-2.6048829306825994,-0.4671136538803577,-0.13009542955234646
1789756032626374400,9.33837451171875,-2.336532145997882,-0.5453437255084514,0.4198835545413196
1789756032636383500,9.348383544921875,-1.9531284564614295,-0.623950813755393,1.073931400396675
1789756032646392300,9.358392333984375,-1.4657579042330384,-0.5969494095832109,1.6733162204332648
1789756032656401200,9.368401123046874,-0.9723109547004103,-0.41206572039723394,2.2130552578024565
1789756032666410200,9.37841015625,-0.6548869270280003,-0.18348492830395696,2.6053938028141856
1789756032676419300,9.38841943359375,-0.5828337904691696,0.10504735140502452,2.8450936625540253
1789756032686428400,9.398428466796876,-0.6816434165284038,0.38912206718325615,3.045653352038562
1789756032696437200,9.408437255859376,-0.8926268848717213,0.5926537582159042,3.2308927227944135
1789756032706447400,9.418447265625,-1.0478761910334229,0.5165045845150947,3.3658556122526524
1789756032716456200,9.428456298828126,-1.2764739342615008,0.092726214492321,3.477859650927782
1789756032726465300,9.43846533203125,-1.4405857613146305,-0.6932353623837232,3.40115518143177
1789756032736474400,9.448474365234375,-1.4664546543255448,-1.8318740666210651,3.02367795933485
1789756032746483200,9.458483154296875,-1.5640379534602165,-3.2523364928394556,2.314060494209826
1789756032756492300,9.4684921875,-1.7895976441666483,-4.69035912566781,1.4073795111529528
1789756032766501000,9.478501220703125,-1.735598927475512,-5.800099067679048,0.5854926344148814
1789756032776510200,9.48851025390625,-1.2528668487027286,-6.21213088580668,-0.20818770014494656
1789756032786519300,9.498519287109374,-0.6226505448117852,-5.586747408899664,-1.0058765396937728
1789756032796528400,9.5085283203125,-0.1624526616692543,-3.7212609955340623,-1.5699055303193628
1789756032806537200,9.518537109375,-0.11776508641988039,-0.9815291571617126,-1.8881779915146528
1789756032816546300,9.52854638671875,-0.5118202260911464,1.5615724401295183,-2.2379373317331073
1789756032826555100,9.53855517578125,-0.9244516175471246,3.625564240798354,-2.5264801328361033
1789756032836564200,9.548564208984375,-0.7652186485767364,5.071494285750389,-2.650074948322773
1789756032846573300,9.5585732421875,-0.11084273981079458,5.592903593441844,-2.688343011918664
1789756032856583400,9.56858349609375,0.7868504885397851,5.2632905308038,-2.5847178022712467
1789756032866592300,9.57859228515625,1.5229365661345422,4.114537259787321,-2.5558269310906527
1789756032876601300,9.588601318359375,2.282432745411247,2.4926152726352213,-2.5160806116357444
1789756032886610200,9.598610107421875,2.726000834661722,0.7736275804817676,-2.4511842149637637
1789756032896619300,9.608619384765625,2.9120038832664488,-0.5562760384112596,-2.0554099964149297
1789756032906628400,9.61862841796875,3.068275810474157,-1.3775672873437403,-1.2928494611315429
1789756032916637200,9.62863720703125,3.2126994789779184,-1.8008675184607505,-0.5409614187709987
1789756032926646300,9.638646240234374,3.412673769789934,-1.9218541972756384,0.03016425211727619
1789756032936655400,9.6486552734375,3.6859178794741627,-1.6643512620806693,0.49777708769142626
1789756032946664400,9.65866455078125,3.673544720113277,-1.1453829178005457,0.825721924856305
1789756032956673000,9.668673095703125,3.731888188010454,-0.4756926816552877,1.012026879017055
1789756032966682000,9.67868212890625,3.6149265269279476,0.30412030946314333,1.085369763125479
1789756032976691200,9.688691162109375,3.189182994312048,1.0457131677806377,1.1458423520058392
1789756032986700300,9.6987001953125,2.781779420506954,1.595072558671236,1.1679936857983468
1789756032996709400,9.70870947265625,1.9448013576209544,1.2351128730863332,0.9575782266013324
1789756033006719200,9.71871923828125,1.8385761946082113,1.2559563391506672,0.9397133379563689
1789756033016728000,9.72872802734375,1.4791478394210338,0.46149873660802837,0.7721830807618797
1789756033026737200,9.738737060546875,1.2255822436749935,-0.3203928143501282,0.5285704314924776
1789756033036746200,9.748746337890625,1.0528057563900948,-0.9688321726739406,0.33397374206557867
1789756033046755300,9.75875537109375,0.7468577200431377,-1.2623866644591093,0.15461597669422625
1789756033056764400,9.768764404296874,0.01582658775039017,-1.115368887808919,-0.00800911893248558
1789756033066773200,9.778773193359376,-1.0194294834237545,-0.7243623220533132,-0.28303952751159667
1789756033076782300,9.7887822265625,-2.170189491152763,-0.3651426411807537,-0.5952265313133597
1789756033086791200,9.798791259765625,-3.355529740810394,-0.11567395935952662,-0.7911834031775593
1789756033096800300,9.80880029296875,-4.247926324057579,0.08934241727292537,-0.7374370538122952
1789756033106809000,9.81880908203125,-4.539394657218456,0.20391279930472372,-0.401233652998507
1789756033116818200,9.828818115234375,-4.261840283119678,0.393490199264884,0.06712400959357619
1789756033126827300,9.8388271484375,-3.647811728441715,0.7267389880567788,0.6025967678204178
1789756033136836400,9.84883642578125,-2.8600597610175607,0.8600222538650035,0.9657913436733185
1789756033146845400,9.858845458984375,-1.6802525955677032,0.6184516318172216,1.0028525156974792
1789756033156854300,9.868854248046874,-0.470595066255331,0.4103951568365097,0.8065174581706523
1789756033166863000,9.878863037109374,0.3554898832270875,0.19974398918747902,0.4560904478237033
1789756033176873200,9.888873291015624,0.8063514539539813,0.03247603619098663,0.5777716847740113
1789756033186882300,9.89888232421875,0.9120318425655365,0.1149216796875,0.9364652959458529
1789756033196891400,9.908891357421876,0.8745382704734802,0.43766427203416824,1.2255008490018546
1789756033206900500,9.918900390625,0.8102782720088958,0.7458733121156692,1.3683546378403901
1789756033216909000,9.928908935546875,0.7349158647716045,0.9200918149024248,1.3660234184138476
1789756033226918100,9.938918212890625,0.448653283560276,1.0111299301773309,1.1962424596831203
1789756033236927200,9.94892724609375,0.03227906144731678,0.9949754987120628,0.8916159542635083
1789756033246936300,9.958936279296875,-0.5521171651661396,0.795894941869378,0.523128386569023
1789756033256945400,9.9689453125,-1.1834463987350463,0.5658060833007097,0.19267814245447515
1789756033266954200,9.978954345703125,-1.8264146321713923,0.3630073827177286,-0.22211758742854
1789756033276963300,9.98896337890625,-2.527957804173231,0.19725392593741417,-0.6513283577635884
1789756033286972200,9.99897216796875,-3.1613743654102087,0.0485287608474493,-1.04070600714311
1789756033296981200,10.008981201171874,-3.564201717340946,-0.05326631076335907,-1.3079703117653727
1789756033306990000,10.018989990234376,-3.7018396712273356,-0.047699908807873725,-1.295165629119426
1789756033316999200,10.028999267578126,-3.6409736991152166,-0.019746318477392194,-0.8669139130748807
1789756033327008300,10.03900830078125,-3.354177741679549,-0.12944178794920444,-0.16108663401305676
1789756033337017300,10.049017333984375,-2.8154531420499085,-0.22785423138439653,0.6350948697127401
1789756033347026400,10.0590263671875,-2.145725350373238,-0.2062719296514988,1.2733536102838814
1789756033357036300,10.069036376953125,-1.5992838927559554,-0.12454758616685867,1.9331198337860405
1789756033367045000,10.079045166015625,-1.0373895760715006,0.06264847161471844,2.4283481137774885
1789756033377054200,10.08905419921875,-0.7240561056483537,0.14700199455916882,2.7485049274146554
1789756033387063300,10.099063232421875,-0.5220149454344064,0.04740414073169231,2.9554145704478025
1789756033397072400,10.109072265625,-0.4902063601762056,-0.36880408629775047,3.2279794656962153
1789756033407081500,10.11908154296875,-0.5469827248871326,-1.0921130999058484,3.26866569634974
1789756033417090300,10.12909033203125,-0.6568710865825415,-1.9832757574439048,3.0856980699181555
1789756033427099100,10.13909912109375,-0.7815848230965435,-2.802406028950214,2.6524346631914377
1789756033437108200,10.149108154296876,-0.9221189368158579,-3.2558430396556854,1.9613547252759336
1789756033447117300,10.159117431640626,-1.1694425694324075,-3.2394933778792616,1.2025734162703157
1789756033457126100,10.169126220703125,-1.5273773250609635,-3.027606530955434,0.5705458251737058
1789756033467135200,10.17913525390625,-1.7749468952625989,-2.7465099542051554,0.21690862060859797
1789756033477144300,10.189144287109375,-1.7618400147996842,-2.450567690500617,0.02334025131613016
1789756033487153400,10.1991533203125,-1.6526951649479567,-2.3240017502486703,-0.2978558422408998
1789756033497162200,10.209162353515625,-1.4540100371636449,-2.308860295218229,-0.6109544079296291
1789756033507171000,10.219171142578125,-1.1820108129739761,-2.323860880473256,-0.909312865930423
1789756033517180200,10.22918017578125,-0.8627474410451949,-2.190219887268543,-1.174213290965557
1789756033527189200,10.239189208984374,-0.5089561418969184,-1.690911352226138,-1.4581271170936525
1789756033537198300,10.2491982421875,-0.3908949220746755,-1.2238818694978952,-1.780196778614819
1789756033547207400,10.25920751953125,-0.4098018671184778,-0.46596097671389575,-2.082094443592429
1789756033557216300,10.26921630859375,-0.7485293795824051,0.36805531375706196,-2.387444879372418
1789756033567226000,10.27922607421875,-0.9825386264652013,1.36574357855916,-2.484697631378472
1789756033577235200,10.289235107421876,-2.0734552100628614,1.4352256955862044,-2.8186668433994053
1789756033587244300,10.299244384765625,-3.9348178214967247,0.17775486021935938,-3.5359032590955493
1789756033597253400,10.30925341796875,-3.1722470570802686,-0.8141039677768945,-4.049924502362311
1789756033607262500,10.319262451171875,-0.49160629010200496,-1.1732909154236315,-3.6560645930022
1789756033617271300,10.329271240234375,1.589089392608404,-1.4241262094229459,-2.9169115290522574
1789756033627280100,10.339280029296875,2.7264941711366175,-1.7709908511132,-2.4567916795819995
1789756033637289200,10.349289306640625,3.080141604834795,-2.44064017072618,-2.397012772054225
1789756033647298600,10.359298583984375,2.9798294652581214,-3.0535394291132687,-2.4658850866198536
1789756033657307600,10.3693076171875,2.6772069931373,-3.218724146094918,-2.318531648274511
1789756033667316700,10.379316650390624,2.633938637036085,-2.630454886573553,-1.6168540362380444
1789756033677325600,10.38932568359375,2.1356489236474037,-1.8907628934413194,-0.6102040279537438
1789756033687334700,10.399334716796876,1.0887556061714887,-1.7727058383375405,-0.2803008963279426
1789756033697343500,10.409343505859376,0.3998430754229426,-1.3138719370245933,-0.19241306177750228
1789756033707352600,10.4193525390625,0.15633476331084967,-0.7687392239183187,0.010826222179830074
1789756033717361700,10.429361572265625,0.1660629611209035,-0.6043716685384511,0.0067861895414069295
1789756033727370500,10.43937060546875,0.3949953431308269,-0.25330899063646795,0.24384916143901644
1789756033737379600,10.449379638671875,0.7850354019418359,0.19514906261265277,0.6012263927826658
1789756033747388700,10.459388671875,1.2714362323552368,0.5582721806645393,1.0484208923693745
1789756033757397800,10.469397705078125,1.6695394783735273,0.76834525616467,1.4630489375352858
1789756033767406600,10.479406494140624,2.067522897404432,0.6724328128516673,1.8784524240531026
1789756033777415400,10.48941552734375,2.2612217612087724,0.48963878942131994,2.1884781581677495
1789756033787424500,10.499424560546874,2.6414099958300588,0.39804479382932184,2.0549248432464897
1789756033797434600,10.5094345703125,3.0555338178008795,0.43308337398469443,1.9581531527556477
1789756033807443700,10.519443603515626,3.363851578953862,0.536909074640274,1.9946696965090929
1789756033817452500,10.52945263671875,3.6312706357464193,0.5896212586522102,1.9827561174839734
1789756033827461400,10.53946142578125,3.836408885192871,0.8109013723433017,1.6666742982007563
1789756033837470500,10.549470458984375,3.9333617774695155,1.4896990440517663,1.0603213927172124
1789756033847479600,10.5594794921875,3.8457290867239236,2.203674412125349,0.3084520915897563
1789756033857488600,10.569488525390625,3.6781507526040076,2.963964372128248,-0.21336411640215663
1789756033867497700,10.579497802734375,3.6028766081720587,3.663470485344529,-0.6628145051568746
1789756033877506600,10.589506591796875,3.5002269655585287,4.301496586203575,-0.9546913460534066
1789756033887515600,10.599515625,3.367053589865565,4.912340665626526,-1.0139064091533423
1789756033897524500,10.6095244140625,3.24419644100368,5.2996933850497,-1.1449206340510398
1789756033907533600,10.619533447265624,3.0308330917865036,5.558032771068811,-1.2235797447461634
1789756033917542700,10.629542724609376,2.781717461186647,5.677188142803311,-1.277907474195957
1789756033927551500,10.639551513671876,2.4484160654246807,5.759129928430915,-1.249131607697159
1789756033937560600,10.649560546875,2.1332138054549694,5.6221647592395545,-1.3648887152954936
1789756033947569700,10.659569580078125,1.0553718074858187,5.322403229507803,-1.4089726255632937
1789756033957578800,10.669578857421875,-0.830488993127644,4.7328836776643985,-1.397408006106317
1789756033967587600,10.679587646484375,-3.05138283560127,3.629392859175801,-1.366508425451815
1789756033977596400,10.689596435546875,-5.032974293220043,1.212587737545371,-1.6014143289133906
1789756033987605500,10.69960546875,-7.0137179018378255,-2.5118115560144183,-1.5990760952241718
1789756033997614600,10.709614501953125,-9.148743140628934,-7.140806404659152,-0.9574027969691902
1789756034007623700,10.719623779296874,-10.410304460179805,-11.046460675513744,-0.38336766837500036
1789756034017632500,10.729632568359374,-10.461585734605789,-11.897592351436614,0.38450054486244917
1789756034027641600,10.7396416015625,-9.614586628443002,-9.188627991771698,1.8900071066379547
1789756034037650700,10.749650634765626,-7.612892586255073,-5.223152581682801,3.7001205923497675
1789756034047659500,10.759659423828126,-4.971069917970896,-1.9131214402437209,4.10478392753601
1789756034057668600,10.769668701171875,-2.65146026520133,0.4394780434578657,3.6783036050781606
1789756034067678700,10.7796787109375,-0.9821107564419508,2.1954227166086433,3.3643753105670213
1789756034077687600,10.7896875,0.1926864718914032,3.490136948698759,2.9089266677781938
1789756034087696600,10.799696533203125,0.30101708275079725,4.626961296990514,2.4967048800364133
1789756034097705700,10.809705810546875,-0.5150292512655258,4.8759822350442406,1.7531060887239873
1789756034107714600,10.819714599609375,-1.3201347968116401,3.4579847376346584,0.6998924091201275
1789756034117723600,10.8297236328125,-1.2960101171195506,0.7843523881137371,0.6322877033375204
1789756034127732500,10.839732421875,-0.4958870361611247,-2.5304969672620294,1.9128212882533668
1789756034137741600,10.849741455078124,1.5557105623587966,-5.807918216997384,4.040298595882952
1789756034147750700,10.859750732421874,4.093578935171664,-7.853914926770329,5.690405936294794
1789756034157759700,10.869759765625,4.25425698838383,-8.734294324487447,5.527102210754156
1789756034167768600,10.8797685546875,3.102400490655005,-8.360200315088033,2.9716981812506913
1789756034177777400,10.88977734375,3.3852371890708803,-6.113829501530527,-1.1828097082667053
1789756034187786500,10.899786376953125,3.9623406191945074,-2.6300579962104558,-3.8116274951577185
1789756034197795600,10.909795654296875,4.166244358409941,0.255336112549901,-5.609926039913296
1789756034207804700,10.9198046875,4.2265705245569345,2.4747008457601067,-6.326165845787525
1789756034217813500,10.9298134765625,5.710976430636644,3.6769331935077902,-5.721176922133565
1789756034227822600,10.939822509765625,6.607133827722072,3.8929379971444606,-5.287803625291586
1789756034237831700,10.949831787109375,5.6701779717803,3.7924218594282864,-5.385362666767835
1789756034247840800,10.9598408203125,4.4813796906232835,3.728338971096277,-5.571887693420052
1789756034257849600,10.969849609375,3.846350725753605,3.503874382150173,-5.612722392633557
1789756034267858400,10.9798583984375,3.2272339080259203,3.0968478249639273,-5.520345137709379
1789756034277867500,10.989867431640626,2.8486893489584326,1.919887281116843,-5.566755006706714
1789756034287876600,10.999876708984376,2.9526109112039207,-0.4201730390071869,-5.7877177250117064
1789756034297885700,11.0098857421875,2.9036379137203094,-1.9612123941957949,-4.852379825660586
1789756034307894800,11.019894775390625,2.519656132034957,-2.071008985954523,-3.0038650053620337
1789756034317903600,11.029903564453125,2.374465863072872,-1.7528268333911894,-1.7166902288660406
1789756034327912400,11.039912353515625,2.2977391817450523,-1.5581424656808376,-0.9735686266113072
1789756034337921500,11.049921630859375,2.086919671791792,-1.4464403325617312,-0.45902292107902465
1789756034347930600,11.0599306640625,1.4939036561347543,-1.2640139733999967,0.07617949577383697
1789756034357939500,11.069939453125,0.7450235634185374,-0.8232248473435639,0.5186034564904868
1789756034367948500,11.079948486328124,0.15517887127399443,-0.2887543980270624,0.878819381858781
1789756034377957600,11.08995751953125,0.020210721118748186,0.12197393628656863,1.1671422566007823
1789756034387966700,11.099966796875,0.12278101488575338,0.4211211335122585,1.431577840603143
1789756034397975800,11.109975830078126,0.15067337654829024,0.44275779578089713,1.5824755274266005
1789756034407984400,11.119984375,0.24221900295391677,0.2975070288032293,1.6795109834201634
1789756034417993500,11.129993408203125,0.3159038323678076,0.3296984028339386,1.8484929007276891
1789756034428002600,11.14000244140625,0.3324339652776718,0.531782233145833,2.1552641630910334
1789756034438012700,11.1500126953125,0.3149180362008512,0.7877572281211614,2.3520569012574852
1789756034448021800,11.160021728515625,0.24441914334669707,0.9205050718784332,2.222097080783546
1789756034458030600,11.170030517578125,0.028009119910001753,1.0099310757815838,2.1876950449660417
1789756034468039400,11.180039306640625,0.00898658566251397,1.2665642424046992,2.329135313744843
1789756034478048500,11.190048583984375,-0.11650463803000748,1.3326497027307749,2.350210981129855
1789756034488057600,11.2000576171875,-0.492921537419036,1.2078700613737106,2.3384102148294446
1789756034498066700,11.210066650390624,-0.9527660040140151,1.179931084090471,2.0450195353038607
1789756034508075500,11.220075439453124,-1.4171020098745821,1.125825984415412,1.6128300414189696
1789756034518084600,11.230084716796876,-1.7746645711898803,0.6723597476154566,1.1137952087514102
1789756034528093700,11.24009375,-1.8210007904291152,0.4216325901657343,0.7306301502764224
1789756034538102500,11.2501025390625,-1.7928735970973968,0.2317208436846733,0.37870764067471024
1789756034548111600,11.260111572265625,-1.840579935646057,0.29665479588806626,0.09558876431658864
1789756034558120400,11.270120361328125,-1.9635989970713852,0.5975853693991899,-0.0375274743616581
1789756034568129500,11.280129638671875,-2.317620524778962,0.9685334819883108,-0.11756459541171789
1789756034578138600,11.290138671875,-2.6464392221689224,0.9472340888500214,-0.25445026962608097
1789756034588147700,11.300147705078125,-2.8660575401276347,0.6098281803786755,-0.29041005627959965
1789756034598156800,11.31015673828125,-2.9317572160065173,0.07107143204510212,-0.1462222423583269
1789756034608165400,11.320165283203124,-2.818617743560672,-0.33822307007312774,0.301544467625767
1789756034618174500,11.330174560546874,-2.6484394560754296,-0.6762210992187261,0.8874411527968943
1789756034628183600,11.34018359375,-2.2273633307486773,-1.0140338349252938,1.359902451315522
1789756034638192600,11.350192626953126,-1.6354425629824398,-1.1607213567078112,1.771775133358687
1789756034648201700,11.36020166015625,-1.2626187196493148,-0.9827017080724239,2.2001573439151048
1789756034658210800,11.3702109375,-1.210881591214612,-0.7288251466810702,2.575021753165126
1789756034668220000,11.380219970703125,-1.2714637048840522,-0.4661351642370224,2.717600670585036
1789756034678228700,11.390228759765625,-1.194896598032117,-0.0787795222043991,2.661767724204063
1789756034688237600,11.400237548828125,-1.1914221999198198,0.06511047781407833,2.4128720199652016
1789756034698246700,11.41024658203125,-1.3946452633947133,-0.22687866435050963,1.9485051805749534
1789756034708255700,11.420255859375,-1.4490420394927261,-0.7142191137015819,1.5339260160520671
1789756034718264800,11.430264892578125,-1.4810139255538581,-1.4720318699359893,1.2453234475858508
1789756034728273700,11.440273681640624,-1.401636145195365,-2.187290263557434,1.0778779460653662
1789756034738282800,11.45028271484375,-1.419932703255862,-2.690052738445997,1.0334183343529701
1789756034748291800,11.460291748046876,-1.568674234958738,-2.86597336897552,1.0439414819329977
1789756034758300700,11.47030078125,-1.6562661553025244,-2.659354817843437,0.7974345725268125
1789756034768309800,11.480309814453125,-1.681741811212152,-2.5616508149385453,0.3763317053236067
1789756034778318600,11.490318603515625,-1.6216146747685969,-2.47730605982244,-0.012673019090294836
1789756034788327700,11.50032763671875,-1.5379964803613722,-2.2544009752780196,-0.2365916645914316
1789756034798336800,11.510336669921875,-1.4645667947523295,-1.9251789577841758,-0.46982758901417254
1789756034808345900,11.520345947265625,-1.7358330284923313,-1.7879928393185138,-0.8550107093133031
1789756034818354700,11.530354736328125,-2.160023486447334,-1.4394500352829693,-1.3565208460532128
1789756034828363800,11.54036376953125,-2.973588525041938,-1.0756108779162168,-1.8940660266399383
1789756034838372600,11.55037255859375,-4.282467476084828,-1.220084815302491,-2.7143700181007384
1789756034848381700,11.560381591796874,-4.403770381242037,-1.5396750810980795,-3.3159576088786125
1789756034858390800,11.570390869140626,-2.7215572992563244,-1.7950100246042011,-3.3846745867520567
1789756034868399600,11.580399658203126,-0.21926464568283408,-1.7977900107115505,-2.7254145592063663
1789756034878408700,11.59040869140625,2.0628186652362346,-1.7139473598986863,-1.736331625664234
1789756034888417800,11.600417724609375,3.3604549222528934,-1.928237176311016,-0.818908299318701
1789756034898427000,11.610427001953125,3.5154736345291138,-2.7374136245578526,-0.5444524757571518
1789756034908435700,11.620435791015625,3.1307156077742575,-3.6227374929398297,-0.6449740203008055
1789756034918444500,11.630444580078125,2.3218812509633597,-4.206672522649169,-0.9076010205112397
1789756034928453600,11.64045361328125,0.9617572658516466,-4.15129667238593,-0.6921010245915502
1789756034938462700,11.650462646484375,0.06304872297868132,-3.5143063443154094,-0.09401661962904036
1789756034948471800,11.660471923828124,0.12402473133653402,-2.6462819857805964,0.19757037147544323
1789756034958481000,11.67048095703125,0.9356037106804549,-1.4916630376011133,0.4471080268796533
1789756034968489700,11.68048974609375,1.5320938321888447,-0.37605040416419505,0.6544748390957713
1789756034978498800,11.690498779296876,1.5904221025168894,0.17443302232027053,0.24973909626044333
1789756034988507600,11.700507568359376,1.3400763456001876,0.36942251045703883,-0.07913345020860434
1789756034998516700,11.710516845703125,1.1434712389603257,0.3831973533093929,-0.14047953398786484
1789756035008525600,11.720525634765625,1.06296007065773,0.40000469572544095,0.06306439547184854
1789756035018534700,11.73053466796875,0.7662792635455727,0.537026563540101,0.10161763268467039
1789756035028543700,11.740543701171875,0.9763181445151566,0.7131365791618823,0.10677110645771026
1789756035038552800,11.750552734375,1.61393858718276,0.9531862752526998,0.3331857700256631
1789756035048562000,11.76056201171875,2.3793816921651363,1.3272820382177828,0.565382670256868
1789756035058570500,11.770570556640624,4.314265174622833,1.5892232481211424,0.6933692178964614
1789756035068579600,11.78057958984375,4.459298791718482,1.5134920075714586,0.7412417067922651
1789756035078588700,11.790588623046874,4.847767363429069,1.6298054338783026,0.751776398679614
1789756035088597800,11.80059765625,5.107471608060598,1.791541471710801,0.48527854838520285
1789756035098606800,11.81060693359375,5.145301864761114,1.9592600910842417,0.024538959581404923
1789756035108615700,11.82061572265625,5.1750142814576625,2.2847844231039285,-0.20366561961062252
1789756035118624800,11.830624755859375,4.724700955730676,2.901678888607025,-0.25763021483644843
1789756035128633900,11.8406337890625,4.076384931525588,3.5129058298677203,-0.3102598351314664
1789756035138642700,11.850642578125,3.8025668213456867,4.0481069315463305,-0.4329840052634477
1789756035148651500,11.860651611328125,3.7383833952486514,4.356741503563523,-0.4814038258437067
1789756035158660600,11.87066064453125,3.664984981560707,4.570057506507635,-0.4198682839069515
1789756035168669700,11.880669677734375,3.561777705064416,4.757916412112117,-0.23403818071633575
1789756035178678800,11.8906787109375,3.256329946389794,4.81415793929398,-0.07031023841425776
1789756035188688000,11.90068798828125,2.7711878838658333,4.915640876215696,0.1856770315207541
1789756035198696700,11.91069677734375,1.8817776229530572,5.137276963737607,0.41323695613369343
1789756035208705500,11.92070556640625,1.1325818884164094,5.00317595180571,0.04454261382073164
1789756035218714600,11.930714599609376,0.23363573739528654,4.477656870707869,-0.6675974285844714
1789756035228723700,11.9407236328125,-1.2700900784432887,3.5158261012285945,-1.0151767213501035
1789756035238732800,11.95073291015625,-3.375702468006313,1.8906378057569264,-1.2495388733237982
1789756035248741600,11.96074169921875,-6.0623114957392215,-0.3456663718163967,-1.5353893666028975
1789756035258750700,11.970750732421875,-9.24830416957736,-3.6653549839168784,-1.0988659351669252
1789756035268759800,11.980759765625,-10.968997496604919,-8.847416845798492,1.4496461428657172
1789756035278769000,11.990768798828125,-11.543264534258842,-12.871626768928765,3.038861499941349
1789756035288777700,12.00077783203125,-9.513259758865832,-13.174590309572219,3.060366644784808
1789756035298786600,12.01078662109375,-7.524251010727882,-10.160746346509455,3.7475241485595703
1789756035308795600,12.020795654296874,-5.791892380347847,-5.590515821522474,4.782003974664211
1789756035318804700,12.0308046875,-3.9325738419622183,-1.3770914865255355,4.770991290001571
1789756035328813800,12.040813720703126,-2.188095734721422,1.393444655433297,4.34146297814995
1789756035338822700,12.05082275390625,-1.0288123018622397,3.1816128513187167,3.735046652041375
1789756035348831700,12.060831787109375,-0.18770342278182506,4.131209577646851,2.9338647096797823
1789756035358840600,12.070840576171875,1.5018325494378804,3.4885207456737755,1.7451624362431466
1789756035368849700,12.080849609375,2.4720412711620328,1.0520663361996412,0.9123598324108868
1789756035378858800,12.090858642578125,2.2209359280496836,-2.364452418580651,1.3199078561879694
1789756035388867600,12.10086767578125,2.7179244957119226,-5.966701250243187,2.4051721131123602
1789756035398876700,12.110876708984375,3.258676217254996,-8.034492443194985,3.5203687130942938
1789756035408885800,12.1208857421875,2.478395608624816,-7.724891071972251,3.214625478604436
1789756035418894800,12.130894775390624,2.493100718064606,-5.447796618849039,1.2105064742919056
1789756035428904000,12.140904052734374,2.7810160349190234,-3.0720687730163334,-1.7016617326907812
1789756035438912500,12.15091259765625,2.6597283273309467,-0.8942384117215871,-4.452093682645261
1789756035448921600,12.160921630859375,3.4729201486989854,1.0756523789703845,-6.2747022005319595
1789756035458930700,12.1709306640625,5.779153894805908,2.2075825254797934,-6.681987116393446
1789756035468939800,12.180939697265625,7.6319491689026355,2.4300480495631693,-6.234090204158425
1789756035478948900,12.190948974609375,7.97983847746551,2.4310715473920106,-5.908751165577769
1789756035488957700,12.200957763671875,7.257254855522513,2.454741176792979,-5.503467068144679
1789756035498966800,12.210966796875,6.615553281021118,2.527670803925395,-4.973483993375301
1789756035508975900,12.220975830078125,6.118555361008644,2.699579860725999,-4.269419778463244
1789756035518984700,12.230984619140624,5.400900427639484,2.5506933675944805,-3.7313928057089445
1789756035528993500,12.24099365234375,4.6806458331659435,1.9759341625094413,-3.4341520266264673
1789756035539002600,12.251002685546876,3.4870495040774343,0.6707043816238641,-3.3739605927750467
1789756035549011700,12.26101171875,2.086080006097257,-0.9826368261426687,-3.26943931107074
1789756035559020800,12.271020751953126,1.2626283642604947,-1.9806360565900802,-2.70687907782346
1789756035569030000,12.28102978515625,1.053079312634468,-2.1480834578067065,-1.9162462942659855
1789756035579038700,12.291038818359375,0.912243439489603,-2.004427851065993,-0.955627238664031
1789756035589047600,12.301047607421875,0.6691587596170604,-1.65532332149446,-0.01743862605690956
1789756035599056600,12.311056640625,0.1279192545570433,-1.2671955260455607,0.8392194120720028
1789756035609065700,12.321065673828125,-0.3795475986301899,-0.9102034580945968,1.3331389475524424
1789756035619074800,12.33107470703125,-0.8767115228593348,-0.5340905100882053,1.5647656832128762
1789756035629083600,12.341083740234374,-1.0991583422422408,0.05541209062039852,2.049140414626151
1789756035639092700,12.3510927734375,-0.9188378693185746,0.6466156500279903,2.5051345624685286
1789756035649102300,12.361102294921874,-0.8218319316804409,0.8463508713871241,2.7012451635897157
1789756035659111200,12.371111083984376,-0.5417663054130971,0.6765764885276555,2.7913404450565573
1789756035669120300,12.381120361328126,-0.04684942945837974,0.3754284728735685,2.8348996007978915
1789756035679129300,12.39112939453125,0.2632291308220476,0.09414543364048003,2.7862773164480923
1789756035689138400,12.401138427734375,0.3644296706058085,0.188024325299263,2.8509952878132463
1789756035699147300,12.411147216796875,0.3524562511522323,0.6403238564074039,3.074783000411093
1789756035709156400,12.42115625,0.31481998265385625,1.2004624154657124,3.141418203574419
1789756035719165400,12.43116552734375,0.31015659395270045,1.5633774437248706,3.0788313990190623
1789756035729174300,12.44117431640625,-0.06426708579249679,1.6566607075780628,2.8312346485495565
1789756035739183400,12.451183349609375,-0.6548034865282476,1.7273147909939288,2.370028611277789
1789756035749192200,12.461192138671874,-0.827158095139265,1.7556284468084573,1.9006253851555286
1789756035759201300,12.471201171875,-0.9538719194293022,1.5019313336372375,1.3439341900721191
1789756035769210400,12.48121044921875,-1.0345032069802285,1.0332996764093636,0.7491536489605903
1789756035779219500,12.491219482421876,-1.1124936246335506,0.4260930767059326,0.23250775627866385
1789756035789228500,12.501228515625,-1.2798925105333328,0.24405776268839835,-0.08227247888669371
1789756035799237400,12.5112373046875,-1.3551052801668644,0.3129407447785139,-0.3354750865392387
