time,seconds_elapsed,z,y,x
1789700887549163500,0.04216357421875,-0.5556202048510313,0.47721594569981096,0.06181209385581314
1789700887559212800,0.052212890625,-0.6751736359924078,0.43252690914571285,0.043657136223092675
1789700887569262600,0.0622626953125,-0.8133926046371459,0.30331483829915523,0.0517475767634809
1789700887579311600,0.0723115234375,-0.6939853039681911,0.28018881425559516,0.1622515130739659
1789700887589360600,0.082360595703125,-0.2675187177747488,0.28660598782151936,0.13324191088452936
1789700887599409700,0.09240966796875,-0.4713976148098707,0.18886720586419103,0.4147377160854637
1789700887609458700,0.102458740234375,-0.4876578447371721,0.2546662504643202,0.5536421827763318
1789700887619507500,0.112507568359375,-0.2938257099419832,0.2516670686483383,0.1881910601682961
1789700887629557500,0.1225576171875,-0.6880471460908651,-0.04379559484571218,-0.033835487975925206
1789700887639606800,0.132606689453125,-1.052338723400235,-0.2111819135248661,-0.03211969703398645
1789700887649655600,0.142655517578125,-1.2979793713659047,-0.2137310134857893,-0.05252075309306383
1789700887659704600,0.15270458984375,-1.5531185000389813,-0.2545779876589775,-0.0902682268809527
1789700887669753600,0.162753662109375,-1.4094032720655203,-0.2600646023765206,-0.12178235923722386
1789700887679803600,0.1728037109375,-0.9234288503706455,-0.2120589886203408,-0.061857832693681114
1789700887689852700,0.182852783203125,-0.35789047809541225,-0.1648208521053195,0.062235945291072126
1789700887699901700,0.192901611328125,0.0035059622943401335,-0.2622062905803323,0.2715563757929951
1789700887709950700,0.20295068359375,0.259414906296134,-0.25225889706164595,0.4069511538624763
1789700887719999500,0.21299951171875,0.35843466797471046,-0.3486097317919135,0.48800782721862196
1789700887730048800,0.223048828125,0.5058025732368231,-0.3665598145022988,0.44290465690568087
1789700887740098800,0.233098876953125,0.6647475190460681,-0.5255062216162681,0.47563496011868117
1789700887750147600,0.243147705078125,0.5205781175643205,-0.6945724562063813,0.5383476560760289
1789700887760196600,0.253196533203125,0.5880652613818645,-0.5645774182885885,0.4197694266423583
1789700887770245600,0.26324560546875,-0.47304421297311783,-0.6906549905017018,0.630816023349762
1789700887780294700,0.273294677734375,-0.748449300083518,-0.35855537174493074,0.20179324986748395
1789700887790343400,0.283343505859375,-0.9711556471854448,-0.19178484687656164,-0.29117483010701833
1789700887800393500,0.2933935546875,-1.8022183485478163,-0.1668684322848916,-0.16226656451262533
1789700887810442800,0.30344287109375,-1.7401842094391584,-0.06822159557193518,0.10299071113616227
1789700887820491500,0.313491455078125,-1.0415414350539445,0.20828093138635156,0.383602865370363
1789700887830540500,0.32354052734375,0.2454056701660156,0.44215369240790603,0.6440151121407747
1789700887840589600,0.333589599609375,1.156022385236621,0.37946108939051626,0.9074858696989715
1789700887850639600,0.3436396484375,1.2754916452258824,0.3053863838762045,1.132938008377701
1789700887860688600,0.353688720703125,0.5412585020214319,0.4072714718580246,1.2865724266886711
1789700887870737700,0.363737548828125,-0.6809405289560556,0.45776071912348265,1.183883328847587
1789700887880786700,0.37378662109375,-1.154968492269516,0.41842298046946524,0.8634482097256928
1789700887890838300,0.38383837890625,-0.8537345518976449,0.26801322329342364,0.7011696625143289
1789700887900887000,0.393886962890625,-0.42615386698246,0.19649433974176644,0.7975139213733374
1789700887910937000,0.40393701171875,-0.03907528832554817,0.1040109940946102,1.0328585085131228
1789700887920986000,0.413986083984375,0.15610124681591986,0.09392740697562695,1.2662673052847384
1789700887931035100,0.42403515625,-0.1360059687703848,0.04644552483260631,1.4180043655417858
1789700887941084200,0.434084228515625,-0.650646512979269,-0.13163666764497756,1.3769446254007518
1789700887951133000,0.4441328125,-1.1245178244262932,-0.3572302606210112,1.26604533309713
1789700887961183000,0.454182861328125,-1.1743658511787651,-0.13743541705161333,1.2093456868842243
1789700887971232300,0.464232177734375,0.7219090836822987,-0.04708060786575079,1.3670515924178064
1789700887981281000,0.474281005859375,2.48228560180068,0.28521920963823794,1.4427137132540344
1789700887991330000,0.484330078125,-1.250277708992362,0.8003080821365117,0.7988380826491862
1789700888001379000,0.494379150390625,-0.22605624205172062,0.3839724293351173,0.3013901538468897
1789700888011428000,0.504427978515625,-0.7307195821255446,-0.2309545354872942,1.1458990506291389
1789700888021478100,0.51447802734375,-0.7395809339731931,-0.5562833449348807,1.6004938530676065
1789700888031527200,0.524527099609375,-1.0431471166849136,-0.6757470519661903,0.9380506654411553
1789700888041576200,0.534576171875,-1.4172323582559823,-0.14484481652528047,1.0282364747356623
1789700888051625000,0.544625,-1.14684831417799,0.8690157076597214,1.3208471828646957
1789700888061674200,0.55467431640625,-1.6384481745392083,1.0537833692505956,1.6381635123789309
1789700888071724300,0.564724365234375,-0.5355716885566711,1.804471388171613,0.7922105542682111
1789700888081773000,0.57477294921875,0.906021788495779,1.928990625026822,0.2210143571606837
1789700888091822000,0.584822021484375,0.7695020249843597,1.4654440159782767,0.17356029460635036
1789700888101871000,0.59487109375,-0.334123233538866,0.5039496388465166,0.36759832723718133
1789700888111920000,0.604920166015625,-1.3954407976865768,-0.32763241021484135,0.42488169162217526
1789700888121969000,0.614968994140625,-1.9486223772138356,-0.8213646064296364,0.447901223083958
1789700888132019000,0.62501904296875,-1.1608698252677916,-1.150919801400602,0.4684824580155313
1789700888142068200,0.635068115234375,-0.8885884231358766,-1.867510612669587,1.458837457320094
1789700888152117000,0.645116943359375,-0.17871347611844537,-1.4503791333153844,1.526915114376694
1789700888162166000,0.655166015625,1.5904904915779827,-0.4950763043001294,0.5584848005019128
1789700888172215000,0.665215087890625,1.9137433715343475,-0.029167934556305408,0.6286595759682357
1789700888182264000,0.67526416015625,1.6024164916932582,-0.02189940485805273,0.5855421726450324
1789700888192314000,0.685314208984375,1.3590899658888578,-0.30587767452448605,0.3504723107933998
1789700888202363100,0.695363037109375,1.2518553335726261,-0.6356988269552588,0.29239596939980983
1789700888212412200,0.705412109375,0.746200059852004,-0.7901812403976917,0.34320188139900565
1789700888222461000,0.7154609375,0.12651859397888182,-0.49697892305105923,0.34029198530167337
1789700888232510200,0.72551025390625,-0.0127922615557909,0.045180619463324544,0.12209610136151314
1789700888242560300,0.735560302734375,0.11404080519974232,0.2526879361286759,-0.2300033722423017
1789700888252609000,0.745609130859375,0.10855798987448215,0.1746273758485913,-0.539544391579926
1789700888262658000,0.755657958984375,0.16018880839049815,-0.13287322370260954,-0.8611166249729693
1789700888272707000,0.76570703125,0.024810616129636764,-0.6033391106203199,-0.9317194165930152
1789700888282756000,0.775756103515625,-0.14949205780923366,-0.8959951922610402,-0.9444749994002282
1789700888292805000,0.78580517578125,-0.14058394421041012,-1.197052022500336,-0.7550172802969813
1789700888302855000,0.79585498046875,0.32736382240653034,-1.4845777555152773,-0.7764740559540688
1789700888312904200,0.805904296875,0.6470259843945503,-1.6395298322960734,-0.8335175471685826
1789700888322953000,0.815952880859375,0.8458604575216769,-1.5578896599635481,-0.607984598338604
1789700888333002000,0.826001953125,0.37290333831012246,-1.5162936209887266,-0.3672854984283447
1789700888343051300,0.83605126953125,-0.049611295387148854,-1.019478217936307,-0.05496610041856766
1789700888353101000,0.84610107421875,-0.007250409519672393,-0.22486688613668082,-0.014974574030935764
1789700888363150000,0.856150146484375,0.3601999240815639,0.00793722274005413,-0.218183316719532
1789700888373199000,0.86619921875,0.5701403131127357,-0.013507351022586225,-0.015921791753172872
1789700888383248100,0.876248046875,2.0135832174241544,0.025846827309578657,-0.11588263367414474
1789700888393297200,0.886297119140625,2.7018782007962465,-0.012972221232578157,0.23394962565004823
1789700888403346200,0.89634619140625,0.905219824463129,0.39695451437458396,0.20189415295869112
1789700888413396200,0.906396240234375,1.052745550635457,0.7765587385628372,-0.5409463673323393
1789700888423445000,0.916445068359375,1.2218857272446155,0.681030764522776,-0.7789356237620115
1789700888433494000,0.926493896484375,0.3982166432648897,0.49857170866783707,-0.4308087070509791
1789700888443543300,0.936543212890625,-0.2532879478484392,0.09470825515501201,-0.08019377291649579
1789700888453592000,0.946592041015625,-0.5251280359536409,0.06640758668622002,-0.14999883828759192
1789700888463641000,0.95664111328125,-0.5432347705304622,0.5986554097834974,-0.246434428691864
1789700888473691000,0.96669091796875,-0.43686055443584915,1.387359490300715,-0.07275251699984073
1789700888483740200,0.976740234375,-0.0833066442400217,2.1100594320997597,0.17061346403211355
1789700888493789200,0.9867890625,1.5385218194097279,2.7800606338903306,0.34241496880501504
1789700888503838000,0.996837890625,2.408162965491414,2.520390876050293,0.32764936134964223
1789700888513887200,1.00688720703125,1.3816110097765921,1.4659230316668748,0.43405879488810895
1789700888523937000,1.01693701171875,0.3782002756744623,0.2501554219763726,0.3988572792559862
1789700888533986000,1.026986083984375,-0.5843453640758991,-0.34258974085003135,0.023907968201488255
1789700888544035000,1.03703515625,-1.4978729981571435,-0.12195296656377613,-0.7589072734728455
1789700888554084000,1.047083984375,-1.8999504085034131,0.4579162750113755,-1.573925141224265
1789700888564133000,1.057133056640625,-1.7475579530775547,1.1417525254089385,-1.9499039414569734
1789700888574182100,1.06718212890625,-0.9834598329633474,1.4741029771216212,-2.2150646979287267
1789700888584232200,1.077232177734375,-0.5560802235782146,1.409789933295548,-2.2620535358577967
1789700888594281200,1.08728125,-1.0347148039042948,1.446092980428785,-1.8727170952714978
1789700888604330000,1.097330078125,-1.7820219482153654,1.1210863886728881,-1.337720868515223
1789700888614379300,1.107379150390625,-1.9731775572776793,0.42808914589397606,-0.9972142175495624
1789700888624428000,1.117427978515625,-1.8537743482619522,-0.3419569959044456,-0.8141548211812972
1789700888634478000,1.12747802734375,-1.3348913441777228,-0.7533515390418469,-0.34103111323118207
1789700888644527000,1.137527099609375,-0.7059989823669195,-0.6212764069143683,0.18852014599218964
1789700888654576000,1.147576171875,0.8849123649716377,-0.6688666448026895,0.3648363517105579
1789700888664625200,1.157625244140625,2.3511422706305978,-0.7868633480213582,-0.06288052680492401
1789700888674674000,1.167673828125,3.3371897819995877,-0.384518518910557,-0.40742710081115363
1789700888684723200,1.17772314453125,2.9201112018764017,0.15212598650939763,-0.4021896385490894
1789700888694773200,1.187773193359375,1.7767139049351215,0.27179486072398723,-0.2796015158869326
1789700888704822000,1.197822021484375,0.7531769131273031,0.12479366988241672,-0.21138751909956335
1789700888714871300,1.207871337890625,0.1924415572196245,-0.046923444542661306,-0.20443127022087573
1789700888724920000,1.217920166015625,0.052879357272386546,-0.1291767803374678,-0.3851804899506271
1789700888734969000,1.227968994140625,0.014907646274566649,-0.2409831044834107,-0.5819361109770834
1789700888745018000,1.23801806640625,-0.1622995169341564,-0.48755014657899737,-0.6998531730882823
1789700888755068200,1.248068115234375,-0.3551771274834871,-0.6982517292410135,-0.6904068609595299
1789700888765117200,1.2581171875,-0.13534253642559052,-0.34599677281454205,-0.521774633872509
1789700888775166000,1.268166015625,0.6861690772593021,0.874655686308071,-0.5546766403906047
1789700888785215200,1.27821533203125,1.552175666230917,0.6132969524677843,-0.8381912380680442
1789700888795264000,1.288263916015625,0.4872954411655664,-0.2668740631956607,-0.4232435324937105
1789700888805314000,1.29831396484375,0.14228665647506714,0.18216361657232044,0.09102379448860883
1789700888815363000,1.308363037109375,-0.060656421014666555,0.2576097565703094,0.5112130539782345
1789700888825412000,1.318412109375,-0.08273965800702571,0.3094115477390587,0.5506957540608942
1789700888835461000,1.328461181640625,-0.2178869641214609,0.2899276795901358,0.5846994382105767
1789700888845510000,1.338510009765625,-0.08621464064121245,0.0005015197813510895,0.5446718175962567
1789700888855559200,1.34855908203125,0.3623708383798599,-0.2510755324959755,0.3095382428586483
1789700888865609200,1.358609130859375,0.6871861453473568,-0.14494272394180296,0.23456351976469159
1789700888875658000,1.368657958984375,0.5920166293561459,0.21022373601719735,0.37661549070104955
1789700888885705000,1.378705078125,0.3193085262447595,0.3582122573956847,0.5145163333073258
1789700888895754000,1.38875390625,0.2965998508304357,0.3705801560595631,0.6036603053987026
1789700888905803300,1.39880322265625,0.34757132865488527,0.24994725911840796,0.6054428049013019
1789700888915852000,1.40885205078125,0.33675475108623504,0.021944339978322385,0.5595870626553893
1789700888925902000,1.418902099609375,0.3161363259494305,-0.09704232412576674,0.5628858119398356
1789700888935951000,1.428951171875,0.1613894163519144,-0.11669117357805371,0.5573115189388395
1789700888946000100,1.439000244140625,-0.09361702585220337,-0.05887560201250017,0.4971314832642674
1789700888956049200,1.449049072265625,-0.4079395803779363,0.0035876492284238337,0.40149522654414177
1789700888966098200,1.45909814453125,-0.6189063898473978,0.07169416705332696,0.37836817958727476
1789700888976148200,1.469148193359375,-0.6958224562674761,0.26408888945654035,0.3846487211614847
1789700888986197000,1.479197021484375,-0.7278916652232408,0.4803501520723104,0.3363962930373847
1789700888996246000,1.48924609375,-0.7767793225109577,0.44238947392515837,0.3122863725230098
1789700889006295300,1.49929541015625,-0.863507173371315,0.262902456150949,0.3106120095700025
1789700889016344000,1.509343994140625,-0.9718038819611072,0.18857903657257555,0.3404170729860663
1789700889026393000,1.51939306640625,-0.9409569082766771,0.20309673368148504,0.35740722462311386
1789700889036443000,1.52944287109375,-0.8600567406564951,0.1763796994086355,0.24724501442238686
1789700889046492200,1.5394921875,-0.7132558216273784,-0.024598215487971902,0.18895108475536107
1789700889056541200,1.549541259765625,-0.3228653419435024,-0.4719842555914074,0.33394451597109437
1789700889066590000,1.55958984375,0.2847860789179802,-0.9577270604874938,0.48763855551481244
1789700889076639200,1.56963916015625,0.6859218244999646,-1.2807587719738482,0.4732888353839516
1789700889086688000,1.57968798828125,0.8056880216091871,-1.2765886466823517,0.43303807353824375
1789700889096738000,1.589738037109375,0.911424524322152,-1.0654980647027492,0.3906801102802157
1789700889106787300,1.599787353515625,0.5457768562287092,-0.777661804433912,0.18575638036727904
1789700889116836000,1.609836181640625,0.12360007618367672,-0.5225394807651639,0.015612725804001092
1789700889126885000,1.619885009765625,-0.1036976903617382,0.1661651428537443,-0.06104191320091486
1789700889136934100,1.62993408203125,-0.47058980555832386,0.6443541348367929,-0.21146584503278135
1789700889146984200,1.639984130859375,-1.0082067362070084,0.8793079690933226,-0.28013445371985435
1789700889157033200,1.650033203125,-1.4700269598543643,0.9922278074391185,-0.2813131421104073
1789700889167082000,1.66008203125,-1.8393249671488998,0.7791511662088334,-0.3195411659568548
1789700889177131300,1.67013134765625,-2.097024301698804,-0.3679666490929201,-0.49537631016001105
1789700889187180000,1.680179931640625,-2.6387568509727717,-0.4274249828968197,-0.4208319413073361
1789700889197229000,1.69022900390625,-3.0595722795367237,0.06456252507511526,-0.2759054378479719
1789700889207279000,1.700279052734375,-3.2977345544457433,0.20055663901092483,-0.071703884729743
1789700889217328000,1.710328125,-3.557997017481923,0.4288925346987322,-0.04601283250376582
1789700889227377200,1.720377197265625,-4.0195045219182965,0.7383178552348166,-0.2820135454647243
1789700889237426000,1.730426025390625,-4.223304508498311,0.7886956780150532,-0.5756476783573627
1789700889247475200,1.74047509765625,-3.975855349805951,0.5611707151176407,-0.6514031765654683
1789700889257524000,1.75052392578125,-3.163577428412437,0.08798780605988576,-0.40654286532253026
1789700889267574000,1.760573974609375,-1.958328947713971,-0.46112303516343234,-0.03579144434928894
1789700889277623300,1.770623291015625,-0.6419073262065649,-0.5214382415249943,0.16117928073257207
1789700889287672000,1.780672119140625,0.6058773969262838,-0.500891274189204,0.28005905039608475
1789700889297721000,1.79072119140625,1.5422691892445086,-0.525929342399165,0.4268777973428368
1789700889307770000,1.80077001953125,2.016962922990322,-0.6610790596663951,0.5101946707159281
1789700889317820200,1.810820068359375,2.2585399747788903,-0.8466293960675597,0.5401438187777996
1789700889327869200,1.820869140625,2.450175476312637,-0.7126148933753371,0.5969266132295131
1789700889337918000,1.83091796875,2.7077041304707525,-0.3884191065456718,0.5491615302309394
1789700889347967200,1.84096728515625,2.8080110093504187,-0.22959804284442215,0.6270888195201754
1789700889358016000,1.85101611328125,2.653721195870638,-0.16611819843947886,0.6705480220183729
1789700889368065000,1.86106494140625,2.486183778283,-0.12328209627568722,0.6218184779018163
1789700889378115000,1.871114990234375,2.2834470370203257,-0.11080796075835823,0.539238394370675
1789700889388164000,1.8811640625,1.9452508549541234,-0.12657521953694523,0.3918845176339149
1789700889398213000,1.891213134765625,1.5575468378752468,-0.00008139467313885688,0.2996855418860912
1789700889408262000,1.901261962890625,1.1977256839781998,0.23448577835336326,0.28283669841587544
1789700889418311200,1.911311279296875,1.0340163002461193,0.47073301342129703,0.2942857286691665
1789700889428360000,1.92135986328125,1.0947387722343205,0.5848982852509245,0.28068156620860096
1789700889438410000,1.931409912109375,1.104471646219492,0.6858622032672167,0.31999913885742426
1789700889448459300,1.941459228515625,1.1971832476645707,0.8361055909004061,0.430448933827877
1789700889458508000,1.951508056640625,1.2810136235177516,0.8056105724588036,0.4644248531877994
1789700889468557000,1.96155712890625,1.1333283228695392,0.651170536853373,0.46726299922317266
1789700889478606000,1.971606201171875,0.8687064955800771,0.5092994389092549,0.37925504542440175
1789700889488656100,1.98165625,0.5473819533377885,0.4090828686615452,0.20703297715187072
1789700889498705200,1.991705078125,0.29438568191230297,0.3754292765911668,0.046503392499685284
1789700889508754000,2.00175390625,0.17049217574000358,0.2815997039668262,-0.09450462234169245
1789700889518803200,2.01180322265625,0.1082768348455429,0.012706190707534551,-0.20503274324536322
1789700889528852000,2.02185205078125,-0.036837738531827924,-0.2995445259802043,-0.2729626623943448
1789700889538901000,2.03190087890625,-0.20494331139624117,-0.49770679893419145,-0.2988631195873022
1789700889548951000,2.041950927734375,-0.43962358940839763,-0.5455387366238981,-0.38288580314218995
1789700889559000000,2.052,-0.8004816851377486,-0.5077722658745945,-0.5281073440253734
1789700889569049000,2.062049072265625,-1.0446715497732162,-0.46699872226379807,-0.6038005906522274
1789700889579098000,2.07209814453125,-1.1819693119198083,-0.4078596470095217,-0.511224306024611
1789700889589147100,2.082147216796875,-1.204978431585431,-0.24519078530631958,-0.30129297708272934
1789700889599196200,2.092196044921875,-0.9661948099076747,-0.07610562682002782,-0.02185235084593296
1789700889609246000,2.102245849609375,-0.5719815570652484,-0.07141878417804837,0.19893091923892497
1789700889619295200,2.112295166015625,-0.2846586531460285,-0.10272102734930813,0.39669337922036646
1789700889629344000,2.122343994140625,-0.11125906552672385,-0.05608261029310524,0.4664215799629688
1789700889639393000,2.13239306640625,-0.35178163982629773,-0.05508154349178075,0.39150048675239085
1789700889649442300,2.1424423828125,-0.6479618039399385,-0.07915836545415222,0.2355418632775545
1789700889659491000,2.152490966796875,-0.9262555982291698,-0.24363332673124968,0.06126461604088544
1789700889669541000,2.162541015625,-1.1929969018906355,-0.44578708047419785,-0.11106529652029275
1789700889679590000,2.17258984375,-1.5392793597787617,-0.6286882906060666,-0.2465674074217677
1789700889689639200,2.18263916015625,-1.7692174116998909,-0.7962327224563807,-0.35511575268507
1789700889699688200,2.192688232421875,-1.7406085723310707,-0.8225154569651931,-0.3050967532798648
1789700889709737000,2.202737060546875,-1.8006196811795234,-0.9257857156950979,-0.31143443186879155
1789700889719787000,2.212787109375,-1.8200597101867197,-0.9571657002776861,-0.3357452817827463
1789700889729836000,2.2228359375,-1.9111767359167335,-0.8371477934297173,-0.05392214432358741
1789700889739885000,2.232885009765625,-1.7851713521569965,-0.7323913147300481,0.13100129235088825
1789700889749934000,2.24293408203125,-1.654933445394039,-0.6968611516654492,0.019613047486543654
1789700889759983000,2.252983154296875,-1.4441080902218817,-0.6094262485142797,-0.28230566027909515
1789700889770032000,2.2630322265625,-1.1146177771806716,-0.19525851433649657,-0.43404608153700824
1789700889780082000,2.27308203125,-2.237309555223584,0.9007966011933982,-0.513391420930624
1789700889790131200,2.283131103515625,-3.353937503182888,1.941479373591393,-0.47164895922243594
1789700889800180200,2.29318017578125,-1.8251017960071563,1.4822962204493582,-0.7301806529432535
1789700889810229000,2.30322900390625,0.8908148670136928,0.9981003527343273,-1.058664711551368
1789700889820278300,2.3132783203125,1.496283098617196,1.3407326175518333,-0.2152940250188112
1789700889830327000,2.3233271484375,-0.23976620297431944,1.3638421288520097,0.04633709602206945
1789700889840377000,2.333377197265625,-0.6198240892142057,0.7327616093471646,-0.5310208933845162
1789700889850426000,2.343426025390625,-0.1893488519012928,0.1080446335248649,-0.599110679270327
1789700889860475100,2.35347509765625,-0.29907062485814095,-0.44586336058080195,-0.2555082542464137
1789700889870524200,2.363524169921875,-1.1174176370322704,-0.7547992536321282,-0.22830519002228974
1789700889880573000,2.373572998046875,-1.5587725802779198,-0.8228431545495987,-0.43470425318479533
1789700889890622500,2.38362255859375,-2.023423643437028,-0.6388059991903603,-0.4046399543106556
1789700889900671200,2.393671142578125,-1.4689151992201803,-0.2726541809670627,-0.22349778974056242
1789700889910720300,2.40372021484375,-0.3649029872059822,-0.0393333547398448,-0.17669862916469573
1789700889920769300,2.413769287109375,0.3376233506143093,-0.12526157965511084,0.10975976687967777
1789700889930818300,2.423818359375,1.840887394160032,-0.5894803888767958,0.5453548314243555
1789700889940867000,2.4338671875,2.6803812392592428,-0.818636935031414,0.9039677785754203
1789700889950917000,2.443917236328125,2.834619030290842,-0.8814011419802904,1.1329396158128977
1789700889960966400,2.45396630859375,3.1069033550322054,-0.6894201880097389,1.1284615936160087
1789700889971015200,2.46401513671875,3.016546207758784,-0.1654959748879075,1.0386731861412524
1789700889981064200,2.474064208984375,2.6049428441762923,0.3669850541770458,0.827794054955244
1789700889991113200,2.48411328125,2.169485142275691,0.5335244006380438,0.6078115798592567
1789700890001162200,2.494162353515625,1.8372364704370499,0.40339433816373343,0.44644203725159165
1789700890011212300,2.50421240234375,1.306654845252633,0.0616740736246109,0.3327940307617187
1789700890021261300,2.51426123046875,0.8932675208628177,-0.4297878395706415,0.2052250509470701
1789700890031310300,2.524310302734375,0.6346896499127149,-0.7106973693162203,0.08021686153113841
1789700890041359000,2.534359130859375,0.2602846748679876,-0.7666238391995429,0.0149795424669981
1789700890051408400,2.544408447265625,-0.20686054319441316,-0.69551675131917,-0.1828875469326973
1789700890061457200,2.55445703125,-0.7535077525168656,-0.5043108733743429,-0.27414135078489776
1789700890071507200,2.564507080078125,-1.137362692952156,-0.24968378587663173,-0.3854775732010603
1789700890081556200,2.57455615234375,-1.4087053529292344,-0.12915157283097506,-0.5480453856825829
1789700890091605200,2.584605224609375,-1.5941244641661643,-0.1332794664159417,-0.6150573132038116
1789700890101654300,2.594654296875,-1.6397931594073771,-0.3179053814485669,-0.8011842804491519
1789700890111703000,2.604703125,-1.725460687559843,-0.38361616324335335,-0.9831313316613435
1789700890121753000,2.614753173828125,-1.9289485394507646,-0.42854602281600235,-0.8648392987579107
1789700890131802400,2.62480224609375,-1.7792016300976274,-0.7852431994736194,-0.8251075923502444
1789700890141851100,2.63485107421875,-1.4856529835313557,-1.000885015016794,-0.7804594723284244
1789700890151900400,2.644900390625,-0.9974024335980415,-0.9641773326054215,-0.7437117501676083
1789700890161949200,2.65494921875,-0.6441799473136663,-0.9384937330335378,-0.8564356275498867
1789700890171998200,2.664998291015625,-0.6647264762580395,-0.961917863240838,-0.9278718012541533
1789700890182048300,2.67504833984375,0.13015548917651176,-1.1609729933813213,-0.02541150463223457
1789700890192097300,2.68509716796875,-0.5531985306620597,-1.7092229617252945,0.9635001639962196
1789700890202146300,2.695146240234375,-2.7797628199875355,-1.5205176684245467,-0.5789169092863797
1789700890212195000,2.705195068359375,-2.662984698778391,-1.2743074038773774,-1.551882820764184
1789700890222244400,2.715244384765625,-2.4492086771070958,-1.5570087854757904,-1.3651456126660109
1789700890232293400,2.72529345703125,-3.0722289320141076,-1.8548533756703138,-1.3423948516756294
1789700890242343200,2.73534326171875,-2.8279221630007028,-2.3009923383221027,-1.5849328574508428
1789700890252392200,2.74539208984375,-3.3057074330210683,-2.816030065155029,-1.4695137496352195
1789700890262441200,2.755441162109375,-3.5616678149491547,-2.706097572056949,-1.226565994015336
1789700890272490200,2.765490234375,-4.053670995414257,-2.2226734193667768,-1.1253004992365836
1789700890282539300,2.775539306640625,-4.896465635624527,-3.16376827480942,-0.8826824139624834
1789700890292589300,2.78558935546875,-2.7891642700612542,-0.9864677826076745,0.07597907783091068
1789700890302638300,2.795638427734375,-1.0094845010578632,1.4228805932760238,0.3767605982601642
1789700890312687000,2.80568701171875,0.26382658525854347,1.45550685159266,0.3948661637932062
1789700890322736400,2.815736328125,2.389531037996709,-0.20219605851471423,1.2044810034573077
1789700890332785400,2.825785400390625,3.8988127343967554,-1.838123774665594,2.0418612174034116
1789700890342834200,2.835834228515625,4.891168405999243,-2.0933418137937783,2.445252048435807
1789700890352884200,2.84588427734375,4.944488785037398,-1.5395862337708472,2.2782009530603884
1789700890362933200,2.855933349609375,3.6041266082331536,-0.9031634764552116,1.6253431937724352
1789700890372982300,2.865982177734375,1.818352906268835,-0.7373883923649788,1.3403005097448826
1789700890383031300,2.87603125,0.4372206199198961,-0.9001093495815992,0.9805758019596338
1789700890393080300,2.886080322265625,-0.33688188459724183,-1.1966817278832196,0.25027415298521516
1789700890403129300,2.89612939453125,-1.4409481648862361,-1.5718506730377673,-0.3143658091455698
1789700890413179100,2.90617919921875,-2.1841180632621047,-1.2318944955617188,-0.223534030097723
1789700890423228200,2.916228271484375,-2.681184372335672,-1.6340356187939642,0.5167500837087631
1789700890433277400,2.92627734375,-2.8619506893306967,-1.8801000451296568,1.2310241424679755
1789700890443326200,2.936326171875,-2.693921396572888,-1.7098416781455277,2.038949713870883
1789700890453375200,2.946375244140625,-2.0965888328909874,-1.569217986446619,2.9072920523136854
1789700890463424300,2.95642431640625,-0.5347565727815031,-0.7917103496611118,3.69946300522387
1789700890473474300,2.966474365234375,2.506893973356485,1.5454443121492862,5.712722982043028
1789700890483523300,2.9765234375,1.2838361335925756,3.2938749564081427,7.980898215651512
1789700890493572400,2.986572265625,-2.5985116420850156,2.2486837666749953,7.851958532005548
1789700890503621400,2.996621337890625,-2.522517366684973,1.120758179631829,6.299485344132781
1789700890513670100,3.006670166015625,-1.0153381955221294,1.3017150507628916,4.755204230543971
1789700890523719400,3.016719482421875,-0.06739537388086318,0.6157213300704956,3.33657077331841
1789700890533769500,3.02676953125,-0.011126374170184136,-0.3040577656209469,1.8587462914556263
1789700890543818200,3.036818359375,-0.9406646473318337,-0.43061844517588616,0.9219500099897384
1789700890553867300,3.0468671875,-1.0674261101558804,-1.2986813821554184,-0.26928748101294037
1789700890563916300,3.056916259765625,-0.7553808529123663,-1.8920576094269752,-0.2951461448907852
1789700890573965300,3.06696533203125,0.42408115236163135,-2.4249410818129777,-0.2530518010050058
1789700890584015400,3.077015380859375,1.4330904371231794,-2.7940748384565115,-0.15183072988986968
1789700890594064100,3.087064208984375,1.4652224821820854,-3.804287653788924,0.43693478871583935
1789700890604113400,3.097113525390625,2.1452987955242393,-3.4206939946383237,0.07604016036838293
1789700890614162200,3.107162109375,1.510759367737174,-1.3672609973847865,-0.2201402960062027
1789700890624211200,3.117211181640625,0.48486119975596664,0.39311259812414645,0.16128127980232237
1789700890634260200,3.12726025390625,-0.170260120549798,1.9418729029536246,0.22116700870543718
1789700890644310300,3.137310302734375,-0.7101441193476319,3.125318717166781,-0.1020659975066781
1789700890654359300,3.147359375,-1.8557631839916109,3.8806303042352197,-0.7070619354233145
1789700890664408300,3.157408203125,-2.7592367493093013,3.960515157333016,-1.438009188824892
1789700890674457300,3.167457275390625,-3.3637148008316755,3.977401410204172,-1.7709212930083273
1789700890684506000,3.177506103515625,-3.045506052522361,4.118263586834073,-1.8980735087156295
1789700890694555400,3.187555419921875,-3.5511563578069207,5.115967633727193,-1.6089491083323955
1789700890704605400,3.19760546875,-3.2999373251870274,5.543093560612201,-1.9185285599842667
1789700890714654200,3.207654296875,-3.515172605755925,5.660463802495599,-2.30903594404608
1789700890724703200,3.217703125,-3.4656349601268768,5.6771805440187455,-2.7016581283047794
1789700890734752300,3.227752197265625,-3.2595056538164613,4.92624527233839,-2.2625775597319007
1789700890744801300,3.23780126953125,-1.7443527272954582,2.620299987784028,-0.7427607330530881
1789700890754850000,3.24785009765625,0.5257122655823826,-0.24460078352391718,0.6168348442703485
1789700890764900000,3.257900146484375,2.171974913264811,-2.2388497704029082,1.7512755122959613
1789700890774949400,3.267949462890625,3.3673779995143414,-3.250571236732602,2.2037509844928977
1789700890784998100,3.277998046875,3.72855758228302,-3.9406706391781565,2.230073758751154
1789700890795047200,3.288047119140625,2.3506454270243644,-3.3520500820010897,2.5570173099189994
1789700890805096200,3.29809619140625,2.405509966764599,-2.636697580355406,2.4665643010556697
1789700890815145200,3.308145263671875,2.135150764866918,-1.5685305887043475,2.4206612125366926
1789700890825195300,3.3181953125,2.3240998037956655,-0.6726894179612398,2.472217796772718
1789700890835244300,3.328244384765625,2.9823651212155817,-0.49249242528676984,2.585780463066697
1789700890845293300,3.338293212890625,3.511334635028243,-0.5372586187303066,3.319910145896673
1789700890855342000,3.348342041015625,3.182835378850996,-0.5984808569341897,4.317173463284969
1789700890865391400,3.358391357421875,2.652741829444468,-0.8320446981370448,4.888754038333892
1789700890875441400,3.36844140625,2.223837202449143,-1.1813643317639828,4.781621697348356
1789700890885490200,3.378490234375,1.6738275309562682,-1.9973229874968528,4.688461767613887
1789700890895540200,3.388540283203125,1.88716223860085,-3.33500367013216,4.373365306106209
1789700890905589000,3.398589111328125,1.3091226966708898,-3.6367712789893147,3.606981120881438
1789700890915638300,3.40863818359375,-0.49172845517694946,-2.8605653724521396,2.4824434227108956
1789700890925687000,3.41868701171875,-2.594306883871555,-2.2566449548125265,1.2072285485997796
1789700890935737000,3.428737060546875,-4.10767438828051,-2.189804292204976,0.04681611171066761
1789700890945786000,3.4387861328125,-5.072451148083806,-2.3410464085519314,-0.7112383443251252
1789700890955835100,3.448835205078125,-5.291772528922557,-2.6876830867052077,-0.9966492771431803
1789700890965884200,3.45888427734375,-4.796760814291239,-2.681951265054941,-1.0644012093767523
1789700890975933200,3.46893310546875,-4.336016110920906,-2.519509124779701,-1.0250754534214734
1789700890985982200,3.478982177734375,-3.609879180410504,-2.2399866654783485,-0.8425403731882571
1789700890996032300,3.4890322265625,-2.314821249449253,-1.7081933264166116,-0.4300049894526601
1789700891006081000,3.4990810546875,-0.7296428928047418,-1.0691326218128203,0.38547552737444635
1789700891016130300,3.50913037109375,1.4072721052557229,-0.8404010230720043,1.4555036367222667
1789700891026179000,3.519178955078125,3.178854492521286,-0.6711527099132537,2.1542922493189574
1789700891036228000,3.52922802734375,4.176031885191798,-0.7450169875472784,2.9211987048521637
1789700891046277000,3.539277099609375,4.868681556642056,-1.2248638662725686,3.6330174794137475
1789700891056327200,3.5493271484375,4.883963296926021,-1.6136083323150872,3.615933073621988
1789700891066376200,3.559376220703125,4.018185840535164,-1.2626514528751374,3.313466961106658
1789700891076425000,3.569425048828125,3.437151208442449,-0.6298620836257934,2.786572500002384
1789700891086474200,3.57947412109375,2.370635491129756,0.3589028700083494,2.034984317371249
1789700891096523000,3.58952294921875,1.116685231104493,1.2782707545503973,1.0753004967927933
1789700891106572000,3.599572021484375,0.4356809892624616,1.3761881079450249,0.2678057180225849
1789700891116622300,3.609622314453125,-0.013438158243894577,0.9107020552664995,-0.047639703053236004
1789700891126671000,3.619671142578125,-0.1915478232502937,0.19922668731510637,-0.22360651081204413
1789700891136720100,3.62972021484375,-0.15081658441126344,-1.3534148428618906,-0.4961947869360447
1789700891146769200,3.63976904296875,-0.9840653976410627,-2.06169901355654,-0.6933218716233969
1789700891156818200,3.649818115234375,-0.9342121101915836,-2.826717463386059,-1.165296994060278
1789700891166868200,3.6598681640625,-1.146428627461195,-3.257431185629964,-1.3613222549855708
1789700891176917000,3.6699169921875,-0.8390309037625789,-3.5150577472046014,-1.0253414108812808
1789700891186966300,3.67996630859375,0.9626666357815266,-3.1119141689315435,-0.3436626307785511
1789700891197015000,3.69001513671875,1.914046153873205,-2.1900737567961213,0.430613184478879
1789700891207064000,3.70006396484375,2.66692145370543,-0.9027154404267668,0.5746890624582767
1789700891217113300,3.71011328125,2.485599840915203,1.3203697746112941,1.0228191989272832
1789700891227163100,3.7201630859375,2.270509814035892,3.443367598739266,2.091390095204115
1789700891237212200,3.730212158203125,2.507580786576867,4.697416642963886,2.2137772884666918
1789700891247261000,3.740260986328125,1.290852880486846,5.467220281243324,2.2587696918815374
1789700891257310200,3.750310302734375,1.0758552080661057,5.42504001263976,2.460304656139016
1789700891267359200,3.760359130859375,-0.24604981328845021,4.753252804215252,2.449010524186492
1789700891277408000,3.770407958984375,-1.9247417354106902,3.735537650428712,2.6377684244573114
1789700891287458300,3.780458251953125,-2.6995389441937205,2.4657103145748374,2.582155258306861
1789700891297507000,3.790507080078125,-3.1541327237188814,0.8015072287932038,1.8999013086646794
1789700891307556000,3.80055615234375,-3.7713977761000392,-1.1377401479624212,0.7803355536878108
1789700891317605400,3.81060546875,-4.938206343767047,-2.6192007943704723,-0.7719616930961608
1789700891327654100,3.820654052734375,-5.875293132612109,-4.201887918721139,-3.4810125620007515
1789700891337703200,3.830703125,-7.101521272975206,-6.2498588511765,-5.363685672488808
1789700891347753000,3.8407529296875,-8.798881655210256,-5.8087470690369605,-5.635259218612313
1789700891357802200,3.85080224609375,-7.923259681153297,-3.858600258734822,-6.530876517471671
1789700891367851300,3.860851318359375,-6.646221391007304,-1.5774156136885285,-6.976106840845942
1789700891377900000,3.870900146484375,-5.358676319894195,0.07028875723481177,-6.198783328455686
1789700891387949300,3.88094921875,-3.6220343131065365,0.772313867534697,-5.384039309209585
1789700891397999000,3.8909990234375,-1.9316250651836395,1.23479226282984,-4.439154998356104
1789700891408048000,3.901048095703125,-0.03134615537822246,1.3415347277149556,-3.3349709369063376
1789700891418097200,3.91109716796875,1.5793763923674822,1.7905302488416432,-1.8640572573453187
1789700891428146200,3.921146240234375,2.592141230270266,2.6196201888263224,-0.6042039107561111
1789700891438195200,3.9311953125,3.2133450834050774,2.612440506455302,-0.39682840377688405
1789700891448244000,3.941243896484375,2.607346690447628,1.780189179830253,0.012056933018565178
1789700891458294300,3.951294189453125,1.7770041200533508,2.089910670301318,0.5854992102861404
1789700891468343000,3.961343017578125,1.7776459250882266,2.1431290502697227,0.32923253888785836
1789700891478392000,3.97139208984375,2.111571297967434,1.3817533408567308,-0.16854104167222975
1789700891488441300,3.98144140625,1.991636174032092,0.5412585020214319,-0.8143091349601745
1789700891498490000,3.991489990234375,1.7198682743802665,-0.14861702854037284,-1.3757090922564268
1789700891508539100,4.0015390625,1.5047414226219058,-0.7731777908876538,-1.8346037838459013
1789700891518589000,4.0115888671875,1.3227040627777575,-1.0022864062473178,-1.9830781890451907
1789700891528638200,4.02163818359375,0.3224386409640312,-0.8809791171759367,-1.9683225184619426
1789700891538687200,4.031687255859375,-0.7824523997113109,-1.0308847242221235,-1.995397572392225
1789700891548736000,4.041736083984375,-1.7575009626820683,-1.2409408485874533,-1.5866601196348666
1789700891558785300,4.051785400390625,-2.267720767839253,-1.0874129593908786,-1.0073808067768812
1789700891568834000,4.061833984375,-2.290830133008957,-0.25872400142252444,-0.8613105401098727
1789700891578884000,4.071884033203125,-1.9981082926556466,0.720673696668446,-0.2018354085087776
1789700891588933000,4.08193310546875,-1.462753753980994,1.3081734331220387,0.14187515306472778
1789700891598982100,4.091982177734375,-1.5891440454050898,1.239178807350993,-0.05178630133867263
1789700891609031200,4.10203125,-2.0503310857154426,0.7414680628940462,-0.5413742373555899
1789700891619080200,4.112080078125,-0.6262796950943768,0.01783726998567581,1.0058078583717345
1789700891629129200,4.122129150390625,-1.2219355577357112,-0.7568415731146931,1.5742144795596598
1789700891639179300,4.13217919921875,-0.4362392076671123,-0.3326721579477191,2.0148434466183183
1789700891649228000,4.14222802734375,1.3645340566389261,-0.7569032401740551,1.8969775301724672
1789700891659277300,4.15227734375,1.610389954790473,-0.5247869674310088,2.057314222601056
1789700891669326000,4.162326171875,1.0355985279362647,0.5562555801451206,2.861554968011379
1789700891679375000,4.172375,2.8570839600771665,2.4359558123022316,3.332069954767823
1789700891689424100,4.182424072265625,3.2574574891149997,4.449384715947509,3.0805653832048177
1789700891699474200,4.19247412109375,3.1507103480547665,4.126923278629779,1.0940893684148787
1789700891709523200,4.202523193359375,2.92451557431519,3.00556830214858,-0.22464462168812752
1789700891719572000,4.212572021484375,2.280996575128287,2.2786232701256868,-0.18735855486690997
1789700891729621200,4.222621337890625,2.364594457399845,1.189461421240866,-0.535980269357562
1789700891739670000,4.232669921875,2.562146489500999,0.27057927438914775,-1.0914268712073565
1789700891749720000,4.242719970703125,2.045936942409724,-1.4788289827302097,-1.5109335552603005
1789700891759769000,4.25276904296875,0.6480401298731565,-4.421974730974435,-1.940962217849493
1789700891769818000,4.262818115234375,-0.5161854355633259,-5.76081744312644,-1.7835750228762626
1789700891779867100,4.2728671875,-1.1449011256329715,-5.73852962347269,-1.6788082419782877
1789700891789916200,4.282916259765625,-1.3275370358921588,-5.227076477128267,-1.4634242005884646
1789700891799965200,4.292965087890625,-1.9533553970851003,-3.3156118641808625,-0.864163591453433
1789700891810015200,4.30301513671875,-2.2475633843429383,-1.577813673095405,-0.6869254485845565
1789700891820064000,4.31306396484375,-2.7281799322664737,-0.3321586554676294,-0.48124973126053805
1789700891830113300,4.32311328125,-2.841625109660625,-0.2709960384964943,-0.3874906665891409
1789700891840162000,4.333162109375,-2.7495342704623935,-1.007817444628477,-0.22967034089565275
1789700891850211000,4.343211181640625,-2.977527033534646,-2.04528680793792,-0.34209494307041166
1789700891860260400,4.35326025390625,-3.316420550215244,-2.796293391288817,-0.7696686137229204
1789700891870310100,4.36331005859375,-2.6271020690143105,-2.126101635362208,-0.42210488385260103
1789700891880359200,4.373359130859375,-0.6257242531687021,0.1556640244424343,0.5492576840817928
1789700891890408000,4.383407958984375,0.8327655597575009,2.134151086305082,0.49113750354647634
1789700891900456400,4.39345654296875,2.0262363627701996,2.5397230607688424,0.22573709309995174
1789700891910505500,4.40350537109375,3.0456857930034396,2.8685423426806924,0.4469453105986118
1789700891920554500,4.413554443359375,3.63043856883645,3.0253935310810802,0.31409751359820365
1789700891930604500,4.4236044921875,4.300414636185765,3.074102324670553,1.676561924356222
1789700891940653600,4.433653564453125,4.283430768159032,2.8663398642003535,3.8194390456914897
1789700891950702300,4.443702392578125,3.3589456867337226,2.4092700499504804,4.555954162353277
1789700891960751600,4.453751708984375,3.388997710648179,1.5775994458228348,5.101654446214437
1789700891970800400,4.46380029296875,3.4718624563395974,1.0227835430920122,5.582599641570448
1789700891980849400,4.473849365234375,3.3598090255647897,0.9430658632546662,5.960977027377486
1789700891990899500,4.4838994140625,2.999770721785724,0.6000134733289479,5.869299445155263
1789700892000948500,4.493948486328125,2.4632667208150028,0.34734862581491466,6.064060385233163
1789700892010997500,4.50399755859375,2.2682699261546135,0.3973521353900432,6.149856508201361
1789700892021046500,4.514046630859375,2.137490459860861,0.3472515951812267,5.209942386975884
1789700892031095600,4.524095458984375,-0.3554761104300618,0.26604689165651796,2.709885566163063
1789700892041144300,4.534144287109375,-2.431262978310883,-0.48919805991649623,0.884581525582075
1789700892051194400,4.5441943359375,-4.9053766718328,-1.9575524103835225,-2.0216618944615123
1789700892061243600,4.55424365234375,-7.019632094317674,-1.6971540460079908,-4.164070813763141
1789700892071292400,4.56429248046875,-7.680203788983821,-0.6747264767467975,-5.290296611151099
1789700892081341400,4.574341552734375,-6.23775457188487,0.7453349674552678,-5.33141772609055
1789700892091390500,4.584390380859375,-5.1225592870771886,1.32042442740798,-4.822472178652882
1789700892101440500,4.5944404296875,-4.372904702857136,0.975401906453073,-4.089087761232257
1789700892111489500,4.604489501953125,-4.317403472648561,0.8289590070813894,-3.3913720385640858
1789700892121538300,4.614538330078125,-4.920447399714589,1.786886339381337,-2.472642159664631
1789700892131587600,4.624587646484375,-4.691638936345279,3.0544299482122064,-1.7709522726684808
1789700892141636400,4.63463623046875,-4.2516506052777165,3.9136002614229914,-1.684738216549158
1789700892151685400,4.644685302734375,-4.465863557061553,2.4382521065458653,-1.3542132997632026
1789700892161735400,4.6547353515625,-3.52454424521327,1.1139797715380788,0.5262976642549038
1789700892171784400,4.664784423828125,1.1539584384441375,0.6937815980896354,3.2434330554157493
1789700892181833500,4.67483349609375,4.016595356473326,-1.3408221955314277,3.869617327311635
1789700892191882500,4.684882568359375,3.955209159879386,-4.374965142518282,1.9827093557327984
1789700892201931500,4.694931640625,6.785915692901611,-4.742136659178137,0.4590139340549707
1789700892211980500,4.70498046875,7.818392947012185,-2.6064564636096357,0.5887871459156274
1789700892222030300,4.7150302734375,4.88681927087903,0.3559150863692164,0.3729629595428705
1789700892232079600,4.72507958984375,1.7028882057458161,0.1947813983440399,-1.1181301692157983
1789700892242128400,4.73512841796875,0.34666415068209167,-0.20213526823818684,-1.9453011238366364
1789700892252177400,4.745177490234375,-2.1868267376989126,-2.8100954144090413,-1.2108517075330019
1789700892262226700,4.755226806640625,-1.833572979493439,-5.227228452819586,0.31239246324598785
1789700892272275500,4.765275390625,0.7091513089179993,-3.287347600466013,0.8919944321870803
1789700892282325500,4.775325439453125,-0.4281988168135285,-1.7569538501933215,0.3141735014438629
1789700892292374300,4.785374267578125,-1.0003101377382875,-2.1771195826768874,-1.5040607468813656
1789700892302423600,4.795423583984375,-2.5867317724421617,-1.556946241633594,-2.9057664501816034
1789700892312472600,4.80547265625,-4.4150037229180334,-1.4395859366223216,-4.670568383526802
1789700892322521300,4.815521240234375,-5.537429543501139,-1.0672829022929071,-6.48671588870585
1789700892332570600,4.825570556640625,-6.990128351935744,1.4227946685582398,-6.143699739137292
1789700892342620400,4.835620361328125,-4.184043926733732,3.206887577828765,-5.0963434803247445
1789700892352669400,4.84566943359375,0.007416450268961489,4.10234121055901,-3.898918240597844
1789700892362718500,4.855718505859375,2.5418156491339206,3.8001860636889933,-1.384888424012065
1789700892372767500,4.865767578125,4.956166947871447,2.923777907690406,1.3199316754549741
1789700892382816500,4.87581640625,3.690563659453392,1.0662772323817014,0.9755325470954179
1789700892392865500,4.885865478515625,0.7527016968309879,-1.9374048176288603,-0.882494782435894
1789700892402915600,4.89591552734375,-0.7797473785363137,-4.632774367183447,-1.4470698626369236
1789700892412964600,4.905964599609375,-2.5951164466887713,-6.076117318251729,-1.8473866930514573
1789700892423013400,4.916013427734375,-2.27208100887537,-6.0143695948690175,-1.5214081875234842
1789700892433062700,4.926062744140625,0.7422665197953582,-3.808317932218313,0.6960492507606745
1789700892443111400,4.936111328125,1.2777481919810174,0.23582068021893499,3.357964274480939
1789700892453160400,4.946160400390625,-0.5461868983343243,2.825006567814946,4.134889727464318
1789700892463210500,4.95621044921875,0.6810805219486356,3.9851860727310178,5.416839755049348
1789700892473259500,4.966259521484375,-2.1320026760995385,2.5721909136533734,4.482470408469438
1789700892483308500,4.97630859375,-1.044662489683926,-0.405758144685626,3.6657296624481677
1789700892493357300,4.986357421875,-0.8804746747851371,-1.4841554384499787,4.636784771868586
1789700892503406600,4.996406494140625,-1.0854384444475174,-1.9434084419578312,5.138313321048021
1789700892513456600,5.00645654296875,-0.23613836786597966,-2.271096089491248,4.9214422559708355
1789700892523505400,5.01650537109375,-0.964810369811952,-0.9529115499645471,4.910792851662635
1789700892533554400,5.026554443359375,-1.6710636192008852,-0.4092518320202827,4.240287792003154
1789700892543603500,5.036603515625,-2.6046584742769596,-0.9831617267996072,3.043439475381374
1789700892553652500,5.046652587890625,-3.2026004020288585,-1.7404238634139297,2.2605630050390957
1789700892563701500,5.056701416015625,-3.3209701763436197,-2.5893226657181976,2.005479990467429
1789700892573751600,5.06675146484375,-2.9075790525615215,-3.306461466258764,1.7848522032052276
1789700892583800600,5.076800537109375,-1.7838064935445785,-3.6515111674815413,1.5983207468122242
1789700892593849300,5.086849365234375,-0.010614917516708374,-2.9215052865833044,1.8238000657588243
1789700892603898600,5.096898681640625,0.9299564985737204,-1.7017057179629802,2.1450527118086815
1789700892613947400,5.106947509765625,1.040414184589684,-1.1534832221478224,2.261471352055669
1789700892623996400,5.116996337890625,0.9441767471060156,-1.1628829186558722,2.1051398036152125
1789700892634046500,5.12704638671875,0.7343643683686852,-1.1030337223708628,1.4324638296574352
1789700892644095500,5.137095458984375,0.8296855677902698,-0.7522907779425382,0.31510230672657485
1789700892654144500,5.14714453125,1.1177192503273485,-0.20188626191318035,-1.064219130808115
1789700892664193300,5.157193359375,0.8243249175399542,0.42297932859957216,-2.486192546111345
1789700892674242600,5.16724267578125,1.4918869094848632,0.5008078336894511,-3.9336265658855436
1789700892684291300,5.177291259765625,2.3693667863681913,0.12380758145451545,-5.111248788511753
1789700892694341400,5.18734130859375,2.4138109082505106,0.3017155864089727,-5.774348540350794
1789700892704390400,5.197390380859375,2.280210539317131,0.6788327430218458,-6.071920451083779
1789700892714439400,5.207439453125,1.5333695512130856,0.7460878316491841,-6.1472910416275255
1789700892724488400,5.217488525390625,-0.6352148428305984,2.666322903290391,-6.019524493414163
1789700892734537500,5.227537353515625,-0.1825904636822641,4.551223626700043,-4.98508792192936
1789700892744586500,5.23758642578125,2.388087707320601,5.330045268693566,-3.724103525483608
1789700892754636500,5.247636474609375,3.0763188316762444,4.732140750342607,-3.2554300749406218
1789700892764685300,5.257685302734375,2.8745003743022677,3.1637913634240626,-2.9464181940436363
1789700892774734600,5.267734619140625,2.451352703398466,1.9525737451881169,-2.7943206299111245
1789700892784783400,5.277783447265625,3.279888808892667,0.23904314939677715,-2.3461241502076384
1789700892794832400,5.287832275390625,3.4090976648688316,-1.6951351074010133,-1.2900298736661673
1789700892804881700,5.297881591796875,0.7518402576960623,-3.8876527502179146,1.6359879219055176
1789700892814931500,5.307931396484375,-4.932535896915197,-4.00293683347702,5.493187081670761
1789700892824980500,5.31798046875,-5.350674799746274,-2.3937428104728458,8.850546375995874
1789700892835029200,5.328029296875,-3.2210043659865852,0.3786532801389694,11.014735165429114
1789700892845078500,5.33807861328125,-2.543763276070356,2.6878923455417154,10.584935050898789
1789700892855127600,5.34812744140625,-4.511146760116517,2.8445208311021326,7.7354188957273955
1789700892865176300,5.35817626953125,-5.4391784281075,2.3259639902323483,4.858337857282161
1789700892875226600,5.3682265625,-5.137850379711389,2.485183661329746,2.8867390936285258
1789700892885275400,5.378275390625,-5.292485645627975,2.7929741837382314,1.5227210236877202
1789700892895325200,5.3883251953125,-4.743674828530848,2.759119844931364,1.279526307569444
1789700892905374200,5.398374267578125,-4.169565319526195,2.793651060086489,2.3690973217770455
1789700892915423200,5.40842333984375,-4.6003100214302535,3.6325387559860944,4.0226919197827575
1789700892925472300,5.41847216796875,-4.509914003451168,4.414230984979867,5.055180864331126
1789700892935522300,5.428522216796875,-3.0526153000056744,4.462729350689053,5.654640210908651
1789700892945571000,5.438571044921875,-1.6357731101110577,2.8898990189641713,4.283193452271819
1789700892955620400,5.448620361328125,0.08637246155142783,-0.10691139171123504,0.33257132792174815
1789700892965669000,5.458669189453125,5.263910708528757,-3.7457927947223184,-3.9331723923772572
1789700892975718100,5.46871826171875,8.845711210924387,-6.29969109583795,-7.034378997072577
1789700892985767200,5.47876708984375,10.163241085934638,-7.58024294706285,-7.872480511030554
1789700892995817200,5.488817138671875,9.370942707252501,-6.860531081163883,-7.031337145158648
1789700893005866200,5.4988662109375,6.361769074088334,-3.8722389079868793,-6.698024058958888
1789700893015915300,5.508915283203125,4.635685286194086,-0.28882980135083197,-8.275078730380535
1789700893025964300,5.51896435546875,4.7805543603777885,2.6945038726359605,-9.20305866818428
1789700893036013000,5.529012939453125,2.5364625976681707,2.906098458614945,-9.614355742296576
1789700893046062300,5.539062255859375,-2.5173516544848678,3.0726410199463365,-10.592177277112006
1789700893056112400,5.5491123046875,-6.2804135639160865,4.693466444033384,-10.874321317088603
1789700893066161200,5.5591611328125,-6.7039967036277055,4.569319255360961,-10.378270322537421
1789700893076210200,5.569210205078125,-6.376710622632503,2.861668949779868,-9.944446359318494
1789700893086259200,5.57925927734375,-5.6885535864263765,1.2606857057601213,-8.944601793265342
1789700893096308200,5.58930810546875,-1.4605308172345162,-4.357326609975099,-4.812186346960067
1789700893106358300,5.599358154296875,3.853780875754356,-12.758705323147773,2.7750790460854766
1789700893116407000,5.609406982421875,1.1787094333410262,-14.215954634493588,9.411327324610948
1789700893126456300,5.619456298828125,-0.7400644066412001,-12.826965789425373,22.400447669541833
1789700893136505000,5.629505126953125,-8.39567962474823,-7.839090867125988,39.56924205555916
1789700893146554000,5.63955419921875,-3.4217595780432224,1.0947954708576202,34.37592171756029
1789700893156603400,5.649603271484375,-12.697419372057913,1.6087638148933647,29.19059296283722
1789700893166653200,5.659653076171875,-7.229496495503187,3.3077322168469427,23.096599211633205
1789700893176702200,5.6697021484375,5.410040011906624,4.166133006989956,18.361055374848842
1789700893186751200,5.679751220703125,1.0177484715342522,1.761617458090186,11.027232243430614
1789700893196800300,5.68980029296875,-2.512752051734924,0.1536684667110443,1.2963476785108445
1789700893206849300,5.699849365234375,-1.4172491632603108,4.199328589627147,-9.750219672247766
1789700893216898300,5.709898193359375,-7.769554389563202,8.141500281018018,-17.77244066289067
1789700893226948400,5.7199482421875,-12.417449753510951,6.376916958859563,-23.552554342639446
1789700893236997000,5.7299970703125,-8.111989524373412,1.4513304426908493,-23.752432771861553
1789700893247046100,5.740046142578125,-4.474322173327208,-4.134543690505623,-22.922575354635715
1789700893257095400,5.750095458984375,-1.1249901911783964,-7.20845312295258,-21.89335856362581
1789700893267144200,5.760144287109375,0.49688744537532326,-6.660275050801038,-19.140384381842612
1789700893277193200,5.770193115234375,-0.9139964937020093,-5.442835197049379,-17.17534336926937
1789700893287243000,5.780242919921875,-4.014143287146092,-4.544482335746288,-15.80624112793207
1789700893297292300,5.790292236328125,-6.792225022178888,-3.2563807997941967,-13.862037151682376
1789700893307341300,5.80034130859375,-6.041735156178474,-2.0587796189785004,-9.756938751369715
1789700893317390000,5.81039013671875,-2.8772680854499337,-0.7558025854557752,-4.463045577031374
1789700893327439400,5.820439453125,-0.5698889687001705,0.7706605473697185,-0.02879705541729927
1789700893337488100,5.830488037109375,2.37487970457077,2.230050962397456,5.784039913281798
1789700893347538200,5.8405380859375,18.224902691084147,-9.889468568462133,29.340936669039724
1789700893357587500,5.85058740234375,2.6432640992641447,-7.120521741521358,28.596837965381145
1789700893367636200,5.86063623046875,-5.904494092655182,-3.767991182526946,33.658622173500056
1789700893377685200,5.870685302734375,-8.961218581545353,0.2530073773413896,23.47910098389387
1789700893387734300,5.880734375,-4.227699528586864,3.6021184832811355,9.713051678848267
1789700893397783300,5.890783203125,-5.837131452000141,2.9689246248841283,6.5590019572377205
1789700893407833300,5.900833251953125,-4.528036227858066,1.5787334182888269,3.9492362229496236
1789700893417882000,5.910882080078125,-3.8737563268125057,0.5069043969988822,2.2372060948491095
1789700893427931400,5.920931396484375,-3.3138065683245657,0.688368048608303,1.0486527283638716
1789700893437980200,5.930980224609375,-1.8006547524929046,1.9744804565697907,0.030584523355960843
1789700893448029200,5.941029296875,-2.0299054066717623,2.344354217925668,-0.7840490212529897
1789700893458078200,5.951078125,-1.5763187583625315,2.745555429959297,-1.8647808954447507
1789700893468128300,5.961128173828125,-0.5829916113793849,2.902106174108386,-3.277731046336889
1789700893478177300,5.97117724609375,-0.22509528806507587,2.7505454933315514,-4.4776206303507085
1789700893488226000,5.98122607421875,-0.6896329539775848,2.8797768534004686,-5.4883647760808465
1789700893498275300,5.991275390625,-1.5040958181947468,3.138630034160614,-6.795499513804912
1789700893508324000,6.001323974609375,-1.369084121158719,3.037362201294303,-7.690686604553461
1789700893518373400,6.011373291015625,-0.34997725728545337,4.05875575133264,-7.7211068772584195
1789700893528423400,6.02142333984375,1.3339134390562772,4.303216249603032,-7.042474625244736
1789700893538472200,6.03147216796875,3.4999364581793544,2.3645716610461474,-5.879754788196086
1789700893548521200,6.041521240234375,5.160200158685446,1.4179028048634528,-4.837900633931159
1789700893558570200,6.0515703125,5.891576158893108,0.7579039416491985,-4.139499851608276
1789700893568619300,6.061619384765625,6.636776101791858,0.16697160039842127,-3.5176252596050497
1789700893578668000,6.07166796875,6.354574194148182,-2.5873493198186157,-2.8662141919940707
1789700893588718000,6.081718017578125,3.718369950267672,-7.479164499288797,-1.9078087207883596
1789700893598767400,6.091767333984375,-4.407236596047878,-9.293388342928885,0.1573901175826788
1789700893608816000,6.101816162109375,-12.2180272513628,-5.262260018712282,5.366830400255322
1789700893618865200,6.111865234375,-6.353921283197403,1.2868185104042291,10.45833813098669
1789700893628914200,6.1219140625,-4.662718254548311,2.4118080439954994,10.632981581187247
1789700893638963200,6.131963134765625,-3.627320729076862,0.49410570570230483,7.263550156274437
1789700893649013200,6.14201318359375,-1.1263830337762832,0.2886626280903816,5.7326370583027595
1789700893659062300,6.152062255859375,-0.6714169138073921,0.5036573779016733,4.703095273122191
1789700893669111300,6.162111328125,-1.5953730029225348,0.1820814912468195,3.2900369856804605
1789700893679160000,6.17216015625,-1.648611256635189,0.07456745746731758,2.1968267381876707
1789700893689209300,6.182209228515625,-0.6467980208575725,-0.31821488578915597,1.3777084493800997
1789700893699258400,6.19225830078125,0.6814426332592963,-0.27978140249848366,0.9162938839241862
1789700893709308200,6.20230810546875,1.347425831580162,4.32356871728003,0.9594874212235212
1789700893719357200,6.212357177734375,3.877833951514959,6.826472744217514,2.212157870571315
1789700893729406200,6.22240625,2.316518116495013,2.611245159190893,1.5455428040876984
1789700893739455200,6.232455322265625,0.9078700467109679,1.2031120531916617,0.8940878973349928
1789700893749504300,6.242504150390625,-0.7928583506524562,1.520850553640723,-0.14307050032913685
1789700893759553300,6.25255322265625,-2.446268532001972,2.27506499312222,-1.274508917798847
1789700893769603300,6.262603271484375,-2.742861953091621,2.279440723988414,-1.348257606229186
1789700893779652000,6.272652099609375,-2.958870848381519,0.832441588500142,-0.5112351196795701
1789700893789701000,6.282701171875,-1.5292951413810252,0.033137714970111844,-0.06809767693132161
1789700893799750400,6.29275048828125,-0.9900105697810649,0.16612930435538292,-0.8085017638556659
1789700893809799200,6.302799072265625,0.621208748505637,0.07440320681631565,-0.13263408118449152
1789700893819848200,6.31284814453125,1.8308628437519072,-0.6004471885710955,0.6868767871372401
1789700893829898200,6.322898193359375,2.7188381034255027,0.020623101311922073,-0.41780609068013724
1789700893839947300,6.332947265625,2.1460686108529567,0.400924148657918,-1.1553271695140748
1789700893849996300,6.342996337890625,1.8094200966201721,0.565255463680625,-1.4251640280380844
1789700893860045300,6.35304541015625,0.5341055615268647,-0.019079379001259802,-1.3988511906519532
1789700893870094300,6.36309423828125,-2.3746377125084397,-0.7433768191248178,-1.4556364693216979
1789700893880143000,6.37314306640625,-4.498555281829834,-0.12452712790071964,0.3665593030456453
1789700893890193000,6.38319287109375,-4.707814702859521,1.8823978006780147,4.998674548733234
1789700893900242200,6.3932421875,-2.3441804687939585,1.9742606763392685,0.916700711159408
1789700893910291200,6.403291259765625,4.144382947474718,1.510063786688447,-0.7896052671406417
1789700893920340000,6.413340087890625,2.64929636516571,1.916981622803211,-0.45233540613912043
1789700893930389200,6.42338916015625,-1.0750219721123575,2.1552724925279616,-1.5219370337031781
1789700893940438000,6.43343798828125,-1.9897502141550183,1.1438070467859507,-2.4116528534337878
1789700893950488000,6.443488037109375,-2.04239634719342,-1.2360896091639995,-3.4963913329184053
1789700893960537000,6.453537109375,-0.8309881748214364,-4.511518223777413,-3.7344086463987827
1789700893970586000,6.463586181640625,-1.661584135454893,-5.960580721536278,-3.1241736387848853
1789700893980635100,6.47363525390625,-2.6342808746024966,-4.663730646461248,-1.9584134111270308
1789700893990684200,6.48368408203125,-0.7855506579875946,-2.182420611694455,0.05247559877708554
1789700894000733200,6.493733154296875,0.10660480998009443,-0.18299334539473056,1.2034925769418476
1789700894010783200,6.503783203125,-0.18875176279097794,1.3362456813961268,0.9800864110074937
1789700894020832000,6.51383203125,0.3646250470474362,1.853618280917406,0.8918559004992246
1789700894030881300,6.52388134765625,-1.1469035514965653,2.2444196794897318,0.3005933043807745
1789700894040930000,6.533929931640625,-1.945801766835153,2.539005852410197,-0.5383831292482093
1789700894050979000,6.54397900390625,-1.4933227875068782,2.471774729180336,-1.2612788493476808
1789700894061028000,6.554028076171875,-0.6676748046696186,2.200945279422402,-1.415265149836242
1789700894071078100,6.564078125,0.06880757876634597,2.177365666392445,-1.2520133006133138
1789700894081127200,6.574127197265625,0.9216770382672548,2.3073352776080367,-0.7651238099001347
1789700894091176000,6.584176025390625,0.07353548407107591,2.122971812903881,-0.37059360006302594
1789700894101225200,6.59422509765625,-0.8806105761244892,2.2653204286992548,-0.05523600340113043
1789700894111274000,6.60427392578125,-0.9091358288630843,2.319720711928606,0.031159382368158548
1789700894121324000,6.614323974609375,-0.5673115194275975,2.3013398365855218,0.03609917685789987
1789700894131373000,6.624373046875,-0.3778410869732499,2.1456956858873366,0.10011681793397292
1789700894141422000,6.634422119140625,-0.4353048494264483,1.883354078489542,0.08347789088739081
1789700894151471000,6.64447119140625,-0.44064971758574245,1.1940794364303349,0.35314890959151085
1789700894161520000,6.65452001953125,-1.2007833179831504,0.3681459146499634,0.6927651145234703
1789700894171569200,6.664569091796875,-1.894486005617678,-0.364603127476573,1.134693108416721
1789700894181618200,6.6746181640625,-2.241312361124158,-0.9355196856588125,1.5478398289836943
1789700894191668000,6.68466796875,-2.313291847924888,-1.3538438819289207,1.9067425528615711
1789700894201717200,6.69471728515625,-2.1737831317305565,-1.4661241071969269,2.1290238064192235
1789700894211766000,6.70476611328125,-2.207625487838685,-1.6359019971877335,2.2012232195809482
1789700894221815000,6.71481494140625,-2.715128435252607,-1.7796698321312665,2.272348573770374
1789700894231864300,6.7248642578125,-2.7282702408984303,-1.6536936744660138,2.2939969264768063
1789700894241914000,6.7349140625,-2.6066356195688245,-1.353736914423108,2.321193414829671
1789700894251963100,6.744963134765625,-2.744509135776758,-0.9189578424364327,2.508365799474716
1789700894262012000,6.755011962890625,-2.918345653508603,-0.514243653845787,2.7590257369071245
1789700894272061200,6.765061279296875,-3.092184801588952,-0.1281453183978796,2.994804331550002
1789700894282110200,6.775110107421875,-3.2924785336136817,0.15318331354260445,3.157872494769096
1789700894292159000,6.785158935546875,-3.371252502860129,0.30769115368723865,3.14813026843369
1789700894302209000,6.795208984375,-3.296095847328007,0.1564145505487919,2.930869911777973
1789700894312258000,6.805258056640625,-2.9776842699229715,-0.578922169983387,2.4825305164724587
1789700894322307000,6.81530712890625,-2.301710423463583,-1.9910452224016189,1.7399340340703724
1789700894332356000,6.825356201171875,-0.9600830490291118,-3.196277336487174,0.8576195766374468
1789700894342405000,6.835405029296875,0.5489101858183741,-3.9219986719340083,0.24476320754401384
1789700894352454100,6.8454541015625,1.4656637962087988,-4.374752961072326,-0.2774966890947893
1789700894362504000,6.85550390625,1.6906944946050644,-4.742005726274848,-0.8064641205482185
1789700894372553200,6.86555322265625,1.0347627346992492,-4.921622873234749,-1.602349856197834
1789700894382602200,6.875602294921875,-0.5143045902527869,-4.003165966057777,-2.662600375635922
1789700894392651000,6.885651123046875,-2.287158312628418,-0.9746955117493867,-3.70865753454864
1789700894402700300,6.8957001953125,-2.473335402625799,1.963599581593275,-4.093156618106365
1789700894412749000,6.9057490234375,-1.338125942184776,3.344977951657772,-3.519665241000056
1789700894422799000,6.915799072265625,-0.09595628245472908,3.59220674559772,-2.700754165202379
1789700894432848100,6.92584814453125,0.942711204598099,3.282719940665364,-1.9813801529556512
1789700894442897200,6.935897216796875,1.6044354303002357,2.9509663588672876,-1.5278081176936626
1789700894452946200,6.9459462890625,2.0476316174983977,2.7069693864554165,-1.2414043744459748
1789700894462995000,6.955994873046875,2.7833412629961964,2.545494629907608,-1.0504106779471039
1789700894473044200,6.966044189453125,3.609861060231924,2.4051024088770148,-0.9191414553750306
1789700894483094300,6.97609423828125,4.189070814985037,2.3406045100033284,-0.8795255573667585
1789700894493143000,6.98614306640625,3.9498037937045094,2.141487128281593,-0.7603470970176159
1789700894503192000,6.996192138671875,2.9298528436899183,1.6054805554389953,-0.5083764788454398
1789700894513241000,7.006240966796875,2.061938229139894,0.7855582567721605,-0.22105182136055082
1789700894523290000,7.0162900390625,1.531550226831436,-0.1608352896004915,0.054888687800802284
1789700894533339100,7.026339111328125,1.239734687668085,-0.8458002517670392,0.3717562871668488
1789700894543389200,7.03638916015625,1.1043990924399345,-0.9980588516801595,0.7369905521538108
1789700894553438200,7.046438232421875,1.131347962707281,-0.7959434571862221,1.0407984346669166
1789700894563487000,7.056487060546875,1.1565291657149792,-0.4520832580089569,1.2488441690579055
1789700894573536300,7.066536376953125,1.0220283408105373,-0.018610592445731163,1.3118993217773736
1789700894583585000,7.0765849609375,0.7016542311608791,0.5089022928178311,1.2330658774286507
1789700894593634000,7.086634033203125,-0.6744260324954986,1.0774801789194346,0.8260809674270451
1789700894603684000,7.09668408203125,-1.63674780036211,1.3405962778210638,0.32897443594094367
1789700894613733000,7.106733154296875,-1.3155460077166556,1.328682552665472,0.11957913183821364
1789700894623782100,7.1167822265625,0.18008651803731918,1.2752467305541038,0.21723083830028772
1789700894633831000,7.126830810546875,0.5064671746253967,0.9930845703989267,0.25453884295867757
1789700894643880200,7.136880126953125,0.25828913540290666,0.7250462126642465,0.3638422991719097
1789700894653929000,7.146928955078125,-0.009235445857048033,0.5499164402514696,0.5634095070203766
1789700894663979000,7.15697900390625,-0.21999940796447917,0.45929508908391,0.8202731579311191
1789700894674028000,7.167028076171875,-0.4036065196096897,0.4470388341009617,1.0436440333563834
1789700894684077000,7.1770771484375,-0.5996271043598651,0.4875713354974985,1.1983581366628409
1789700894694126000,7.1871259765625,-0.723913409242034,0.4906529348999262,1.270792673754692
1789700894704175000,7.197175048828125,-0.7833966948240995,0.4448796102404594,1.3563938586726785
1789700894714224000,7.20722412109375,-0.8128174350976943,0.41573710238635536,1.4162474388718604
1789700894724274200,7.217274169921875,-0.8558160343468189,0.4374474144130945,1.42954107407853
1789700894734323000,7.227322998046875,-0.9324217196434735,0.5760363854140043,1.3462420286230743
1789700894744372200,7.237372314453125,-1.0314846628766505,0.7278922497451304,1.0121064470592886
1789700894754421000,7.2474208984375,-1.0823995151430368,0.8408429216206074,0.44617995224930346
1789700894764470000,7.257469970703125,-0.985343673948571,0.8182067269206047,-0.03374114248966798
1789700894774519300,7.267519287109375,-0.6293050342649221,0.6938683995902538,-0.3810203380638733
1789700894784569000,7.277569091796875,-0.2051648451924324,0.6585299597054719,-0.6375518344108015
1789700894794618000,7.2876181640625,0.06277545899525284,0.7234013680666684,-0.8121521761219948
1789700894804667000,7.2976669921875,0.15493044947087764,0.8098316972851752,-0.9511328498542309
1789700894814716200,7.307716064453125,-0.015990765336155892,0.8032406284570693,-1.0420324334412812
1789700894824765200,7.31776513671875,-0.5559761786818505,0.5774146880298853,-1.119407203414291
1789700894834814000,7.32781396484375,-1.2845534880816936,0.050775078469514845,-1.1551825734116137
1789700894844864300,7.3378642578125,-2.058805922463536,-0.6245458570390939,-1.115694320371002
1789700894854913000,7.3479130859375,-2.5929806037038565,-1.1530535985589028,-0.8748792659308761
1789700894864962000,7.357962158203125,-2.6825118215471506,-1.3442588919818401,-0.39564832714684306
1789700894875011300,7.36801123046875,-2.6433073538839817,-1.2290958047538996,0.22101360824201255
1789700894885060000,7.37806005859375,-2.5523551633268595,-1.0397329243272542,0.795398975045979
1789700894895109400,7.388109375,-2.341019666675478,-0.9346195219486951,1.1865708143658935
1789700894905159400,7.398159423828125,-2.1026865652441975,-0.8505570909053086,1.4988682928048074
1789700894915208700,7.408208740234375,-1.8293970089830458,-0.805498051995039,1.8337777082853017
1789700894925257500,7.418257568359375,-1.5794900818750262,-0.7610293801933526,2.2052711797975
1789700894935306500,7.428306396484375,-1.3525304612427949,-0.7149421672791242,2.5576602839976545
1789700894945355500,7.43835546875,-1.1224860263377427,-0.6679997988402843,2.9092653982132672
1789700894955404500,7.448404541015625,-0.9778152512051165,-0.6034580608248711,3.218958831633627
1789700894965454600,7.45845458984375,-1.0724386776208876,-0.5572732327550649,3.4115690234184264
1789700894975503400,7.46850341796875,-1.417266845047474,-0.5351432340115309,3.446975267842412
1789700894985552600,7.478552734375,-2.015857592096925,-0.5956278055906296,3.2969492492869494
1789700894995601400,7.488601318359375,-2.670794495746493,-0.6669540891796351,2.993160655996203
1789700895005650400,7.498650390625,-2.970318125069141,-0.7315098557204007,2.6049320305213333
1789700895015699700,7.50869970703125,-2.870731377157569,-0.8291343636482954,2.3120647903479634
1789700895025749500,7.51874951171875,-2.516813894346356,-0.9521423191577195,2.145218716025352
1789700895035798500,7.528798583984375,-2.014965611693263,-1.111754204443097,1.981733204177022
1789700895045847300,7.538847412109375,-1.343795512253791,-1.3337567871898413,1.8162704009063542
1789700895055896600,7.548896484375,-0.43012627774477,-1.604643520092964,1.6222845368541776
1789700895065945600,7.558945556640625,0.6056574705652892,-1.8501468054145573,1.3195304011777043
1789700895075994400,7.568994384765625,1.6420692876458167,-2.0968220571249723,0.9967420699931681
1789700895086044700,7.579044677734375,2.510300566929579,-2.4373341149181127,0.6238379279654472
1789700895096093400,7.589093505859375,3.22338278555572,-2.7944062623679637,0.20065898514054714
1789700895106142500,7.599142578125,3.7742771309286356,-3.032227761015296,-0.19912943748570977
1789700895116191700,7.609191650390625,4.082781354564428,-2.9249440288603306,-0.615942571605742
1789700895126240500,7.619240478515625,3.5901433833271263,-2.475990885570645,-1.0497393545567988
1789700895136289500,7.62928955078125,1.7676036928929388,-1.8781682002842426,-1.7211593371041118
1789700895146339300,7.63933935546875,0.0971492916315794,-1.1315554679781197,-2.181479385321587
1789700895156388600,7.649388671875,-0.1446452388325706,-0.4880412910968065,-2.2665986319415268
1789700895166437600,7.659437744140625,0.5823381159067154,0.10974866096377373,-2.2077326014749703
1789700895176486400,7.669486328125,1.4453811788976192,0.588008562758565,-2.1963886390313503
1789700895186535700,7.67953564453125,1.7903753505408764,0.8132073111981153,-2.226661758350581
1789700895196584400,7.68958447265625,-0.2148423357285559,0.6559913811385631,-2.878438590534031
1789700895206634500,7.699634521484375,-3.6508465660929676,-0.21526129179298875,-3.906495105592906
1789700895216683500,7.70968359375,-3.0109388892710207,-0.7786234890729189,-3.7431270826444027
1789700895226732500,7.719732666015625,-1.7177838693216443,-1.337966513839364,-3.429292896157503
1789700895236781600,7.729781494140625,-0.3066942516043782,-1.4645768777549266,-3.061672174425423
1789700895246830300,7.739830322265625,0.7848138681456446,-1.1196914271831513,-2.655309926366806
1789700895256879600,7.749879638671875,1.4266507594645021,-0.47499008634388445,-2.1587160571105777
1789700895266929700,7.7599296875,2.1023753073379394,0.21762860544621943,-1.670525274540484
1789700895276978400,7.769978515625,3.027655923055112,0.709172351706028,-1.4453995913371442
1789700895287027700,7.78002783203125,3.9606466747581957,1.1519418379247188,-1.36178563471362
1789700895297076500,7.790076416015625,4.487570946478844,1.6305419314593075,-1.3511533276706933
1789700895307125500,7.80012548828125,4.451542770764231,2.18908825289011,-1.3005682188153267
1789700895317174500,7.810174560546875,3.7712165743142365,2.7635984516501426,-1.1519097622860222
1789700895327224600,7.820224609375,2.2656831245318054,3.2010575565010306,-1.0948510004371403
1789700895337273600,7.830273681640625,1.1032809751302004,3.480046931838989,-0.8684197145279496
1789700895347322400,7.840322265625,1.1237380722254513,3.464890279239416,-0.5255768026344478
1789700895357371600,7.85037158203125,1.5948720676630734,3.0492373480051755,-0.29099549148473886
1789700895367420400,7.86042041015625,2.0532138015449046,2.543637603864074,-0.19171561756525188
1789700895377469400,7.870469482421875,2.2838784141749144,2.2802134619265795,-0.14998742184443398
1789700895387519500,7.88051953125,2.1300795990824697,2.2479519452691075,-0.05897065988481044
1789700895397568500,7.890568603515625,1.774868277068436,2.255882738268375,0.11331945038894191
1789700895407617500,7.900617431640625,1.4453236034914851,2.147903425064683,0.323275895505771
1789700895417666600,7.91066650390625,1.1660273541614412,1.9004782317698001,0.5992611205916851
1789700895427715600,7.920715576171875,1.0845467563048004,1.591795728957653,0.8878827590845525
1789700895437764400,7.930764404296875,1.0884311965227127,1.4322043019384145,1.0715445783253759
1789700895447814400,7.940814453125,1.004579485620558,1.3760650660872458,1.129666074034944
1789700895457863700,7.95086376953125,0.5953054417684673,1.3994284060180187,0.8988805384390055
1789700895467912400,7.960912353515625,-0.28829028764665127,1.4966583616703748,0.356401189385727
1789700895477961500,7.97096142578125,-1.6959128137752413,1.6743401566535234,-0.2537247318305075
1789700895488010500,7.981010498046875,-3.2866786151632663,1.7850602929979562,-0.8709099239084869
1789700895498059500,7.9910595703125,-4.355647570846974,1.600773985183239,-1.343406951327622
1789700895508109600,8.001109619140625,-5.085763634121418,1.0238783525913953,-1.6093857461839913
1789700895518158300,8.011158447265625,-5.441120209825039,0.03722586106657982,-1.357573862237483
1789700895528207600,8.02120751953125,-5.526475603288412,-1.925306968078017,-0.563760402817279
1789700895538256400,8.03125634765625,-5.506509504580498,-4.715022442281246,0.5116228038229048
1789700895548305400,8.041305419921875,-5.600639740651846,-7.008595151996612,1.0771825111471116
1789700895558354700,8.051354736328125,-5.653171891921758,-7.501307942035794,1.1897929182175546
1789700895568404500,8.061404541015625,-5.203697939628363,-5.701377996686101,1.3315849961087107
1789700895578453500,8.07145361328125,-4.4243002513125536,-2.8647768526673314,1.3756050473600625
1789700895588502500,8.08150244140625,-3.8754128618478774,-0.20447335579693315,1.1285963989768177
1789700895598551600,8.091551513671876,-3.652854983305931,1.5767752699583768,0.773383396462351
1789700895608600600,8.1016005859375,-3.1569895744547245,1.6930507023423909,0.5044532775197178
1789700895618649600,8.111649658203126,-2.5785671706870197,-0.04530395358204841,0.7696388031065463
1789700895628699600,8.12169970703125,-1.2389166492834687,-2.0892963377952576,1.2650279727481304
1789700895638748400,8.13174853515625,1.0026865114808081,-3.851739140793681,1.0098949815548957
1789700895648797400,8.14179736328125,3.1463293564915653,-4.545908569157123,0.13204656362012027
1789700895658846700,8.1518466796875,4.837696051269769,-3.7187095574855804,-0.8033120862580835
1789700895668895500,8.1618955078125,5.921456917893886,-1.9093775775402784,-0.9678417003318667
1789700895678944500,8.171944580078126,5.6546039705514906,0.04121288487613201,-0.9929375631436705
1789700895688994300,8.181994384765625,4.5842616806879635,1.4214759871751068,-0.9377626422800123
1789700895699043600,8.192043701171874,2.7838521351277827,2.2052812628000975,-1.0820239598289132
1789700895709092600,8.202092529296875,0.17443784462586046,2.5216999128222466,-1.4441457918837666
1789700895719141400,8.212141357421874,-2.6997870737358927,3.200305276829004,-1.6602625314623116
1789700895729190700,8.222190673828125,-3.1422675138801335,3.5516543704569337,-1.2437921463653445
1789700895739239400,8.232239501953124,-1.8723194742560385,2.9618115780085326,-0.9806958481427281
1789700895749289500,8.24228955078125,0.08157251392379403,2.5835212859630583,-0.8051569104071706
1789700895759338500,8.25233837890625,1.93871063953042,2.518089905631542,-0.5600859520882367
1789700895769387500,8.262387451171875,3.652216685402393,2.484655253541469,-0.35692864732593294
1789700895779436500,8.2724365234375,5.0673359970271585,2.0863421641647815,-0.27443814177438614
1789700895789485600,8.282485595703125,6.331389133393764,1.1319681404322386,-0.3215536748230457
1789700895799534600,8.29253466796875,7.0277803294599055,0.04613865084052086,-0.4427395294718444
1789700895809584600,8.302584716796876,6.526977171945571,-0.7386223180741072,-0.520284395314753
1789700895819633400,8.31263330078125,4.04400300335884,-1.080160796305537,-0.33227292949706316
1789700895829682700,8.3226826171875,0.4737409630656242,-1.2994114499956368,-0.0046212300598621366
1789700895839731500,8.3327314453125,-1.138013558076322,-1.3466764745175839,0.5304093373574316
1789700895849780500,8.342780517578126,-1.9854234369970858,-0.9385527697443962,0.8279141742035746
1789700895859829500,8.35282958984375,-2.450283174470812,-0.06423778663277625,0.8755151526816188
1789700895869879600,8.362879638671876,-2.4703657391652465,1.0553215386033057,0.6614255350165069
1789700895879928600,8.372928466796875,-2.049239052695036,1.9440911635249851,0.07648059761226177
1789700895889977300,8.382977294921876,-0.7051425116680562,1.7539730808168648,-0.8487994335830211
1789700895900026600,8.393026611328125,1.3863070586383341,0.8890162931591272,-1.447332312965393
1789700895910075400,8.403075439453126,3.4783483112275597,0.2761070978999138,-1.453583774575591
1789700895920124400,8.41312451171875,4.649796813654899,0.45002515643537044,-1.1886376837678252
1789700895930174500,8.423174560546874,4.456815742731094,1.12407651039958,-0.7841321694917976
1789700895940223500,8.433223388671875,3.220117061758041,1.8777011672943829,-0.4405094323322177
1789700895950272500,8.4432724609375,0.8765548709928989,2.476487729176879,-0.4401770585726946
1789700895960321500,8.453321533203125,-2.2644880695283414,2.907570869255066,-0.8119931131027639
1789700895970370600,8.46337060546875,-4.140024752265215,2.7577865505009886,-1.1148377035416661
1789700895980419300,8.47341943359375,-3.806729201722145,2.127209012082219,-1.0096654836479575
1789700895990469400,8.483469482421874,-2.178694284647703,1.521786957708001,-0.5161637351881713
1789700896000518700,8.4935185546875,-0.8024918559163808,0.9384820425957441,-0.007203720833733678
1789700896010567400,8.5035673828125,-0.1717459751933813,0.48052317055165766,0.30305399540588257
1789700896020616400,8.513616455078125,-0.04986092276666313,0.21256430779397487,0.5090750190362334
1789700896030665500,8.52366552734375,-0.5431833691367879,-0.0638309593975544,0.7290360129527748
1789700896040714500,8.533714599609375,-1.5724474698871374,-0.3580599894434213,0.9324171895988285
1789700896050764500,8.5437646484375,-2.602890587821603,-0.5371709404468537,1.0351023419171572
1789700896060813300,8.553813232421875,-2.9370827949434517,-0.6380687709569931,0.9214802005209028
1789700896070862600,8.563862548828125,-2.313849920199066,-0.5534679952532052,0.5261151472948491
1789700896080911400,8.573911376953125,-1.5558680910080671,-0.2714332608699798,-0.14035064691118895
1789700896090960400,8.58396044921875,-1.2729374306984245,0.008968903875350952,-0.844434662502259
1789700896101009400,8.594009521484375,-1.6909611827172337,0.07715338230729103,-1.343573686196655
1789700896111059500,8.6040595703125,-2.540490538010001,-0.17474691057503222,-1.5801418237820266
1789700896121108500,8.6141083984375,-3.122849696704745,-0.6022936932206153,-1.6638944582238793
1789700896131157500,8.624157470703125,-2.9932518414109945,-1.0736100594878195,-1.4260032553412019
1789700896141206500,8.63420654296875,-2.5727958938091993,-1.24972182867527,-0.7782334668420254
1789700896151255300,8.64425537109375,-2.125574250487238,-1.0572656584084033,0.11650105783343315
1789700896161304600,8.6543046875,-1.93101321689561,-0.7271820556491613,0.8940510724559426
1789700896171354600,8.664354736328125,-2.0713854180514812,-0.34148645578324793,1.3979720697298645
1789700896181403400,8.6744033203125,-2.4573458063334224,-0.08534604111313819,1.797039776866138
1789700896191452400,8.684452392578125,-2.844026325583458,-0.06833060890436173,2.1492034017473456
1789700896201501400,8.69450146484375,-2.7032155868798493,-0.2560807934373617,2.4167951847583056
1789700896211550500,8.704550537109375,-2.4589561641395092,-0.6651064154863358,2.5062664891079067
1789700896221599500,8.714599609375,-2.269718809788674,-1.5271885244905947,2.3315882598549127
1789700896231649300,8.724649169921875,-1.425604026890546,-2.8452923999965187,1.8573478228345512
1789700896241698600,8.734698486328124,-0.5847137589968741,-3.816122468489408,1.4538732590414583
1789700896251747300,8.744747314453125,0.16248890202641486,-4.163059590893984,1.0524212871171534
1789700896261796400,8.75479638671875,0.8093190715879202,-3.834204068624973,0.7103835541266947
1789700896271845600,8.764845703125,1.2567096417360006,-3.083287501645088,0.4413790547735989
1789700896281894400,8.774894287109374,1.6535510511249303,-2.49733645593822,0.18754600373040883
1789700896291944400,8.7849443359375,2.086639685806632,-2.1818460266768933,-0.14704736807085572
1789700896301993500,8.794993408203124,2.4687445677042006,-1.9356950911015272,-0.4377667094953358
1789700896312042500,8.80504248046875,2.7214970935016867,-1.8239625628441571,-0.6294350903853774
1789700896322091500,8.815091552734375,2.9626626418799162,-1.6912836926698684,-0.7897350310001522
1789700896332140500,8.825140625,3.099803752160072,-1.3692302516311405,-1.0009305346589534
1789700896342189600,8.835189453125,2.4774387462913987,-0.9354512965977191,-1.400490774552524
1789700896352239400,8.8452392578125,-0.41781043806169177,-0.7743196543991565,-2.259064144783467
1789700896362288400,8.855288330078125,-2.5664298659086224,-0.4083037375152111,-2.807785383901
1789700896372337700,8.865337646484376,-2.502612935036421,-0.16522271090447901,-2.721711028513312
1789700896382386400,8.875386474609375,-2.3840578672826287,-0.5304390018433333,-2.708466347014904
1789700896392435500,8.885435546875,-2.9743571713268757,-1.1601900263100862,-2.9908740063637493
1789700896402484500,8.895484375,-3.3857869319081306,-1.4999854602664708,-3.081510555100441
1789700896412534500,8.905534423828126,-2.662293793904781,-1.6128467002928255,-2.490671152830124
1789700896422583600,8.91558349609375,-1.1016890297636388,-1.1919786647588013,-1.598518169080466
1789700896432632300,8.92563232421875,0.7085051199689507,-0.5171691859036683,-0.9170103616304696
1789700896442681600,8.935681640625,2.2458652021229266,0.33472704465091224,-0.569594223537296
1789700896452730400,8.94573046875,3.1410046543374657,0.9691776251107453,-0.38014147287011146
1789700896462779600,8.955779541015625,3.5981194767728444,1.4188374553650618,-0.2931687073379755
1789700896472829700,8.96582958984375,3.815397661346197,1.926390671661496,-0.26249928217753765
1789700896482878500,8.97587841796875,3.799216634134948,2.4677210698753593,-0.33300065924972294
1789700896492927500,8.985927490234374,3.6460385812893508,3.1386393865108486,-0.4538452992454171
1789700896502976500,8.9959765625,2.949410653857887,3.428007532522082,-0.8535866678595543
1789700896513025500,9.006025634765624,1.860966305592656,3.3134342278808355,-1.6531646821558474
1789700896523074300,9.01607421875,2.0489593589708206,3.5334880146473644,-1.851296998362988
1789700896533124400,9.026124267578124,3.1672254295259714,3.904486980640888,-1.6331062289893625
1789700896543173600,9.036173583984375,4.29688967693001,3.789473531016707,-1.3449689399473368
1789700896553222400,9.046222412109374,4.949584062349796,3.273811242544651,-1.0313951579622924
1789700896563271400,9.056271484375,4.876837098307908,2.746508785161376,-0.7734197098847478
1789700896573320400,9.066320556640624,4.279983842575549,2.5556992130577565,-0.5104552213482558
1789700896583369500,9.076369384765625,3.797068223929405,2.7408523668348788,-0.17745616953372953
1789700896593419500,9.08641943359375,3.2789547429129478,3.1995348769783973,0.1607799792166799
1789700896603468500,9.096468505859375,2.706503814770281,3.5498552120804785,0.4809148732829839
1789700896613517600,9.106517578125,1.6782272272199392,3.6826585854172706,0.8318613774593919
1789700896623566300,9.11656640625,0.05591536396741867,3.392778398230672,1.2261157660298048
1789700896633615600,9.12661572265625,-2.0656793153643607,2.7100281895041465,1.8295602367207406
1789700896643664400,9.136664306640625,-3.974562679646909,1.9102280568897723,2.69300311268419
1789700896653714400,9.14671435546875,-4.879885672223567,1.5145388862758875,3.6677328189641236
1789700896663763500,9.156763427734376,-5.320811576402187,1.6730717441529035,4.778249006044865
1789700896673812500,9.1668125,-5.81846416093111,1.7255682395875453,5.846338840806484
1789700896683861500,9.176861572265626,-6.312954482036829,1.062984620577097,7.380970667040348
1789700896693910300,9.18691015625,-7.367063722240925,-3.3465532381504772,7.496549349331855
1789700896703959600,9.19695947265625,-9.339159329500793,-11.808759052729606,2.8520851288765665
1789700896714009600,9.207009521484375,-10.432202988255023,-13.040746487271784,-0.6323325653925538
1789700896724058400,9.217058349609376,-9.094771311944722,-8.290259348377585,-1.9098412495292723
1789700896734107400,9.227107421875,-6.934367886269092,-4.014402814865112,-2.5866949475631116
1789700896744156400,9.237156494140624,-5.028216285037994,-1.5073954442620277,-3.0822853388652205
1789700896754205400,9.247205322265625,-2.6463161803111435,0.11790800202190875,-3.3982354945927855
1789700896764254500,9.25725439453125,-1.5121666041865944,0.9266407981544732,-3.9522698915570973
1789700896774304500,9.267304443359375,-1.0319763188511133,-0.8043161487340926,-4.854276014670729
1789700896784353500,9.277353515625,2.9821824581250547,-3.90224592371583,-4.676796172000468
1789700896794402300,9.28740234375,8.657260184645653,-6.252133225849271,-4.3859842569217085
1789700896804451600,9.29745166015625,10.319666157877444,-6.746330701488256,-4.180822918860614
1789700896814500600,9.30750048828125,7.556023282563686,-4.951676066192984,-4.710596150271594
1789700896824549400,9.31754931640625,2.439940498024225,-1.192063420432806,-5.478673403149843
1789700896834599400,9.327599365234375,-1.2471581156671045,2.5524019250780343,-4.973379948478937
1789700896844648400,9.3376484375,-1.052669270528853,3.6675522017002105,-3.0339255048438907
1789700896854697500,9.347697509765625,0.03770984519124031,3.7320208744794128,-1.1285485412470995
1789700896864746500,9.35774658203125,1.9193065586194396,3.6238270417422056,0.4314627870455384
1789700896874795500,9.36779541015625,3.510756835140288,3.551870643556118,1.4451241353966295
1789700896884844500,9.377844482421875,4.111590100419521,3.414300494208932,1.9242469376310705
1789700896894893600,9.3878935546875,4.2286864937976,3.014052637377381,2.2351848181545733
1789700896904942800,9.39794287109375,4.126667550303042,2.243012735301256,2.3841592818304895
1789700896914991900,9.407991943359375,3.5092891006752844,1.1404209114789963,2.4976377769723532
1789700896925040600,9.41804052734375,3.0123510941565037,-0.07254208911955357,2.69084885725975
1789700896935090000,9.42808984375,2.9453894355177876,-1.2149117965787648,2.9505817434638737
1789700896945138700,9.438138671875,3.057138622649014,-1.9019716851979493,3.06648015922904
1789700896955188700,9.448188720703126,2.535783383232355,-1.67613697694242,2.7780656606808303
1789700896965237800,9.45823779296875,1.913032739046961,-0.6133516783297062,2.5211916710391638
1789700896975286800,9.468286865234376,1.8022094345889985,0.47754152439236636,2.411113047468662
1789700896985335800,9.478335693359375,1.7030267374336718,1.0302993255496025,2.2174518853262066
1789700896995384600,9.488384521484376,1.6652759757101534,1.0924117905914783,2.093236015331745
1789700897005434600,9.4984345703125,1.3674234944701193,1.1600193459182977,1.8352958577632903
1789700897015484000,9.50848388671875,0.4634849419891834,1.153477961450815,1.2481135166957973
1789700897025532700,9.51853271484375,-0.9784545720219612,1.0638497129738331,0.3907999372676015
1789700897035582000,9.52858203125,-1.8385294328570365,0.8681132058620452,-0.3110112380206585
1789700897045630700,9.538630615234375,-1.0252234105248004,0.6413929469436407,-0.4807670623101294
1789700897055679700,9.5486796875,1.1525052439611405,0.34632220537662506,-0.3686288758613169
1789700897065728800,9.558728759765625,3.3144822756290435,0.3161737353503704,-0.4020680579960346
1789700897075778800,9.56877880859375,4.29287138119936,0.6627244887858629,-0.6730214263945817
1789700897085827800,9.578827880859375,3.0750188549935817,1.4039420840501784,-1.149031795696914
1789700897095876600,9.588876708984374,-0.20661800314281134,2.3981185413390396,-1.8070479606613516
1789700897105926000,9.59892578125,-3.75341729825139,3.1422984935402867,-2.4411773463428017
1789700897115974700,9.608974609375,-5.2110395345628255,3.1201129652172326,-2.5040233863562342
1789700897126024700,9.619024658203125,-4.2446155920743935,2.478712419489026,-1.7096235053502022
1789700897136073700,9.62907373046875,-2.3672581236511467,1.5726351014137268,-0.6855328251823782
1789700897146122800,9.639122802734375,-1.06249362218976,0.7895698305010795,0.04980959443822503
1789700897156171800,9.649171875,-0.7330319507211447,0.2709697350114584,0.49399654623940586
1789700897166220500,9.659220458984375,-1.3785387627243995,-0.1945247932344675,0.6999034419707953
1789700897176269800,9.669269775390624,-2.7904981490135192,-0.8298024721682071,0.6041703007474541
1789700897186320000,9.67931982421875,-3.4406051482886073,-1.322809861239791,0.2716220614403486
1789700897196368600,9.68936865234375,-2.6343857962816952,-1.0792810908615589,-0.19903861739709972
1789700897206418000,9.69941796875,-1.26104708641842,-0.3740203596413135,-0.5274138088032603
1789700897216466700,9.709466796875,-0.6017880817860365,0.08128186041414737,-0.5801626715637743
1789700897226515700,9.719515625,-0.9073948304146527,-0.15772446410357951,-0.4379895584657788
1789700897236565000,9.72956494140625,-1.7457913817964492,-0.725097650590539,-0.16989128723740576
1789700897246614800,9.73961474609375,-2.646273802474141,-1.1931997309863567,0.05750248702839016
1789700897256663800,9.749663818359375,-2.85015854472816,-1.3393635211557149,0.30733123433366416
1789700897266712600,9.759712646484376,-2.382179798451066,-0.9839145909935235,0.7330474405512213
1789700897276761900,9.769761962890625,-1.8155787653803823,-0.5503671066284179,1.203607727754116
1789700897286811000,9.779810791015626,-1.7328718405991792,-0.1592109032690525,1.6477821123346685
1789700897296859600,9.789859619140625,-2.1311218016117808,0.0750549487233162,2.000220316373557
1789700897306909700,9.79990966796875,-2.4765648860663174,-0.11556523828804492,2.294145541167259
1789700897316958700,9.809958740234375,-2.418621815663576,-0.6154530345231294,2.5528204427510497
1789700897327007700,9.8200078125,-2.1286025122672316,-1.1850164245307444,2.782727515012026
1789700897337056800,9.830056884765625,-1.2507429884165524,-1.968483846503496,2.867161994238198
1789700897347105800,9.840105712890624,-0.37529695544838904,-2.722519422286749,2.8464813175201416
1789700897357154800,9.85015478515625,0.3823540343530476,-2.958108631837368,2.7247423590332267
1789700897367204600,9.86020458984375,0.982907605908066,-3.0367005225151775,2.564871530550718
1789700897377254000,9.87025390625,1.377594175350666,-3.291061068031192,2.3305963262081146
1789700897387303000,9.880302978515624,1.563673211801052,-3.480924299195409,1.961853176317364
1789700897397351700,9.8903515625,1.466343887427449,-3.536139405938983,1.597917280577868
1789700897407401000,9.90040087890625,1.4392816929787398,-3.5782337498247623,1.2405959806725382
1789700897417449700,9.91044970703125,1.7852029163390397,-3.555174945798516,0.776403036544472
1789700897427499800,9.920499755859375,2.1501327915519473,-3.4655069498330353,0.344460064766556
1789700897437548800,9.930548828125,1.31712304777503,-3.405956444233656,-0.40628815990909933
1789700897447597800,9.940597900390625,-0.8729986398160458,-3.333476314434409,-1.622858245088905
1789700897457646800,9.950646728515625,-1.3069126194059848,-1.8015198448896408,-1.8749262957535684
1789700897467695600,9.960695556640625,-1.674409714758396,-0.23460662825405595,-2.1928699633859097
1789700897477745000,9.970744873046876,-1.445397399380058,0.9334504781693219,-2.742736280885339
1789700897487795000,9.980794921875,-1.2844729701913893,1.5714286482334137,-3.3041447137489914
1789700897497843700,9.99084375,-0.9396274132385849,1.4882850856006145,-3.764735980123281
1789700897507892700,10.000892822265625,-0.044422786833345884,0.9605570962816476,-4.02887908398509
1789700897517941800,10.010941650390626,0.5624094265997409,0.22964929810762405,-4.190307371042668
1789700897527990800,10.02099072265625,0.35428690064549445,-0.6300304259300231,-3.9957536439746617
1789700897538039800,10.031039794921876,0.41301644525080916,-0.8384177403002977,-3.42026232522279
1789700897548089900,10.04108984375,0.6991714744344353,-0.054397945141792296,-2.5599697299838065
1789700897558139000,10.051138916015624,1.021568322083354,0.9746393976479768,-1.7134293273739516
1789700897568187600,10.061187744140625,1.472481951791048,1.3401368436157703,-1.1701502793103455
1789700897578237000,10.07123681640625,2.038377174679935,1.7715099065512419,-0.8062633372791111
1789700897588285700,10.08128564453125,2.3045982538595795,2.0576795487821102,-0.6724795746028422
1789700897598334700,10.091334716796876,2.072146465551853,2.001162711790204,-0.8296002275943756
1789700897608384800,10.101384765625,1.8464760079473257,2.120992621785402,-0.6692467301614582
1789700897618433800,10.111433837890624,2.344315639480948,2.2484037806898356,-0.04504281842783093
1789700897628482800,10.12148291015625,3.466167459568381,2.1373884607911107,0.7600861079938709
1789700897638531600,10.131531494140624,4.73603308160603,1.6851830377072095,1.3898231039352713
1789700897648580900,10.141580810546875,5.297694904708862,1.0716203469753265,1.2641874302707612
1789700897658629600,10.151629638671874,5.237192797473073,0.7017395713567733,0.9204825677856803
1789700897668679700,10.1616796875,4.834326282575726,0.7414338683634996,0.8004824157901108
1789700897678728700,10.171728759765625,4.194299071027339,1.0451707314670085,0.6770094731174409
1789700897688777700,10.18177783203125,3.600233692447841,1.6399457196205853,0.695046503458917
1789700897698826800,10.19182666015625,3.2490766142606735,2.4918553941786286,0.8677581818792969
1789700897708875800,10.201875732421875,2.944347817510366,3.3285067093282934,1.0338576756183058
1789700897718924800,10.2119248046875,2.280788631466031,3.9023248341709373,1.067379567600414
1789700897728974800,10.221974853515626,0.13178981238007545,4.156925618183613,1.0143791412316263
1789700897739023600,10.232023681640625,-2.131149274140596,3.8346260934293266,1.0463719239503144
1789700897749073000,10.242072998046876,-2.8021652059316633,3.5221856993883844,1.3437028655342758
1789700897759121700,10.25212158203125,-2.4219421922579407,3.401162195694446,1.776175852535665
1789700897769170700,10.262170654296876,-1.4885457823634147,3.0122616623073815,1.9935101512104272
1789700897779220000,10.272219970703125,-0.7587745870038867,2.018930423671007,1.8949705742642282
1789700897789269800,10.282269775390626,-1.4981640900582074,0.8036211522072553,1.5295561304047702
1789700897799318800,10.29231884765625,-3.461793774528801,-0.5621826321065425,1.1309859975270926
1789700897809367600,10.302367431640626,-6.05056494384408,-2.9796207909435033,0.19938757696524262
1789700897819416800,10.312416748046875,-9.548657235461473,-7.07930301142633,-1.7340864770859479
1789700897829465900,10.3224658203125,-11.612689368140696,-9.902560689747332,-3.2753660707712173
1789700897839514600,10.3325146484375,-10.007114120155572,-7.791345950132608,-3.1184310034796594
1789700897849564700,10.342564697265624,-7.19795218720436,-4.6051159604072565,-2.402844546947628
1789700897859613700,10.35261376953125,-4.536840004299581,-2.10962016389966,-1.6236770141258834
1789700897869662700,10.362662841796874,-2.133830183787644,0.14364917699992655,-0.7872098233714699
1789700897879711700,10.372711669921875,-1.0938637429654599,1.8411872538894414,-0.09373919092714786
1789700897889760800,10.3827607421875,-0.23140549412518738,2.9004800342112778,0.38187779514342546
1789700897899810000,10.39281005859375,0.09964052392542362,1.6696610589265823,0.38054800784438847
1789700897909859800,10.40285986328125,0.4330845430284738,-2.5597464426219463,-0.5217568059548735
1789700897919909000,10.4129091796875,3.1697303980842233,-6.377645857656002,-1.3146413139618933
1789700897929958000,10.4229580078125,6.819594675141572,-7.187347791081667,-1.4569859842345119
1789700897940007000,10.4330068359375,7.207636545872687,-5.978989069408178,-2.0414947221785784
1789700897950056200,10.44305615234375,5.717766821429133,-3.7978491451740264,-3.318297742263973
1789700897960105000,10.45310498046875,5.0748377509593965,-0.7819903351575136,-4.310835200174153
1789700897970155000,10.463155029296875,4.445118290674686,1.7304209403157234,-3.950367857328057
1789700897980203800,10.473203857421876,3.6118133633434772,2.5541508145719765,-2.4489424273863434
1789700897990253000,10.483253173828125,2.370762040118873,2.785537311735749,-1.1638342280313372
1789700898000302000,10.493302001953126,1.8410028372332452,2.728884281143546,-0.12308745048642158
1789700898010350800,10.503350830078125,1.850255818746984,2.4270991366297006,0.7460682501658796
1789700898020400000,10.513400146484376,1.740266919286549,2.312717555168271,1.285328856368363
1789700898030450000,10.523449951171875,1.8554919658347964,2.4392531002819537,1.7428066668972373
1789700898040499000,10.5334990234375,2.5301275494277475,2.579174781191349,2.056948896420002
1789700898050548000,10.5435478515625,3.0153111130058763,2.0794430523008107,2.0430887133717537
1789700898060597000,10.553596923828126,3.5659739877104757,1.1613514713048934,1.6273814216017721
1789700898070646000,10.56364599609375,3.1423031697154045,0.1730921291053295,0.5016670808672905
1789700898080695000,10.573695068359376,2.0250445226371285,-0.5029530290246009,-0.5563415048629046
1789700898090745000,10.5837451171875,1.680341296764463,-0.2561106040537357,-0.8307090656191111
1789700898100794000,10.593794189453124,2.14794127285704,0.19629940169155596,-0.34175387454777956
1789700898110843000,10.6038427734375,2.4053566758990286,0.6184831959992647,0.4577975440025329
1789700898120892200,10.61389208984375,2.677819864338636,0.5511994657993317,1.061798333401978
1789700898130941000,10.62394091796875,2.443427609487623,0.4437701876938343,1.2407181457474827
1789700898140990000,10.633989990234374,1.4060278042830525,0.6391974827259779,1.289468732652068
1789700898151040000,10.6440400390625,-0.4755179096102714,1.1023673674166201,1.0573960067898034
1789700898161089000,10.654089111328124,-2.2104759088337422,1.5163801302284001,0.6618690410003065
1789700898171138000,10.664137939453125,-2.2557005135692654,1.5701701726049184,0.4298305096685886
1789700898181186800,10.674186767578124,-0.5787818847298621,1.2117460260242223,0.4710702825516462
1789700898191236000,10.684236083984375,1.6042495523393152,0.8657721956938504,0.6281672624066472
1789700898201284900,10.694284912109374,3.0295594185888763,1.0050058943390845,0.732055799165368
1789700898211335000,10.7043349609375,2.9150515803992745,1.4747446360260248,0.8282488129854202
1789700898221384000,10.714384033203125,1.139006441571191,1.8927818320482968,0.8975640490129589
1789700898231433000,10.724432861328125,-1.416408766913414,1.9108073180824516,0.9158166218012571
1789700898241482000,10.73448193359375,-3.5733985847532748,1.6153718348562716,0.8438195993438362
1789700898251531000,10.744531005859375,-4.280481855225563,1.2777549139827489,0.8707701501116156
1789700898261580000,10.754580078125,-3.5381934158593413,0.92670275747478,1.0619763203173875
1789700898271630000,10.764630126953126,-2.2917519240289925,0.5729173766106367,1.2859247764348982
1789700898281678800,10.774678955078125,-1.4492320091068744,0.25440438465774057,1.3924813633590936
1789700898291728100,10.78472802734375,-1.3049907114326953,-0.1760071397691965,1.0194874241560696
1789700898301777000,10.79477685546875,-1.813062544775754,-0.6902543007463217,0.14882774868160487
1789700898311826000,10.804825927734376,-2.317348137578368,-0.9268623319506645,-0.7562862773194908
1789700898321875000,10.814875,-2.4284715940266848,-0.7922790894597769,-1.191572714306414
1789700898331925000,10.824925048828124,-2.4798919846624137,-0.441169065284729,-1.239650808776915
1789700898341974000,10.83497412109375,-2.984856353509426,-0.2932914569348097,-1.0394795340880751
1789700898352022800,10.845022705078126,-3.3452748887777326,-0.6010626901209354,-0.6628033992409705
1789700898362072000,10.855072021484375,-3.474603279480338,-1.2744459355652331,-0.06915420024693011
1789700898372120800,10.865120849609376,-2.9036861367762086,-1.7743670495480297,0.5887092583738267
1789700898382171000,10.8751708984375,-2.0850727287508546,-1.7177777318418026,1.3076815579518675
1789700898392220000,10.885219970703124,-1.5848557005614041,-1.2014631169408558,1.969588008353114
1789700898402269000,10.89526904296875,-1.577409914600104,-0.650118689712882,2.462301967436075
1789700898412318000,10.90531787109375,-1.9047960949689149,-0.13148644551932812,2.857496632531285
1789700898422367000,10.915366943359375,-2.169110463744402,-0.025027473750710485,3.210247994172573
1789700898432416000,10.925416015625,-2.3187083200156686,-0.4165723841667175,3.4613083290994164
1789700898442466000,10.935466064453125,-2.3836171377778053,-1.2845306917279957,3.668969082760811
1789700898452514800,10.945514892578124,-1.695608131740242,-2.5364485691428182,3.6716868172869086
1789700898462564000,10.955564208984375,-0.703728772412613,-3.6430291703402995,3.499965684273839
1789700898472612900,10.96561279296875,-0.06963423884883523,-4.110456127953529,3.177528212353587
1789700898482662000,10.975661865234375,0.242067977110669,-4.226529315763711,2.6854212792530654
1789700898492711200,10.985711181640625,0.39819209334552286,-4.206425854411721,2.2756059681311247
1789700898502761000,10.995760986328126,0.49882740046195684,-4.1349329820841545,1.9293536131203173
1789700898512810000,11.00581005859375,0.7830963236380368,-3.936320627275109,1.4493861767552791
1789700898522858800,11.015858642578126,1.1372235767424106,-3.7591502889454365,1.0182834551937878
1789700898532908000,11.025907958984375,1.5798007552593945,-3.7656443271398543,0.6214756558135152
1789700898542957000,11.03595703125,2.0345359890818595,-3.4516046812087295,0.13232143503874538
1789700898553005800,11.046005859375,2.3322487695902585,-2.7312925113290545,-0.30818595146685834
1789700898563055000,11.05605517578125,2.5976257991611957,-1.573949691143632,-0.6396040177002549
1789700898573105000,11.06610498046875,2.909996635097265,-0.05899696336984634,-0.9628095513835548
1789700898583154000,11.07615380859375,0.6880629281818866,1.1912655480533838,-2.3096331792868674
1789700898593203000,11.086202880859375,-4.947454064583778,1.5992881305396556,-5.099012407273054
1789700898603252000,11.096251953125,-3.174491621136665,2.1083990976721045,-5.237223192611337
1789700898613301000,11.106301025390625,-2.0738884869135914,1.4293646945983172,-5.612226718071103
1789700898623350800,11.116350830078124,0.056836716596037146,0.1489671571522951,-5.910873564559221
1789700898633400000,11.126400146484375,1.9405368320442735,-1.1472650782853364,-6.175616387879848
1789700898643449000,11.136448974609374,1.7816228658951818,-1.858265814462304,-6.017339550590515
1789700898653497900,11.146497802734375,0.8131213864803314,-1.6257447603106499,-5.122337753280997
1789700898663547100,11.156547119140624,0.4788251344621181,-0.3167705321997404,-3.7366187236636876
1789700898673596000,11.166595947265625,1.056923128581047,1.203894728001952,-2.5318776079654692
1789700898683646000,11.17664599609375,2.1957763523519036,2.064894886988401,-1.8783495482005177
1789700898693695000,11.186695068359375,2.9856854978099463,2.5237141752541064,-1.5161349232956767
1789700898703744000,11.196743896484374,3.4167665920615193,3.0956963168412446,-1.3177166297540068
1789700898713793000,11.20679296875,2.82313434420228,3.152291479766369,-1.2670584556624294
1789700898723841800,11.216841796875,1.8168442552715538,2.865065021958947,-1.3989705792479217
1789700898733891000,11.22689111328125,0.8728016559392213,2.868620084092021,-1.3112567860901354
1789700898743941000,11.236941162109375,1.5522230125039815,2.9583500393778084,-0.6305946356840432
1789700898753990000,11.246989990234376,2.8951150000467893,2.781533336791396,0.20838804502263664
1789700898764039000,11.257038818359375,3.5126550699770447,2.3055098157465457,0.9221180600330233
1789700898774088000,11.267087890625,3.9592031979516147,1.6083803685337303,1.4566690272398293
1789700898784137000,11.277136962890625,4.6676001813709735,0.7907698539406061,1.5514420912593603
1789700898794186000,11.28718603515625,4.9386909124135965,0.0648936201930046,1.3669276737771927
1789700898804236000,11.297236083984375,4.721605327802896,-0.15662147129774093,1.2072783790908752
1789700898814285000,11.30728515625,4.326453625066578,0.4830588265091181,1.2607061640262602
1789700898824333800,11.317333740234375,3.617686931551993,1.7129712083429096,1.4553572139889002
1789700898834383000,11.327383056640626,3.054934098342061,2.6791081505835055,1.4897636337205766
1789700898844432000,11.337431884765625,2.5451222894638774,3.2189059324026106,1.4631804549604654
1789700898854481000,11.34748095703125,1.871121496643126,3.508133793160319,1.4173346495866774
1789700898864531000,11.357531005859375,0.7628051576942205,3.4686195288956165,1.3733043692022562
1789700898874580000,11.367580078125,-1.2285440160900354,3.4378555573195215,1.571813117506355
1789700898884629000,11.37762890625,-2.630855576328933,3.2297546586751937,2.0053307912550866
1789700898894677500,11.387677490234376,-2.741991892258823,2.7985493535220622,2.5682374998524784
1789700898904726500,11.3977265625,-2.885386509975791,2.3281004177391527,3.0971248883396387
1789700898914775300,11.407775390625,-3.154478468416631,1.7872341299057006,3.526299272187054
1789700898924825300,11.417825439453125,-3.6590681587323544,0.9608084406942129,4.033987513040006
1789700898934874600,11.42787451171875,-4.9620250262498855,-2.7804098857194184,3.676349548400938
1789700898944923400,11.43792333984375,-9.03138225109577,-11.804335391068458,-0.4377244777888059
1789700898954972400,11.447972412109374,-14.133823463773727,-13.148683130377531,-3.2762215185567736
1789700898965021400,11.458021484375,-13.614291055870055,-8.41059779241681,-3.6093133632212875
1789700898975070500,11.468070556640624,-9.863854819256067,-3.6953970709592103,-2.9706454573273655
1789700898985120500,11.47812060546875,-6.971295641171932,-0.7448661808997392,-2.3202453203245996
1789700898995169300,11.488169189453124,-3.7924844032704828,1.574728858822584,-1.7144193613246081
1789700899005218600,11.498218505859375,-0.9487205280154943,3.691298403468728,-1.1412407034292817
1789700899015267300,11.508267333984374,0.8979904577314853,3.237610632872581,-0.7019169737502932
1789700899025316400,11.51831640625,3.080622958610952,-0.5264133995890617,-0.2908735821381211
1789700899035365600,11.52836572265625,5.87133650394082,-5.579787506759167,-1.0795815351128577
1789700899045415400,11.53841552734375,9.141540077382325,-8.1831807834059,-1.7670459128797054
1789700899055464400,11.54846435546875,8.57979232956171,-7.569026556521654,-2.754121305991709
1789700899065513500,11.558513427734376,6.367159534955024,-5.448624886366725,-5.518573451861739
1789700899075562500,11.5685625,6.728173113507032,-2.0773037021845577,-6.365877093929052
1789700899085611500,11.578611572265626,6.878051540285348,1.0481137991815805,-4.575476901207864
1789700899095660500,11.58866064453125,6.36021073873043,2.7551778293073177,-1.8141335350081325
1789700899105710600,11.598710693359376,5.371143587279319,3.719588093885779,-0.18562924685627222
1789700899115759400,11.60875927734375,4.499538447648287,4.345884593984485,0.7004910326004028
1789700899125808400,11.618808349609376,3.861496856959164,4.509238003885746,1.1894348254948854
1789700899135857700,11.628857666015625,2.973234889298677,4.299853495171666,1.3964827079549431
1789700899145906400,11.638906494140626,-2.433101591914892,4.319235071989894,1.9136377192027865
1789700899155955500,11.64895556640625,-6.965043595039844,3.559319205996394,2.0913459638014436
1789700899166005200,11.659005126953126,-5.260845475739241,2.0094518167078492,0.16527473335266113
1789700899176054500,11.669054443359375,-1.1430921765148638,0.1758235998958349,-0.9967121132463216
1789700899186103600,11.679103515625,3.006685908001661,-1.0658540385335684,-1.6575363213688135
1789700899196152600,11.689152587890625,5.666023190188407,-0.8401327275246381,-1.887662004816532
1789700899206201600,11.69920166015625,6.783062057036161,-0.026681086176633832,-1.4649185307994483
1789700899216250400,11.70925048828125,5.917125610691309,0.687116587242484,-0.505252538138628
1789700899226300400,11.719300537109374,4.771065232020616,0.6734218238890171,0.40724429159015413
1789700899236349700,11.729349609375,3.7682396043300628,0.25740181290805336,0.8935396158024668
1789700899246398500,11.7393984375,2.506786421328783,0.14671265622377394,1.1181523810476064
1789700899256447500,11.749447509765625,1.1177658659480512,0.10522679962515831,0.9919140653148293
1789700899266496500,11.75949658203125,-0.6477298948802054,0.28659166703522204,0.768992321896553
1789700899276545500,11.769545654296875,-2.550341485416889,0.7200754385143519,0.5758845558531582
1789700899286595600,11.779595703125,-3.4047651886224743,0.9203110106110572,0.49741658381596204
1789700899296644400,11.789644287109375,-2.478447338812053,0.8158996190220117,0.6588213438674807
1789700899306693600,11.799693603515625,-0.6426280416965484,0.6471335364222526,0.8743098685450852
1789700899316742400,11.809742431640625,1.0133609040997922,0.750189421749115,1.0348279088899492
1789700899326791400,11.81979150390625,1.7826736901223659,1.039694345882535,1.1278177427545188
1789700899336840400,11.82984033203125,1.7362638211250303,1.3332055830478668,1.2727724493950605
1789700899346890500,11.839890380859375,1.1264403899867086,1.5479109945237635,1.409362647794187
1789700899356939500,11.849939453125,-0.03273552737738937,1.622465592509508,1.4370359598785638
1789700899366988500,11.859988525390625,-1.5440578262269495,1.5165075560003518,1.446472481265664
1789700899377037600,11.87003759765625,-3.0925720473408695,1.25833826585114,1.542794382162392
1789700899387086300,11.88008642578125,-3.7440953431546684,1.0286807844370602,1.825917204043269
1789700899397135600,11.890135498046876,-3.1617993128240105,0.8747843541890382,2.311417578485608
1789700899407185700,11.900185546875,-2.423023265492916,0.7393640763521194,2.609649122171104
1789700899417234400,11.910234375,-2.1640958504527807,0.059305590927600856,2.1612220485821365
1789700899427283500,11.920283447265625,-2.2351772193700072,-0.774165925142169,0.9186497994005679
1789700899437332500,11.93033251953125,-2.4082464059911666,-0.9539771333694458,-0.3225552530810237
1789700899447381500,11.940381591796875,-2.246600530660152,-0.6903261969387531,-0.7824526919722556
1789700899457430300,11.95043017578125,-2.294484563863277,-0.3742752111852169,-0.9446005254760385
1789700899467480300,11.960480224609375,-3.106011374628544,-0.41500586550235746,-1.1644587896704672
1789700899477529600,11.970529541015624,-4.262352908816934,-0.7580816363036632,-1.314747258554399
1789700899487578400,11.980578369140625,-3.9321138232350346,-0.8744114292234182,-1.1076534911260008
1789700899497627400,11.99062744140625,-2.23965304960981,-0.5619634363979101,-0.34371509161815045
1789700899507676400,12.000676513671875,-0.9548100770622491,0.06484978105127812,0.5584487062752247
1789700899517725400,12.010725341796874,-0.8237677220486104,0.6843418618321419,1.323652449543774
1789700899527775500,12.020775390625,-1.5982067650437355,0.989719477880001,1.8798536691531538
1789700899537824500,12.030824462890624,-2.7315204748660324,0.9026742316335439,2.289912433642149
1789700899547873500,12.04087353515625,-3.6187171513825653,0.4443564631491899,2.6517215464860198
1789700899557922300,12.05092236328125,-3.554658812969923,-0.3753682671189308,2.974184737369418
1789700899567971600,12.0609716796875,-2.9487673875182865,-1.4059703750073909,3.199087717732787
1789700899578020600,12.0710205078125,-1.728115439852327,-2.448683776450157,3.2086601404592394
1789700899588070400,12.0810703125,-0.4509235665798187,-3.3497768763720988,2.950166732922196
1789700899598119400,12.091119384765625,0.31720906974747776,-3.7957805222064254,2.632302560266852
1789700899608168400,12.10116845703125,0.6734418437637388,-3.718643506512046,2.228707000442594
1789700899618217500,12.111217529296875,0.8847697416305541,-3.564863980641961,1.7540177967414259
1789700899628266500,12.1212666015625,1.0356896402858198,-3.6297786436229944,1.30442255615592
1789700899638315500,12.1313154296875,1.3400456582009792,-3.7176533264309164,0.838850724890083
1789700899648365600,12.141365478515626,1.8610422934383153,-3.86561685949862,0.45127749458402394
1789700899658414300,12.151414306640625,2.321606379544735,-4.3085605332404375,-0.0004176408901810646
1789700899668463400,12.16146337890625,2.681480140411854,-4.803244915613532,-0.5268598281823098
1789700899678512600,12.1715126953125,2.9756717610567804,-4.657352928122878,-1.0173885521806776
1789700899688561400,12.1815615234375,2.975557779288292,-3.519636599427461,-1.5810507553204893
1789700899698610400,12.1916103515625,2.3327204787552356,-1.6305483612000942,-2.249450513263792
1789700899708660500,12.201660400390624,-3.4557939495921133,-0.20841361785531043,-4.358884945333004
1789700899718709500,12.21170947265625,-7.984418206471204,-0.263553321275115,-6.832080647227167
1789700899728758500,12.221758544921874,-4.019880954015255,-0.24029753337204454,-6.404305901044607
1789700899738807600,12.2318076171875,-1.5849543386302887,-0.8935346473664045,-6.424826711025834
1789700899748856600,12.241856689453124,1.3298526193581521,-1.5753636495947836,-6.404729679414629
1789700899758905300,12.2519052734375,3.085117055159807,-1.9316917006790637,-6.269827287971973
1789700899768955400,12.261955322265624,3.1544369673624635,-1.574838748937845,-5.666376241409778
1789700899779004700,12.272004638671875,2.5581249788999556,-0.39821605874300003,-4.440851865401863
1789700899789053400,12.282053466796874,1.8347560517981647,1.1918424711585045,-3.1064310613453388
1789700899799102500,12.2921025390625,1.8160615804612636,2.2788901043683287,-2.1414193237423897
1789700899809151500,12.3021513671875,2.1046660486236215,2.913784336942434,-1.5692933897703885
1789700899819201500,12.312201416015625,2.3521835963770745,3.398483331874013,-1.1806859941110015
1789700899829250600,12.32225048828125,2.4078759652435777,3.9039562347650527,-0.9100089584358036
1789700899839299300,12.33229931640625,1.8626158263653516,3.8239381106764077,-0.9421448028869926
1789700899849348600,12.3423486328125,1.2863847951620817,3.4800188747882843,-1.037091323777288
1789700899859397400,12.3523974609375,1.3549655794352293,3.3447119941979646,-0.6105854284867644
1789700899869446400,12.3624462890625,2.6891157498568297,3.1391023278474806,0.1327636258482933
1789700899879495400,12.372495361328125,4.158619562619925,2.6907120791375636,0.9463711884103715
1789700899889545500,12.38254541015625,4.814535540434718,1.991874658963084,1.2361071448206902
1789700899899595000,12.392594970703126,4.874583766423165,1.5556097323328255,1.2924964099101721
1789700899909644000,12.40264404296875,4.692217320755124,1.254287529155612,1.3114951248906552
1789700899919693000,12.412693115234376,4.4462738904505965,1.1563234140098095,1.194047872248292
1789700899929742000,12.4227421875,4.059603308072686,1.485921279078722,1.0596737424634397
1789700899939791000,12.432791015625,3.6309921110659835,2.3191250841230153,1.0802741935521363
1789700899949841000,12.4428408203125,3.407276879182458,3.1600404864579437,1.0985703132212161
1789700899959890200,12.45289013671875,3.268819717867672,3.6994197506040334,1.1187305462617427
1789700899969939000,12.46293896484375,2.7968536555200814,3.952745692375302,1.2004582507472485
1789700899979988200,12.47298828125,1.7012629426315427,3.8404976158112287,1.2395077470444142
1789700899990037200,12.483037353515625,-0.5783060839116573,3.4151685092151163,1.2834227304860948
1789700900000087000,12.493087158203124,-4.42416668806076,3.1122271804034707,1.6433344852760434
1789700900010136000,12.503135986328125,-5.637087018561363,2.892069933262467,2.318306607346982
1789700900020185000,12.51318505859375,-5.070220028030872,2.887311340558529,2.866548246254027
1789700900030234000,12.523234130859375,-4.456494255691767,2.5304279936790466,3.1877246121972798
1789700900040283100,12.533283203125,-4.635942768086493,1.652812799978256,3.5515789671331643
1789700900050332200,12.543332275390625,-6.321777839961648,-2.730111192589998,2.7440643146187065
1789700900060382200,12.55338232421875,-9.555724105107783,-11.329579698002338,-0.5279705659031868
1789700900070431000,12.563430908203125,-11.862200720059871,-12.525117516547441,-1.910121966166794
1789700900080480000,12.57347998046875,-10.3194872941792,-8.374549158436059,-2.257194405388832
1789700900090529300,12.583529296875,-6.7419701681911945,-4.136519374492765,-2.6172099128141997
1789700900100578000,12.593578125,-4.961127200627327,-1.777512946358323,-2.6043419556736946
1789700900110627000,12.603626953125,-3.6628505998805165,-0.039971360382437704,-2.4142216810084878
1789700900120677000,12.613677001953125,-2.0087541898325085,1.7985253392487763,-2.0552290868900713
1789700900130726100,12.62372607421875,-0.20235680203437803,1.7358920652031897,-1.9989622791364787
1789700900140775200,12.633775146484375,1.6869433253780006,-1.3039064233273268,-1.9511564257360994
1789700900150824200,12.64382421875,4.9546454373925926,-4.397849174499512,-1.8992666640229523
1789700900160873200,12.653873291015625,8.154733856600522,-6.194540868580341,-2.466218848618865
1789700900170922000,12.663921875,8.213976319164038,-5.734841874870658,-2.9837586214005944
1789700900180972000,12.673971923828125,6.17514643228054,-3.6709950356304644,-3.93441625495851
1789700900191021300,12.684021240234374,4.993024560147523,-1.377728615385294,-4.380138745763897
1789700900201070000,12.694070068359375,3.4957939515471455,2.414839374515414,-2.264045732588321
1789700900211119000,12.704119140625,3.4657004265785214,2.4328975937753916,-2.305718197800219
1789700900221168000,12.714168212890625,1.4063281024038792,3.6066479434043166,-1.1618031605951487
