time,seconds_elapsed,z,y,x
1789484774229479400,0.0884794921875,-0.6743436149090528,-0.5181242946714163,-0.12147175891809164
1789484774239525600,0.098525634765625,-0.7134773554235696,-0.19006430669426916,-0.17801886318409815
1789484774249571600,0.108571533203125,-0.28023908313810825,0.14693535906374453,-0.18838530409876256
1789484774259617500,0.118617431640625,0.16298925276398657,0.11613047095537185,-0.11999616994019598
1789484774269663500,0.12866357421875,0.40074060878455636,-0.08168547277897596,-0.007828218540782108
1789484774279709700,0.138709716796875,0.3038713031381369,-0.19090601821541786,0.05130442697270773
1789484774289755600,0.148755615234375,0.07038169621527195,-0.11670447145104408,0.06276059021968394
1789484774299802600,0.158802734375,-0.13148118482232093,0.007236088733375072,0.09542518038586713
1789484774309848600,0.1688486328125,-0.1710842964142561,0.09926526087224483,0.12959205574062652
1789484774319894500,0.17889453125,-0.09695172323286533,0.12845160786807536,0.09765693062646313
1789484774329940500,0.1889404296875,-0.010164835661649703,0.03217939133197069,0.08040624662339686
1789484774339986700,0.198986572265625,0.19839841979742048,-0.04525485374331474,0.041536472541000694
1789484774350032600,0.20903271484375,0.29148060812056065,-0.1052726845934987,0.031019900832232085
1789484774360078600,0.21907861328125,0.2295586972147226,-0.16078911237120627,-0.019615294242557136
1789484774370124500,0.22912451171875,0.14254969132542608,-0.17740677743405103,-0.09965871716924012
1789484774380171500,0.239171630859375,0.016177812340855597,-0.14693331323713063,-0.09763285563113168
1789484774390217500,0.249217529296875,-0.11148059932291507,-0.09152736009657382,-0.050709648550488054
1789484774400263400,0.259263427734375,-0.22021920646131038,0.001119067157804966,-0.058528122015390545
1789484774410309600,0.2693095703125,-0.2323819379419088,0.0686971041291952,-0.06923700142586603
1789484774420355600,0.27935546875,-0.12822013719975947,0.09841565830558538,-0.06308173019913955
1789484774430401500,0.289401611328125,-0.07173954056501389,0.11794921081513166,-0.06316102424673736
1789484774440447500,0.299447509765625,-0.02951543281972408,0.13307254566699267,-0.058177372348960484
1789484774450494500,0.309494384765625,-0.023469722914695738,0.03503945693820715,-0.05812067372566089
1789484774460540400,0.31954052734375,-0.04387713564932346,-0.044347383509576316,-0.074968585614115
1789484774470586600,0.329586669921875,-0.029990649116039273,-0.021981530183553696,-0.08675154226319864
1789484774480632600,0.339632568359375,0.042457331979274746,-0.012158932088315486,-0.08867078335536643
1789484774490679000,0.349678955078125,0.06997486898005008,-0.09135609518289566,-0.05376023176014423
1789484774500725000,0.35972509765625,-0.016910802790522574,-0.09122487001866102,-0.009898184082098305
1789484774510771000,0.36977099609375,-0.16768179449439047,-0.007818564796447753,0.018821440451126544
1789484774520818000,0.37981787109375,-0.0790367118358612,0.002276420499384403,0.008060483793541788
1789484774530864000,0.389864013671875,-0.025238486152887343,-0.07768646627068519,-0.04876328198937699
1789484774540910000,0.39991015625,-0.035119828698039056,-0.13904431355297564,-0.06026696503935382
1789484774550956000,0.4099560546875,-0.08253273725807667,-0.10160276390910147,-0.06251569381421432
1789484774561002000,0.420001953125,-0.09613514615297317,0.0017760697618126868,-0.05858058285498991
1789484774571048000,0.4300478515625,-0.10437982740700244,0.061326867622137064,-0.030667087072879073
1789484774581095000,0.440094970703125,-0.11036007086038589,0.029047815307974813,0.0042395007332786915
1789484774591140900,0.450140869140625,-0.13445932385027407,0.015151684163510799,0.004592241427395493
1789484774601187000,0.46018701171875,-0.09644844988584518,0.007765081043541431,-0.016202453591767696
1789484774611233000,0.47023291015625,-0.07443184838891029,-0.07397036835700273,-0.034539745521452274
1789484774621279000,0.480279052734375,-0.130231477022171,-0.1068544008269906,-0.04331109926439822
1789484774631325000,0.490324951171875,-0.08271101643443107,-0.056179567861557006,-0.07425703981127589
1789484774641371100,0.50037109375,0.015555296528339386,-0.0726490566253662,-0.08776481095897033
1789484774651417900,0.51041796875,0.23595278216600415,-0.05487783761322498,-0.02677691123392433
1789484774661464000,0.520464111328125,0.3821463829517364,-0.043107904842495916,0.07500305413929745
1789484774671510000,0.530510009765625,0.2393453472137451,-0.08699526962488889,0.047303694298211484
1789484774681556000,0.540555908203125,0.018768997877836226,-0.025226503454148768,-0.01399405682729557
1789484774691602000,0.550601806640625,-0.18598083677291868,0.029758301664888857,-0.04332328289253637
1789484774701648000,0.56064794921875,-0.2365431492745876,-0.010070143115520477,-0.03086222605248913
1789484774711694000,0.570694091796875,-0.14383154782950877,0.05219079048633575,-0.03316275807982311
1789484774721741000,0.580740966796875,-0.0745101743221283,0.07587737102210522,-0.07251226023687049
1789484774731787000,0.590787109375,0.05877192244231701,0.03633504970669746,-0.06806881616301834
1789484774741833000,0.6008330078125,0.1569628320813179,-0.008323883970081805,-0.05618915767380967
1789484774751879000,0.61087890625,0.1353302614659071,0.022671558274328707,-0.0871621506243944
1789484774761924900,0.6209248046875,-0.01946340988278389,0.021459552136063573,-0.1595923768673092
1789484774771971000,0.63097119140625,-0.10344050073027611,0.020325871931016443,-0.175832641718816
1789484774782018000,0.64101806640625,-0.05939794538617134,0.017376958997547626,-0.11822302278783171
1789484774792064000,0.65106396484375,0.10349076961278915,0.004646656762063503,-0.08304116170424967
1789484774802110000,0.66110986328125,0.10392390033304691,-0.04529898514598608,-0.06292557152304798
1789484774812156000,0.671156005859375,-0.018790040665864944,-0.023268062862753867,-0.10716523860814049
1789484774822201900,0.681201904296875,-0.03408347138762474,-0.012608137160539627,-0.18046368078663944
1789484774832248000,0.691248046875,0.04623392790853977,-0.1400356626778841,-0.2352057997236028
1789484774842294000,0.7012939453125,0.2007593037098646,-0.11041150878667831,-0.12860047828685492
1789484774852341000,0.711341064453125,0.2286269693225622,-0.0855006471529603,-0.03913149375850335
1789484774862387000,0.721386962890625,0.15687047762274742,-0.04237345308810472,-0.020886994678806513
1789484774872433000,0.731432861328125,0.004912321960926056,0.016907003398239612,-0.07135200255215167
1789484774882478800,0.741478759765625,-0.08844459165036678,-0.01967325324118137,-0.07551666621724143
1789484774892525000,0.751525146484375,-0.10408347480893135,-0.0670066668242216,-0.023002269799727946
1789484774902571000,0.761571044921875,-0.09393208315074443,-0.05044716168940067,0.0050001463748514646
1789484774912617000,0.771616943359375,-0.04871113167703151,-0.04001841439455747,0.014911482199467717
1789484774922664200,0.781664306640625,0.01115267765522003,0.01632891124933958,0.03807917169397697
1789484774932710100,0.791710205078125,0.04120587061345577,0.02369534836411476,0.056308929862268264
1789484774942755800,0.801755859375,0.006772270613908767,0.08134645008295774,0.057819444023072715
1789484774952802000,0.811802001953125,-0.1051917283117771,0.12988544006347655,0.0470131686527282
1789484774962848000,0.821847900390625,-0.20023440305292606,0.17828706739991904,0.04001867012288421
1789484774972894000,0.83189404296875,-0.12661854722201824,0.09909721082895993,-0.020859211622737347
1789484774982941200,0.841941162109375,0.020307459491491316,-0.05812807158082723,-0.0569437206344679
1789484774992987100,0.851987060546875,0.04629997888207436,-0.16234510964155197,-0.051545642716903234
1789484775003033000,0.862033203125,0.08373919043838977,-0.15152268685400486,-0.06184842554451898
1789484775013079000,0.8720791015625,0.17896248244345186,-0.0627151071101427,-0.06412680053897202
1789484775023125200,0.882125244140625,0.19503624988794327,-0.0008899345770478248,-0.04062659115446731
1789484775033171000,0.8921708984375,0.1506751301139593,-0.036631694565713406,-0.031828404203522946
1789484775043217000,0.902216796875,0.13300327982306479,-0.08436842825263738,-0.017738357922155407
1789484775053264100,0.91226416015625,0.03885843070447444,-0.08546206870824098,-0.006163016141764819
1789484775063310000,0.92231005859375,-0.044998833155632016,-0.03489011159539222,-0.02582558359215036
1789484775073356000,0.93235595703125,-0.007792261311411857,-0.06464899778217077,-0.01758667449178174
1789484775083402200,0.94240234375,0.016838322076201437,-0.19346856217980385,-0.09019486938379705
1789484775093448200,0.9524482421875,-0.019388591080904006,-0.060728317207098,-0.042910263378545636
1789484775103494100,0.962494140625,-0.040482817035913464,-0.0014683189868927,-0.007362619456183165
1789484775113541000,0.972541015625,-0.0017360300123691558,0.01468932734876871,0.05123303310377523
1789484775123587000,0.982587158203125,0.027300094857811926,0.0890732449427247,0.11017534367693588
1789484775133633000,0.992633056640625,-0.056469490718841546,-0.028297873723506926,0.03803799943337217
1789484775143679200,1.00267919921875,-0.11344576191604137,0.011520634184777737,0.0004954918993636965
1789484775153725200,1.01272509765625,-0.11123919178247452,-0.008568214119970798,-0.008023403186164796
1789484775163771100,1.022771240234375,-0.08134265069067478,-0.09800444715619086,-0.007018591791484505
1789484775173817000,1.032817138671875,-0.014497311908006667,-0.09623159226477146,-0.005813581649586558
1789484775183864000,1.042864013671875,0.0013555062621831893,-0.04497866715043783,0.012473039538785815
1789484775193910000,1.052909912109375,-0.03199965085089206,-0.05440349809974432,0.030847832200955598
1789484775203956200,1.062956298828125,-0.13552899890840053,-0.0474959106683731,0.02591835817582905
1789484775214002200,1.073002197265625,-0.15784546013474463,-0.021972177833318708,-0.01005618765540421
1789484775224048000,1.083048095703125,-0.15287410146296024,-0.017758944052457808,-0.06571938522635028
1789484775234094000,1.093093994140625,-0.10958733292222023,-0.030906010395288466,-0.07189845745377242
1789484775244141000,1.10314111328125,-0.02645779881477356,-0.07096446453928947,-0.022528039884101597
1789484775254187000,1.11318701171875,0.012167992177605629,-0.08207739470601082,0.021578502340614793
1789484775264233200,1.123233154296875,-0.0021399346381425857,-0.07606997098475694,-0.015847758402582256
1789484775274279200,1.133279052734375,0.01018061775267124,-0.0011155600264668463,-0.15036231957143173
1789484775284325000,1.1433251953125,0.13519523690938948,0.034686697977781296,-0.2024591664303094
1789484775294371000,1.15337109375,0.12325462374687195,-0.034518940195441244,-0.11220929718995466
1789484775304418000,1.16341796875,-0.08309621635973453,-0.1639586823180318,-0.0762769647989422
1789484775314464000,1.173464111328125,-0.37805940589904785,-0.5335848986536265,-0.09697426385823636
1789484775324510200,1.18351025390625,0.03749707922339439,-0.20205109708607197,-0.3209870539162308
1789484775334556200,1.19355615234375,0.13168635200560092,-0.13452011412680148,-0.15609183966675771
1789484775344602000,1.20360205078125,0.2619230897247791,-0.13694967936128377,-0.08430204848553985
1789484775354648000,1.21364794921875,0.325885566547513,-0.006276303790509701,-0.036585261608101424
1789484775364695000,1.223695068359375,0.30039398241639137,0.0676890961304307,0.07261955653624609
1789484775374741000,1.233740966796875,0.2824357163995504,0.08424129474163054,0.12077577601056545
1789484775384787200,1.243787109375,0.21476912436187265,0.13873977764844894,0.08609225637055933
1789484775394833200,1.253833251953125,0.08783844245076179,0.16488602629601953,0.015429478191584347
1789484775404879000,1.263879150390625,-0.005585106655955315,0.127952426174283,-0.016860698304791002
1789484775414925000,1.273925048828125,-0.09207213449776172,0.06476882476955652,-0.028935093914810566
1789484775424971000,1.283970947265625,-0.12142039405703543,0.02593406720161438,-0.08284803201863541
1789484775435018000,1.29401806640625,-0.08311433653831482,0.04513999519199133,-0.07136007626075297
1789484775445064200,1.304064208984375,-0.13068681957423686,0.06788724905103445,-0.0708714890262112
1789484775455110100,1.314110107421875,-0.1459346575886011,0.05702332520931959,-0.11153134312946349
1789484775465156000,1.324156005859375,-0.11312953557372092,0.023226561808586118,-0.13439376606708392
1789484775475202000,1.3342021484375,-0.14400982700586318,-0.03538870876729488,-0.12452983131445944
1789484775485248000,1.344248046875,-0.06796469820141791,-0.06894552593231201,-0.12276948884474113
1789484775495294700,1.354294677734375,-0.06464344482421874,-0.019411387434601784,-0.0811908941950649
1789484775505341000,1.3643408203125,-0.1436029997706413,0.013296996207535267,-0.06752123788339086
1789484775515387000,1.374386962890625,-0.19959318253993988,-0.10475041428506374,-0.22270168919311836
1789484775525432800,1.384432861328125,-0.13960194743573665,0.14851707529723643,-0.03980293587981723
1789484775535478800,1.394478759765625,-0.13801263241767883,0.1972995186448097,0.028005028256773947
1789484775545524700,1.404524658203125,-0.06666296795308589,0.154476568223536,-0.009412802584795281
1789484775555571700,1.41457177734375,0.05038403332531452,0.045675124981999396,-0.08941195711148903
1789484775565618000,1.424617919921875,0.18182079448401928,-0.1268660922423005,-0.07800798984263092
1789484775575663900,1.434663818359375,0.23981004211604592,-0.1635585770845413,-0.05360815560412593
1789484775585709800,1.444709716796875,0.19998130507469175,-0.13595043919086455,-0.002323894636612385
1789484775595755800,1.454755859375,0.13642916261851787,-0.12280045023858546,0.014447965474100783
1789484775605801700,1.4648017578125,0.05982581540942192,-0.11147796897441148,0.0034811840461101383
1789484775615848700,1.4748486328125,-0.014481529816985129,-0.07787059066593646,-0.03061057111267
1789484775625895000,1.48489501953125,-0.11087152751386165,-0.04225099575221538,-0.04752237398361321
1789484775635940900,1.49494091796875,-0.19969956552386284,0.01308686058819294,-0.06089860943981912
1789484775645986800,1.50498681640625,-0.15324936451613902,0.05608867470771074,-0.06833286479352974
1789484775656032800,1.51503271484375,-0.1167863045156002,0.06049012453705072,-0.12037598130432889
1789484775666078700,1.52507861328125,-0.1466536195129156,-0.010472878697514534,-0.1344392309103161
1789484775676125700,1.535125732421875,-0.14447627547383307,-0.06177519591152668,-0.11259011320108547
1789484775686171600,1.545171630859375,-0.15607085167765616,-0.043731881959736346,-0.12075117129227146
1789484775696217900,1.5552177734375,-0.1470154385626316,-0.022939561560750006,-0.08671308254948816
1789484775706263800,1.565263916015625,-0.14760989732444285,-0.027331074517965317,-0.08901572433551773
1789484775716309800,1.575309814453125,-0.15141455030441284,0.018134499366581437,-0.1343390036725439
1789484775726355700,1.585355712890625,-0.13747837941050528,-0.05548720168322324,-0.2015065053479746
1789484775736402700,1.595402587890625,-0.04976911629736423,0.15221008459627627,-0.0803419674818404
1789484775746448600,1.60544873046875,0.026234511452913282,0.254480080242455,-0.055387390003982
1789484775756494800,1.615494873046875,0.04305822048187256,0.1580260773986578,-0.08411569560058414
1789484775766540800,1.625540771484375,0.008487842360138893,0.05624386526942253,-0.09375179468039423
1789484775776586800,1.635586669921875,-0.034168811583518977,0.06571224309951067,-0.12182236245404929
1789484775786632700,1.6456328125,-0.06330255160927772,0.07053688677698373,-0.14745544654824772
1789484775796679700,1.6556796875,-0.1118278053253889,0.04566518810987472,-0.11105830052392557
1789484775806725600,1.6657255859375,-0.20075871918797492,0.03646276773959398,-0.02920934427892789
1789484775816771800,1.675771728515625,-0.25193945584893224,0.061143912270665166,0.06802002685153856
1789484775826817800,1.68581787109375,-0.19796412003338335,0.12359306192100047,0.17042354921689257
1789484775836863700,1.69586376953125,-0.09797580558359623,0.058660571022331714,0.23686266355253754
1789484775846909700,1.70590966796875,0.10999474467933178,-0.17147826416790485,0.2497092856440693
1789484775856956700,1.715956787109375,0.27175416338741776,-0.1582671926781535,0.36963706652317196
1789484775867002600,1.726002685546875,0.18209902690351007,-0.02840922514349222,0.4116173190426081
1789484775877048800,1.736048828125,0.021920155385136603,0.10366203452646731,0.3683890392234549
1789484775887094800,1.7460947265625,-0.11444061817228793,0.23472674750238656,0.3985944636013359
1789484775897140700,1.756140625,-0.10166823036074638,0.28344167857170105,0.4070621764888987
1789484775907186700,1.766186767578125,-0.0000011690437793731689,0.22779022623747586,0.33278807594496757
1789484775917233700,1.776233642578125,-0.050826516395807264,0.18563743016272782,0.18480340875769033
1789484775927279600,1.786279541015625,-0.13507073374688625,0.1413683725863695,0.016193713162885977
1789484775937325800,1.796325927734375,-0.15865268486440182,0.08106821766346693,-0.07607174281673505
1789484775947371800,1.806371826171875,-0.12267945420742034,0.05489712683558464,-0.11667484349776058
1789484775957417700,1.816417724609375,-0.06262333717346191,0.12486878094524144,-0.13056451750197448
1789484775967463700,1.826463623046875,-0.012010755789279936,0.1863473319977522,-0.15570442951805888
1789484775977510700,1.8365107421875,0.014428922846913337,0.07540390829145908,-0.23311500145681202
1789484775987556600,1.846556640625,0.023054712373018264,-0.00016980360895395277,-0.3009378435021266
1789484775997602800,1.856602783203125,-0.061359016326069826,-0.04788169511556625,-0.3459910006608814
1789484776007648800,1.866648681640625,-0.07555296137332916,-0.08213643141686916,-0.36527291649691757
1789484776017694700,1.87669482421875,-0.08691255977749825,-0.010565233156085013,-0.34043548542559143
1789484776027741700,1.88674169921875,-0.0915846432417631,0.10309709412008523,-0.24504147649612276
1789484776037787600,1.89678759765625,-0.07960369806885718,0.11378653817772864,-0.17265950984172523
1789484776047833600,1.90683349609375,-0.008582534906268119,0.07003215212523937,-0.18432494105836375
1789484776057879800,1.9168798828125,0.08573767077922821,0.03228869692534208,-0.21220300020091235
1789484776067925800,1.92692578125,0.1321276660323143,0.001099193413555622,-0.24666418232712894
1789484776077971700,1.9369716796875,0.14602058230638504,-0.06348726052641868,-0.2555320004481822
1789484776088018700,1.947018798828125,0.18438216940462587,-0.13319792561233043,-0.24100137079246342
1789484776098064600,1.957064697265625,0.21453414656221864,-0.14172989937514066,-0.21910227646166458
1789484776108110600,1.967110595703125,0.1744166557073593,-0.10092442625612019,-0.23379575026258825
1789484776118156500,1.977156494140625,0.13287936118245125,-0.07182692658752203,-0.21992994119115172
1789484776128202800,1.98720263671875,0.09764029001891612,-0.06391279246211051,-0.2031896726619452
1789484776138249700,1.997249755859375,0.11559914055764675,-0.048344636452198025,-0.1869572988559492
1789484776148295700,2.007295654296875,0.15867548121809957,-0.003923018662631512,-0.17111332157934084
1789484776158341600,2.017341552734375,0.20851766275167463,0.04166150542646646,-0.17055842764293774
1789484776168387600,2.0273876953125,0.21020225483775137,-0.01229424890577793,-0.19067610018337144
1789484776178433500,2.03743359375,0.10800386312305926,-0.09369330595880747,-0.21976340725151822
1789484776188479700,2.047479736328125,-0.00987958897948265,-0.12555062572956086,-0.24318912662770598
1789484776198526700,2.057526611328125,-0.03385141619741917,-0.036295594479143614,-0.24208054433129728
1789484776208572700,2.06757275390625,0.01255962184369564,0.04455898043364286,-0.17255656092390417
1789484776218618600,2.07761865234375,0.0887619870364666,0.06856383313834667,-0.12690251526255159
1789484776228664600,2.08766455078125,0.15118015702664853,0.008160217840969562,-0.09554255055468529
1789484776238710500,2.09771044921875,0.23624445858895776,-0.080683894520998,-0.03691720839265035
1789484776248756700,2.1077568359375,0.25847967127263544,-0.11140373469442129,0.029239499671885275
1789484776258803700,2.1178037109375,0.21752222246229647,-0.06821458130925893,0.09429232216472737
1789484776268849700,2.127849609375,0.18769816208481788,0.026654490430653092,0.1536410489811562
1789484776278895600,2.1378955078125,0.18296470382213592,0.021311083576083183,0.19598315708292646
1789484776288941600,2.147941650390625,0.11888999879658221,0.026332418869435787,0.1936171951365657
1789484776298987500,2.157987548828125,0.06525076306760311,0.07033113507181406,0.20072693581022322
1789484776309033700,2.16803369140625,0.06369535031914711,0.10713614037781953,0.22754790538158268
1789484776319080700,2.178080810546875,0.10033201332092284,0.110788817666471,0.2765753729987889
1789484776329127000,2.188126953125,0.11358312456011771,0.12970979123562573,0.2926432038928382
1789484776339172600,2.198172607421875,0.07374971134364605,0.07557225059568881,0.27574060267508027
1789484776349218600,2.208218505859375,0.020412088909745215,-0.02608779645860195,0.2546122552547604
1789484776359264500,2.218264404296875,-0.03552782497704029,-0.08943798660188913,0.21683171944748608
1789484776369311700,2.228311767578125,-0.06595102029144763,-0.08714081557542085,0.20068172669531775
1789484776379357700,2.238357666015625,-0.021541385200619698,-0.2875581739798188,0.08453105320213362
1789484776389404000,2.24840380859375,-0.21800796015262602,-0.3595677636578679,-0.02600863940832205
1789484776399449900,2.258449951171875,-0.26678046662807464,-0.13898849171251057,0.07653094869316555
1789484776409495800,2.268495849609375,-0.3380319314152002,0.051393794889748094,0.11281521806069648
1789484776419542800,2.278542724609375,-0.32133447911441326,0.19015140045583248,0.1741215817509219
1789484776429588700,2.288588623046875,-0.2614922970920801,0.23232494705766438,0.1945340177205391
1789484776439634700,2.298634765625,-0.22115736409425735,0.13553601317107677,0.16368804868310688
1789484776449681000,2.308680908203125,-0.26228432425260545,-0.042039106567204,0.0639682033106219
1789484776459726800,2.318726806640625,-0.30261516559720036,-0.14435849431306122,-0.08924560583494603
1789484776469772800,2.328772705078125,-0.28799042791724205,-0.1930538438990712,-0.15612133975587783
1789484776479819800,2.33881982421875,-0.2534194652736187,-0.23321780424416064,-0.15076352078346536
1789484776489865700,2.34886572265625,-0.19277064304351804,-0.20110767875611782,-0.12702802307205274
1789484776499912000,2.358911865234375,-0.11581307556927203,-0.14032383196949957,-0.08991351342545821
1789484776509958100,2.368958251953125,-0.1347322955727577,-0.07326864982843398,-0.04157869054779876
1789484776520004000,2.379004150390625,-0.2418383330732584,-0.004625613974034786,-0.037285897857858796
1789484776530051000,2.389051025390625,-0.2679068403095007,0.07377279995828867,-0.029397359398007392
1789484776540097000,2.399096923828125,-0.2865834837287664,0.10560586207062006,0.01616072420873679
1789484776550143000,2.40914306640625,-0.3621662557184696,0.06709025345444679,0.03630609760684892
1789484776560189000,2.41918896484375,-0.4049690401345491,0.09501695577800273,0.007104434310877695
1789484776570235100,2.429235107421875,-0.30373452501595016,0.13350333829969166,-0.02143070506749209
1789484776580281000,2.439281005859375,-0.10232874009609222,0.09869710559546947,-0.0067618725174805145
1789484776590328000,2.449328125,0.055123336806893346,0.11389730507582425,0.009120801934855989
1789484776600374000,2.4593740234375,0.1020551838517189,0.17306874822974205,0.01682518403341528
1789484776610420000,2.469419921875,0.14794190575778485,0.20098902081251144,0.03706224973639473
1789484776620466000,2.4794658203125,0.17525427557528017,0.1720341444849968,0.04324673335787374
1789484776630511900,2.489511962890625,0.08342822479307652,0.14309797285795212,0.05800514845405705
1789484776640558800,2.499558837890625,0.032493571847677226,0.15820055718272924,0.03791065585981123
1789484776650605000,2.50960498046875,0.0535351908326149,0.17622458191215992,0.029270938273053614
1789484776660651000,2.519651123046875,0.0316191271007061,0.20997049190849065,0.06115470309273805
1789484776670697000,2.529697021484375,0.004277531188726425,0.27372604798227546,0.06787502432370092
1789484776680743000,2.539742919921875,-0.016744798573851586,0.3659109952047467,0.09223611115412786
1789484776690790000,2.549789794921875,-0.025764555853605268,0.46599195637404917,0.13159109320389106
1789484776700835800,2.5598359375,-0.010466448956727981,0.517895454351604,0.1951138999677263
1789484776710882000,2.569882080078125,-0.02349485735595226,0.4747887185528874,0.2649589320230298
1789484776720928000,2.579927978515625,-0.08026946850121021,0.37822716368138787,0.27727296334151175
1789484776730974000,2.589973876953125,-0.18179449099898337,0.23843846150189638,0.24500393923101946
1789484776741020000,2.60002001953125,-0.2610813782036304,0.1674512006089091,0.203964182432089
1789484776751067000,2.61006689453125,-0.1446183142930269,0.173346688388288,0.20914631604403255
1789484776761112800,2.62011279296875,-0.09972118794620037,0.24280747036635875,0.24153993464857337
1789484776771159000,2.630158935546875,-0.05988485212028026,0.5013841722726822,0.24553596374848857
1789484776781205000,2.640205078125,-0.11404665041863918,0.8345151799038052,0.3628311859006062
1789484776791251000,2.6502509765625,-0.2026373725414276,1.0748664892897009,0.5441190060190856
1789484776801298000,2.6602978515625,-0.03818155435621738,1.1658800546452401,0.7366531368929893
1789484776811344000,2.67034375,0.2810322793424129,0.5683478767380118,1.0222218175560236
1789484776821389800,2.680389892578125,0.14943419014215467,0.018998714980483052,0.9420976027444005
1789484776831436000,2.69043603515625,-0.02441197220087051,0.2199021033361554,0.6306432240661233
1789484776841482000,2.70048193359375,0.6321843890935183,-1.050175407886505,0.6693719639763236
1789484776851529000,2.710529052734375,-0.39341245785355566,0.2319660506173968,0.6591960223987698
1789484776861575000,2.720574951171875,-0.9577642506927251,1.1282676784791053,-0.06509118859171867
1789484776871620900,2.730620849609375,-0.9842664731711148,0.8991337825477123,-0.35232582970559595
1789484776881666800,2.740666748046875,-0.8926841680169105,0.8583950910545886,0.6277078282013535
1789484776891713000,2.750713134765625,-0.5457832859694958,1.043487892946601,0.7219298342093825
1789484776901759000,2.760759033203125,-0.185305129468441,1.4520999657586215,0.5427431876212359
1789484776911806000,2.770805908203125,-0.29335633886456486,1.8059572428151964,0.4773073503103107
1789484776921852000,2.780851806640625,-0.5277139607936143,2.0125411610253154,0.07396466926857828
1789484776931897900,2.79089794921875,-0.5557300949662923,1.8593832741849123,-0.24703049488887188
1789484776941943800,2.80094384765625,-0.6642728872716427,1.414764652968198,-0.37994755773320793
1789484776951990000,2.810989990234375,-1.0149854365617037,0.8420772857211529,-0.6140427293337881
1789484776962037000,2.821037109375,-1.4646119490683078,0.4079534627728164,-0.8277144138477742
1789484776972083000,2.8310830078125,-1.4529203422307968,0.3331250162817538,-0.8977369213618338
1789484776982129000,2.84112890625,-0.9697580553472042,0.37537908077389,-0.7360273331448436
1789484776992174800,2.8511748046875,-0.24781097774207592,0.6348189753808081,-0.36606238637417554
1789484777002220800,2.861220703125,0.29818858132660386,0.9726084763422608,0.002673603123426437
1789484777012268000,2.87126806640625,-0.08379121288657188,0.3983693496085703,0.5260917664192617
1789484777022314000,2.88131396484375,-0.27608488606810566,-1.3940126645796,1.1052744870349764
1789484777032360200,2.891360107421875,0.6072381638854741,-0.561091768129915,0.9696545949727297
1789484777042406100,2.90140625,1.0514555108249186,0.5814686395958065,-0.06334755979478358
1789484777052452000,2.9114521484375,0.46426410966813564,1.1207017732694744,-0.867117765083909
1789484777062499000,2.9214990234375,0.25647183858156203,1.7145362657025456,-1.163413080009818
1789484777072545000,2.931544921875,1.4874083027660845,2.5848677321359514,-1.297009065029025
1789484777082591000,2.941591064453125,1.870453680384159,2.6616435133025047,-0.7398787478759884
1789484777092637200,2.95163720703125,2.027418266031146,2.3083882937923073,-0.09320347661525011
1789484777102683100,2.96168310546875,2.3755174179524183,1.6536121336624026,0.6995566743597388
1789484777112730000,2.971730224609375,2.5492045903414486,1.4147054701268673,1.1045455882385373
1789484777122776000,2.981776123046875,2.517678986743092,1.0964116738826035,1.6785568975657224
1789484777132822000,2.991822021484375,2.283072943010926,0.7810922172740101,2.1839903452292084
1789484777142868000,3.001867919921875,1.5572984160721302,0.7559788188055158,2.3604145413666964
1789484777152914000,3.011913818359375,0.5640589473724364,0.980360990165174,2.3555744078591463
1789484777162961000,3.0219609375,-0.01888473321199417,1.729873243305087,1.9989082108616827
1789484777173007000,3.032007080078125,-0.6712742904663086,2.837979154373705,1.490503346171975
1789484777183053000,3.042052978515625,-1.7885346911102533,3.264590409734845,1.533335356682539
1789484777193099000,3.05209912109375,-2.5924744077473876,3.290576791645586,2.088935687789321
1789484777203145000,3.06214501953125,-2.3547581230401993,3.0464822040781376,2.0337895546287297
1789484777213191000,3.07219091796875,-3.0810230638444422,1.7889055702492593,1.6415011323690414
1789484777223238000,3.08223779296875,-4.232680824130774,1.6003101670637725,2.4396885690897703
1789484777233284000,3.0922841796875,-4.45568644644022,1.9084391276463866,2.6397084526091814
1789484777243330000,3.102330078125,-4.86156792524457,2.3086954600453375,2.39970318018198
1789484777253376000,3.1123759765625,-4.545125309824943,2.55749164943248,2.346181433352828
1789484777263422000,3.122421875,-4.21437242950201,2.439192894527316,2.166079717746377
1789484777273469000,3.132468994140625,-4.566697674685717,1.9846432464048265,2.2626544243603943
1789484777283515000,3.142514892578125,-5.191332379052042,1.0695818268850446,2.5022885253876446
1789484777293561000,3.15256103515625,-5.952191078853607,0.292039411047101,2.749275911787152
1789484777303607000,3.16260693359375,-6.48899026337862,0.08057692701518535,2.7494045066028834
1789484777313653000,3.172653076171875,-6.406877797359228,0.2064899563163519,2.5138740415021776
1789484777323700000,3.182699951171875,-4.371252259474993,0.2635939455464482,2.098362564565241
1789484777333746000,3.192745849609375,-1.1513847885638475,0.19205051207542417,2.0407707918182014
1789484777343791900,3.2027919921875,3.8402719903618094,0.8022956026919186,2.161804524645209
1789484777353838000,3.212838134765625,4.685347434985637,0.7893965197607874,2.3258412406355142
1789484777363884000,3.222884033203125,1.7650410027980803,0.2551423435434699,2.361512273475528
1789484777373931000,3.232930908203125,1.1271961037248373,1.1428823331564664,2.025774590477347
1789484777383977000,3.24297705078125,0.3036392479479313,1.510435981001705,1.903184860379994
1789484777394023000,3.25302294921875,0.014423077628016472,1.9499534796871243,2.0599474937140942
1789484777404068900,3.26306884765625,-0.4999485865116119,2.9296120206713674,1.761147502490878
1789484777414115000,3.273114990234375,-0.7052864501833915,3.9326200191915035,1.0441643309034407
1789484777424161800,3.283161865234375,-0.14790975705385206,4.011394865220785,1.2700946084879339
1789484777434208000,3.2932080078125,-1.71858437204957,2.5726883417814967,-0.3907784560881555
1789484777444254000,3.30325390625,-2.2103683568060397,1.2486769957974553,-2.1195725258544087
1789484777454300000,3.3132998046875,-2.7226357421427965,0.7423346165955066,-1.9971471925385296
1789484777464345900,3.323345947265625,-3.5367449706166982,1.0487520970851183,-1.1068558379422873
1789484777474392800,3.333392822265625,-3.5771178975373505,0.8508467215016484,-0.44780769958160815
1789484777484438800,3.343438720703125,-3.2614825068473814,-0.06944324632138013,0.67075633100681
1789484777494485200,3.3534853515625,-3.1652959227681157,-0.637419951659441,1.088942799306661
1789484777504531200,3.36353125,-3.372828081613779,-0.9055474489822983,1.0021342844255268
1789484777514577200,3.3735771484375,-4.205044044664502,-1.063056809030473,0.7458639597654342
1789484777524624100,3.3836240234375,-5.776701240956783,-1.6836311320900916,0.3831932616561651
1789484777534670000,3.393670166015625,-7.840306672656536,-3.25256124150604,0.4656649163767695
1789484777544716000,3.403716064453125,-9.304697672450542,-4.788597966101765,0.8301867953106761
1789484777554762200,3.41376220703125,-9.858042333585024,-5.826042487230897,0.9331029799059033
1789484777564808200,3.42380810546875,-9.41266587973833,-6.536527090579271,1.1382456132665275
1789484777574855400,3.43385546875,-7.658444961640238,-6.913064401477575,2.0837790356785058
1789484777584901400,3.4439013671875,-5.607484491980076,-7.274592359292507,3.320000162267685
1789484777594947300,3.453947265625,-3.839118728673458,-6.905647987741231,3.9231747299760578
1789484777604993000,3.463992919921875,-2.61332079642117,-6.258806712263822,4.795393033069372
1789484777615040300,3.474040283203125,-1.8187030348807571,-5.470163933479785,5.497431295111775
1789484777625086200,3.484086181640625,-1.7711317208886146,-5.108710794466734,5.427897740158438
1789484777635132400,3.49413232421875,-1.65511815431118,-6.09340338409543,5.198870373341441
1789484777645178400,3.504178466796875,-0.6838888573676347,-8.018883370652794,5.302579169619083
1789484777655224300,3.514224365234375,1.0622294182956218,-9.74200597065389,5.602077079978585
1789484777665271300,3.524271240234375,3.3342736022919413,-10.892664783030748,5.538928842148184
1789484777675317200,3.534317138671875,5.289208231392503,-11.197491779458522,4.855932549706101
1789484777685363200,3.54436328125,6.41507863947153,-10.695874967473745,4.146360385027528
1789484777695409400,3.554409423828125,6.662796093711257,-10.177753595411778,3.4969133109658954
1789484777705455400,3.564455322265625,6.472212731578946,-9.715856214874982,3.1267613171905277
1789484777715502300,3.57450244140625,5.745485433959961,-9.08308321223855,3.228153653219342
1789484777725548300,3.58454833984375,4.586880046492815,-8.410310207647084,3.2660511299371717
1789484777735594200,3.59459423828125,3.6857378467321396,-7.869711630839109,3.4417841289401054
1789484777745640200,3.60464013671875,3.1981524827092884,-7.4506339858531945,3.673019819456339
1789484777755686400,3.614686279296875,2.99682268563509,-7.2457900431782,3.8490965173304077
1789484777765733000,3.624733154296875,3.248818255585432,-7.323159114062785,4.300576548749208
1789484777775779300,3.634779296875,3.899462430477142,-7.515431159934401,4.7531566503643985
1789484777785825300,3.6448251953125,4.472339475077391,-7.242585109657049,5.259119382598996
1789484777795871200,3.654871337890625,4.934724346870183,-6.542688535818457,5.789212347483635
1789484777805917200,3.664917236328125,5.233564670103788,-5.793522611898183,6.391705947190522
1789484777815964200,3.674964111328125,5.7060033183991905,-5.222103364890813,6.760715200671553
1789484777826010000,3.685010009765625,5.803660559552908,-4.256840575136244,6.963142729854583
1789484777836056300,3.695056396484375,5.499040483874082,-2.378525952118635,7.735643352133035
1789484777846102300,3.705102294921875,5.204909068983793,-0.5733095907986164,8.13140675702691
1789484777856148200,3.715148193359375,4.5547722590923305,0.6442156031489372,8.21270264596641
1789484777866195200,3.7251953125,3.882088101828098,1.712246985721588,8.204922075092792
1789484777876241200,3.7352412109375,3.311657865858078,2.4927327615350485,7.996938080826402
1789484777886287000,3.745287109375,2.7858757499098776,3.009713146868348,7.646701332354545
1789484777896333300,3.755333251953125,2.426127076727152,3.068623600998521,7.442520237502455
1789484777906379300,3.765379150390625,2.1719009712457655,3.215312876346707,7.043279511886834
1789484777916426200,3.77542626953125,1.809171236425638,3.758106917372346,6.766954387322068
1789484777926472200,3.78547216796875,1.816200696671009,4.446185043123364,6.863679316061734
1789484777936518100,3.79551806640625,2.302318326228857,5.121949630746245,7.083940608099103
1789484777946564000,3.805564208984375,2.557760237240791,5.930208379626274,7.727282935544848
1789484777956610300,3.8156103515625,2.9088416198432445,6.634262657666206,8.07329359075427
1789484777966657300,3.8256572265625,3.2358313482403753,6.7678118809342385,8.408749534201622
1789484777976703200,3.835703125,3.5107986284554005,6.5607771502166985,8.826480440753699
1789484777986749200,3.845749267578125,3.507567391449213,6.417532462364435,8.880676141321658
1789484777996795100,3.855795166015625,2.842181574499607,6.8448770004361865,8.745244173046945
1789484778006842000,3.865842041015625,2.135334450870752,7.229049336257576,8.2881614993155
1789484778016888000,3.87588818359375,1.4244623095095157,7.0855404445111745,7.917443688350915
1789484778026934300,3.885934326171875,0.7695932103991509,6.467062509208917,7.97724495384097
1789484778036980200,3.895980224609375,0.12364278281424194,5.4956666235268115,8.384943126678467
1789484778047026200,3.906026123046875,-0.5001086724441498,4.26797367130816,8.97317789940834
1789484778057073200,3.9160732421875,-0.6925918037831783,3.129215724605322,9.381521968933939
1789484778067119000,3.926119140625,-0.2910544916629791,2.423081133159995,9.582801497125626
1789484778077165000,3.9361650390625,0.6675088004529476,1.7317612490087746,10.046811339771747
1789484778087211000,3.9462109375,1.4380723171889782,1.803954963082075,9.866801978623867
1789484778097257200,3.95625732421875,1.8294003699839114,2.4483769024580715,9.377543128430842
1789484778107304400,3.966304443359375,2.2514508933007717,2.9639164413332937,9.038045800638198
1789484778117350100,3.97635009765625,2.2973814543485642,3.1815070528566833,8.547176592639088
1789484778127396000,3.98639599609375,1.9386165315061807,2.8015666555166243,7.677686837726831
1789484778137442000,3.996442138671875,1.3489374051868914,2.040066735202074,6.45504649272263
1789484778147488000,4.006488037109375,0.5103466464072466,1.1410492725104093,5.049831904518604
1789484778157535200,4.01653515625,-0.4544967123588547,0.10128419947922229,3.7395261355429885
1789484778167581400,4.02658154296875,-1.429392751649022,-0.6432803681254387,2.8665932544395325
1789484778177627400,4.03662744140625,-2.1227438493669033,-0.8874567887574434,2.613546714131534
1789484778187673300,4.04667333984375,-2.730304669335484,-0.6774082631766796,3.068753949379921
1789484778197720300,4.05672021484375,-3.3381676871210333,-0.06151625271439552,4.164793867340684
1789484778207766300,4.066766357421875,-3.9796494813919066,1.0364859052300452,5.296994647485017
1789484778217812200,4.076812255859375,-4.60570691203773,2.414648820379376,6.363032810413837
1789484778227858400,4.0868583984375,-5.13063153437376,3.670449092185497,6.871286283934116
1789484778237904400,4.096904296875,-5.591363962784409,4.387341224488615,6.934414648020267
1789484778247951400,4.106951416015625,-5.824820836481452,4.550065104314685,6.848277164268493
1789484778257997300,4.116997314453125,-5.583347245067357,4.139706187835335,6.740051767349243
1789484778268043300,4.127043212890625,-4.2363305788099765,2.6739795555233954,6.781286864057183
1789484778278089200,4.137089111328125,-2.6984797905296087,1.168677868670225,6.1730485832184545
1789484778288135200,4.14713525390625,-1.3763532353788615,0.05362812981307506,5.153829454609752
1789484778298182100,4.15718212890625,-0.342692908963561,-0.9608587095767259,4.4938159783482545
1789484778308228400,4.167228271484375,0.5196621717631816,-2.0030776055008173,4.172982434493303
1789484778318274300,4.1772744140625,1.5662942079544067,-2.9879665944844485,3.836432266068458
1789484778328320300,4.1873203125,3.7745693918734786,-3.842164087718725,3.100197135391831
1789484778338367200,4.1973671875,3.2768875812500715,-3.0182278772354123,2.7236720994532106
1789484778348413200,4.2074130859375,3.5174154162466524,-2.0766478686243293,1.9287632460117339
1789484778358459100,4.217459228515625,3.8878912351489063,-1.2320675140410662,1.0226058484375475
1789484778368505300,4.22750537109375,3.8338077627837657,-0.5267109212309122,0.9052946432650089
1789484778378551300,4.23755126953125,3.9572658001482486,-0.05602759217023849,0.6351742185592651
1789484778388598300,4.247598388671875,3.9469969195902346,0.28230361445248126,0.2982172228991985
1789484778398644200,4.257644287109375,3.6940871574044225,0.5031903449118137,-0.11407879912257193
1789484778408690200,4.267690185546875,3.238301537746191,0.4548346025437116,-0.507796377402544
1789484778418736000,4.277736083984375,2.7249849356174467,0.11818331183195113,-0.8236912958115339
1789484778428782300,4.2877822265625,2.2204507748812436,-0.35233576657772064,-1.0479460413992405
1789484778438829000,4.2978291015625,1.8243442556381224,-0.8870707120493054,-1.0466355433225631
1789484778448875300,4.307875244140625,1.5478326685905455,-1.5323156582459807,-0.8747218103468417
1789484778458921200,4.317921142578125,1.423077577152848,-2.0091849824652073,-0.751435037896037
1789484778468967200,4.32796728515625,1.4201128821283577,-2.362257538884878,-0.7932786218911408
1789484778479014100,4.33801416015625,1.658756803074479,-2.813318175847828,-1.2047908000588416
1789484778489060000,4.34806005859375,1.6121487811565398,-2.7836826237797734,-2.1917747154951095
1789484778499105300,4.358105224609375,1.28795423643589,-2.5954113379821178,-3.046619858983159
1789484778509151200,4.368151123046875,1.0606634841531515,-2.7847213191777467,-3.61492301979661
1789484778519197200,4.378197265625,0.948376244622469,-3.3262931249320506,-3.8456004919081925
1789484778529244200,4.388244140625,0.8511135557442903,-3.890564838272333,-3.9663101073473688
1789484778539290000,4.3982900390625,0.706993838623166,-4.1950443364366885,-4.297722328361869
1789484778549336300,4.40833642578125,0.4596568716010079,-4.3177866267472504,-4.687075866213441
1789484778559382300,4.41838232421875,0.22257893959628416,-4.388622496470809,-4.884844755935669
1789484778569429500,4.428429443359375,0.0885129807114601,-4.419558317482471,-4.959931853362917
1789484778579475500,4.438475341796875,-0.011119357624219265,-4.4948380148723714,-4.880439214453101
1789484778589521400,4.448521484375,-0.08840658859438262,-4.718275014336407,-4.548785585898161
1789484778599567400,4.4585673828125,0.05179567195521667,-5.1699727801591155,-3.958894862654805
1789484778609613300,4.46861328125,0.38402737439274787,-5.77383533013165,-3.2780303215444087
1789484778619660300,4.478660400390625,0.8068903831362724,-6.5452323750823735,-2.428694881388545
1789484778629706500,4.48870654296875,1.6657155361711977,-7.362271811789274,-1.8392922339230775
1789484778639752400,4.49875244140625,2.4334978977560997,-7.793871084696054,-1.6740210077017545
1789484778649798400,4.50879833984375,2.64338451077342,-7.559358564466238,-1.56442315338552
1789484778659845400,4.518845458984375,2.8417607187390326,-7.342132694602012,-1.3844529552042484
1789484778669891300,4.528891357421875,3.2236616024971005,-7.2859928742289535,-1.2374065369814633
1789484778679937300,4.538937255859375,3.7265643626391887,-7.482927651214599,-0.8558815007984638
1789484778689983500,4.5489833984375,4.290145171105862,-8.270509522768855,-0.2265618534862995
1789484778700029400,4.559029541015625,4.768424362123012,-8.968768266272544,-0.053685412958264345
1789484778710076400,4.569076416015625,4.773837327082455,-8.881491549357772,-0.43676703093349933
1789484778720122400,4.579122314453125,4.4307343760132785,-8.550255269432068,-0.7365384975373744
1789484778730168300,4.589168212890625,3.849562965798378,-8.566478674480319,-0.6006634616702795
1789484778740214300,4.59921435546875,3.3269536346673965,-8.686950389510393,0.09935177011191844
1789484778750261200,4.60926123046875,3.1132255437910556,-8.344617546030879,0.6022732349544763
1789484778760307200,4.61930712890625,2.9235248097121715,-7.314928461334109,0.43983869346380233
1789484778770353400,4.629353515625,2.4825977364897724,-6.0699278159618375,0.19007716617584228
1789484778780399400,4.6393994140625,2.1348469596147535,-5.340678306388854,0.43129765961170197
1789484778790445300,4.6494453125,1.8606798898667096,-5.027110954144597,1.1641150907993316
1789484778800492300,4.6594921875,1.6532827555775642,-5.023173030173778,1.9210574939399956
1789484778810538200,4.669538330078125,1.4213438852280378,-5.132170580509305,2.4550685090512037
1789484778820584200,4.679584228515625,1.253700084656477,-5.191565603286028,2.956660771116614
1789484778830630400,4.68963037109375,1.0762339782506227,-4.93571920312643,3.0170395442336795
1789484778840677400,4.699677490234375,0.681225191116333,-4.2716783710449935,2.3150714248180386
1789484778850723300,4.709723388671875,0.25986725317351517,-4.1347482731670135,1.759069527173042
1789484778860769300,4.719769287109375,0.08010046860985458,-4.153615178461372,1.6020388905525207
1789484778870815200,4.729815185546875,0.014546923203393815,-3.6590439010739324,1.241674131298065
1789484778880862200,4.7398623046875,-0.13152275894172488,-2.7666566701769826,0.2177308967769146
1789484778890908200,4.749908203125,-0.18302600555531678,-2.462477324002981,-0.5797329018443822
1789484778900954400,4.759954345703125,-0.17162212961800397,-2.1127520321846007,-0.9121084149330854
1789484778911000300,4.770000244140625,-0.023145386331155895,-1.040222169148922,-1.0751192950069903
1789484778921046300,4.78004638671875,0.17682839302420614,-0.1468190392076969,-1.157838494747877
1789484778931093200,4.79009326171875,0.2885374673407525,0.4504179551452398,-1.2092238140702247
1789484778941139200,4.80013916015625,0.4094218548249453,0.9553232872813939,-1.1158253994047642
1789484778951185200,4.81018505859375,0.4960837277770042,1.5227619402199983,-1.0301438427269458
1789484778961231000,4.820231201171875,0.42857320308387276,2.0786726524502037,-0.9342202934980391
1789484778971278000,4.830278076171875,0.17289236874952912,2.5262708739995956,-0.7348258484005927
1789484778981324300,4.84032421875,-0.09844050048589706,2.784355408474803,-0.5234457819551229
1789484778991370200,4.850370361328125,-0.2553722067765891,2.8365952987998724,-0.2112812822461128
1789484779001416200,4.860416259765625,-0.15428221469521522,2.9046447526752948,-0.031031098079681393
1789484779011462100,4.870462158203125,-0.04540741395652294,3.053808893704414,0.43527591559290885
1789484779021509400,4.88050927734375,-0.20070845030546186,2.908087002083659,1.204129705801606
1789484779031555300,4.890555419921875,-0.5849789858043194,2.9421950233906506,1.8260797011286019
1789484779041601500,4.9006015625,-0.9265051890760659,3.446477255192399,2.2687638471513987
1789484779051647200,4.910647216796875,-1.2856811769373715,4.113037376618385,2.638599030062556
1789484779061694500,4.920694580078125,-1.5470605151742696,4.452218478068709,3.4025177019566297
1789484779071740400,4.930740478515625,-1.6905802205756306,4.618344859814644,4.45016446814835
1789484779081786400,4.940786376953125,-2.050521055329591,5.112233707895875,4.800568974402546
1789484779091832300,4.950832275390625,-2.508895668567717,5.515644997194409,4.846615270784497
1789484779101879300,4.96087939453125,-2.898769723162055,5.418069589105248,5.138065483766794
1789484779111925200,4.97092529296875,-3.1156299745842815,4.9166912620514625,5.665259804600477
1789484779121971500,4.980971435546875,-3.00873991792202,4.4297155543595546,6.024772330939769
1789484779132017400,4.991017333984375,-2.6852704726055263,4.204049188408256,6.064469550555944
1789484779142063400,5.0010634765625,-2.5163559214457867,4.24549822012782,6.086900578072667
1789484779152110300,5.0111103515625,-2.4350290528461334,4.256083911550045,6.1971811539560555
1789484779162156300,5.02115625,-2.227885601057112,3.8131794007748363,6.56388739119172
1789484779172202200,5.0312021484375,-1.8435110206618903,3.0253935310810802,7.116278697124123
1789484779182248400,5.04124853515625,-1.4359581015139817,2.1661779174238442,7.694351556801796
1789484779192295400,5.05129541015625,-1.0609732807546854,1.3266782271057367,7.926733494743704
1789484779202341400,5.06134130859375,-0.8273372510984539,1.0027285970568656,7.6567288053721185
1789484779212387300,5.07138720703125,-0.683105013513565,0.852436328780651,7.412204009693861
1789484779222433300,5.081433349609375,-0.5791524716079235,0.6008727205067873,7.338641929876804
1789484779232480300,5.091480224609375,-0.6122723586603999,0.2050076088041067,7.605091557115316
1789484779242526200,5.101526123046875,-0.7325617028608917,-0.39741818636357784,8.3780551207304
1789484779252572400,5.111572509765625,-0.6005135318055749,-0.7869879973143339,8.926635928463936
1789484779262618400,5.121618408203125,-0.24119331316798923,-0.9748317053496837,9.238802181738615
1789484779272665300,5.131665283203125,0.013093290328979492,-0.926669439727068,9.288447963917255
1789484779282711300,5.141711181640625,0.13175181845724582,-0.5640379045844077,9.195492616844177
1789484779292757200,5.15175732421875,0.05992284604310989,-0.03953413800895214,9.034044163781404
1789484779302803200,5.16180322265625,-0.060656713275611396,0.6219990951657295,8.848207119393349
1789484779312849400,5.171849365234375,-0.29797698440253734,1.419353588193655,8.4471713270545
1789484779322896100,5.181896240234375,-0.3899953428864479,2.3689637585252523,7.767278261324763
1789484779332942300,5.1919423828125,-0.26408304423764345,3.176493024086952,7.049432189297676
1789484779342988300,5.20198828125,0.13298808225393294,3.6520793227583166,6.337060749289393
1789484779353034200,5.2120341796875,0.7101391509115695,3.3080893597215413,5.879817916560173
1789484779363081200,5.222081298828125,1.3552959804333746,2.202286757159233,5.233089453807473
1789484779373127200,5.232127197265625,1.6696686577111481,1.014428971722722,4.2880151733398435
1789484779383173000,5.242173095703125,1.410938811069727,-0.18814999750554562,3.328746363303065
1789484779393219300,5.25221923828125,1.1427484776437282,-1.8224311154931783,2.752757908684015
1789484779403266300,5.262266357421875,1.0531940250553191,-3.671145257756114,2.4731775817155834
1789484779413312300,5.272312255859375,0.8197441656209528,-5.121068756258487,2.151242798620462
1789484779423358200,5.282358154296875,0.19963775233402847,-6.037257133981585,1.6606857253104448
1789484779433404200,5.292404052734375,-0.2714052038192749,-6.296205591809749,1.1975117489665745
1789484779443451400,5.302451416015625,-0.24265739437118172,-5.611508925190567,0.4662333639144897
1789484779453497300,5.312497314453125,-0.5934318299163133,-4.186326484712958,-0.6369821447640657
1789484779463543300,5.322543212890625,-0.9144990363966673,-2.2934435303777456,-1.305017599439621
1789484779473589500,5.332589599609375,-0.5545107823044061,-0.5761866075396538,-1.2189987736314534
1789484779483636500,5.342636474609375,-0.5372445902049541,0.6929483621358871,-0.8688637319684028
1789484779493682400,5.352682373046875,-0.8199473600428551,1.6544026995182037,-0.26598610137999057
1789484779503728400,5.362728271484375,-0.9403016592383384,2.0607044495612383,0.5340531006872654
1789484779513774300,5.3727744140625,0.03913078137245029,1.8253011179715395,0.4590595267623663
1789484779523821300,5.3828212890625,1.9250451022714374,1.9383762930095194,0.200497437903285
1789484779533867300,5.3928671875,3.146941350910067,1.905888566380739,0.285455941003561
1789484779543913500,5.40291357421875,3.117109107226133,1.6390782891362905,0.13809446548223495
1789484779553959400,5.41295947265625,2.171121219044924,1.457878841421008,-0.33443653727173805
1789484779564005400,5.42300537109375,1.934844611752033,1.3703940347135066,-0.7634072152405976
1789484779574052600,5.433052490234375,2.520831313294172,0.912621917413175,-0.9352993209064007
1789484779584098600,5.4430986328125,3.03453253082633,-0.07434855401962995,-0.8324760752916336
1789484779594144500,5.45314453125,3.458494440722465,-1.2198474994152784,-0.9398995081782341
1789484779604190500,5.4631904296875,3.585354395484924,-2.2655235500559208,-1.3336872290849684
1789484779614237400,5.473237548828125,3.760784612149,-2.9846663838952776,-1.6796026072263717
1789484779624283600,5.48328369140625,4.042034333634376,-3.6092785841688513,-1.8560469693690538
1789484779634329600,5.49332958984375,4.019158484959602,-3.89940076341778,-2.3749176984936
1789484779644375600,5.50337548828125,3.8700750079512596,-3.9253298621833324,-2.826108976098895
1789484779654422500,5.513422607421875,3.7122751405239103,-3.9076737939834594,-3.0090742644429205
1789484779664468500,5.523468505859375,3.7681986877977844,-3.904339096602797,-2.9922090543597935
1789484779674514400,5.533514404296875,3.8030467138171193,-3.924498087534308,-2.8302678493440148
1789484779684560600,5.543560546875,3.5500495656087994,-4.356806970015168,-2.4526865823507307
1789484779694607600,5.553607666015625,3.23768778976202,-4.919690443867445,-1.9110504791885614
1789484779704653600,5.563653564453125,2.9695103158175944,-5.5581917610228055,-1.4603040227413178
1789484779714699500,5.573699462890625,3.078328417932987,-5.904863510489464,-1.2730787388652562
1789484779724745500,5.583745361328125,3.152838592255115,-6.219810918915272,-1.354856273841858
1789484779734792400,5.59379248046875,3.218976075029373,-6.437611373797059,-1.3331798640847206
1789484779744838400,5.60383837890625,3.4499358712136745,-6.761324272480607,-1.2943939140945673
1789484779754884600,5.613884521484375,4.160661882102489,-6.879900383022427,-1.4828858569055794
1789484779764930600,5.6239306640625,5.083946940088272,-6.752330234163999,-1.9250059393048284
1789484779774977500,5.6339775390625,5.7296215098738665,-6.864887522807717,-2.5265987907797096
1789484779785023500,5.6440234375,5.971359889703988,-7.684528666445613,-2.5964602625131605
1789484779795069400,5.6540693359375,5.946514202260971,-9.107728993195295,-2.5841718588262794
1789484779805115400,5.664115478515625,5.43125231128335,-9.946949282050133,-3.1811265291064976
1789484779815162400,5.674162353515625,4.4410605397164815,-10.2271340046525,-3.8892221914917227
1789484779825208300,5.684208251953125,3.552957854270935,-10.492874022316933,-4.14094654328525
1789484779835254500,5.694254638671875,3.099116354417801,-10.992780523252486,-3.7989831176400184
1789484779845300500,5.704300537109375,2.8011820401132104,-11.359847410494089,-3.011943097877502
1789484779855347500,5.714347412109375,2.4982792897462844,-11.554695444333552,-1.9954665459752081
1789484779865393400,5.724393310546875,2.1373101348578927,-10.30016533859372,-2.0096552303254605
1789484779875439400,5.734439453125,1.274373454850912,-8.850164098680018,-1.7079121713876724
1789484779885485300,5.7444853515625,0.8679412833612412,-8.043274884587525,-0.9096984311819076
1789484779895532300,5.7545322265625,0.8045850288033485,-7.747420299166441,0.20921908901929853
1789484779905578500,5.76457861328125,0.8947686461407691,-7.2735069021433585,1.18522977502048
1789484779915624400,5.77462451171875,0.9347709861833602,-6.717016928720474,1.8178934720635413
1789484779925670400,5.78467041015625,1.0037399660564958,-6.0971829026341435,2.2259511258631943
1789484779935717600,5.794717529296875,1.1630490690030157,-5.445768327891827,2.5426538535237313
1789484779945763600,5.804763671875,1.4247534014105796,-4.851730714102089,2.706835530942678
1789484779955809300,5.814809326171875,1.7295336360871791,-4.298118634203076,2.6605156783163544
1789484779965855500,5.82485546875,1.9581763875007627,-3.7828129040837286,2.368233106163144
1789484779975902500,5.83490234375,2.0590064134716988,-3.230897398969531,1.9781734658688306
1789484779985948700,5.84494873046875,2.058819366466999,-2.695451967141032,1.6635300088256597
1789484779995994600,5.85499462890625,1.8866332462906836,-2.2333581872493027,1.369917649373412
1789484780006040600,5.86504052734375,1.5830068578243255,-1.7337018616825342,1.1930278815507889
1789484780016087600,5.875087646484375,1.226858839482069,-1.1661766995042562,1.1860247247904538
1789484780026133500,5.885133544921875,0.7217430794656277,-0.4218143764734268,1.1243681868225335
1789484780036179500,5.895179443359375,0.15107435856461524,0.40013679767251015,1.0276771603524684
1789484780046225700,5.9052255859375,-0.4257102148681879,1.1800491575121879,1.0304781892478465
1789484780056272400,5.9152724609375,-0.9993430462718009,1.9400246447384357,1.1264923393696546
1789484780066318600,5.925318603515625,-1.541487098956108,2.5846599346041677,1.17592360201478
1789484780076364500,5.935364501953125,-2.0400825172930954,3.089004125726223,1.2377420525461436
1789484780086410500,5.945410400390625,-2.460696870326996,3.645914954909682,1.3875012368589639
1789484780096457500,5.95545751953125,-2.759598568359017,4.0227912885040045,1.6814233929127453
1789484780106503400,5.96550341796875,-2.9076287369221445,4.14837055580616,2.1344541609048844
1789484780116549400,5.97554931640625,-2.8158208063185213,4.598608478209376,2.2260329589277505
1789484780126595600,5.985595703125,-2.88853942104876,5.127128494688868,2.272634551104903
1789484780136642600,5.995642578125,-3.2260522970259187,5.350012536445259,2.794354824441671
1789484780146688500,6.0056884765625,-3.0736890676945445,5.502162415286898,3.085560707274079
1789484780156734500,6.015734375,-2.9239439119070765,5.678761091208457,3.414959834900498
1789484780166780400,6.025780517578125,-3.090534404033422,5.733677507266402,3.836205179314315
1789484780176827400,6.035827392578125,-3.074408029618859,5.7637365454435345,4.0961978854984045
1789484780186873300,6.045873291015625,-3.119555915856361,5.82023643130064,4.308120095996558
1789484780196919600,6.05591943359375,-3.2849422928899523,5.954134614136815,4.3693373657643795
1789484780206965500,6.065965576171875,-3.3692870480060577,6.034705111411213,4.461097365573048
1789484780217012500,6.076012451171875,-3.4166695614278315,5.8750160692363975,4.8614907683551305
1789484780227058400,6.086058349609375,-3.5458702340975403,5.45616814135313,5.376973608607053
1789484780237104400,6.0961044921875,-3.716662269566953,4.707534716874361,5.9805906593859195
1789484780247150300,6.106150390625,-3.8804391655772923,3.713657534793019,6.691895931467413
1789484780257197300,6.116197265625,-3.691598263198137,2.499546533203125,7.530243529140948
1789484780267243300,6.1262431640625,-3.387855554875731,1.4597136556327341,8.357759936198592
1789484780277289500,6.13628955078125,-3.1383512172192334,0.8679472016453742,9.108872318011521
1789484780287335400,6.14633544921875,-3.1317075414210556,0.6694464905172586,9.757648360943794
1789484780297382400,6.15638232421875,-3.2746602605894206,0.7785358107894659,10.264725776422024
1789484780307428400,6.166428466796875,-3.3290786639973518,0.9413777640372514,10.246374127173423
1789484780317474300,6.176474365234375,-3.1097087678417563,1.0562456677109002,9.846996038913726
1789484780327521500,6.186521484375,-2.5423697758853434,0.9747580555915832,9.462654191744328
1789484780337567500,6.1965673828125,-1.9288038702830672,0.6458750607937574,9.175366359138488
1789484780347613700,6.20661376953125,-1.2368946419365703,0.3134457716912031,8.907824260488152
1789484780357659600,6.21665966796875,-0.3947077583611011,0.47370063105523585,8.02879452381432
1789484780367706600,6.22670654296875,0.41037396791800856,0.6982119817525148,6.653108227911591
1789484780377752600,6.236752685546875,0.6145730368182063,0.6803899093359709,5.470812752777338
1789484780387798500,6.246798583984375,0.26496523389965293,0.3083405575066805,4.57667809369117
1789484780397844500,6.256844482421875,-0.30387422574758527,0.1287906305640936,3.505196862925589
1789484780407891500,6.266891357421875,-1.1305156035363673,0.11866904952228069,2.724469387310743
1789484780417937400,6.2769375,-2.0417450436778366,-0.01621171461045742,2.42249310413897
1789484780427983600,6.286983642578125,-2.865178419205546,0.10310147803425788,2.277737134940922
1789484780438029600,6.297029541015625,-3.582916354683041,0.6724018331915139,2.2308757227838036
1789484780448076500,6.30707666015625,-3.892767316752672,1.3470774565339088,2.283497013641894
1789484780458122500,6.31712255859375,-3.9544641867309807,1.8242992474526165,2.2489298503905535
1789484780468168400,6.32716845703125,-3.8626410585582254,2.053089882904291,2.1622031685739755
1789484780478214400,6.33721435546875,-3.4893192025750874,1.6816864277631043,2.3706448434799907
1789484780488261400,6.347261474609375,-2.7752304372549057,0.8917243830740451,2.6819676316678525
1789484780498307600,6.3573076171875,-1.8660767804741858,0.17790157521367073,2.724021643543243
1789484780508353800,6.367353759765625,-0.9114584265917539,-0.3801344586074352,2.6193250052720307
1789484780518399500,6.3773994140625,0.04595861809849739,-0.7547820102363825,2.3665368236392736
1789484780528446700,6.38744677734375,0.9192752378225326,-0.7339093180775642,1.9500696534126996
1789484780538492700,6.39749267578125,1.5678572194874285,-0.5703834742188454,1.72660401237607
1789484780548538600,6.40753857421875,2.2372861743479966,-0.5612760386556387,1.7649866422623395
1789484780558584600,6.41758447265625,2.739167774748802,-0.36324879025816914,1.8627374069184064
1789484780568631600,6.427631591796875,3.141160429421067,0.03728489777743816,1.889486297634244
1789484780578677800,6.437677734375,3.479341998440027,0.4928080671072006,1.7954940087288618
1789484780588723700,6.4477236328125,3.673183485585451,0.9416425524532794,1.6295535049438477
1789484780598770700,6.457770751953125,3.7107623978734012,1.1775514954775572,1.4082383199393749
1789484780608816600,6.467816650390625,3.617548692125082,1.0832044017851352,1.2417314144432543
1789484780618862600,6.477862548828125,3.4666719019591805,0.776993257522583,0.9995008671820164
1789484780628908500,6.487908447265625,3.082088062727451,0.3082166388660669,0.6929904477119445
1789484780638955500,6.49795556640625,2.6452830378711223,-0.28204291768968104,0.258495453363657
1789484780649001500,6.50800146484375,2.2936077810287476,-0.7010697092711925,-0.2634586287289858
1789484780659047700,6.518047607421875,1.8653946434289217,-1.0998510006815194,-0.740808429941535
1789484780669093600,6.52809375,1.5010674102842807,-1.5740999132692812,-1.1104127267062662
1789484780679140600,6.538140625,1.138222524651885,-2.000299372959137,-1.5333973160028456
1789484780689186600,6.5481865234375,0.8300280976176262,-2.3153479036718605,-1.9341560449659823
1789484780699232500,6.558232421875,0.6626718818157911,-2.5808266400516033,-2.182517642328143
1789484780709278500,6.568278564453125,0.5929477727264165,-2.797856402821839,-2.445972179403901
1789484780719325400,6.578325439453125,0.5419178427129984,-2.9413036275088786,-2.6793857984811065
1789484780729371600,6.58837158203125,0.5528548317909241,-3.063375178951025,-2.837380896219611
1789484780739417600,6.59841748046875,0.5862473983049392,-3.139328830079734,-3.0278759955465793
1789484780749464600,6.608464599609375,0.5946598373413086,-3.1441324309691785,-3.266041193065047
1789484780759510500,6.618510498046875,0.6012380466878414,-3.207972450456023,-3.457016184863448
1789484780769556500,6.628556396484375,0.6615911008417606,-3.41482656390965,-3.577202653211355
1789484780779602400,6.6386025390625,0.7622013465821743,-3.6964682073220607,-3.61307651514709
1789484780789649400,6.6486494140625,0.7065033516924828,-4.054805552402138,-3.591897533518076
1789484780799695600,6.658695556640625,0.6920704102575779,-4.570919091773033,-3.290292421746254
1789484780809741600,6.668741455078125,0.8647064661584793,-5.0511979321748015,-2.873897732234001
1789484780819787500,6.67878759765625,1.0093700078327208,-5.340076833364368,-2.5858207950770855
1789484780829834800,6.688834716796875,1.20742830895558,-5.669530906048417,-2.246992160326242
1789484780839880700,6.698880615234375,1.6337024413168428,-6.148989077717065,-1.6174755291372536
1789484780849926700,6.7089267578125,2.179571067482233,-6.531440581095218,-1.1188140598267315
1789484780859973600,6.7189736328125,2.9615815686449407,-6.803891494575143,-0.6004641397058963
1789484780870019600,6.72901953125,3.88208459469676,-7.060498942235112,-0.21378478949964044
1789484780880065800,6.739065673828125,4.512630861194432,-7.243433835440873,-0.02151332814991474
1789484780890111700,6.74911181640625,5.080467865800857,-7.71879333961904,0.22210370503365992
1789484780900158700,6.75915869140625,5.830757825314998,-8.148729063227773,0.2611129423856735
1789484780910204700,6.76920458984375,6.255307764232159,-8.14833977164924,-0.05195230555534362
1789484780920250600,6.779250732421875,6.193011759316921,-8.063454918307066,-0.4431628694504499
1789484780930296600,6.789296630859375,5.738804348760843,-8.00270555831194,-0.785212219813466
1789484780940343600,6.799343505859375,5.287893641662597,-8.066699014794827,-0.8851426665961742
1789484780950389500,6.809389404296875,4.8377439820647234,-8.142951064348221,-0.9246884950429201
1789484780960435700,6.819435791015625,4.3015211361229415,-8.077363616672157,-0.9201520206570625
1789484780970481700,6.829481689453125,3.808748140329122,-7.879682405233383,-0.923247064062953
1789484780980528600,6.839528564453125,3.3297149160742756,-7.6657549923926585,-0.8258230471432209
1789484780990574600,6.84957470703125,2.887982371687889,-7.540580214238166,-0.5247890132576227
1789484781000620500,6.85962060546875,2.5030571716725825,-7.4953744603335855,-0.011478840869665146
1789484781010667500,6.86966748046875,2.0393419280588625,-7.187275310367346,0.30996085218489167
1789484781020713500,6.87971337890625,1.4882558595061302,-6.762202224358916,0.628928602167964
1789484781030759700,6.889759765625,1.0659751076299697,-6.3006941354006525,0.9162035752922296
1789484781040805600,6.8998056640625,0.7126140165925026,-5.871191542512178,1.0610942767858504
1789484781050852600,6.9098525390625,0.32930439854767174,-5.443403352326154,1.0381593914002178
1789484781060898600,6.919898681640625,0.03110823670281097,-4.988585700917244,0.7317284669071435
1789484781070944500,6.929944580078125,-0.19358431578027083,-4.551443699191511,0.150353058552742
1789484781080991500,6.939991455078125,-0.27540800971984863,-4.078503238853812,-0.46098552638888357
1789484781091037400,6.950037353515625,-0.1537339331626892,-3.6963437041595575,-1.070972112199664
1789484781101083400,6.96008349609375,0.1328852064013481,-3.300795403321087,-1.6295441525936125
1789484781111129600,6.970129638671875,0.44474750829339027,-2.8239643652856348,-2.033031429737806
1789484781121176600,6.980176513671875,0.7681576246380806,-2.4403002712473274,-2.2246698538810015
1789484781131222500,6.990222412109375,1.0889981827557087,-2.4237346286326646,-2.058051304703951
1789484781141268500,7.0002685546875,1.486974587523937,-2.243818206465244,-1.9859020142942665
1789484781151314400,7.010314453125,1.5654939974874258,-1.3494178821802139,-2.18918119187057
1789484781161361700,7.020361572265625,1.3643892413407563,-0.278256969410181,-2.1356249582499265
1789484781171407600,7.03040771484375,0.9299322409152984,0.6669365535229445,-1.8560475538909433
1789484781181453800,7.040453857421875,0.4477823094120249,1.582073376366496,-1.321293026936054
1789484781191500500,7.05050048828125,0.05629647223949432,2.3767221175670623,-0.7429460264921188
1789484781201546800,7.060546630859375,-0.3144657623887062,3.0880180372983217,-0.2861836707562208
1789484781211592700,7.0705927734375,-0.7017781498014927,3.729618489512801,0.02195113504528999
1789484781221638700,7.080638671875,-1.2074843499917536,4.299371264612675,0.3524409805178642
1789484781231685600,7.090685546875,-1.5966298711158333,4.578490403810143,0.6917863326191902
1789484781241731600,7.100731689453125,-1.8510867166131735,4.663749935683608,0.9965648137301206
1789484781251777500,7.110777587890625,-2.148571387454122,4.7705707265019415,1.2226613877922297
1789484781261824500,7.120824462890625,-2.4875889689058064,4.685260341224074,1.7629735488742588
1789484781271870700,7.13087060546875,-2.7526269757807253,4.362831637132167,2.5309090551942584
1789484781281916700,7.140916748046875,-3.011413521045446,4.140269082415104,3.036380204519629
1789484781291962600,7.150962646484375,-3.3088802178382872,4.032016797488928,3.4539252331107853
1789484781302009600,7.161009521484375,-3.559898467189073,3.8791912113428113,3.9287434700191017
1789484781312055600,7.1710556640625,-3.7562773638576266,3.615200083172321,4.383129159751534
1789484781322101500,7.1811015625,-3.9153681478783486,3.154599756708741,5.084882175111771
1789484781332147700,7.191147705078125,-3.91147669339776,2.5397265679001806,5.855493622642755
1789484781342194400,7.2011943359375,-3.9630823774725195,2.152331178379059,6.252456466454267
1789484781352240600,7.21124072265625,-4.201245821425318,1.8887813642352818,6.754992146849632
1789484781362286600,7.22128662109375,-4.424734843337536,1.4748486809223889,7.497274156475067
1789484781372333600,7.23133349609375,-4.618331123550236,1.1267980443179606,8.43301654497385
1789484781382379500,7.241379638671875,-4.7589156522825355,1.0977250945687294,9.280331292957067
1789484781392425500,7.251425537109375,-4.999183082777262,1.5151339295595883,9.998237570738793
1789484781402471400,7.261471435546875,-5.200341030415892,2.0466209791511294,10.71393669386506
1789484781412518400,7.271518310546875,-5.318789715185761,2.657991712796688,11.28515252725482
1789484781422564600,7.281564697265625,-5.27345361289978,3.2275024958342313,11.786593982672692
1789484781432610600,7.291610595703125,-5.186587814873457,3.7019723576962944,12.166215231060981
1789484781442657800,7.30165771484375,-5.185471378064156,3.7911908563286065,12.709129683595895
1789484781452703500,7.311703369140625,-4.737475389368832,3.330305867704749,13.198637540113925
1789484781462749400,7.32174951171875,-3.935902986384928,3.1085709959834813,12.912397170734405
1789484781472795400,7.33179541015625,-3.298232859356701,2.8996505976498126,12.301529710435867
1789484781482842600,7.341842529296875,-2.8535739061295984,2.4040064303338524,11.748580186098813
1789484781492888600,7.351888671875,-2.467062021444738,1.8257412629544734,11.204081679242849
1789484781502934300,7.361934326171875,-2.2856904320329425,1.3569044385433195,10.494316622340678
1789484781512981500,7.3719814453125,-2.364407994917035,1.0610217960715294,9.621068976199627
1789484781523027500,7.38202734375,-2.3173627506256103,0.9582289455950259,8.761199282547832
1789484781533073200,7.3920732421875,-2.5307722770720718,0.5952478663623333,8.045208482998609
1789484781543119000,7.402119140625,-2.65808114464581,0.08460252926945686,7.349093765786289
1789484781553166300,7.412166259765625,-2.4865099414974448,-0.5403039777755737,6.8753755990743635
1789484781563212300,7.42221240234375,-2.0470653619177637,-0.945778044822812,6.299829627525806
1789484781573258500,7.432258544921875,-1.4533902978301048,-1.2790110515236854,5.775828549775481
1789484781583305500,7.442305419921875,-0.9276542129807174,-1.6650807453989982,5.277096353316307
1789484781593351400,7.452351318359375,-0.316706965444237,-1.847939066237211,4.706763732501864
1789484781603397400,7.4623974609375,0.20089549731016157,-2.006644358071685,4.254354311278462
1789484781613443300,7.472443359375,0.6501566836357117,-2.169956851440668,3.9392473283767697
1789484781623490300,7.482490234375,1.0270323596429078,-2.4400872130185363,3.6854298036962745
1789484781633536300,7.492536376953125,1.5354729532331228,-2.8127263474345208,3.564707328775525
1789484781643582500,7.50258251953125,2.0723241602063176,-2.9361376230478284,3.311165113905072
1789484781653629200,7.512629150390625,2.643735808429122,-2.845228687110543,2.9207033225506542
1789484781663675400,7.52267529296875,3.151227065405249,-2.6304613163143395,2.3228882360488177
1789484781673721300,7.532721435546875,3.458926402398944,-2.187767817941308,1.5537714109897613
1789484781683767300,7.542767333984375,3.68722837755084,-1.6125982784897088,0.8607353705704212
1789484781693814300,7.552814208984375,3.757450499290228,-1.0934177527636288,0.31059739652276036
1789484781703860200,7.562860107421875,3.73898311470747,-0.8264069845110178,-0.0038660277783870694
1789484781713906200,7.57290625,3.620707448416948,-0.8258262620136141,-0.13864683866798877
1789484781723953200,7.582953125,3.482565052139759,-1.036307333792746,-0.2129588600695133
1789484781733999400,7.592999267578125,3.4134733957350254,-1.3438976574540138,-0.33289749113619327
1789484781744045300,7.60304541015625,3.27355171482563,-1.703295325241983,-0.6504939527660608
1789484781754091300,7.61309130859375,3.1185540453374383,-2.189162779431045,-1.1342992137283086
1789484781764138200,7.62313818359375,2.974869212502241,-2.7671593590021133,-1.5788877320677042
1789484781774184200,7.63318408203125,2.87729380441308,-3.4125834611579773,-1.8656582628011702
1789484781784230100,7.643230224609375,2.9404420422434807,-4.01528427387476,-2.0964280893713236
1789484781794277000,7.653277099609375,2.997075199091434,-4.606234150782227,-2.443271688273549
1789484781804323000,7.663322998046875,3.0186978328347203,-5.230431632775068,-2.817318935921788
1789484781814369300,7.673369384765625,3.0494530365824697,-5.780479590451717,-3.128685563251376
1789484781824416500,7.68341650390625,3.125266694718599,-6.12344956279099,-3.4702398235738277
1789484781834462500,7.69346240234375,3.181715142649412,-6.372571623131632,-3.837228969404101
1789484781844508400,7.70350830078125,3.170221104210615,-6.386528252291679,-4.237417205002903
1789484781854554400,7.713554443359375,3.084106124551594,-6.2042193820297715,-4.569882149940729
1789484781864601300,7.723601318359375,2.9101559173122045,-6.046192720109224,-4.655492979469895
1789484781874647300,7.733647216796875,2.8196026629447934,-6.0222483654201024,-4.554013549679517
1789484781884693500,7.743693603515625,2.901824726818502,-6.135095576921105,-4.4361616617590185
1789484781894740200,7.753740234375,3.21241657038331,-6.3914662932157515,-4.113747570714354
1789484781904786400,7.763786376953125,3.5695287575826047,-6.570069879218935,-3.8189012855529785
1789484781914832400,7.773832275390625,3.743877024228871,-6.622836423766612,-3.571902793237567
1789484781924878300,7.78387841796875,4.074747101190686,-6.819911486005783,-3.1124960604727265
1789484781934925300,7.79392529296875,4.546094447118044,-7.094189030390978,-2.6300527355134484
1789484781944971300,7.80397119140625,4.97781296249032,-7.2280761073112485,-2.31907890689373
1789484781955017200,7.814017333984375,5.458189418047667,-7.428127555012702,-1.9980822814315555
1789484781965064200,7.824064208984375,5.912092877221107,-7.695044215241074,-1.560573492220044
1789484781975110400,7.8341103515625,6.291917539227009,-8.205611226400732,-1.118395542153716
1789484781985156400,7.84415625,6.683260789591073,-8.936637097996472,-0.8256593810141086
1789484781995203300,7.854203369140625,6.882333163127303,-9.235967835095524,-0.881655409002304
1789484782005249300,7.864249267578125,6.8519011999845505,-9.38297567487359,-0.8328747192203998
1789484782015295200,7.874295166015625,6.6793941772907965,-9.604078678432106,-0.5437175856113433
1789484782025341200,7.884341064453125,6.302150179427862,-9.712717916849256,-0.4048731785446405
1789484782035388200,7.89438818359375,5.86721562461853,-9.591119828137755,-0.46694180444478983
1789484782045434000,7.90443408203125,5.468825962874293,-9.294173940348625,-0.48439796615839004
1789484782055480300,7.914480224609375,5.084692790019512,-8.966735299140215,-0.415256625393033
1789484782065527300,7.92452734375,4.710935465228557,-8.527717858931421,-0.3201327021092176
1789484782075573200,7.9345732421875,4.252550184465944,-8.060718771341442,-0.15370996776521206
1789484782085619200,7.944619140625,3.700399701552093,-7.623357866168022,0.2667120775669813
1789484782095666400,7.95466650390625,3.1364018367171287,-7.199963527026772,0.7871773824065923
1789484782105712400,7.96471240234375,2.552098558217287,-6.890520561236142,1.2728133659273386
1789484782115758300,7.97475830078125,1.9626152467310427,-6.788364839619398,1.9271154788047073
1789484782125804300,7.98480419921875,1.3946693749226629,-6.7282631298780435,2.4803262844264506
1789484782135851300,7.994851318359375,0.8317292024470865,-6.420142937123775,2.5524387499570844
1789484782145897500,8.0048974609375,0.3163103673420846,-5.9886909637331955,2.5092764845788476
1789484782155943400,8.014943359375,-0.032960020315647126,-5.583033941334485,2.4554262364476918
1789484782165990400,8.024990478515624,-0.08238602226376533,-5.190221202939749,2.3260586827784775
1789484782176036400,8.035036376953125,0.17707053121700883,-4.690717729847133,1.7733821301639079
1789484782186082300,8.045082275390625,0.38202363335490225,-3.8501585936039686,1.0350754539102316
1789484782196129300,8.05512939453125,0.5205694228012114,-2.9670930255427956,0.5760258640199899
1789484782206175200,8.06517529296875,0.7574351550936699,-2.157931482604146,0.25134265899956226
1789484782216221400,8.075221435546876,1.0806804362654685,-1.527827699176967,0.030550036564469335
1789484782226267400,8.085267333984374,1.3163549860119819,-1.0231909548491238,-0.04798632453382015
1789484782236314400,8.095314453125,1.3369511993169785,-0.6008814883351326,-0.10118307719230651
1789484782246360300,8.1053603515625,1.2664660427272318,-0.19625556254982948,-0.07638707410991191
1789484782256406300,8.11540625,1.0707096618711949,0.186185419434309,0.011511574095487594
1789484782266453200,8.125453369140626,0.7541139017164706,0.48219256506860253,0.08302490468919277
1789484782276499200,8.135499267578124,0.30525194384157656,0.741328654423356,0.24686288323700425
1789484782286545200,8.145545166015625,-0.19422082358552142,0.9522960484147072,0.4379056795746088
1789484782296592100,8.155592041015625,-0.6802595609545707,1.1987222938001154,0.6682189945489168
1789484782306638300,8.165638427734375,-1.186007773655653,1.5618874974280594,0.9336188204735517
1789484782316684300,8.175684326171876,-1.621857689744234,1.808787205544114,1.1831512151807546
1789484782326730200,8.185730224609374,-1.931849521589279,2.079077141597867,1.4608669173210858
1789484782336777200,8.195777099609375,-2.1469547460377214,2.3688848480701443,1.7469523883998392
1789484782346823200,8.2058232421875,-2.27715407435596,2.6031238120555877,2.155935924872756
1789484782356869000,8.215869140625,-2.2873310388468204,2.613707165390253,2.7499937046676872
1789484782366916400,8.225916259765626,-2.317719893500209,2.6853262944459915,3.2328409342527387
1789484782376962300,8.23596240234375,-2.512743283906579,2.7759131588220596,3.847494927352667
1789484782387008300,8.24600830078125,-2.715793328902125,2.8532155942112207,4.572458722430468
1789484782397055500,8.256055419921875,-3.0557968526512385,3.117463912013173,5.133234410348535
1789484782407101400,8.266101318359375,-3.4615158343702555,3.4107629677325484,5.6326832306444645
1789484782417147400,8.2761474609375,-3.8163267588898537,3.6292110728681086,6.076043083971738
1789484782427194400,8.2861943359375,-4.1815708146184685,3.8249592704176902,6.33999446465373
1789484782437240300,8.296240234375,-4.541907516822219,3.8673973131746053,6.661469813543558
1789484782447286300,8.306286376953125,-4.799879238572716,3.608727087765932,7.2753113212168214
1789484782457332500,8.31633251953125,-4.944537884876132,3.1597721909105774,7.879584790077805
1789484782467379500,8.32637939453125,-5.015248082393407,2.7101199594408274,8.407232115375995
1789484782477425400,8.33642529296875,-4.9512137093782425,2.2883254567116498,8.89505362624228
1789484782487471400,8.346471435546874,-4.807069734598696,2.1702280695974827,9.070395580101012
1789484782497518800,8.356518798828125,-4.699710306859016,2.405240356042981,9.131432524865865
1789484782507564800,8.366564697265625,-4.5045279264986515,2.699053791025281,9.19839418350458
1789484782517610800,8.37661083984375,-4.163274987210333,2.918848050072789,9.390867889428138
1789484782527657700,8.38665771484375,-3.8161239297941325,3.1985961348235605,9.574964227628707
1789484782537703700,8.39670361328125,-3.666211893007159,3.5144998210608955,9.75291840981245
1789484782547749600,8.40674951171875,-3.47898193295598,3.508992455816269,10.094750318032503
1789484782557796600,8.416796630859375,-3.0516543460190295,3.2562095348805187,10.269795919293164
1789484782567842800,8.4268427734375,-2.729816301296651,3.119354840326309,10.195787264752388
1789484782577888800,8.436888671875,-2.61485955029577,2.9538363613456484,9.8084748773396
1789484782587935700,8.446935791015624,-2.6660645446151494,2.673297418478131,9.406480469101666
1789484782597981700,8.456981689453125,-2.7657845635175704,2.524720137426257,8.879356290894746
1789484782608027600,8.467027587890625,-3.149346073964238,2.541477210959792,8.271047867429257
1789484782618073600,8.477073486328125,-3.699176589497924,2.6336820319265124,7.816916444718837
1789484782628120800,8.487120849609376,-4.202520663666725,2.68148715467453,7.5543199857771395
1789484782638166800,8.497166748046874,-4.525579482355713,2.6584248435169457,7.372101131886243
1789484782648213000,8.507212890625,-4.678986667782068,2.5606483598977325,7.276319036954641
1789484782658260000,8.517260009765625,-4.6546559441238635,2.250233918726444,7.362907187083363
1789484782668306000,8.527305908203125,-4.308257750901579,1.5859055018752812,7.619674209219217
1789484782678352000,8.537351806640626,-3.769519707268476,0.8138175520509481,7.803578824239969
1789484782688398800,8.54739892578125,-3.025229280430078,0.08550912272036075,7.875802933451533
1789484782698444800,8.55744482421875,-2.0538211197882887,-0.5221686016261577,7.730196192643046
1789484782708490800,8.56749072265625,-1.1149708284020423,-0.9406722461163997,7.316237205845117
1789484782718537700,8.577537841796875,-0.3406624260492623,-1.3261299455732107,6.977746424746513
1789484782728584000,8.587583984375,0.5555114837795496,-1.768068241664767,6.714031190907955
1789484782738630000,8.5976298828125,1.4163567444652319,-2.0718027666807175,6.363330332055687
1789484782748676900,8.6076767578125,2.166844272378087,-2.0040847367167474,5.669912014320492
1789484782758722800,8.617722900390625,2.76796716825366,-1.721010722413659,4.850721537059545
1789484782768768800,8.627768798828125,3.1552503295719623,-1.3708996461480856,4.093989561799169
1789484782778814700,8.637814697265625,3.388613679766655,-1.1340250729620456,3.4730005204588172
1789484782788861700,8.64786181640625,3.606684768283367,-1.1993880642324686,2.944475243282318
1789484782798907600,8.65790771484375,3.713088794994354,-1.387183841472864,2.2522698084682227
1789484782808953900,8.667953857421875,3.6242145797550678,-1.5617296765178441,1.5321370868086814
1789484782819000800,8.678000732421875,3.394760511958599,-1.8095581899166107,0.9195791892051697
1789484782829046800,8.688046875,3.0629987468540665,-2.1037237993374465,0.3215951758772135
1789484782839092700,8.6980927734375,2.6742297308921814,-2.456855976989865,-0.2893716531425714
1789484782849139700,8.7081396484375,2.285883908778429,-2.862291465592384,-0.8479004389166831
1789484782859185700,8.718185546875,1.9775193858742712,-3.2094606431871653,-1.3806371963083743
1789484782869231600,8.728231689453125,1.6445207724511623,-3.5193718110114336,-1.932103204089403
1789484782879278800,8.73827880859375,1.3825018211364746,-3.9453707796931266,-2.3788071071475745
1789484782889324800,8.74832470703125,1.2743874833762645,-4.318432523435354,-2.861812157642841
1789484782899371000,8.75837109375,1.2256664148271084,-4.681155828514695,-3.2601164791911836
1789484782909418000,8.76841796875,1.182508825623989,-5.1974727815032,-3.5098137090712784
1789484782919464000,8.7784638671875,1.2366589334845541,-5.539537913957238,-3.6395711388409135
1789484782929510000,8.788510009765625,1.3338017953753472,-5.719513372835516,-3.7757314213901756
1789484782939556900,8.798556884765626,1.5022376231074333,-5.922590890359878,-3.804572900471091
1789484782949602800,8.808602783203124,1.7591164350546895,-5.786695396226644,-3.9265257939696308
1789484782959648800,8.818648681640624,1.9643455776549874,-5.382382189652324,-4.085359096097946
1789484782969695700,8.82869580078125,2.11726205695495,-5.048726573625206,-4.008453551071882
1789484782979741700,8.83874169921875,2.26672795740962,-5.10226410254538,-3.678739366146922
1789484782989788000,8.848787841796875,2.4896307038664816,-5.415273820906878,-3.260069717440009
1789484782999835000,8.8588349609375,2.84473973454982,-5.791801194933057,-2.956875875172019
1789484783009880800,8.868880859375,3.2016870865762233,-6.205666658228635,-2.8064409835547206
1789484783019926800,8.8789267578125,3.508542666222155,-6.671412530887126,-2.5645944671750067
1789484783029972700,8.88897265625,3.9755765328645705,-7.162122164410352,-2.264839367184043
1789484783040019700,8.899019775390625,4.512854148556292,-7.460153509348631,-2.1514736847668883
1789484783050065700,8.909065673828126,4.867412267358601,-7.527243762803077,-2.1185136644512412
1789484783060112000,8.91911181640625,5.195056368011236,-7.51159260468483,-2.043295049598813
1789484783070158800,8.929158935546875,5.517305623883009,-7.496323723882436,-1.9135814589709041
1789484783080204800,8.939204833984375,5.794015948373079,-7.744303043928742,-1.6409183640450238
1789484783090250800,8.949250732421875,6.099602823257446,-8.039769506815075,-1.4262936165899038
1789484783100297700,8.959297607421876,6.453529073897004,-8.297174242332577,-1.1988280922621488
1789484783110343700,8.96934375,6.747347185054421,-8.55371973067224,-1.0176643003821373
1789484783120389600,8.9793896484375,6.974763609543443,-8.661140240949392,-0.9035825786501168
1789484783130436900,8.989436767578125,7.21598761011064,-8.810113243320584,-0.6078361297786236
1789484783140482800,8.99948291015625,7.3960957554578775,-8.853231085035205,-0.27795067993998523
1789484783150529000,9.009529052734376,7.4842293814629315,-8.624711667740344,-0.07506839272677898
1789484783160575700,9.01957568359375,7.469234641426802,-8.32001794230342,-0.08996551760733128
1789484783170622000,9.0296220703125,7.081303829854726,-8.117890857371687,0.08856851029098034
1789484783180668000,9.03966796875,6.525175675481558,-8.219022496637702,0.6051999360561371
1789484783190715000,9.04971484375,5.9070542985320085,-8.400337679687143,1.181042844724655
1789484783200760800,9.0597607421875,5.104099501278996,-8.338032906943559,1.6276538088023662
1789484783210806800,9.069806884765624,4.263111325968802,-8.053205326971412,1.9453665902882813
1789484783220853800,9.079853759765625,3.484892618304491,-7.746646976706385,2.1898744348317383
1789484783230899700,9.089899658203125,2.650975404293835,-7.494315306669473,2.3856717322200534
1789484783240946000,9.09994580078125,1.9938558959081767,-7.306697224083543,2.4513971270620822
1789484783250993000,9.109992919921876,1.4348375730514527,-6.997682712838054,2.227505369567871
1789484783261038800,9.120038818359374,0.880890854370594,-6.3811962436139575,1.7223317418843507
1789484783271084800,9.130084716796874,0.38896760727390645,-5.659176685294509,1.1778840884327888
1789484783281131800,9.1401318359375,-0.0001834668081253767,-4.944772278153896,0.49392684200406073
1789484783291177700,9.150177734375,-0.2302268057346344,-4.319648036704957,-0.17994331017434595
1789484783301223700,9.1602236328125,-0.334565095554851,-3.750708331553638,-0.6410089160621166
1789484783311270700,9.170270751953124,-0.329518333559297,-3.25069661667794,-1.0093348634541035
1789484783321316600,9.180316650390624,-0.20420036580814047,-2.8139196488723157,-1.1849831067830323
1789484783331362800,9.19036279296875,-0.031525603598356246,-2.5415096519246694,-1.085896125087142
1789484783341410000,9.20041015625,0.261430922293663,-2.35840232476145,-0.8356687338531017
1789484783351455700,9.210455810546875,0.5636842688411474,-2.0782816073060033,-0.49682723962068553
1789484783361501700,9.220501708984376,0.6598135697752237,-1.637835011076927,-0.2239823583871126
1789484783371549000,9.230548828125,0.5642120921075344,-0.9883142872571945,-0.025501521003246305
1789484783381595000,9.240594970703125,0.28979831758942454,-0.3315940073221922,0.30582652885913847
1789484783391640800,9.250640869140625,-0.04906714204046875,0.2196037049114704,0.80023677046597
1789484783401687800,9.260687744140625,-0.33470892447233197,0.5587906515806913,1.2009820554256438
1789484783411733800,9.270733642578126,-0.757669475306198,0.9062316318541764,1.533680224597454
1789484783421780000,9.280780029296874,-1.1952326250534504,1.2828858471304176,2.0415748016774655
1789484783431827000,9.290826904296875,-1.4747586645513773,1.619506158182025,2.587988786765933
1789484783441873000,9.300872802734375,-1.6542974855780601,1.9839082101285457,3.1501731724381443
1789484783451918800,9.3109189453125,-1.817181524401903,2.3128321214586496,3.734113462844491
1789484783461965800,9.3209658203125,-1.9679856877230106,2.612225986921787,4.238604953482747
1789484783472011800,9.33101171875,-2.1605653382390737,2.928167667081952,4.844088967177272
1789484783482057700,9.3410576171875,-2.4988942067742346,3.1253198862105607,5.461582567617297
1789484783492104700,9.351104736328125,-2.7810265563130376,3.076816259804368,6.094030576083064
1789484783502150700,9.361150634765625,-2.9816537580758333,2.981777092194557,6.507386920812726
1789484783512196600,9.371196533203126,-3.106291945135593,2.955297666069865,6.860094443312287
1789484783522243600,9.38124365234375,-3.2165655067563055,3.088404990789294,6.9027657103031865
1789484783532289500,9.39128955078125,-3.378938088926673,3.304040961113572,6.859947728317976
1789484783542335500,9.40133544921875,-3.4260341866225,3.440032901358604,6.968839480191469
1789484783552382500,9.411382568359375,-3.3827304669469593,3.3740672680199144,7.311767951476574
1789484783562428400,9.421428466796876,-3.1991122676521537,3.1820366296887395,7.839772419649362
1789484783572474400,9.431474365234376,-2.9379169076800347,2.953880785009265,8.407804946827888
1789484783582521300,9.441521240234374,-2.5976895120471712,2.626316471594572,9.056553517231345
1789484783592567600,9.451567626953125,-2.261387180903554,2.2545096963495013,9.659255791252852
1789484783602613500,9.461613525390625,-2.139196533126384,2.390553659042716,10.048960042238235
1789484783612660500,9.471660400390626,-2.1374868065990507,2.8734938276082276,10.294726946932077
1789484783622706400,9.48170654296875,-2.1757225753605365,3.461401268079877,10.530030909800528
1789484783632752400,9.49175244140625,-2.2370840759046375,3.9936388437777754,10.741771626251936
1789484783642799400,9.50179931640625,-2.144692792455107,4.280394761464,11.09894957216382
1789484783652845300,9.51184521484375,-1.7711666460715234,4.4428152744293214,11.249317828285694
1789484783662892500,9.521892578125,-1.390202458641678,4.418791424763202,11.236540179777144
1789484783672938500,9.5319384765625,-0.9667255557835102,3.9403520747482776,11.378492489731311
1789484783682984400,9.541984375,-0.5785761330246925,3.41137613119483,11.314182222384213
1789484783693031400,9.552031494140625,-0.2771317647725344,3.2202918338030573,10.915346570438146
1789484783703077600,9.56207763671875,-0.42829570131674405,3.082196783798933,10.329567958688735
1789484783713123600,9.57212353515625,-0.7534547071553767,3.400384781581163,9.593317045921086
1789484783723170600,9.582170654296876,-1.208937982866168,4.22172103869915,9.171331989055872
1789484783733216500,9.592216552734374,-1.5108604900240896,4.966559162548184,8.991234365102649
1789484783743262500,9.602262451171875,-1.4390209962159395,5.331097408095002,8.976528378880024
1789484783753309400,9.612309326171875,-0.9718664258033036,5.415302462479472,9.18037921886444
1789484783763355400,9.62235546875,-0.5793512090504169,5.260073906844854,9.534456860673426
1789484783773401600,9.632401611328126,-0.1487543911844492,5.026361012560129,9.280999985998868
1789484783783448600,9.642448486328124,0.17465207189843057,4.653485146778822,8.648746038800477
1789484783793494500,9.65249462890625,0.35622692879736423,3.9542204411029815,7.962780959680676
1789484783803540500,9.66254052734375,0.5485268855892121,2.637806418380141,7.548336819714307
1789484783813587500,9.67258740234375,0.5538198774307966,1.0089023172557354,7.3376862365871665
1789484783823633400,9.68263330078125,0.45496838499121367,-0.836693985247612,7.329611066681146
1789484783833680400,9.692680419921874,0.4901151747614145,-2.474399816986918,7.274767715859412
1789484783843726300,9.702726318359375,0.42556466891765593,-3.5294121435105796,6.677067780169844
1789484783853772300,9.712772216796875,-0.05308576656468212,-4.604563002699614,5.4013031632214785
1789484783863819300,9.7228193359375,-0.07552212784364819,-4.204371844491362,4.158026857423782
1789484783873865500,9.732865478515626,0.3612959026247263,-3.8163738129019733,3.6484547025203704
1789484783883911400,9.742911376953124,0.9820546423405409,-3.6536300593316553,3.0794898629277943
1789484783893958700,9.752958740234375,1.0809142450213431,-3.7214597329765557,2.476016020011902
1789484783904004600,9.763004638671875,1.7151736868232488,-3.7838515994817015,2.1986469393521544
1789484783914050600,9.773050537109375,2.1865379838854073,-4.056386099591851,1.9572294620394706
1789484783924097500,9.78309765625,2.57070505900979,-4.292973672530055,1.5118629450649022
1789484783934143500,9.7931435546875,2.906867104899883,-4.483972921986878,0.9473398873120545
1789484783944190500,9.8031904296875,3.0782939311414954,-4.678402438153326,0.1958539960116148
1789484783954236400,9.813236328125,3.04807239587903,-4.898752285256982,-0.4755798689305782
1789484783964282600,9.82328271484375,2.9129449635088442,-5.198205771952868,-0.9948825597316026
1789484783974329300,9.833329345703126,2.6997967183470726,-5.623236187863349,-1.4406985740393399
1789484783984375600,9.84337548828125,2.565039872854948,-6.0235255457490675,-1.7241759084463117
1789484783994421500,9.85342138671875,2.4823101517200468,-6.256252936127781,-2.0700456938803193
1789484784004468500,9.863468505859375,2.461160980707407,-6.47130964525938,-2.3507068018227812
1789484784014514400,9.873514404296875,2.484986092931032,-6.726631729283929,-2.5873849756538867
1789484784024560400,9.883560302734375,2.514682143014669,-6.934795756292343,-2.92778012906909
1789484784034607400,9.893607421875,2.5207354517042635,-7.061464572396874,-3.2835727581024168
1789484784044653300,9.9036533203125,2.590496970194578,-7.1170602028906345,-3.5855502103179693
1789484784054700300,9.9137001953125,2.6999253131628036,-7.140127774745226,-3.8977275695085525
1789484784064746500,9.92374658203125,2.7518320260107516,-7.169664834874868,-4.17235465798378
1789484784074792400,9.93379248046875,2.7649580495655535,-7.302509124743938,-4.208998335248232
1789484784084839700,9.943839599609374,2.873126163339615,-7.4784022827446455,-4.030265569907427
1789484784094885600,9.9538857421875,3.0597663408041,-7.570487276723981,-3.8550942964404817
1789484784104931300,9.963931396484375,3.2009459128201008,-7.639579517650604,-3.6175907777011393
1789484784114978600,9.973978515625,3.3679718737542625,-7.814186142972111,-3.310551950442791
1789484784125024500,9.9840244140625,3.61088485032171,-8.066813581085205,-3.0799767696619034
1789484784135070500,9.994070556640626,3.9521500645697114,-8.259948965787887,-2.9795231757879255
1789484784145117400,10.004117431640625,4.350877287705242,-8.296153667113185,-2.920071454387903
1789484784155163600,10.01416357421875,4.746910741712153,-8.228245083013176,-2.8748259529948235
1789484784165210400,10.02421044921875,5.0932273941308255,-8.173729064449667,-2.6581553789258003
1789484784175256600,10.034256591796876,5.651064105987548,-8.375173427814245,-2.285803829279542
1789484784185302500,10.044302490234376,6.05267272977829,-8.650041339308023,-2.04682497729063
1789484784195349500,10.054349609375,6.344747796660661,-8.948422228336334,-1.8014228142559527
1789484784205395500,10.0643955078125,6.666551646852493,-9.165411951357125,-1.7697101636528967
1789484784215441400,10.07444140625,6.816340057259798,-8.94108004887998,-2.0512860483527184
1789484784225488400,10.08448828125,6.615057606458664,-8.441825874373317,-2.2898943134635688
1789484784235534300,10.094534423828126,6.171186880999803,-8.333837793341278,-2.029023947662115
1789484784245580500,10.10458056640625,5.759309376651048,-8.560149471458793,-1.4166945981174706
1789484784255627500,10.11462744140625,5.392473960077762,-8.6180603931576,-0.8656482770532369
1789484784265673500,10.124673583984375,4.902247726157308,-8.160982395601271,-0.6727922938138247
1789484784275720400,10.134720458984376,4.380447373321652,-7.730340569549798,-0.5277390952348708
1789484784285766400,10.144766357421876,3.915688758134842,-7.576378672850131,-0.1431511643499136
1789484784295812400,10.154812255859374,3.548132918332517,-7.461549347621202,0.3880301802933216
1789484784305859600,10.164859619140625,3.1146076457992193,-7.379464354130625,0.9513777645260095
1789484784315905500,10.174905517578125,2.6340260230585932,-7.326224346852302,1.543507206606865
1789484784325951500,10.184951416015625,2.063430075132847,-7.350723997336625,1.8758365424662828
1789484784335998500,10.19499853515625,1.439132786027342,-7.372274734887481,2.0017659383803603
1789484784346044400,10.20504443359375,0.8346541499830782,-7.515195597612857,2.044852215912938
1789484784356091400,10.21509130859375,0.29076705302372574,-7.586648137930035,1.8137194012492894
1789484784366137600,10.2251376953125,-0.1943311703585088,-7.433881588494777,1.2652899846851824
1789484784376183600,10.23518359375,-0.5811071128070354,-7.127555293419957,0.6542606118232012
1789484784386230500,10.24523046875,-0.8046342017073184,-6.799647865656018,0.31434067470431326
1789484784396276500,10.2552763671875,-0.9015208968799561,-6.377227339982986,0.19304536833167074
1789484784406322400,10.265322509765625,-0.9278513429880142,-5.647362913382053,0.11800327908992767
1789484784416369400,10.275369384765625,-0.8365490238189697,-4.685574229478836,0.1830792701125145
1789484784426415400,10.285415283203125,-0.659656333386898,-3.722337684854865,0.5292530069291591
1789484784436462300,10.29546240234375,-0.4353659319639206,-2.858844832269847,0.9603197803944349
1789484784446508300,10.30550830078125,-0.21732640762925146,-2.1445041380152103,1.4600140998840332
1789484784456554500,10.315554443359375,-0.05737316612687427,-1.4645043970406055,1.8955670788526533
1789484784466601500,10.3256015625,0.00724982956435997,-0.8351847497284411,2.2979963713765144
1789484784476647400,10.3356474609375,0.007567795772617682,-0.21676117496192454,2.65642168700099
1789484784486693400,10.345693359375,-0.1658312164579518,0.5709539675831794,2.749977338054776
1789484784496740600,10.35574072265625,-0.47514790725409983,1.3722364477097988,2.6799422633200884
1789484784506786800,10.365786865234375,-0.7866296123307198,1.9368764098405837,2.70864170358181
1789484784516833800,10.375833740234375,-1.005849286360666,2.2432558964073657,2.972972438970208
1789484784526879700,10.385879638671875,-1.2254343596369028,2.452228901711106,3.376322937992215
1789484784536925700,10.39592578125,-1.647216002884507,2.7369594510495663,3.730980425515771
1789484784546972700,10.40597265625,-2.104504428321123,3.0626632312893864,4.0943870366841555
1789484784557019000,10.416018798828125,-2.5063337091252205,3.3543834933847188,4.535726197838783
1789484784567064800,10.42606494140625,-2.910419828945398,3.626048809444904,5.003917710083723
1789484784577111800,10.43611181640625,-3.2425568571031094,3.8898949761867523,5.448116352322697
1789484784587157800,10.44615771484375,-3.4939439397662877,4.151434035030007,5.768513842847943
1789484784597204700,10.456204833984375,-3.7958009804725643,4.341437551447749,6.172967919197678
1789484784607250700,10.466250732421875,-4.036827997162938,4.397100986480712,6.74352616546154
1789484784617296600,10.476296630859375,-4.225931349870562,4.360176738709211,7.259108374434709
1789484784627344000,10.48634375,-4.430482447078824,4.363574564453959,7.7023595066905015
1789484784637389800,10.496389892578126,-4.550466378591954,4.261895812699199,8.041787276378274
1789484784647435800,10.506435791015624,-4.55969744053483,4.138585659372806,8.234309497618675
1789484784657482800,10.516482666015625,-4.534932417112588,4.008077703496814,8.45481862693727
1789484784667529000,10.526529052734375,-4.525825566071272,3.8879268909841773,8.701016324263811
1789484784677576000,10.536575927734376,-4.394764652487635,3.8402269821763038,9.109668436825276
1789484784687622000,10.546621826171876,-4.1944197747975585,3.948486281365156,9.420048391205071
1789484784697667800,10.556667724609374,-3.9825791051030155,4.161103196129202,9.65647814323306
1789484784707714800,10.56671484375,-3.720662445119023,4.451531080326438,9.753540341103076
1789484784717760800,10.5767607421875,-3.503203351020813,4.556238824513554,9.83912019097209
1789484784727806700,10.586806640625,-3.435232807600498,4.4562218684911725,10.113922636014223
1789484784737853700,10.596853759765626,-3.381425814089179,4.07807712239623,10.491752909332513
1789484784747899600,10.606899658203124,-3.082988810959458,3.6557390143096447,10.669856729120015
1789484784757946600,10.616946533203125,-2.6041104850053785,3.1730618805944917,10.747682311600446
1789484784767992800,10.626992919921875,-2.0830697183653712,2.5341525671601293,10.580744028949736
1789484784778038800,10.637038818359375,-1.7009230431526898,2.2759008594244716,10.014007971322537
1789484784788085800,10.647085693359376,-1.3743058013297618,2.2289584909856317,9.276176511365176
1789484784798131700,10.657131591796874,-1.144621285778284,2.12245158842206,8.494148182284832
1789484784808179000,10.667178955078125,-1.3988105663806198,1.8357769192785023,7.586748091173171
1789484784818225000,10.677224853515625,-2.042292010036111,1.3537141180694103,6.646220806485414
1789484784828270800,10.687270751953125,-2.810644864985347,1.0384271024256944,5.788001218128204
1789484784838317800,10.69731787109375,-3.4590985440954563,1.0184218407511711,5.004865804588794
1789484784848363800,10.70736376953125,-3.7315117559134956,1.106890397799015,4.525369346736372
1789484784858410000,10.717409912109375,-3.4690985445842144,1.0738917990386485,4.389831579999625
1789484784868457000,10.72745703125,-2.88710441980958,0.8317968608558177,4.242820525351166
1789484784878503000,10.7375029296875,-2.2240667734213173,0.17355507044196128,4.069492249402404
1789484784888550000,10.7475498046875,-1.559227338308096,-0.709976069304347,3.98301925008595
1789484784898595800,10.757595947265624,-0.9772658006288111,-1.6464450185120105,3.8075878643780943
1789484784908641800,10.767641845703125,-0.521882770422101,-2.070107653200626,3.2445214351743457
1789484784918688800,10.777688720703125,-0.6674597006142139,-1.8700649733275174,2.947218989032507
1789484784928734700,10.787734619140625,-0.3520779924243688,-1.042875898528099,2.9012171163141725
1789484784938780700,10.79778076171875,0.2573310126941651,-0.07837737114429473,2.9344401714801784
1789484784948827600,10.80782763671875,0.7359796215455978,0.6428589278429746,3.06894158090651
1789484784958873900,10.817873779296875,1.173899329645559,1.1917512857437134,3.1441683790653943
1789484784968920800,10.8279208984375,1.4658207403361796,1.2029080550521611,3.265380683329701
1789484784978966800,10.837966796875,1.833813510251045,0.7012696157574653,3.4118782354980706
1789484784989012700,10.8480126953125,2.061477187499404,0.26988603142797946,3.2104303650021553
1789484784999060000,10.85806005859375,2.105341463667154,0.023240005812048912,2.79407659202218
1789484785009106000,10.86810595703125,2.1782108850449324,-0.2363222000002861,2.2921564131766554
1789484785019153000,10.87815283203125,2.338221998780966,-0.31751462856531143,1.800206424203515
1789484785029198800,10.88819873046875,2.523625327926874,-0.4753220947772264,1.3524433674812315
1789484785039244800,10.898244873046876,2.604105808830261,-0.7448539059400558,0.9435299736350774
1789484785049291800,10.908291748046874,2.673887201064825,-1.1670067205876111,0.6465297253102064
1789484785059337700,10.918337646484375,2.7816052329838272,-1.769635344851017,0.5400508797973395
1789484785069384000,10.928384033203125,2.92632466956377,-2.53348942707628,0.4325631495028734
1789484785079431000,10.938430908203125,2.985421001654863,-3.0853394657388327,0.19405542215704916
1789484785089476900,10.948476806640626,3.08054258685112,-3.627031975263357,-0.0016384148567914962
1789484785099523800,10.95852392578125,3.305730813896656,-4.12652200435251,-0.37186990360915656
1789484785109569800,10.96856982421875,3.370645769138634,-4.428362678445875,-0.8708686420500278
1789484785119615700,10.97861572265625,3.3397920734524726,-4.65081125139445,-1.4428630585968494
1789484785129662700,10.988662841796875,3.2591198693692682,-4.791765490221977,-2.0296587384343145
1789484785139708700,10.998708740234376,3.1114170330643653,-4.818956571747362,-2.589577517262101
1789484785149755600,11.008755615234374,2.9372376932442186,-4.868951605755091,-3.107055330723524
1789484785159801600,11.018801513671875,2.716048764967918,-4.976858438244462,-3.531306578955054
1789484785169847800,11.028847900390625,2.6099206325888633,-5.240096702221035,-3.6056226920098062
1789484785179894800,11.038894775390625,2.8197850337743757,-5.8583227085888385,-3.3538995092600583
1789484785189940700,11.048940673828126,3.2582746507167815,-6.380843192392588,-3.5301650077044964
1789484785199986700,11.058986572265624,3.248128227494657,-6.27111966587007,-3.8902597178459164
1789484785210034000,11.069033935546875,3.149433459986746,-6.124869366461038,-4.036166318383812
1789484785220079900,11.079079833984375,3.140551065351069,-6.2608613067060706,-3.873658711656928
1789484785230126800,11.089126953125,3.3952056253775953,-6.544651360324025,-3.547251167061925
1789484785240172800,11.0991728515625,3.7419276437267657,-6.6637056097716085,-3.337936800974607
1789484785250218800,11.10921875,4.041027202418446,-6.687707832127809,-3.2064521090209483
1789484785260265700,11.119265625,4.447798323538899,-6.881064166104793,-3.048193976432085
1789484785270312000,11.12931201171875,4.960023623299598,-7.4108981877923,-2.784481665202975
1789484785280359000,11.13935888671875,5.275941338062286,-8.264556167322397,-2.3868963055789467
1789484785290404900,11.14940478515625,5.680921484112739,-9.506099365717173,-1.92505913079679
1789484785300450800,11.159450927734374,6.226628782236576,-10.47350062880516,-1.7512603147268295
1789484785310497800,11.169497802734375,6.431487337958813,-10.698822126841545,-1.9828285981982945
1789484785320543700,11.179543701171875,6.299601663988828,-10.598815107691287,-1.99721601999104
1789484785330590700,11.1895908203125,5.88896217700243,-10.559933880633116,-1.5777929225683212
1789484785340636700,11.19963671875,5.46495233631134,-10.515998877316713,-1.126543777295947
1789484785350682600,11.2096826171875,4.991031340503692,-10.052782815396785,-0.755748809441924
1789484785360729600,11.2197294921875,4.447640794889629,-9.159277394124866,-0.5164624989390373
1789484785370775800,11.22977587890625,3.8623558118760584,-7.976358234134316,-0.3188911776155233
1789484785380822800,11.23982275390625,3.3668484226822852,-6.807600285965204,-0.0551338582009077
1789484785390869000,11.249868896484376,2.8798516722023484,-5.915816281658411,0.08284194933772086
1789484785400915000,11.2599150390625,2.390322919026762,-5.327406152361631,0.38070319840610023
1789484785410962000,11.2699619140625,2.033637140545994,-5.004431504824757,0.7923591689586639
1789484785421008000,11.2800078125,1.680153372976929,-4.8186920755922795,0.9964029011666774
1789484785431053800,11.2900537109375,1.285215312991291,-4.674082821388542,1.0317051006942988
1789484785441100800,11.300100830078126,0.9043537091530859,-4.62436572753936,0.9901929406106471
1789484785451146800,11.310146728515624,0.6915911023080349,-4.660135836839675,0.8427887949913739
1789484785461193700,11.32019384765625,0.6365465298257768,-4.612126715952158,0.5559118812739848
1789484785471239700,11.33023974609375,0.6260522430140525,-4.419855546863377,0.25362813958823677
1789484785481286000,11.340285888671875,0.7074773112911731,-4.13458752964735,-0.05330372016429901
1789484785491332900,11.350332763671876,0.8516063807625323,-3.597990297435224,-0.40196985831856724
1789484785501378300,11.36037841796875,1.0161983194828033,-2.7911437534406778,-0.6541314324855804
1789484785511425300,11.37042529296875,1.1875064877808093,-1.9514441566362977,-0.8114677740544081
1789484785521471200,11.38047119140625,1.3309586809039116,-1.2531430352956057,-0.8795581444621086
1789484785531517200,11.39051708984375,1.4092472047209739,-0.5793120460838079,-0.8625193313777446
1789484785541564200,11.400564208984376,1.4541735571622847,0.08466507311165332,-0.8941904809266328
1789484785551610000,11.410610107421874,1.3741209462821482,0.6660685385167598,-0.8730366337388753
1789484785561657000,11.420656982421875,1.2305536023467778,1.096464865374565,-0.7397118668764829
1789484785571703300,11.430703369140625,1.163895895090699,1.3403168763577937,-0.5736269861847162
1789484785581749200,11.440749267578125,0.9586275895237922,1.61203655295372,-0.6023416240155697
1789484785591796500,11.45079638671875,0.6443143873482943,1.8511077594012022,-0.580430820980668
1789484785601842400,11.460842529296874,0.31009353865385053,1.948024995842576,-0.45746436652541156
1789484785611889400,11.470889404296875,-0.008090988529659808,2.0813497627049684,-0.27375965799093244
1789484785621935400,11.480935302734375,-0.2140395679783076,2.360983865687251,-0.12320727747380733
1789484785631981300,11.490981201171875,-0.36978381805010135,2.57423031052649,0.1543009193956852
1789484785642028300,11.5010283203125,-0.455275916570425,2.5523662692427633,0.556482374638319
1789484785652074200,11.51107421875,-0.4476635418705642,2.4971616838932036,0.9511930556088686
1789484785662121200,11.521121337890625,-0.34587395015247163,2.4897575451165435,1.487635097259283
1789484785672167400,11.53116748046875,-0.1152262155920267,2.2649276299893857,2.3206582850396633
1789484785682213400,11.54121337890625,0.11923662027716636,1.9777555327177048,3.460401151126623
1789484785692260400,11.55126025390625,0.17795710479319093,2.058123785418272,4.401770731857419
1789484785702306300,11.561306396484374,-0.1093016478486359,2.4644366413772105,5.103443083196878
1789484785712353300,11.571353271484375,-0.4648965623527765,2.683926364520192,5.951780159965157
1789484785722399200,11.581399169921875,-0.7938315795987844,2.7688153095155954,6.855932647457719
1789484785732445200,11.591445068359375,-1.0169676964201033,2.5448423034787178,7.872083036145567
1789484785742492200,11.6014921875,-1.3885812871806322,2.431402971303463,8.594789992207287
1789484785752538000,11.6115380859375,-2.0477941145837306,2.71009599404335,9.318459655821323
1789484785762585300,11.62158544921875,-2.7727482650503514,3.157363376203179,9.911010538184643
1789484785772631300,11.63163134765625,-3.55291109251976,3.551974688452482,10.242466013818978
1789484785782677500,11.641677490234375,-4.17226054995954,3.777710027986765,10.24330421820879
1789484785792724500,11.651724365234376,-4.423556447207927,3.8343788406699892,10.07034185296297
1789484785802770400,11.6617705078125,-4.3633267271727325,3.782416598242521,9.893216522818804
1789484785812817400,11.6718173828125,-4.406984667113423,3.5397651952207085,9.966180052220821
1789484785822863400,11.68186328125,-4.395713916036486,3.172380912593007,10.260669194507598
1789484785832909300,11.691909423828125,-4.49657521392852,2.731196065217256,10.717546701055765
1789484785842956300,11.701956298828126,-4.494021145531535,2.1885049000442027,11.173805783444642
1789484785853002200,11.712002197265624,-4.545021557189524,1.7979226971805096,11.221990260899066
1789484785863049200,11.72204931640625,-4.814583178968728,1.6388538327306508,10.860554657542705
1789484785873095200,11.73209521484375,-5.28788896548748,1.7432482731848955,10.34930843194723
1789484785883141400,11.742141357421875,-5.670808086377382,2.083888925793767,9.92705449501276
1789484785893188400,11.752188232421876,-6.001704759085178,2.428632922068238,9.545156533864139
1789484785903234300,11.762234375,-5.969643148913979,2.457059975129366,9.257873961955308
1789484785913281300,11.77228125,-5.509766460549831,2.6995705083757637,9.017429713588953
1789484785923327200,11.7823271484375,-5.421564445483685,3.018051351624727,8.717179523557425
1789484785933373200,11.792373291015625,-5.139515682575106,3.287376826560497,8.38760387032032
1789484785943420400,11.80242041015625,-4.4527913095206015,3.2276579786568877,8.079910378545522
1789484785953466400,11.81246630859375,-3.8389801969856023,2.979957475551963,7.588716760897636
1789484785963513300,11.822513427734375,-3.234429080227017,2.445012978982925,7.08722737468481
1789484785973559300,11.832559326171875,-2.6229098780214786,1.5044582217663525,6.76448828946948
1789484785983605500,11.84260546875,-2.074307442978024,0.35269758562743664,6.5848652972906825
1789484785993652200,11.85265234375,-1.4320314295895398,-0.8745195657730102,6.409823203161358
1789484786003698400,11.862698486328124,-0.7314192548274994,-1.8905612333893775,6.055839084854722
1789484786013745400,11.872745361328125,0.05969071778766811,-2.7107699477821585,5.680725669279695
1789484786023791400,11.882791259765625,1.5937416023284197,-3.5676433822274207,5.061430572375655
1789484786033837300,11.89283740234375,1.6670868245244026,-3.3668624512076377,4.37526675581336
1789484786043884300,11.90288427734375,1.492215410786867,-2.6931939590811727,3.748113346624374
1789484786053930200,11.91293017578125,1.7416244713753462,-2.0576357096403837,2.844263056948781
1789484786063977200,11.922977294921875,1.6933669286847113,-1.4527414785325525,2.484913612216711
1789484786074023200,11.933023193359375,1.857208414363861,-1.1096826588660478,2.2444909911602733
1789484786084070100,11.943070068359376,1.9392858090698717,-0.7717676318287849,1.9329694655299186
1789484786094116000,11.9531162109375,1.9225369188427923,-0.5299345594525336,1.7087755102187394
1789484786104162300,11.963162353515624,1.9140438157856463,-0.5008545954406262,1.5479542491436005
1789484786114209500,11.97320947265625,1.9300094466805457,-0.7592594479113817,1.4333125554412602
1789484786124255500,11.98325537109375,1.962124248343706,-1.0811208735093474,1.2152104872643947
1789484786134302500,11.993302490234376,2.0686521936953066,-1.4596049345612525,0.870474674296379
1789484786144348400,12.003348388671874,2.0912930645704266,-1.9689418194040655,0.4636737425595522
1789484786154394400,12.013394287109374,2.310753123227507,-2.53733148945719,0.06517419070005416
1789484786164441300,12.02344140625,2.5712451572358606,-3.133657798705995,-0.37156186057329177
1789484786174487300,12.0334873046875,2.724424963647127,-3.7300612648442386,-0.7384428698539733
1789484786184534300,12.0435341796875,2.915627918982506,-4.407202109256387,-0.9592921909123658
1789484786194580200,12.053580322265624,3.1574504699647425,-5.07404747736454,-1.269129124456644
1789484786204626400,12.06362646484375,3.3803181451082227,-5.599910257333517,-1.6277724667459725
1789484786214673400,12.07367333984375,3.5414743372261523,-6.1130129244506355,-1.8549357932567596
1789484786224719400,12.08371923828125,3.824597159107029,-6.626202100807428,-2.025484667620063
1789484786234766300,12.093766357421876,4.150799828779697,-6.958567092502117,-2.245051547652483
1789484786244812300,12.103812255859374,4.332131962963938,-7.206902386379242,-2.546203070437908
1789484786254859300,12.113859375,4.280910602031648,-7.394211256885528,-2.90728386900723
1789484786264905200,12.1239052734375,4.124322156220674,-7.330557992142438,-3.253224966111779
1789484786274951200,12.133951171875,4.073962965075672,-7.155943183514475,-3.26213834040761
1789484786284998400,12.143998291015626,4.305763595998287,-7.119234624320268,-2.697770180955529
1789484786295044000,12.154044189453124,4.9014858018741005,-7.001105088502168,-1.9241215576857327
1789484786305091300,12.16409130859375,5.546188019496202,-6.570953676316142,-1.1886486435532568
1789484786315137300,12.17413720703125,6.325436362469196,-6.425019603249431,-0.6874462575882673
1789484786325183500,12.18418359375,7.125829200279712,-6.629242199155688,-0.4079027554988861
1789484786335230500,12.19423046875,7.808715602606535,-6.888780439570546,-0.529081742015481
1789484786345276400,12.2042763671875,8.216199840432404,-6.922085912322998,-0.9454436983019113
1789484786355323400,12.214323486328125,8.315450488257408,-7.059376075685024,-1.1505933459252118
1789484786365369300,12.224369384765625,8.175428269582987,-7.632788542336225,-1.0709463932365177
1789484786375416300,12.234416259765625,7.838817310881614,-8.398559564098715,-1.115577562123537
1789484786385462300,12.244462158203126,7.410984697031974,-8.706993060585855,-1.5042600688457488
1789484786395508200,12.25450830078125,6.879561944848299,-8.535465112057327,-2.0691665729582307
1789484786405555200,12.26455517578125,6.2258256491601465,-8.148218191096186,-2.508173491773009
1789484786415601200,12.27460107421875,5.595376705557108,-7.9698244484514,-2.555571202763915
1789484786425648000,12.284648193359375,5.214453142398596,-8.139004957070947,-2.394606149303913
1789484786435694300,12.2946943359375,5.010927296584844,-8.182251978123187,-2.258264664968848
1789484786445740300,12.304740234375,4.746080428367853,-7.921520144009589,-2.137066973751783
1789484786455787500,12.31478759765625,4.498167743816971,-7.720709402373433,-1.8739222332775591
1789484786465833200,12.324833251953125,4.45475471854806,-7.511808877784014,-1.8307430167645216
1789484786475880400,12.33488037109375,4.1642657518133515,-7.097251340571045,-1.7995704643875359
1789484786485926400,12.344926513671876,3.828398597216606,-6.833443167752027,-1.5053420188635587
1789484786495973400,12.354973388671874,3.4211750561535355,-6.73940470161736,-1.3057049971818924
1789484786506018800,12.365018798828125,2.7760873463451863,-6.684179658001661,-1.0751613805830478
1789484786516064800,12.375064697265625,2.089938142830133,-6.704443862873315,-0.8379705810546875
1789484786526112000,12.385112060546875,1.4451254505708813,-6.824051654550432,-0.7711158899217844
1789484786536158200,12.395158203125,0.9144586313210428,-6.877839943361282,-0.7286772626429796
1789484786546205000,12.405204833984374,0.5080640884280204,-6.945527578186988,-0.6052852762520313
1789484786556251100,12.415251220703125,0.2859540267188102,-6.9604773100376125,-0.5748901379883289
1789484786566297000,12.425297119140625,0.20999540715403853,-6.761794812601805,-0.6765729813963175
1789484786576344000,12.435343994140625,0.29792854215092957,-6.587088234037161,-0.469147790056467
1789484786586390000,12.44539013671875,0.48196401700973507,-6.189162098151445,-0.25240415075123307
1789484786596437000,12.45543701171875,0.508087505836226,-5.4131040756523605,-0.05175649072229862
1789484786606483000,12.46548291015625,0.46756377226803447,-4.584517116753757,0.3074924162447452
1789484786616530000,12.475530029296875,0.3955962316334247,-3.8313463411062956,0.6720674866706132
1789484786626576000,12.485575927734375,0.30969255663752554,-3.2242233280330894,0.9555331306397914
1789484786636622000,12.4956220703125,0.07794013050450012,-2.5589868564262983,1.2370897261172533
1789484786646668800,12.505668701171874,-0.44787649050150063,-1.6552777287870644,1.504041457659006
1789484786656715000,12.515715087890625,-1.1003910989075898,-0.8455874857991933,1.631197765019536
1789484786666762000,12.525761962890625,-1.764580984070897,-0.12576982143819332,1.81675833055377
1789484786676808000,12.535807861328125,-2.360020427482575,0.33328619819283484,2.1457143905878064
1789484786686855200,12.545855224609374,-2.7934833023041485,0.8034931419134139,2.2629151211231946
1789484786696901000,12.555901123046874,-3.125024702656269,1.2497709285140037,2.3488269794255494
1789484786706947000,12.565947021484375,-3.3616268886417147,1.3470996683657168,2.697835062885284
1789484786716994000,12.575994140625,-3.4149721098601815,1.2490133881449699,3.1754946606993673
1789484786727040000,12.5860400390625,-3.4733974108219146,1.3808797728925943,3.573396246665716
1789484786737087000,12.5960869140625,-3.6387212440133094,1.6928303375899791,4.0282185742497445
1789484786747133000,12.6061328125,-3.85409067235589,1.9922768100231885,4.52409304319024
1789484786757180000,12.616179931640625,-4.034037781922519,2.136321708342433,4.987805364194512
1789484786767225900,12.626225830078125,-4.233870618437231,2.1688743169009683,5.362196895235777
1789484786777272000,12.63627197265625,-4.414963390907645,2.037259861087799,5.78767213230431
1789484786787319000,12.646319091796874,-4.509442002025247,1.7751970706313847,6.37856238797903
1789484786797365000,12.656364990234374,-4.586368589839339,1.5909738911807536,6.738540778264403
1789484786807412000,12.666411865234375,-4.659284188446402,1.6315373722374438,6.883473565334081
1789484786817458000,12.6764580078125,-4.775030336259305,1.8462445372790097,7.076811779132485
1789484786827505000,12.6865048828125,-4.744758824375271,1.8422160124152898,7.532931160789728
1789484786837550800,12.69655078125,-4.392308199246227,1.641678827023506,7.869881142187118
1789484786847596800,12.7065966796875,-4.18463517062515,1.6117606586217879,8.151949778839946
1789484786857644000,12.71664404296875,-4.137798892909288,1.7393273003488778,8.432023442283272
1789484786867690000,12.72668994140625,-4.253926733516156,2.006805686113238,8.453690499690175
1789484786877737000,12.736737060546876,-4.484421834798157,2.244689144080877,8.447622577953338
