time,seconds_elapsed,z,y,x
1789911369261352700,0.057352783203125,0.19071955573260782,0.014571838448941707,-0.08395707097277044
1789911369271360800,0.06736083984375,0.1576724416553974,0.042319384813308714,-0.15079862862946464
1789911369281369600,0.07736962890625,0.10817921968996524,0.019944179137051106,-0.15472150116162373
1789911369291378700,0.087378662109375,0.009726444244384765,0.04327741619050503,-0.11051789177060127
1789911369301387800,0.0973876953125,-0.10907587626874446,0.05500672468990087,-0.03579717997033149
1789911369311395800,0.107395751953125,-0.18755904587507247,0.024386253237724302,0.06596654665414244
1789911369321404700,0.11740478515625,-0.1677203729391098,0.05008768072724342,0.1263888301193714
1789911369331413800,0.127413818359375,-0.14422551558315752,0.044692543685436244,0.1941292180456221
1789911369341422800,0.1374228515625,-0.1607487803608179,-0.013713175792992114,0.18997215316509827
1789911369351430700,0.1474306640625,-0.15124503895640373,-0.029217618916928766,0.21170765443202108
1789911369361439700,0.157439697265625,-0.1872837360650301,0.010744096854329109,0.5142416080191731
1789911369371448800,0.16744873046875,-0.2738876682847738,-0.14657470905780792,0.7102482373092324
1789911369381458000,0.1774580078125,-0.07040449256896972,0.3937672626405954,0.013315075286920181
1789911369391465700,0.1874658203125,-0.42897769223153587,0.5577689073175192,-0.5521839833246543
1789911369401474800,0.197474853515625,-0.4144856410205364,0.5276487866029143,-0.48441846095714713
1789911369411483600,0.207483642578125,-0.760355426454544,0.9271025704473257,-1.2414015979669988
1789911369421492000,0.217491943359375,-0.785467655879259,0.8251566921889781,-1.1962001549113541
1789911369431500800,0.227500732421875,-0.875931770658493,0.7886486240029335,-1.0119767562650144
1789911369441509600,0.237509521484375,-0.9761936413526534,0.723353729532659,-0.8634393688321113
1789911369451518700,0.247518798828125,-0.964607248455286,0.7018880399167537,-0.8335071719050406
1789911369461526800,0.25752685546875,-0.8717606224536896,0.5327364651307464,-0.7228877194561064
1789911369471535600,0.26753564453125,-0.4966764329731464,0.19408961668759583,-0.2976865866212174
1789911369481544700,0.277544677734375,-0.4192103314548731,0.02068038445711136,-0.0167928389666602
1789911369491553800,0.2875537109375,-0.3488894255161285,-0.2752735696852207,0.2384109889730811
1789911369501561900,0.297561767578125,-0.26234277644157405,-0.6291288009151816,0.519122329265438
1789911369511570700,0.30757080078125,-0.25843115595579147,-0.6357622475802898,0.5294222990814597
1789911369521579800,0.317579833984375,0.2751338689535856,-0.6551157673478126,0.6925226840697228
1789911369531588900,0.3275888671875,0.404085243037343,-0.6593216946050524,0.8151197206906974
1789911369541596700,0.3375966796875,0.4056342260450124,-0.6381479736730455,0.7594078434061259
1789911369551605800,0.347605712890625,0.3469423831015825,-0.6523086009725928,0.5620507858878001
1789911369561614800,0.35761474609375,0.3539449553400278,-0.6581298544719815,0.34317115746717897
1789911369571623700,0.367623779296875,0.3526718666642904,-0.6534586477905512,0.36102172532584514
1789911369581631700,0.3776318359375,0.31415713483095165,-0.5040060452088714,0.14552589412461966
1789911369591640800,0.387640869140625,0.3600304127335548,-0.513374469795823,0.13712927371189
1789911369601649700,0.397649658203125,0.3604863398075104,-0.5138309813916683,0.14054993234295396
1789911369611658000,0.407657958984375,0.3901905731976032,-0.4862777885556221,0.008700535262748598
1789911369621666600,0.41766650390625,0.21262042189538477,-0.19439298354834317,-0.4962935711354017
1789911369631675600,0.427675537109375,0.3519616725683212,-0.03539280042052269,-0.3473682803634554
1789911369641684700,0.437684814453125,0.36445875056982036,0.06768120508491993,-0.048300358919054265
1789911369651692800,0.44769287109375,0.3633639410704374,0.06943389397114515,-0.05163271821215749
1789911369661701600,0.45770166015625,0.3649924190551042,0.059225803689658636,-0.012524842791259289
1789911369671710700,0.467710693359375,0.45236090590655803,0.050718379846215245,-0.14957049334030598
1789911369681719800,0.4777197265625,0.39001346306502815,0.1890653587847948,-0.05976992050372064
1789911369691728000,0.487727783203125,0.34364158799052236,0.21431115146130322,-0.10220752486921847
1789911369701736700,0.49773681640625,0.3526239358693361,0.19614888730496166,-0.1077752054663375
1789911369711745800,0.507745849609375,0.24500585719346998,0.23656360754072664,-0.1664628836913034
1789911369721753900,0.51775390625,0.19912731859385965,0.28519758232831954,-0.19325119310207664
1789911369731762700,0.5277626953125,0.1418611245393753,0.2232593048095703,-0.2598566587142646
1789911369741771800,0.537771728515625,0.15381985788047312,0.23746494029462337,-0.2901886686138809
1789911369751780900,0.54778076171875,0.2088034939557314,0.33042262545526024,-0.177790077663213
1789911369761789000,0.557788818359375,0.2637199100136757,0.33580519527643915,0.023146738038025794
1789911369771797800,0.5677978515625,0.3326391324609518,0.18829115954190492,0.09390932332966476
1789911369781806600,0.577806640625,0.3501706974983215,0.06424333959072828,0.19232845223397016
1789911369791815700,0.587815673828125,0.28735680618882176,-0.05041004454940557,0.2136587884997949
1789911369801823700,0.59782373046875,0.14838263526260853,-0.0969677975848317,0.06614778497256338
1789911369811832600,0.60783251953125,-0.17454466600120067,-0.2021869984254241,0.15125325879547744
1789911369821841700,0.617841552734375,-0.40986733357012267,-0.2628136088237166,0.13151552548334003
1789911369831850800,0.627850830078125,-0.44383156249225136,-0.21442454870790242,-0.2776275489328429
1789911369841858800,0.63785888671875,-0.44592005920410155,-0.15791297241300342,-0.3626821328187361
1789911369851867600,0.64786767578125,-0.4479162014573812,0.00208528184145689,-0.49064683395270253
1789911369861876700,0.657876708984375,-0.37629765692353245,0.15966303095072507,-0.5645346020601689
1789911369871884800,0.667884765625,-0.17338322100639342,0.18764847772419452,-0.5173663524435833
1789911369881894000,0.677893798828125,-0.005408581045269966,0.10170768558830022,-0.6063152403542772
1789911369891902700,0.68790283203125,0.053449266114830966,0.06649784051924944,-0.604418759083189
1789911369901911800,0.697911865234375,0.013590718457102774,0.07210866613835096,-0.5970838496178388
1789911369911919900,0.707919921875,-0.07696633530259132,0.07006722343862057,-0.6230722042899578
1789911369921929000,0.717928955078125,-0.13191256197690962,0.08191986605674027,-0.7030936163142323
1789911369931937800,0.727937744140625,-0.1038981813699007,0.07323503981977701,-0.8376181143552064
1789911369941946600,0.737946533203125,-0.01146247425675392,0.09833937819898128,-0.966761211618781
1789911369951955000,0.747954833984375,0.07753624414503574,0.15588438919484615,-0.8898346238046884
1789911369961963800,0.7579638671875,0.042720951351523394,0.23652649040073154,-0.5424028497509658
1789911369971972600,0.76797265625,-0.05599778155386448,0.23673165758401155,-0.22251239543240517
1789911369981981000,0.77798095703125,-0.31603520366251464,0.09759937348663807,-0.4164017403075471
1789911369991989800,0.78798974609375,-0.3307657398045063,-0.13305910166352986,-0.07739426012476906
1789911370001998600,0.79799853515625,-0.096081370139122,0.0820475840896368,-0.16977217263607308
1789911370012007700,0.808007568359375,-0.06938742448091506,0.15522475624233484,-0.02461416197577491
1789911370022015700,0.818015625,-0.21716157245635986,0.028518530736863612,-0.05301905800402164
1789911370032024800,0.82802490234375,-0.14676760128140448,-0.025860709704458713,-0.3198591823974624
1789911370042033700,0.83803369140625,-0.07652385223209858,0.03824877437353134,-0.473398140977323
1789911370052042800,0.848042724609375,-0.06854279035031795,0.02399988426864147,-0.47596696855202314
1789911370062050800,0.85805078125,-0.04852408467233181,0.26598668590188024,-0.4609015013672411
1789911370072060000,0.868059814453125,-0.14408581485152244,0.2854436660438776,-0.36894400622509416
1789911370082068700,0.87806884765625,-0.44279462065994735,0.2216734969228506,-0.23150389473205432
1789911370092077800,0.888077880859375,-0.940024595862627,0.2941220625400543,-0.28550628295131025
1789911370102086000,0.8980859375,-0.2765191858321428,0.07877922994345427,-0.10838570204749703
1789911370112095000,0.908094970703125,-0.2741056949496269,0.07429594704955816,-0.11878494012006557
1789911370122103800,0.918103759765625,-0.2731874110609293,0.07235884150713681,-0.13262754184585063
1789911370132112000,0.92811181640625,0.10290157154798507,0.2172773077905178,0.4070961152911186
1789911370142121000,0.938120849609375,-0.05108896672427654,0.14280395834743975,0.2902728397659957
1789911370152129500,0.948129638671875,-0.05005494750142097,0.14122604150623083,0.2998522036898881
1789911370162138600,0.958138671875,-0.2556242818415165,-0.19338146841824053,0.20361323183625935
1789911370172146700,0.968146728515625,-0.6775163997262715,-0.08663257379233837,0.10240502020269632
1789911370182155800,0.97815576171875,-0.6786632316738367,-0.08349106089621781,0.1339140379924327
1789911370192164600,0.98816455078125,-0.8697831849008798,-0.057820320805907245,0.047439887898508455
1789911370202172700,0.998172607421875,-0.8777215766847133,-0.04288403295874595,0.07001938397521153
1789911370212181800,1.008181640625,-0.7478928352445363,0.014765315194427966,0.08439414721578359
1789911370222190800,1.01819091796875,-0.21465572711527348,0.07970511261671781,0.051988838173449035
1789911370232199700,1.02819970703125,0.01557341670691967,0.07719196075201035,-0.03325651904419064
1789911370242207700,1.038207763671875,-0.0047784664481878274,0.11448270374834536,-0.022624705191608516
1789911370252216800,1.048216796875,0.13779051409959792,0.11188479620963335,-0.2206973818996921
1789911370262226000,1.058225830078125,0.17345920885205268,0.08420563890635967,-0.3897485285185277
1789911370272234800,1.06823486328125,0.3843517840415239,-0.041627895417809486,-0.2912677690874785
1789911370282242800,1.078242919921875,0.3940764747202396,-0.06871551656872034,-0.16192388855479656
1789911370292252000,1.088251953125,0.37052901039421554,-0.13419511995613576,-0.014508819682709872
1789911370302261000,1.098260986328125,0.37095571137368677,-0.13464023337513206,-0.009723375504463911
1789911370312268800,1.108268798828125,0.3291524593889713,-0.14899579872488974,0.08913564265444875
1789911370322278000,1.11827783203125,0.24251345585584638,-0.11015110428482293,0.14915219486299902
1789911370332286700,1.12828662109375,0.049457566130161286,-0.10492197145968675,0.16036584545783697
1789911370342295800,1.1382958984375,-0.09782207632660865,-0.09367635482400655,0.11156082495227455
1789911370352303600,1.1483037109375,-0.2676987505167723,-0.05160013111680746,0.025874555566720664
1789911370362312700,1.158312744140625,-0.41277591449320317,0.04910743751823902,-0.04085815315432846
1789911370372321800,1.16832177734375,-0.44969782417714593,0.11097060397416353,-0.13420348592568188
1789911370382330600,1.17833056640625,-0.5207043742924928,0.12294745749384164,-0.14248776853773742
1789911370392338700,1.188338623046875,-0.6072901863336563,0.07808744828701018,0.0013350479960441588
1789911370402347800,1.19834765625,-0.6284937178820371,0.05032499661445618,0.21956750108692794
1789911370412356900,1.20835693359375,-0.5647691414684057,-0.029526538735628126,0.334394597826153
1789911370422364700,1.21836474609375,-0.45794075186550615,-0.1214154256209731,0.37031613482851533
1789911370432373800,1.228373779296875,-0.25346856511235233,-0.11290069525390863,0.3772690592389554
1789911370442382800,1.2383828125,-0.036436756515502926,-0.08871317945867777,0.2514652259333059
1789911370452392000,1.248391845703125,0.16454758812189102,-0.10433978765755891,0.09768982824906706
1789911370462399700,1.258399658203125,0.2728635859340429,-0.08249006716012955,0.005481354020535945
1789911370472408800,1.268408935546875,0.36218846755027767,-0.039542613576352595,-0.007675795324891805
1789911370482418000,1.27841796875,0.4095528607934713,0.01102028344720602,0.044955615068413314
1789911370492425700,1.28842578125,0.37977965382039547,0.06882628346681595,0.08694701003637165
1789911370502434800,1.298434814453125,0.3254629572212696,0.13645751193016767,0.044727322737872596
1789911370512444000,1.30844384765625,0.21399930903315542,0.1631385981068015,-0.042542964436113835
1789911370522452700,1.31845263671875,0.10828618719577789,0.19611966121047733,-0.04889039723407477
1789911370532460800,1.328460693359375,0.06469196014106274,0.24243980609774587,0.054028965698927636
1789911370542469600,1.3384697265625,0.09699790046215057,0.25698972497582434,0.11016991858314722
1789911370552478700,1.348478759765625,0.15161328774690627,0.26975626756846904,0.12547306698132304
1789911370562486500,1.358486572265625,0.20254735617041586,0.2612511818125844,0.14124485580455512
1789911370572495600,1.36849560546875,0.19801672700345516,0.20950813509374855,0.11990977029837667
1789911370582504700,1.378504638671875,0.06494213550984859,0.02947539307028055,0.12821462077442555
1789911370592513800,1.388513671875,0.05575754305720329,-0.030737375830113885,0.14366280366647988
1789911370602521600,1.398521484375,0.025132103168964384,-0.05689940656870603,0.09645246847383677
1789911370612530700,1.40853076171875,-0.04929390000104904,-0.007877893768250942,-0.0034777225805446505
1789911370622539800,1.418539794921875,-0.09005670302212238,0.051691901053488254,-0.20087558703329414
1789911370632548900,1.428548828125,-0.06846095728576183,0.11084113237559795,-0.29210601000990716
1789911370642556700,1.438556640625,-0.06435761362016201,0.10381751734912395,-0.28608744384013113
1789911370652565800,1.448565673828125,-0.17445114249885083,0.07835486705154181,-0.08652659266721456
1789911370662574800,1.458574951171875,-0.23066110549867153,0.003165478293597698,0.10781319938916713
1789911370672583000,1.4685830078125,-0.22493805167675018,-0.0049903556331992146,0.12787808229643852
1789911370682591700,1.478591796875,-0.11665244900286197,-0.3663672145396471,0.31182730364389716
1789911370692600800,1.488600830078125,-0.033685411980748176,-0.5072989492744208,0.4430139624990523
1789911370702609700,1.498609619140625,-0.008338789278268813,-0.5080605812966823,0.6646050418354571
1789911370712618000,1.508617919921875,-0.12592588878273964,-0.4239490504145622,0.8263572270851581
1789911370722626600,1.51862646484375,-0.4394873958081007,-0.38484687408208845,1.0575926253404468
1789911370732635600,1.5286357421875,-1.1364537614136934,-0.44793461389690636,1.4264108132287858
1789911370742643700,1.538643798828125,-1.0931494572162628,-0.4912731126248836,1.5680077338740228
1789911370752652800,1.54865283203125,-2.4156202957600352,-1.292279406158626,2.164083283232152
1789911370762661600,1.55866162109375,-2.2683254557341335,-1.5561629823014138,2.2275481857962904
1789911370772670700,1.568670654296875,-2.2131232084721324,-1.6065882244199514,2.3644663009755313
1789911370782678800,1.5786787109375,-0.8824170410245656,-2.4434645804971455,1.383798875209689
1789911370792687600,1.5886875,-0.3368640566796064,-2.6715420992434025,1.0473004369720815
1789911370802696700,1.59869677734375,0.261352596360445,-2.5923475664973257,1.0319117291823028
1789911370812704800,1.608704833984375,0.8290700662404298,-2.1123387752085923,1.6050237515822052
1789911370822713900,1.6187138671875,1.065535474103689,-1.293426530367136,2.231427219186723
1789911370832722700,1.62872265625,1.0816150867670773,-0.8779699984878301,2.608755388201773
1789911370842731800,1.638731689453125,1.3852771310687064,-1.0005787255465983,3.05672565793395
1789911370852739800,1.64873974609375,-2.043205617749691,-1.037051722419262,3.217391436186433
1789911370862749000,1.6587490234375,-2.2091823618918656,-1.6532576211363077,2.9000030643492933
1789911370872757800,1.6687578125,-3.094848175579309,-1.9975784235626457,1.2373697121024132
1789911370882765800,1.678765869140625,-3.7428538186609743,-1.7067203312546013,0.48954292783141135
1789911370892775000,1.68877490234375,-3.014323271012306,-1.1207926664233208,-0.019927520263195036
1789911370902783700,1.69878369140625,-2.9053572848588227,-1.058273374146223,0.16917758601009844
1789911370912792600,1.70879248046875,-1.8683792121976612,-0.6774526868402958,-0.6931950303733349
1789911370922801000,1.71880078125,-1.1332733778119086,-0.39758302153646946,-1.6210329293578862
1789911370932809700,1.728809814453125,-0.3405588195443153,-0.5147106868356466,-2.1266841114252806
1789911370942818800,1.73881884765625,0.44754619910120963,-0.6954051076382398,-1.0591507415026427
1789911370952826600,1.74882666015625,0.45225393840074535,-0.6741974844366312,-1.033565633869171
1789911370962835700,1.758835693359375,0.8345704172223806,-0.22425474558770656,-1.1124971317648886
1789911370972844800,1.7688447265625,-0.02600537887215614,0.1868038435935974,-1.4839923568427562
1789911370982853600,1.778853515625,-0.39987960804104805,0.1630973893135786,-0.15986322969794273
1789911370992861700,1.78886181640625,0.5044108266174793,-0.21315642846822738,2.491392452841997
1789911371002870800,1.798870849609375,2.2828239366859195,-1.3733125525087118,3.8243770866155624
1789911371012880000,1.8088798828125,0.3940899187237024,-3.3609295540273187,2.6365993806779384
1789911371022887700,1.8188876953125,0.5778191771775484,-3.286131210413575,2.844627798607945
1789911371032896800,1.828896728515625,-0.9313684111982583,-3.3842414560317993,3.015101269647479
1789911371042905900,1.83890576171875,-1.6840794603794813,-3.9151317087739703,3.5469472156792876
1789911371052915000,1.8489150390625,-1.3936553755745291,-4.236981736195087,4.739237430605292
1789911371062922800,1.8589228515625,-0.8148039327397942,-4.772286882770061,5.822316160184145
1789911371072931800,1.868931884765625,-1.3418787188470362,-5.078129778242111,6.5205304800242185
1789911371082941000,1.87894091796875,-1.5971055258035658,-5.261477928423881,6.580085077276825
1789911371092948700,1.88894873046875,-1.1278820401623844,-5.626211988803744,6.255374984249472
1789911371102957800,1.898957763671875,-0.058228317084908485,-6.35715252020359,6.476276912277936
1789911371112966700,1.908966552734375,0.26296090833991764,-6.960229472756385,7.112087090653181
1789911371122975700,1.918975830078125,0.2978948590770364,-7.254343936511874,7.555472078421712
1789911371132983800,1.92898388671875,-0.19636282231658697,-7.48048318067193,7.705204374727606
1789911371142992600,1.93899267578125,0.22997546132206914,-7.579933150461316,7.410876560482382
1789911371153001700,1.949001708984375,0.1250885611757636,-7.507294030708074,6.371157664680481
1789911371163009800,1.959009765625,0.012562544453144073,-7.506769714573025,5.086403685590625
1789911371173019000,1.969018798828125,0.6465630430579186,-8.252781558376551,3.7111446751892565
1789911371183028000,1.979028076171875,-0.5446779550760984,-9.43676337916255,0.8414566696047783
1789911371193037000,1.989037109375,-0.5884954694926738,-8.89643368242383,0.8165735727608203
1789911371203044900,1.999044921875,0.5917442421555519,-9.244639801850914,-2.5228484983354806
1789911371213054000,2.009053955078125,1.1592945387750864,-9.094857236662506,-4.255082625553012
1789911371223063000,2.01906298828125,2.0346178221464157,-8.779625166076421,-6.020069852337241
1789911371233071000,2.029071044921875,1.8113585173368454,-8.119765419071912,-7.584203667387366
1789911371243080000,2.039079833984375,1.9639634464696047,-7.588169648408889,-7.666727636817098
1789911371253089000,2.049089111328125,0.06899462577104568,-6.494333377972245,-10.38092171382904
1789911371263098000,2.05909814453125,-0.49740708533525463,-5.941131924700737,-11.64944410456419
1789911371273106000,2.06910595703125,-0.6118401047229767,-5.640196675014495,-12.275530176782608
1789911371283115000,2.079114990234375,-0.4336065210759639,-5.0049108127743,-12.246977451515198
1789911371293123800,2.089123779296875,-0.11161387031376362,-4.595124143224955,-12.373914563167094
1789911371303132200,2.099132080078125,0.47676644836664195,-3.5023008492231367,-13.872633364498615
1789911371313141000,2.10914111328125,-0.15577391455769538,-2.363743978050351,-15.034846421068906
1789911371323149800,2.11914990234375,-0.7612287021577357,-0.9495201539605855,-15.920364350718259
1789911371333158100,2.129158203125,-1.0281173053354025,0.5676864902198314,-16.002334193396567
1789911371343167000,2.1391669921875,-0.7348965755492448,0.6999561950713395,-16.04166316422224
1789911371353175800,2.14917578125,-0.6660412121184169,2.0427701489418744,-15.321922656750678
1789911371363185000,2.159184814453125,-0.5870008470207453,3.9421120701581236,-14.275178392356633
1789911371373193000,2.16919287109375,0.13408457225374876,5.157610142192244,-13.976830236554145
1789911371383202000,2.1792021484375,1.5720213534295557,5.920381397616863,-12.87495620561242
1789911371393211000,2.1892109375,1.8145219498038292,5.851739823067188,-12.792404179131983
1789911371403219000,2.199218994140625,3.812950852715969,5.788945805501937,-10.596319199222325
1789911371413228000,2.20922802734375,4.284026395964622,5.541425335139036,-10.046385807836055
1789911371423237000,2.219237060546875,4.678856903922558,6.069897420823573,-8.834787665849923
1789911371433246000,2.229245849609375,7.852098817259073,7.186985972031951,-6.182248373240232
1789911371443254000,2.23925390625,8.045401375222205,7.047758703127503,-6.087533615279197
1789911371453263000,2.24926318359375,10.619303768968582,10.332485891962051,-1.5478408518970013
1789911371463272000,2.25927197265625,9.644724577075243,10.255426033157109,-0.0433960741341114
1789911371473280000,2.269280029296875,7.87463330515027,8.089684169062972,0.13650339689850807
1789911371483289000,2.2792890625,6.201701261729002,5.1284693879038095,-0.00980593922138214
1789911371493298200,2.289298095703125,6.161797121363878,5.0217526419818395,0.06803776343762874
1789911371503306000,2.299305908203125,5.3376995828390115,2.4813813464373347,0.033333529803156854
1789911371513315000,2.309315185546875,4.798821838474273,0.8805167603611945,0.7847837652683257
1789911371523324000,2.319323974609375,3.4698727438271044,0.33792087225615974,2.019627758285403
1789911371533333000,2.3293330078125,2.415113515281677,0.6075561437934637,2.3192028255343438
1789911371543340800,2.3393408203125,0.6863982098400593,0.7547156670019031,3.699301092660427
1789911371553350000,2.349349853515625,-0.4536766281476244,0.3894797945797443,4.0148119801878925
1789911371563359000,2.35935888671875,-0.40891865454316134,-0.29069471843987704,2.9612065978527067
1789911371573366800,2.36936669921875,-0.9967138668119907,-1.142271507781744,1.7952970248520372
1789911371583376000,2.3793759765625,-0.8835784860193728,-0.9793082662418484,0.2224181778103113
1789911371593385000,2.389385009765625,-0.5782739352077245,-0.5938721940949558,-0.354617740035057
1789911371603394000,2.39939404296875,-0.9873568404018879,-0.65476622325778,-1.0077321044325829
1789911371613401900,2.40940185546875,-0.4312123194158077,-0.24960253733396529,-1.5863129136323928
1789911371623411000,2.419410888671875,-0.42171033157706256,0.6159998547509312,-1.3013111461371183
1789911371633420000,2.429419921875,-0.183152919870615,1.726240439760685,-1.0534066448926924
1789911371643428000,2.439427978515625,-2.6207524077266453,3.3206030965968965,-1.9249241062402724
1789911371653437000,2.44943701171875,-1.8517220919072628,0.9614490766853093,-1.0008511127471924
1789911371663446000,2.459446044921875,-1.5611533379346132,-2.5064345391511917,0.4716103807777166
1789911371673454000,2.4694541015625,-1.9566706591129301,-0.2737932679995894,0.8787035734593868
1789911371683463000,2.479462890625,-1.3201497021198272,0.131316934171319,0.8891051404863596
1789911371693472000,2.489471923828125,0.891866421893239,-2.99021992636919,2.5900778679996725
1789911371703480800,2.499480712890625,-0.7598059758782386,-2.264122451086342,2.4082956519603727
1789911371713489200,2.5094892578125,-1.143851543514803,-1.813224311208725,2.1922253818720576
1789911371723498000,2.519498046875,-0.9064496585190296,-2.556787008294463,3.3435330135464665
1789911371733506800,2.5295068359375,-0.821786923494935,-2.9833614387765524,4.361370332407951
1789911371743515100,2.53951513671875,-0.4370120186705142,-2.9364176090329885,4.500741978219152
1789911371753524000,2.54952392578125,0.052428763960674404,-2.4841776991575957,4.2398464779764415
1789911371763532800,2.55953271484375,0.7787491612792015,-1.2924518401160836,3.4002257916271685
1789911371773540900,2.569540771484375,1.629013406717777,-0.7550918068379163,1.4024778567165135
1789911371783550000,2.579550048828125,-0.007339256846904754,-0.017090835532546044,0.3625006022393703
1789911371793559000,2.58955908203125,0.06624094314873218,0.04392945035845041,0.351868733587861
1789911371803567900,2.59956787109375,-2.5637989328831434,-1.1310419654980302,-1.2604489743947982
1789911371813576000,2.609575927734375,-2.2091636571913957,-7.754066313052177,-4.384108818438649
1789911371823585000,2.6195849609375,-2.1098259156048296,-7.777046791145205,-4.370708069595694
1789911371833594000,2.629593994140625,2.1172171948999163,-0.8812447823747992,3.1388346168220043
1789911371843602000,2.639601806640625,2.2058856584340334,-0.8878273756355046,3.1447464712142943
1789911371853611000,2.649611083984375,0.5001770980378613,0.8366594984561204,4.600779392507672
1789911371863620000,2.6596201171875,1.4549188225716352,-0.3023135523021221,2.826356813380122
1789911371873629200,2.669629150390625,1.135712003135681,-2.76253082241863,-0.9941080682277679
1789911371883637000,2.679636962890625,-0.6886100406706332,-3.020307606118917,-2.172715210238099
1789911371893646000,2.68964599609375,-0.6679413466513157,-2.902870728740096,-2.20960263313055
1789911371903655200,2.6996552734375,-0.17093584612058474,-1.8006638125821948,-0.3264566444337368
1789911371913663000,2.7096630859375,-0.08433715633153915,-1.9760580811500548,-0.27280104209184647
1789911371923672000,2.719672119140625,0.5019873988628387,-1.3676914977565406,-1.9273767600893974
1789911371933681000,2.729680908203125,0.7319955934107303,0.7078446102336049,-3.0979005488872526
1789911371943689000,2.73968896484375,0.7299030050456523,0.8393822014182806,-3.154423231098056
1789911371953697800,2.74969775390625,1.6416355724036693,1.786530365550518,-5.195494174906611
1789911371963707000,2.759706787109375,0.36773791837096215,1.8994217084541916,-6.514972261375188
1789911371973716000,2.769716064453125,-0.8726134398907422,2.170701532328129,-8.705517727336288
1789911371983723800,2.779723876953125,-1.4587117851138114,1.670886801329255,-10.122911413633823
1789911371993732900,2.78973291015625,-1.1035200445830822,1.6444813172236084,-11.140776789546011
1789911372003742000,2.799741943359375,-0.18885785351395606,1.9404320564955473,-11.541298202621936
1789911372013750000,2.80975,0.8926029194742441,2.2931576991736886,-10.000562798815965
1789911372023758800,2.8197587890625,1.1123246978074313,2.60338947725445,-6.5847939856201405
1789911372033768000,2.829767822265625,0.7529238151490688,3.011603782920539,-2.132556218329072
1789911372043776000,2.83977587890625,-0.25570143873095513,3.008073855228722,3.662183368143439
1789911372053785000,2.84978515625,-0.28913262022230773,2.7883769190758465,3.744398125493526
1789911372063794000,2.8597939453125,-0.4336807918885722,1.6176359803959726,8.707233299082517
1789911372073803000,2.869802978515625,-2.9285119504749773,-2.341324933232367,16.695745496869087
1789911372083811000,2.87981103515625,-3.5228736816525457,-4.464100639042258,18.893332698035238
1789911372093820000,2.88981982421875,-3.622988837352395,-4.516401904165744,18.90353611214161
1789911372103829000,2.8998291015625,1.7952888415455817,-5.458814856469631,7.661701333087683
1789911372113837000,2.909837158203125,1.6655150451630354,-5.5624003186285496,7.681171172711252
1789911372123846100,2.91984619140625,3.4492046343296763,-1.3364175308316946,5.404090163591504
1789911372133855000,2.92985498046875,2.7094799079716205,0.147051971180737,6.213916015657782
1789911372143863000,2.939863037109375,1.125594513747096,0.3329273017525673,6.867657572042941
1789911372153871600,2.94987158203125,0.2851427834011614,-0.8242191190779209,6.799934281381964
1789911372163880700,2.959880615234375,0.3197866651505232,-2.119273542907834,6.556435321620106
1789911372173889300,2.96988916015625,-0.424664651338011,-3.0911566275849935,6.665113138481974
1789911372183897600,2.979897705078125,-4.330024761551618,-3.8909459465444085,6.286325418308377
1789911372193906400,2.989906494140625,-4.675039099200069,-6.4262780788779255,2.187974154168367
1789911372203915300,2.999915283203125,-3.9595688163936136,-8.594680686613916,-3.6958085743695497
1789911372213923300,3.00992333984375,-3.4360283418923614,-7.192290508180856,-6.134387136390805
1789911372223932400,3.019932373046875,0.28936434661895033,-5.758498644790053,-7.88640031531155
1789911372233941500,3.02994140625,2.354637711530924,-4.702312306050956,-10.867671796071528
1789911372243949300,3.03994921875,-0.5720161899872124,-1.412447462067008,-10.140194556868076
1789911372253958400,3.04995849609375,0.6558193855725228,-0.1876166212812066,-9.609448681032656
1789911372263967500,3.059967529296875,1.280905925359577,0.9639604749843478,-10.120984829485415
1789911372273976600,3.0699765625,0.16346037740707398,2.712636033914983,-7.652219803515076
1789911372283984400,3.079984375,1.4254846382945776,3.5263831510782238,-3.6992099072456357
1789911372293993500,3.089993408203125,2.7759511527448892,2.1560963761314746,-4.969935360983014
1789911372304002600,3.10000244140625,1.5074924748957157,0.7569254520058631,-6.371466876760125
1789911372314010400,3.11001025390625,1.7891718199700115,0.5545616357088089,-5.922167696511745
1789911372324019500,3.12001953125,2.174866689183563,1.7881661500588057,-4.489175459066033
1789911372334028500,3.130028564453125,3.370500515449047,3.7451448522076007,-2.600903797918558
1789911372344036600,3.14003662109375,4.145981614843011,5.085231134679913,-2.3172838401705027
1789911372354045400,3.15004541015625,3.9080169083327054,6.0707414704322815,-2.569230310282111
1789911372364054500,3.160054443359375,3.6254099270194766,6.84554277086854,-2.752763753902912
1789911372374063600,3.170063720703125,2.8072242428869005,6.8277405721962445,-1.9136743979513644
1789911372384071700,3.18007177734375,1.6069593958199024,6.357945131886005,1.5150333917945622
1789911372394080500,3.19008056640625,1.5740677645653485,6.249460207247734,1.5538497369229793
1789911372404089300,3.20008935546875,0.5469154318045825,4.7733226555585855,3.09906140936017
1789911372414097700,3.21009765625,-1.4920874004930258,3.189283824338019,3.142186849859357
1789911372424106200,3.220106201171875,-1.9097247835427522,1.930301707625389,4.020297133600711
1789911372434115300,3.230115234375,-2.2478356254130603,2.0853183740749954,5.56715423515737
1789911372444123400,3.240123291015625,-2.360539629051089,1.9165481998220084,5.60863132392764
1789911372454132500,3.250132568359375,0.45037703861296174,5.022915840542316,6.083652974453568
1789911372464141300,3.260141357421875,2.114443054011464,5.962838729596138,5.939190142983198
1789911372474150400,3.270150390625,1.8621125530183313,5.190734997680783,4.213200463113188
1789911372484158500,3.280158447265625,1.6557340942524372,7.013838313347101,4.320312345832586
1789911372494167600,3.29016748046875,1.3892460346996784,6.993188324028253,4.270573040151596
1789911372504176400,3.30017626953125,0.8137759048663079,3.859104116603732,8.659937879422307
1789911372514184400,3.310184326171875,2.1111571642085907,-1.6248913583517073,9.865580327874422
1789911372524193500,3.320193603515625,-0.44637247914671896,-8.498771750432253,7.534098451003432
1789911372534202600,3.33020263671875,-5.095118322443962,-11.660243730998038,3.6270810751020908
1789911372544210400,3.34021044921875,-7.267543609824776,-12.320138549315928,0.48660628985762594
1789911372554219500,3.350219482421875,-7.303183663004637,-11.994314357566832,0.33816870953738687
1789911372564228600,3.360228515625,-1.5439055582746863,-13.149658112889528,-4.887793084347248
1789911372574237700,3.37023779296875,-1.1195344830557703,-9.714451024252176,-5.723738881576061
1789911372584245500,3.38024560546875,1.0199825141966343,-5.115350963133573,-3.858849849581718
1789911372594254600,3.390254638671875,3.011081512612104,-2.071495015905797,-3.401314171385765
1789911372604263400,3.400263427734375,3.92410353525877,-0.5873541905030608,-3.082504242312908
1789911372614271500,3.410271484375,2.3773284128971395,-3.069567019328475,-6.701204442560672
1789911372624280600,3.420280517578125,2.952694205573201,-4.111934383812547,-7.39504712318778
1789911372634289400,3.430289306640625,2.499777419349551,-1.097162784510851,-5.299431519243121
1789911372644297500,3.44029736328125,2.5262428169488906,-1.046663600373268,-5.32921817021966
1789911372654306300,3.450306396484375,0.2906143466800451,5.442830520874262,0.1954524294734001
1789911372664315400,3.4603154296875,0.09752221659719944,5.888956916305422,1.2559013940930366
1789911372674324500,3.470324462890625,-0.1442341372810304,4.453160727354884,0.3637649230867624
1789911372684332300,3.480332275390625,-0.8764009956054389,2.6198177572250363,0.08077917158901692
1789911372694341400,3.49034130859375,-1.2040946344882248,1.68846454359591,0.7408043382883072
1789911372704350500,3.5003505859375,-1.0934569157302378,1.8713047442555426,0.6089163262307643
1789911372714358500,3.510358642578125,-0.5822195310283452,1.4886498272597788,0.02904138556718826
1789911372724367400,3.520367431640625,0.19685403989963232,1.8265268603742122,0.15029811349511146
1789911372734376400,3.53037646484375,0.2632621563088149,2.0017232682824133,0.3846621651649475
1789911372744385500,3.540385498046875,0.0071165174743160605,2.097693579262495,0.6238754104316234
1789911372754393600,3.5503935546875,-0.3846662568181753,2.47984230030179,1.1289724657475948
1789911372764402400,3.56040234375,-0.8074597074568272,3.004824790304899,1.9150322423011064
1789911372774411500,3.57041162109375,-1.2459481553554534,3.262292654186487,2.6324977905780074
1789911372784419600,3.580419677734375,-3.2491502640187737,1.5873293971985578,1.98423612690866
1789911372794428700,3.5904287109375,-2.845786905515194,2.1358821478813885,2.3504840989828106
1789911372804437500,3.6004375,-1.4087082755386828,3.831705237546563,3.493176462525129
1789911372814445600,3.610445556640625,-1.5579472353696822,3.5296325082629916,3.3931735350280996
1789911372824454700,3.62045458984375,-1.741359682959318,3.5811253796130416,3.31314605858922
1789911372834463200,3.630463134765625,-2.1041665746688842,3.8975148035407066,3.5166432628303763
1789911372844472300,3.640472412109375,-2.4303882413029667,3.6520606180578468,3.4760610770732163
1789911372854480400,3.65048046875,-2.1805717689573765,2.71451556405127,3.0543197658360004
1789911372864489500,3.660489501953125,-2.0154221232891083,0.9101251321613788,2.2513412954464553
1789911372874498300,3.670498291015625,-1.838838060414791,-1.435629600211978,1.4240209954828023
1789911372884506400,3.68050634765625,-1.6322656865119933,-4.0818361826688045,0.27315467783510683
1789911372894515500,3.690515380859375,-1.3711024752438068,-7.135378534391522,-1.1943091535329817
1789911372904524500,3.700524658203125,-1.7936790682613848,-9.912427419245242,-2.9261341154277325
1789911372914533400,3.710533447265625,-2.820017673486471,-11.740468191313743,-4.3300285609439015
1789911372924541400,3.72054150390625,-3.342657399755716,-12.18188158674836,-5.049778713026643
1789911372934550500,3.730550537109375,-3.254381734931469,-10.807283670604228,-4.876383801582455
1789911372944559600,3.7405595703125,-2.2631366549193856,-7.656388613632321,-3.4069247047439215
1789911372954567400,3.7505673828125,-0.034395459946244954,-3.590522738033533,-0.31353724936693905
1789911372964576500,3.760576416015625,3.82233009095788,-0.6143541333705187,3.7952585441589353
1789911372974585600,3.770585693359375,10.124393761146068,1.300472357225418,5.836790091216564
1789911372984594700,3.7805947265625,10.495196912306547,2.1389538104116914,5.1392947333008046
1789911372994602500,3.7906025390625,6.498098283463716,1.5748159525841474,3.17019304715991
1789911373004611600,3.800611572265625,0.9849720641572027,0.6208440799117088,0.9419795293226838
1789911373014620400,3.810620361328125,-0.3797697169482708,0.13900456606447695,0.5700225319519638
1789911373024628500,3.82062841796875,-0.7215081016659736,-0.5642606074243783,0.2252966558560729
1789911373034637600,3.830637451171875,-0.6698527332305908,-1.1065899535477162,0.2505234515711665
1789911373044646400,3.840646484375,-0.6052993047773838,-1.1891402264624833,0.44277299335002895
1789911373054654500,3.850654541015625,-0.8117758170902729,-1.4487322428911924,0.5399710925593972
1789911373064663300,3.860663330078125,-1.0412520236533134,-1.587759605309367,0.45149230637848375
1789911373074672400,3.87067236328125,-0.9992401704192161,-1.4755974534630774,0.5184601024970412
1789911373084681500,3.880681396484375,-1.0896797352790832,-1.1623077491164207,0.633708529920876
1789911373094689300,3.890689208984375,-1.0790308424275368,-1.2306138081014155,0.7617796140387654
1789911373104698400,3.900698486328125,-1.4913199232518672,-0.24518705897927282,0.835543061646819
1789911373114707500,3.91070751953125,-1.5756699390649795,0.2209066042035818,0.870217484664917
1789911373124715500,3.920715576171875,-1.5965432157456874,0.621738982924819,0.8578291277348995
1789911373134724400,3.930724365234375,-1.5492179854691028,0.8870353484749793,0.79917352514863
1789911373144733400,3.9407333984375,-1.5355623850822449,0.8547761699050664,0.8515694828182458
1789911373154743300,3.950743408203125,-1.1777904918652027,0.929634719273448,0.3415525067567825
1789911373164751400,3.96075146484375,-1.0092821103535592,0.7385603587538003,-0.006791559836268424
1789911373174760400,3.970760498046875,-0.865188404456526,0.5203448933303356,-0.35410336077213284
1789911373184769300,3.980769287109375,-0.6905133900739252,0.30507015753388406,-0.6742214498341084
1789911373194777300,3.99077734375,-0.5707086145199834,0.12720540719926357,-0.9367577030211687
1789911373204786200,4.0007861328125,-0.45109073984026904,0.07423252642452717,-1.1195680930644274
1789911373214795000,4.010794921875,0.02581248664855957,0.07953063283264636,-1.5623615446805954
1789911373224804000,4.02080419921875,0.8137105845451355,0.12808219003379345,-2.22616447635293
1789911373234812200,4.030812255859375,1.2409119147539138,0.33466274724304673,-2.120691008490324
1789911373244821200,4.0408212890625,1.286720749118179,0.6216331844627857,-1.4130787457078695
1789911373254830000,4.050830078125,1.0700456450045108,0.821846544727683,-0.6675380265474319
1789911373264838100,4.060838134765625,0.7871851273216307,0.8769915088444947,-0.20274258648157117
1789911373274847200,4.07084716796875,0.5445663844604045,0.8070663242250681,0.11486322749853134
1789911373284856300,4.080856201171875,0.32782559469938277,0.6197995392948389,0.25733751550018785
1789911373294865200,4.090865234375,0.1051086531382054,0.29976269877552986,0.32098551954627036
1789911373304873200,4.100873291015625,0.11608137111663817,0.2885661819785833,0.3351560837179422
1789911373314882300,4.11088232421875,-0.06024316403865814,-0.1019634139150381,0.3176636816471815
1789911373324891400,4.120891357421875,-0.1613232923131436,-0.3734323306202888,0.3915466639816761
1789911373334899200,4.130899169921875,-0.15905191331505775,-0.5238660531938075,0.5234218165576457
1789911373344908300,4.140908203125,-0.08623561036400497,-0.6528992603421211,0.6462018085300922
1789911373354917400,4.15091748046875,-0.0026630817294120788,-0.7123597495704889,0.7322551211297511
1789911373364926500,4.160926513671875,0.04017068234682083,-0.702033001345396,0.8439017246693372
1789911373374934300,4.170934326171875,0.10544424176812171,-0.560697361984849,0.8528180215746164
1789911373384943400,4.180943359375,0.14643077054247258,-0.4196060527741909,0.7980898215651512
1789911373394952200,4.1909521484375,0.21879932972602545,-0.3608089958906173,0.7530828051030636
1789911373404960300,4.200960205078125,0.2483914810437709,-0.3415262032717466,0.6655699413448571
1789911373414969000,4.210968994140625,0.17866043075695634,-0.282785260489583,0.559947420400381
1789911373424978200,4.220978271484375,0.03265957606434822,-0.14600129308402537,0.4297837479174137
1789911373434987300,4.2309873046875,-0.17932897766828537,-0.01587912165522575,0.30531741029322146
1789911373444995000,4.2409951171875,-0.41110600851960477,0.11646189486682414,0.1384235513061285
1789911373455004200,4.251004150390625,-0.6441665033102035,0.24151450794637203,-0.01110474686026573
1789911373465013200,4.26101318359375,-0.7784756050348282,0.31920740395784375,-0.11725509107112884
1789911373475021000,4.27102099609375,-0.8294962557632476,0.39986616403758524,-0.15895546720325945
1789911373485030100,4.281030029296875,-0.7505426921661943,0.46755146077573295,-0.1771796906799078
1789911373495039200,4.291039306640625,-0.5471721830446272,0.4762409631878137,-0.20593407599925995
1789911373505048300,4.30104833984375,-0.2986332563541829,0.4513140272021293,-0.28416940832436083
1789911373515056000,4.31105615234375,-0.09289448373131454,0.43210839147269725,-0.3443973747938871
1789911373525065200,4.321065185546875,0.049074119770526885,0.3431710478693247,-0.32691958577036856
1789911373535074300,4.33107421875,0.06400156672410666,0.25779578066170217,-0.24052257429957388
1789911373545082400,4.341082275390625,0.016757146598771214,0.17173837640881537,-0.1734755754649639
1789911373555091200,4.35109130859375,-0.08165303181409836,0.14295418047308922,-0.1371422793239355
1789911373565100300,4.361100341796875,-0.20145788043327628,0.12508300821781157,-0.10753683013319969
1789911373575109000,4.371109130859375,-0.2606512431580573,0.12472761890888213,-0.08180442298352718
1789911373585117400,4.381117431640625,-0.3423077821034938,0.11605039145648478,-0.08744681278467178
1789911373595126300,4.391126220703125,-0.34301015821918845,0.11694470994770526,-0.08857084837853908
1789911373605135000,4.401135009765625,-0.22687281913161275,0.13931786979734898,-0.201836577552557
1789911373615143400,4.411143310546875,-0.16715112168379126,0.217390705037117,-0.2804056718766689
1789911373625152000,4.421152099609375,-0.11850479887127875,0.2520581137925386,-0.36698271608948707
1789911373635161000,4.4311611328125,-0.11875614328384398,0.30686931591033934,-0.4395294813841581
1789911373645170200,4.441170166015625,-0.13824761021733284,0.2853016272246837,-0.46600890750885005
1789911373655178200,4.45117822265625,-0.18202713071107862,0.22336919492483137,-0.4198883768469095
1789911373665187000,4.46118701171875,-0.24503274520039556,0.2049339590460062,-0.30322657549381254
1789911373675196200,4.471196044921875,-0.2819615960817784,0.15018997694551944,-0.16573533660173415
1789911373685204200,4.481204345703125,-0.28387648979239166,0.10466741217672824,-0.0376361954331398
1789911373695213300,4.49121337890625,-0.24285956587977706,0.08677285904586314,0.05334522121846676
1789911373705222100,4.50122216796875,-0.19433482362031934,0.07364508192539215,0.11716624374389648
1789911373715231200,4.511231201171875,-0.16387056564316152,0.06642623658776282,0.14729951620101928
1789911373725239300,4.5212392578125,-0.16283837305121124,0.04930559043884277,0.1800111147135496
1789911373735248400,4.531248291015625,-0.16292137515954672,0.015493921729922294,0.2198252387076616
1789911373745257200,4.54125732421875,-0.12118432027883827,-0.04461304870843887,0.24457506456077097
1789911373755265300,4.551265380859375,-0.07758359041810035,-0.08738309989869594,0.2623901227146387
1789911373765274400,4.5612744140625,-0.026976854252815246,-0.09799275671839713,0.3004348989486694
1789911373775283500,4.571283447265625,0.04258709583878517,-0.1231038170993328,0.3453559906929731
1789911373785292000,4.5812919921875,0.14192534888200461,-0.11567688196897506,0.3342769627958536
1789911373795300400,4.59130029296875,0.2670166865367442,-0.08460194474756717,0.25233634621202944
1789911373805309200,4.60130908203125,0.32982707071490586,-0.027098434805870056,0.11793781263828276
1789911373815318000,4.611318115234375,0.33541144671849904,0.03817044844031334,0.014476853641867637
1789911373825327000,4.6213271484375,0.2676782922506332,0.07584872944951057,-0.07265256375670433
1789911373835335200,4.631335205078125,0.12805004132986067,0.059435939309000964,-0.15503507888913154
1789911373845344300,4.64134423828125,-0.025364669815823436,0.02130640740096569,-0.20165011506974695
1789911373855353000,4.65135302734375,-0.1627962874751538,0.003940262058377266,-0.20279928510487077
1789911373865361200,4.661361083984375,-0.2430219168346375,0.034220834031701085,-0.18460662581026552
1789911373875370200,4.671370361328125,-0.27349428505301476,0.1002162779867649,-0.10219137745201587
1789911373885379300,4.68137939453125,-0.27694873635582623,0.12352876451313495,0.011918401330709457
1789911373895388200,4.69138818359375,-0.23136655035428702,0.07230243514478206,0.07649287257194519
1789911373905396200,4.701396240234375,-0.23043029241748153,0.07259644965529441,0.0759475136488676
1789911373915405300,4.7114052734375,-0.12013210781216621,0.0029874913781881333,0.14066986892819403
1789911373925414400,4.721414306640625,-0.006642725950106978,-0.046294133663177486,0.18239128784835337
1789911373935422200,4.731422119140625,0.20606376679353414,-0.0652858343809843,0.14147066391706467
1789911373945431300,4.741431396484375,0.20703414619565008,-0.06523790358603,0.14126082055866718
1789911373955440400,4.7514404296875,0.27879239146113394,-0.0399625925540924,0.06639233431816101
1789911373965449200,4.76144921875,0.2827941744484007,-0.005740589478611946,0.06722001731395721
1789911373975457300,4.771457275390625,0.24403679296560585,0.008661445361375808,0.08807108216285706
1789911373985466400,4.78146630859375,0.17687632381916046,-0.028790625676512718,0.08634849615395068
1789911373995475200,4.79147509765625,0.1331038175880909,-0.08406418460905551,0.07817103491723537
1789911374005483300,4.801483154296875,0.125143798494339,-0.14075345555841923,0.07586743414998054
1789911374015492000,4.8114921875,0.11415120677165687,-0.19345979435145855,0.09110825790166854
1789911374025501200,4.821501220703125,0.10992518657445907,-0.20784838518798351,0.11104513051509857
1789911374035510300,4.83151025390625,0.14076098127774894,-0.22846797936856744,0.14660042802095413
1789911374045518000,4.84151806640625,0.1728559091966599,-0.26290567102134227,0.19218787471950052
1789911374055527200,4.851527099609375,0.23262217643857,-0.2858002243965864,0.2443774961620569
1789911374065536300,4.861536376953125,0.272436300432682,-0.3049982613414526,0.3146960640132427
1789911374075545300,4.87154541015625,0.3057294982254505,-0.2922738043248653,0.37090836510062214
1789911374085553200,4.88155322265625,0.3069662734787911,-0.22581541903316973,0.38514439572393894
1789911374095562200,4.891562255859375,0.2718576237618923,-0.1309247199833393,0.29204525626599787
1789911374105571300,4.9015712890625,0.17966800036430358,-0.04334171359837055,0.18473814323544502
1789911374115579100,4.9115791015625,0.0035551351983100173,0.03778466399312019,0.0984562825769186
1789911374125588200,4.921588134765625,-0.18324987743906676,0.09416355381906032,0.0024807108998298644
1789911374135597300,4.931597412109375,-0.3348305050253868,0.13657470856904982,-0.0734901836246252
1789911374145606400,4.9416064453125,-0.4365267924368381,0.18606559244692325,-0.0949006359219551
1789911374155614200,4.9516142578125,-0.5008323105435818,0.2600456054151058,-0.08518062141835689
1789911374165623000,4.961623046875,-0.525844075268507,0.347308878326416,-0.07191255904436111
1789911374175632000,4.9716318359375,-0.5350630814474076,0.34131577539145946,-0.12096680507063864
1789911374185640000,4.981639892578125,-0.39416641802601515,0.310849909979105,-0.23488719876110553
1789911374195649000,4.99164892578125,-0.2780781057119369,0.3018944501072168,-0.2531774732112884
1789911374205657900,5.001657958984375,-0.207935552014783,0.3061374945044517,-0.2124889044702053
1789911374215667000,5.0116669921875,-0.19821612203307448,0.2519534843742847,-0.1571545552611351
1789911374225674800,5.0216748046875,-0.187457339066267,0.20824352198541163,-0.08964344604611396
1789911374235683800,5.031683837890625,-0.18410452150702475,0.17398644759654996,-0.05879881044924259
1789911374245693000,5.04169287109375,-0.21002806731462478,0.14517945530712603,-0.061437926781177515
1789911374255701000,5.051700927734375,-0.24841822292022406,0.14520868140161036,-0.06260229438543319
1789911374265709800,5.061709716796875,-0.3006079904932529,0.17442600805759428,-0.05429448476731777
1789911374275719000,5.071718994140625,-0.32743045790195463,0.22424773132503031,-0.04667407289147377
1789911374285728000,5.08172802734375,-0.29408107294254004,0.2260907288432121,-0.04354804982542992
1789911374295736000,5.091736083984375,-0.21975451155900955,0.19293664726018905,-0.0498749147593975
1789911374305745000,5.101744873046875,-0.17006664380431175,0.13650398142039774,-0.062326400053501124
1789911374315754000,5.11175390625,-0.13468326879926026,0.05487023882865905,-0.09272387640476226
1789911374325763000,5.12176318359375,-0.10095869385190308,-0.031252047353982924,-0.12206161457002163
1789911374335771100,5.131771240234375,-0.026952304333448408,-0.07999591225683689,-0.0998065281420946
1789911374345780000,5.141780029296875,0.014522957805916666,-0.08236848660707473,-0.047588265126943585
1789911374355789000,5.1517890625,0.09194288209490477,-0.07876432463526725,0.04252221390902996
1789911374365797000,5.161797119140625,0.12982114265561104,-0.08734744406342505,0.12759119164645671
1789911374375806200,5.17180615234375,0.12367672161646187,-0.13927052352428435,0.17638824804127215
1789911374385814800,5.181814697265625,0.10814933600835501,-0.17372107465863226,0.22602292430400847
1789911374395823900,5.191823974609375,0.07877718411684036,-0.159754508626461,0.27015958767235276
1789911374405832000,5.20183203125,0.06102993050217628,-0.12020575757026672,0.350184726023674
1789911374415840800,5.2118408203125,0.029264599863812326,-0.17229834837913513,0.38099019865393635
1789911374425849900,5.221849853515625,0.014493877841904758,-0.3527414247691631,0.3387304350733757
1789911374435858000,5.23185791015625,0.014064765709638594,-0.5335375523805618,0.29488252551853655
1789911374445867000,5.241866943359375,0.02085807911157608,-0.5952542961031199,0.3188549372583627
1789911374455875800,5.251875732421875,0.09921097340174019,-0.5166419471591711,0.40424890916645523
1789911374465885000,5.261885009765625,0.19662607636265456,-0.4148340160667896,0.4945242233753204
1789911374475893000,5.27189306640625,0.2503529903750866,-0.34731530806720257,0.5328612605541945
1789911374485902000,5.281902099609375,0.2915816573422402,-0.29368776277601716,0.5102092837631702
1789911374495911000,5.291910888671875,0.27902035499811173,-0.24524668021202087,0.4907943891972303
1789911374505920000,5.301919921875,0.2764636562526226,-0.2455798576891422,0.49159752227365966
1789911374515928000,5.311927978515625,0.2774223452169448,-0.1959498576015234,0.38444530754387374
1789911374525937200,5.321937255859375,0.2498234866082668,-0.08575228382647038,0.15298106896877287
1789911374535946000,5.331946044921875,0.17352241028137505,0.09972527959942817,-0.038054713106155394
1789911374545954000,5.3419541015625,0.043526933972164984,0.28147943858802316,-0.10541267758607864
1789911374555963100,5.351963134765625,-0.1400058520615101,0.4369996706455946,-0.1608054789841175
1789911374565972000,5.361971923828125,-0.29659459013342854,0.5522714789450168,-0.26571254513561726
1789911374575980800,5.371980712890625,-0.41028292863368987,0.6586860270500182,-0.37803953215479846
1789911374585989000,5.381989013671875,-0.507592963784933,0.697211864799261,-0.4835767129033804
1789911374595998000,5.391998046875,-0.5828934117019177,0.7006202119380235,-0.6098538993418217
1789911374606006800,5.4020068359375,-0.6109060387432574,0.6639245122253894,-0.7418535550802946
1789911374616014800,5.412014892578125,-0.5677285757958889,0.6962766297757625,-0.7875643358975648
1789911374626024000,5.42202392578125,-0.43962826558351514,0.786530901196599,-0.7354705760449171
1789911374636033000,5.432032958984375,-0.28698388122320173,0.7869839056611061,-0.5826356375485658
1789911374646041900,5.442041748046875,-0.11635251620821654,0.6896048969268799,-0.5044897370725869
1789911374656050000,5.4520498046875,0.01296001933813095,0.5187064784735441,-0.5321358688890934
1789911374666059000,5.46205908203125,0.12374438002519308,0.3650239832371473,-0.5626292068302631
1789911374676068000,5.472068115234375,0.24550262773446738,0.25151801556646824,-0.6065127722203731
1789911374686076000,5.482075927734375,0.32289464110322297,0.1844774464726448,-0.6016536417514086
1789911374696085000,5.4920849609375,0.3877134424943477,0.14797931515872478,-0.572282585838437
1789911374706094000,5.502093994140625,0.43740715546794234,0.20380057110190392,-0.5345493597716092
1789911374716103200,5.512103271484375,0.49491826419420537,0.23634148922264575,-0.4961468561410904
1789911374726111000,5.522111083984375,0.5554045162737369,0.18705343444049358,-0.5123638314485549
1789911374736120000,5.5321201171875,0.6120739134788513,0.062567223072052,-0.5726356370598077
1789911374746129200,5.542129150390625,0.7135738015353679,-0.06454699871242046,-0.6303332082688808
1789911374756138000,5.552137939453125,0.8460323069572449,-0.08696049057245255,-0.6142226159453391
1789911374766146000,5.56214599609375,0.9641502984680235,-0.03131283763051033,-0.5915490118443966
1789911374776155000,5.57215478515625,1.0662310551524161,-0.011501052701473235,-0.6564192511618137
1789911374786164000,5.5821640625,1.418269884610176,0.11155541812479496,-0.9660498484790324
1789911374796171800,5.592171875,1.485479380530119,0.33020459879040714,-1.032303066587448
1789911374806180900,5.602180908203125,1.5081097300112247,0.5425146395623683,-1.1056488733053207
1789911374816190000,5.61218994140625,1.4344763385236263,0.6310913331598043,-1.1479179892361164
1789911374826199000,5.622198974609375,1.3402198457241057,0.672959467074275,-1.123962528631091
1789911374836206800,5.632206787109375,1.2344260598659516,0.6794575969219208,-1.0617916114002466
1789911374846216000,5.6422158203125,1.0772305880725384,0.7600158192366361,-0.9723416420996188
1789911374856225000,5.65222509765625,1.1805611986875533,0.8921452388346195,-0.8123749520272016
1789911374866232800,5.66223291015625,1.17269704118371,1.0298556734353304,-0.7570943788319826
1789911374876242000,5.672241943359375,0.7919038264065981,0.9833628023296594,-0.6457762765944004
1789911374886251000,5.6822509765625,0.4049439056932926,0.6438993768066168,-0.5561380912452936
1789911374896260000,5.692260009765625,0.11103285555541514,-0.011588730984926222,-0.6389432157039642
1789911374906268000,5.702267822265625,-0.3751298187205568,-1.1768190895497799,-1.0650345388442277
1789911374916277000,5.712277099609375,-0.4712234272867441,-2.6290964577019214,-1.6595727956324815
1789911374926286000,5.7222861328125,0.1313134270399809,-3.7081735504239797,-2.23853003692925
1789911374936294100,5.732294189453125,1.308415425184369,-4.201569646552205,-3.1444881125390527
1789911374946303000,5.742302978515625,2.442922728705406,-3.695829617157578,-3.823122702640295
1789911374956312000,5.75231201171875,3.0541303807437417,-2.579062552988529,-3.613601415804028
1789911374966321000,5.76232080078125,2.4609528909146783,-1.7090391295909881,-2.2930782041966915
1789911374976329200,5.7723291015625,2.3042127616733312,-1.8185171569198368,-2.2198189067184924
1789911374986337800,5.782337890625,0.9684534024894237,-1.515707345533371,0.09792670574486255
1789911374996347000,5.792346923828125,1.2139471893303095,-1.4871213025182484,0.6800783591687679
1789911375006355000,5.80235498046875,1.9406109201937913,-1.517272110632062,1.4141945979952812
1789911375016363800,5.81236376953125,2.112162249597907,-1.3493828108668326,1.4839800818830728
1789911375026372900,5.822372802734375,1.5721689452067016,-1.1678764891594648,1.881705142238736
1789911375036382000,5.8323818359375,0.6457527495883405,-1.117190842539072,2.4214900645762683
1789911375046390000,5.84239013671875,-0.03527063534557819,-0.7264929043412208,2.7863322615057227
1789911375056398800,5.85239892578125,-0.1562979384317994,-0.826729056072235,2.8239982675552366
1789911375066408000,5.862407958984375,-1.7214239793896675,0.37388416604101654,2.5351865863829848
1789911375076417000,5.8724169921875,-2.533393857747316,1.0909826345711946,1.7851736902445554
1789911375086425000,5.882425048828125,-2.7183164176389574,1.7167700161039827,1.111763556793332
1789911375096434000,5.892433837890625,-2.211395654027164,2.106563698938489,0.49199324359297747
1789911375106443000,5.902443115234375,-2.360356965960562,2.058530028131604,0.46899055366814135
1789911375116451000,5.912451171875,-1.9137135609179734,1.9568045146256685,0.3902373349487781
1789911375126460200,5.922460205078125,-1.599320863765478,1.768036677482724,0.7107236728012561
1789911375136469000,5.932468994140625,-1.3622829167112707,1.7355775924265384,0.7928302936017513
1789911375146477800,5.942477783203125,-1.3343176359429956,1.7162316714435815,0.6846323692113161
1789911375156486100,5.952486083984375,-1.1468000911220908,1.689939876845479,0.696743662765622
1789911375166494700,5.96249462890625,-1.215021686694026,1.7498147920936344,0.8629244050472974
1789911375176503600,5.972503662109375,-1.3255220428079366,1.8074100719720123,1.2599199820846319
1789911375186511600,5.98251171875,-1.4767834483772515,1.9861095195651053,1.7836574404627084
1789911375196520400,5.9925205078125,-1.7107687298625707,2.225341469532251,1.9284616327166557
1789911375206529500,6.002529541015625,-1.3589303914129733,2.422906945636868,1.7497376352041958
1789911375216538600,6.01253857421875,-0.9542156183004379,2.6939444851875303,1.553723480194807
1789911375226546400,6.02254638671875,-0.6692112204566597,2.8031267444401977,1.2755085963606834
1789911375236555500,6.032555419921875,-0.5514402888178825,2.843254172167182,1.2707418203502894
1789911375246564600,6.042564697265625,-0.488790063637495,2.725658304834366,1.3880851742267608
1789911375256572400,6.052572509765625,-0.3718009300261736,2.5188386781722305,1.629990727317333
1789911375266581500,6.06258154296875,-0.23805735322982072,2.325802662190795,1.9095915125519036
1789911375276590600,6.072590576171875,-0.09523848957419395,2.189483389687538,1.98334063937366
1789911375286599700,6.082599609375,0.24871318727880715,2.1585943304270505,1.8483593374758958
1789911375296607500,6.092607421875,0.43148470661640165,2.2307067959576843,1.570845879909396
1789911375306616600,6.102616455078125,0.6384864118471741,2.313638761666417,1.1219020889699458
1789911375316625700,6.112625732421875,0.8958098988220096,2.3969331309467554,0.6042775605142117
1789911375326633700,6.1226337890625,1.0354191527813672,2.3942899229615926,0.19545418303906917
1789911375336642600,6.132642578125,1.1908967147409915,2.4296032284051177,-0.018691256466507912
1789911375346651600,6.142651611328125,1.4173545233309268,2.441123570328951,-0.27467794187963007
1789911375356660500,6.152660400390625,1.3894319126605987,2.590092481046915,-0.7170832709610462
1789911375366668800,6.162668701171875,1.3619944551587104,2.77164088833034,-1.1316466533929108
1789911375376677600,6.172677734375,1.743868450909853,2.786600557053089,-1.4569681563168764
1789911375386686500,6.1826865234375,1.9591604301020502,2.710992650622129,-2.005487004730105
1789911375396694800,6.19269482421875,2.1482693357676266,2.533388012528419,-2.2332734315752982
1789911375406703600,6.20270361328125,2.1702581724748016,2.232242334961891,-2.391376665863395
1789911375416712400,6.21271240234375,2.230991165857017,1.8965829778969288,-2.386879354444146
1789911375426721500,6.222721435546875,2.106884601455927,1.740007683828473,-2.3625702580958605
1789911375436729600,6.2327294921875,1.8289315834283828,1.655851144760847,-2.0791975531071425
1789911375446738400,6.242738525390625,1.681069757169485,1.538318405792117,-1.1635030963808297
1789911375456747500,6.25274755859375,1.247648237271607,1.431492938798666,-0.15338672716021537
1789911375466755600,6.262755615234375,1.096804180331528,1.3340993170171975,1.2300380540400744
1789911375476764700,6.2727646484375,1.387678054730594,0.9950339509010314,2.499244335386157
1789911375486773500,6.2827734375,2.3494234840139745,-0.0878513019323349,3.137010908526182
1789911375496782600,6.292782470703125,3.5280548836827275,-2.2662591708540916,2.2102508679062125
1789911375506790700,6.302790771484375,4.660866781462729,-5.833795585575699,-1.5312041898727415
1789911375516799700,6.3127998046875,6.324856516754627,-10.284701227480172,-7.568421576365828
1789911375526808600,6.32280859375,7.334294256061315,-13.12173316413164,-12.677101391172409
1789911375536816600,6.332816650390625,4.920392454656958,-10.93171318334937,-11.771819607388972
1789911375546825700,6.34282568359375,1.5474357782274484,-6.491201509687304,-5.040493582808971
1789911375556834800,6.352834716796875,-2.2154045974075793,-2.2283815678805112,2.515432084599137
1789911375566843400,6.362843505859375,-2.259525478684902,0.3205260853409767,8.181375779810548
1789911375576851700,6.372851806640625,0.4057715886890888,1.0323153415471316,11.149797131347656
1789911375586860500,6.382860595703125,-0.7605246455416083,1.8771423643678427,11.910159572064876
1789911375596869600,6.39286962890625,-2.895598691910505,2.6128847430914637,10.610865610969066
1789911375606877400,6.40287744140625,-4.139675500436127,3.0387627157419916,8.868069757726788
1789911375616886500,6.412886474609375,-4.920348615515231,2.8449013548523188,7.355335290524363
1789911375626895600,6.4228955078125,-5.1426592412978405,2.181159213456511,5.91275806313157
1789911375636904700,6.43290478515625,-4.804456921751797,1.5901982306331395,4.991528768631816
1789911375646912500,6.44291259765625,-4.37920175717473,0.980133318889141,4.26157724826932
1789911375656921600,6.452921630859375,-4.062484416466951,0.040624855855107306,3.2447061440914866
1789911375666930700,6.4629306640625,-3.878800750720501,-1.38064537961483,2.0086025064021347
1789911375676938500,6.4729384765625,-4.158941634181142,-2.53969032754302,0.8853764753520488
1789911375686947600,6.482947509765625,-3.729371821275353,-3.6467882306128736,-0.2810211734265089
1789911375696956700,6.492956787109375,-3.1675866640537977,-4.7708127185642715,-1.4943541763812302
1789911375706965800,6.5029658203125,-2.578912915384769,-5.628134481298924,-2.8719238018125295
1789911375716973600,6.5129736328125,-2.478582071107626,-5.548492204785346,-2.9427339525729415
1789911375726982700,6.522982666015625,-1.8709581227749585,-5.59712501052916,-4.453309195914864
1789911375736991700,6.53299169921875,-0.2583049722928554,-4.340318776550888,-5.552363493260741
1789911375746999600,6.54299951171875,0.17963059096336365,-2.4257173268824817,-6.252784383234381
1789911375757008600,6.553008544921875,-0.3569873917758465,-0.7510644510179758,-7.355448687770962
1789911375767017700,6.563017822265625,0.3222001560330391,1.5838310336887835,-7.245892919030785
1789911375777026600,6.573026611328125,-0.20010874911295248,2.987632832485437,-4.867976623243093
1789911375787034600,6.58303466796875,-1.2476771711051464,2.55278303335011,-2.6332453940749168
1789911375797043500,6.59304345703125,-1.4412591305315494,1.5363456444144248,-1.757747923180461
1789911375807052500,6.603052490234375,-1.245743572694063,0.9026619566738605,-1.424129716554284
1789911375817060600,6.613060546875,-0.9831506208837032,0.9591039748638868,-1.0874018534749745
1789911375827069400,6.6230693359375,-0.7621966704070567,1.3313590783983469,-0.6714981623500585
1789911375837078500,6.63307861328125,-0.44946226185560223,1.6981383808702228,-0.20198563063442707
1789911375847087600,6.643087646484375,-0.24136077868938444,1.999599700257182,0.36686464266777036
1789911375857095700,6.653095703125,-0.05562544111013412,2.067795284605026,1.0328747289955615
1789911375867104500,6.6631044921875,-0.0520014419266954,2.0342320376992222,1.4652479088842867
1789911375877113600,6.673113525390625,-0.2297030741214752,1.8013959262490271,1.6122271070897578
1789911375887121700,6.68312158203125,-0.09893617504835128,1.2810060247331856,1.6132833381444214
1789911375897130500,6.693130615234375,0.03443188296649605,0.6389607513606548,1.189717149567604
1789911375907139600,6.7031396484375,-0.019968400262854992,0.1572936714708805,0.4272948537111282
1789911375917147600,6.713147705078125,0.023136545437574384,-0.04778583352565765,-0.06018354280591011
1789911375927156700,6.72315673828125,-0.26888821602966634,0.018738602739572525,-0.5488789138972759
1789911375937165600,6.73316552734375,-0.4645253544202074,0.46898996914625163,-0.8259989882320166
1789911375947174700,6.743174560546875,-0.9157716136157512,1.011512207493186,-0.8334989885985851
1789911375957182700,6.7531826171875,-1.6235095486044884,1.4192355147719382,-0.6919371392667293
1789911375967191800,6.76319189453125,-2.147476139563322,1.7513719584077596,-0.17116554495692252
1789911375977200400,6.773200439453125,-1.9860826315581797,1.7896563886165617,0.5665466725349426
1789911375987208700,6.783208740234375,0.7077624849081039,0.7223381227493286,2.2930793732404706
1789911375997217500,6.793217529296875,5.0938054862797255,-0.7718038721859455,2.4554735827207566
1789911376007226600,6.8032265625,5.700167451852559,-1.2138123109042644,0.45348786410987374
1789911376017235500,6.8132353515625,4.289020843251049,-0.29370062225759025,0.06794657802283763
1789911376027243500,6.823243408203125,3.031114246815443,0.5316437014579772,0.811665342453122
1789911376037252600,6.833252685546875,1.8892507353127002,0.7510176892668008,0.828556856021285
1789911376047261700,6.84326171875,1.9435336757726966,0.8030471517115831,0.7303560095101594
1789911376057269500,6.85326953125,1.0923019004762171,0.6621633477717638,-0.07023264313340187
1789911376067278600,6.863278564453125,0.6994106900177895,0.2957692452251911,-2.9146587816894054
1789911376077287700,6.87328759765625,1.4007529326200485,0.2121972280472517,-3.286133548501134
1789911376087295500,6.88329541015625,2.2737794833563267,0.009085223731398582,-2.573730544310808
1789911376097304600,6.8933046875,2.577304311144352,0.14590484697222708,-1.622283221679926
1789911376107313700,6.903313720703125,1.892741353907436,0.7898252665668726,-1.1286992017641664
1789911376117322800,6.91332275390625,0.9475568910636007,1.4128402607768773,-1.5023942749738692
1789911376127330600,6.92333056640625,0.4972365510739386,1.6420441532045602,-2.5732450988814235
1789911376137339600,6.933339599609375,0.7449417303539813,1.739877335447073,-3.7062042961776256
1789911376147348700,6.9433486328125,1.310307668671757,1.694285212573409,-4.130651359242201
1789911376157356800,6.953356689453125,1.3351217919327318,1.4938929886102676,-3.902217282143235
1789911376167366000,6.963365966796875,0.45821021645665166,1.0963321789056062,-3.4435461701765653
1789911376177374700,6.973374755859375,-1.1273625463329255,0.6007599077820778,-3.067806147135794
1789911376187382800,6.9833828125,-2.621085000681877,-0.23120997155308723,-3.342670551498234
1789911376197392000,6.993391845703125,-3.4264030199348925,-1.2654162414133547,-4.486796162714064
1789911376207400700,7.003400634765625,-2.957477348196506,-2.184427275341749,-5.637314397576451
1789911376217409500,7.013409423828125,-1.204734832087904,-3.0208313377320763,-6.792795515543222
1789911376227417600,7.02341748046875,2.259407405263185,-3.9613071844935415,-7.682573440724611
1789911376237426700,7.0334267578125,6.644710401922464,-4.538848129251599,-7.588371892982721
1789911376247435800,7.043435791015625,8.179012557810545,-3.3279467373579736,-5.597563986468315
1789911376257443600,7.053443603515625,6.661663874810934,-1.3041256190359591,-3.7957425282835957
1789911376267452700,7.06345263671875,4.089151474118233,0.25587796434164045,-2.8070401184916496
1789911376277461800,7.073461669921875,1.7947265314877032,0.9966530765354633,-1.8122797238349913
1789911376287469600,7.083469482421875,0.19309446817040443,0.7105781268507242,-1.397421157848835
1789911376297478700,7.093478759765625,-0.6279951207101345,-0.04963175365328788,-1.5191425806790588
1789911376307487700,7.10348779296875,-0.8047779210269451,-0.1601864703029394,-1.3656366110533475
1789911376317496800,7.113496826171875,-0.8628834885150194,-0.970144424316287,-1.349727094259858
1789911376327504600,7.123504638671875,-0.7011889517366886,-1.6573317387074231,-1.2571247984081506
1789911376337513700,7.133513671875,-0.5435836570333689,-2.47310919265449,-1.278301441949606
1789911376347522800,7.143522705078125,-0.47301498687863347,-3.2252696222156283,-1.1124860258489846
1789911376357531000,7.15353076171875,-0.4471873757261783,-3.9104087719053027,-0.6878893251806497
1789911376367539700,7.163539794921875,-0.15301723626069724,-4.313798433893918,-0.14381167408525944
1789911376377548800,7.173548828125,-0.0999853918403387,-4.296684802007675,0.3014513825148344
1789911376387556900,7.183556884765625,0.1877180358290672,-3.641849605166912,0.9374451007634401
1789911376397566000,7.19356591796875,0.7994926741003989,-3.0213994930088517,1.41380530641675
1789911376407574500,7.203574462890625,0.39254078958556055,-2.8940409410744903,1.4406974049955605
1789911376417583600,7.21358349609375,-1.229056787917763,-3.067735127726197,1.1831167283892632
1789911376427591700,7.223591796875,-3.30063202945292,-3.268027982968092,1.2897849589943886
1789911376437600500,7.2336005859375,-5.093578691786528,-3.311435747539997,1.3299474580347537
1789911376447609600,7.243609619140625,-5.682520736002922,-2.7581056994527575,1.4662754983663557
1789911376457617700,7.25361767578125,-3.8913103959426283,-2.3426591044455765,1.5937304964125156
1789911376467626800,7.263626708984375,-1.7385558775849639,-2.1582985623508693,1.6461398980855941
1789911376477635600,7.273635498046875,-1.2117974639505147,-1.8971873735308646,1.508649828237295
1789911376487643600,7.2836435546875,-1.503806479859352,-1.4077116657167672,1.1549077019929885
1789911376497652700,7.29365283203125,-1.363938574963808,-0.8792015861093997,1.447753753247857
1789911376507661800,7.303661865234375,-1.242521103516221,-0.38185236844122405,1.9712731849610805
1789911376517669600,7.313669677734375,-1.4322300209015606,0.2575438517272472,2.494755207273364
1789911376527678700,7.3236787109375,-1.453300281459093,0.6074877547323704,3.136220050409436
1789911376537687800,7.333687744140625,-1.6354875711679457,0.7273240944683551,3.6005870359301566
1789911376547697000,7.34369677734375,-2.1492583468049764,0.654109805175662,3.8183600182831285
1789911376557704700,7.35370458984375,-1.7444746001094578,0.6729542063772678,4.2811400268733495
1789911376567713800,7.3637138671875,-1.2655422058805823,0.7812719577550887,4.887454646173119
1789911376577723000,7.373722900390625,-1.2372431631132959,0.7825999914884567,5.5541983074724675
1789911376587730700,7.383730712890625,-2.341399459773302,1.1501800889492033,5.952154838496447
1789911376597739800,7.39373974609375,-2.365234508869052,1.2802020148739217,5.939127014619111
1789911376607748900,7.403748779296875,-2.656163328325748,1.8641662706777453,5.7444671968281265
1789911376617757000,7.4137568359375,-2.1209803468257187,2.0790517148956655,5.5461412577450275
1789911376627765800,7.423765869140625,-1.7002245394945144,2.2317440300509332,5.1778527197539805
1789911376637774600,7.433774658203125,-1.5165572403609753,2.3362305327028037,4.715423424297571
1789911376647783000,7.443782958984375,-1.4514751118585467,2.4020076577320695,4.346964205914736
1789911376657791500,7.45379150390625,-1.0630331358939409,2.4853227775394915,4.253658730229735
1789911376667800600,7.463800537109375,-0.23840046757906674,2.5352532218784094,4.246678954344987
1789911376677808600,7.47380859375,0.4701464457049966,2.5587901648104188,3.571499473133683
1789911376687817700,7.483817626953125,1.2653010906010866,2.4188451030254363,2.3607605783253907
1789911376697826600,7.49382666015625,1.8464394753292201,2.2948569043070077,0.35186055028140545
1789911376707835600,7.503835693359375,2.0126111575216052,2.098082870841026,-2.1126462337225673
1789911376717843700,7.51384375,2.2943206054732204,1.7554226951032876,-4.378219175878167
1789911376727852800,7.523852783203125,2.531780869592726,1.220036884507537,-5.8876738907575605
1789911376737861600,7.533861572265625,2.406976678316295,0.7351227855205535,-6.7393941802233455
1789911376747869700,7.54386962890625,2.973660128973424,0.4997966108202934,-6.087003453925251
1789911376757878800,7.553878662109375,3.185519503368437,0.49589668077230453,-4.623884373763203
1789911376767888000,7.563887939453125,2.2372999106124043,0.5066559751957654,-3.3663948336958884
1789911376777895700,7.573895751953125,1.4973063041850923,0.806945328193903,-1.6196762540519236
1789911376787904800,7.58390478515625,1.229921149662137,1.2245230900108814,0.4629980352550745
1789911376797913900,7.593913818359375,0.9018123541072011,1.5996394281953572,2.528316116091609
1789911376807921700,7.603921630859375,0.2326058098256588,1.84055538572669,4.66284977197349
1789911376817930800,7.6139306640625,0.035331425622105596,1.0994260532677174,6.329320510426164
1789911376827939800,7.62393994140625,1.1701175460845232,-1.5114970343619585,6.699206546741723
1789911376837947600,7.63394775390625,4.742088143861293,-5.132428354662657,5.0810114711582655
1789911376847956700,7.643956787109375,8.828535619717837,-9.131333156144619,0.9921125104963779
1789911376857965800,7.6539658203125,7.371494982686638,-12.491056256991625,-5.8735366443336
1789911376867974000,7.663973876953125,0.7847530778691172,-13.237372636699675,-9.581141454958916
1789911376877982700,7.673982666015625,-4.610921724076569,-12.014473348498344,-9.172904352939128
1789911376887991600,7.683991455078125,-5.6630035501062865,-8.515252345111966,-6.3466889938563105
1789911376898000000,7.693999755859375,-3.2493969322562215,-3.9559529639840125,-1.6688631865471601
1789911376908008700,7.7040087890625,-3.080025869500637,-3.941171574437618,-1.6414795050591229
1789911376918017500,7.714017578125,-1.3611065664082764,-1.2725339644640683,2.004821818819642
1789911376928026600,7.724026611328125,-1.0553922657519579,0.1806909136712551,4.06793216047883
1789911376938034700,7.73403466796875,-1.450767548111081,0.9733394209653139,5.05095944724381
1789911376948043800,7.744043701171875,-1.682752011168003,1.4427116674274205,5.08756922223866
1789911376958052600,7.754052490234375,-1.6243448303848504,1.9769372020721434,5.177414328336716
1789911376968060700,7.764060791015625,-1.6626169856339692,2.418254151394963,5.339330398911238
1789911376978069800,7.77406982421875,-1.839507337978482,2.60080735180676,5.5300300808995955
1789911376988078800,7.784078857421875,-1.914520201125741,2.541790514692664,5.671733384528756
1789911376998086700,7.794086669921875,-2.1491595626056195,2.1267156756073233,5.450124185013771
1789911377008095700,7.804095703125,-2.5387597686946393,1.2211042214781045,4.740879352593422
1789911377018104800,7.814104736328125,-2.6109552363336084,-0.14564005855619908,3.5160879670351743
1789911377028112600,7.824112548828125,-2.6691116572260856,-1.4203472754061222,2.2531816626161336
1789911377038121700,7.834121826171875,-2.8432179318100212,-2.4721640207588673,0.8078501680791378
1789911377048130800,7.844130859375,-3.2167484621077773,-3.1423756504297256,-0.5752607248663902
1789911377058138600,7.854138671875,-3.3739538707733154,-3.316034765768051,-1.72781631077528
1789911377068147700,7.864147705078125,-3.284579889318347,-2.9834207677483557,-2.488449385127425
1789911377078156800,7.87415673828125,-2.4481828411906954,-1.9213380644470452,-2.521006669861078
1789911377088164900,7.884164794921875,-1.3386772924572228,-0.36839082932174205,-1.5833715994834898
1789911377098173700,7.894173583984375,-0.7125601675134152,0.667079176864028,-0.4899620300263166
1789911377108182800,7.904182861328125,-0.6893840207178146,1.0572072062194346,0.12563888853490351
1789911377118190800,7.91419091796875,-0.4768119680088013,1.4075041604459284,0.27226445099711416
1789911377128200000,7.924199951171875,1.2681718237318098,1.9678017094582319,0.31148762336075303
1789911377138208500,7.93420849609375,3.414723103535175,2.6011189019739627,-0.12159458158016204
1789911377148216800,7.944216796875,4.207939473845064,2.509126846975088,-0.8018716781914234
1789911377158225700,7.9542255859375,4.286740915620327,1.6407155349493026,-0.9574562076568603
1789911377168234800,7.96423486328125,3.9871021354854106,1.2472200749874114,-0.8755161755949258
1789911377178242800,7.974242919921875,2.922197945022583,1.1262947709709406,-0.5707324337869882
1789911377188251600,7.984251708984375,0.15771343125291168,0.30069968736469743,0.9269067556142806
1789911377198260700,7.9942607421875,-0.6113000064969062,-0.08043371915221213,1.010005310061574
1789911377208268800,8.004268798828125,-0.3533247776150703,-0.47798283841907974,0.6242366449594497
1789911377218278000,8.01427783203125,0.5074607157073915,-0.6347217986166477,0.11420973202586174
1789911377228286700,8.02428662109375,1.115097231260687,-0.33039339936077594,0.12307692909240722
1789911377238294800,8.034294677734374,1.2653415687419474,-0.07056932774186134,0.42962066631019113
1789911377248303900,8.044303955078124,0.9571417348802089,0.032712767556309696,0.7108060903877019
1789911377258313000,8.05431298828125,0.5856617073714733,-0.06392448289990425,0.4873994860619306
1789911377268320800,8.06432080078125,0.3846609961211681,0.03274608530402184,-0.027817396730184553
1789911377278329900,8.074329833984375,0.5565947489716112,0.4640051664710045,-0.4771802898645401
1789911377288339000,8.0843388671875,0.996097780740261,0.90273735999763,-0.965567617920041
1789911377298346800,8.0943466796875,1.7444236005745828,1.0777578268170356,-1.5072627577930688
1789911377308355800,8.10435595703125,2.389814384982735,1.0733347496777772,-2.0355594869107008
1789911377318365000,8.114364990234375,2.884182979404926,1.118083991986513,-2.44002525369823
1789911377328373000,8.124373046875,2.53804899007678,1.0829700085073708,-2.7877175783842802
1789911377338381800,8.1343818359375,1.3968145702578127,0.8546089966446161,-3.2374270929992197
1789911377348391000,8.144390869140626,0.3504991988003254,0.6626181058019399,-3.473545879381895
1789911377358399000,8.15439892578125,-0.18231603065505622,0.6668120503604412,-3.495064468228817
1789911377368408000,8.164407958984375,-0.35028847865909335,0.8840092786520719,-3.75313789678812
1789911377378417000,8.1744169921875,0.1768961975634098,1.1550918263882397,-3.9097225432068106
1789911377388425000,8.184425048828125,1.561549059253931,1.2031442018955945,-3.722904378826916
1789911377398434000,8.19443408203125,3.4201287619709966,0.8426508478254079,-3.271363264870643
1789911377408442600,8.204442626953124,4.7153053508758545,0.4823597383290529,-2.851301285022497
1789911377418451000,8.214450927734376,4.411565565162896,0.40340778216719625,-2.2470900677427648
1789911377428459800,8.224459716796876,2.431531566119194,0.29398119276463985,-1.985942346304655
1789911377438468900,8.23446875,0.16404504542723297,-0.25759587417542934,-2.6904087122768163
1789911377448476700,8.2444765625,-1.2245837341569363,-1.5442822826325893,-3.9965553157463667
1789911377458485800,8.25448583984375,-0.6662861267901956,-3.4535949782431126,-5.145809229761362
1789911377468494800,8.264494873046875,1.6132735474027693,-5.10043630259633,-5.886044828251004
1789911377478502700,8.274502685546874,3.3064734489575027,-5.602097538244724,-6.559873479375243
1789911377488511700,8.28451171875,3.3537621466159817,-4.901654436439276,-6.902777985262871
1789911377498520800,8.294520751953126,2.7722821088433265,-3.0008687461555,-6.156951434898376
1789911377508529000,8.30452880859375,2.518798346161842,-3.09549991748631,-5.971421849024296
1789911377518537700,8.314537841796875,2.093148337048292,-0.43037411502599715,-4.033314436084032
1789911377528546800,8.324546875,1.9171090485751627,0.968508932068944,-2.502213706585765
1789911377538555000,8.334554931640625,0.9117968647658824,0.7666828759104013,-1.849427843490243
1789911377548564000,8.34456396484375,-0.264715369058121,-0.4805646716058254,-2.0899568475306034
1789911377558572800,8.35457275390625,-0.7164595861047506,-1.7730086206763982,-2.3901088378846644
1789911377568580900,8.364580810546874,-0.7588922950994222,-2.979397503581643,-2.670815538534522
1789911377578590000,8.37458984375,-0.5700940628182143,-3.917042510831356,-2.4897429320693014
1789911377588599000,8.38459912109375,-0.2277034247368574,-4.814247371143102,-2.01228557882905
1789911377598606800,8.39460693359375,0.2796778690587729,-5.531571465122699,-1.3724603195935487
1789911377608616000,8.404615966796875,0.5263244061313569,-5.899806811621785,-0.749536510798335
1789911377618625000,8.414625,0.33876419121250506,-5.461102675145864,-0.05254033457636833
1789911377628632800,8.4246328125,-0.06706687257885932,-4.121806958529353,1.0483996303856373
1789911377638642000,8.434641845703124,-0.6804037917308509,-3.283763896760344,1.9299726218014954
1789911377648651000,8.444651123046874,-1.4458501115836202,-2.9665935515880584,2.598202722266316
1789911377658658800,8.454658935546876,-2.2824793610319496,-2.7289187679350375,3.2484125973939895
1789911377668668000,8.46466796875,-3.1584830278828737,-2.6038918738186356,3.7671190758675333
1789911377678676700,8.4746767578125,-3.601630699764192,-2.416850129815936,3.9798680925786494
1789911377688685000,8.48468505859375,-3.8927737464934586,-1.973883075198531,3.796557351797819
1789911377698693600,8.494693603515625,-3.9985964661851523,-1.2851362564057112,3.374396353843808
1789911377708702700,8.50470263671875,-4.045125577647984,-0.43079672435224053,3.008618337368965
1789911377718710800,8.514710693359374,-3.598928747329116,0.08103051600158213,2.5629315023988486
1789911377728720000,8.524719970703124,-2.551111593006551,0.4188736468464136,1.8475094426482914
1789911377738728700,8.534728759765626,-1.7518582806199787,0.8505524147301912,1.2801613906025886
1789911377748736800,8.54473681640625,-0.83905691498667,1.3902601801782846,1.09496381316185
1789911377758745900,8.554745849609375,-0.6003489888936281,1.5844705006361006,2.099908332702517
1789911377768755000,8.5647548828125,-1.2786153302043675,1.0008861840605736,3.3958155739694833
1789911377778762800,8.5747626953125,-2.105755889686942,0.45941111667901274,3.848953893989324
1789911377788771800,8.584771728515625,-2.8266987586855885,0.27251725671440363,4.305215898987651
1789911377798780000,8.59477978515625,-3.0615853729248044,0.3375029391050339,4.607466322925687
1789911377808788700,8.604788818359374,-3.179016697345674,0.509849802801013,4.999562437483668
1789911377818797800,8.6147978515625,-3.154756408575177,0.8002960994377731,5.396120792147517
1789911377828806000,8.624805908203125,-2.700060337719321,0.9493494735687971,5.842994791075587
1789911377838814700,8.634814697265625,-2.6993086425691843,1.207651157926023,6.035857204055786
1789911377848823800,8.64482373046875,-2.6951784108966588,1.4677534619644284,6.191959619915485
1789911377858832000,8.654831787109375,-2.6151228774070736,1.718839515854418,5.918827738434076
1789911377868841000,8.664841064453125,-2.465485273647308,2.0708006039008495,5.441401949375868
1789911377878849800,8.674849853515624,-2.2714894727230073,2.48361012840271,4.865547350269556
1789911377888857900,8.68485791015625,-2.0727698581472036,2.7962346468389034,4.295925508072972
1789911377898867000,8.694866943359376,-2.0133385950133205,3.026861557807028,3.965019483014941
1789911377908876000,8.7048759765625,-1.7650071005284784,3.135846833182871,3.7339071266174315
1789911377918883800,8.7148837890625,-1.49264824924618,3.2097172482967373,3.403059553748369
1789911377928893000,8.724892822265625,-0.6830833862036466,3.161946612340212,3.0933149746626616
1789911377938902000,8.734902099609375,0.2622200268447399,2.7433611347854137,2.2886095343500372
1789911377948909800,8.744909912109375,1.0531830652698875,2.110116422984004,0.6675275051534175
1789911377958919000,8.7549189453125,1.9097037407547235,1.3298977736741304,-1.7637667450785637
1789911377968927700,8.764927734375,3.314171602244675,0.5725514659076929,-4.513025121209025
1789911377978936000,8.77493603515625,4.391020497523248,0.18667641782164573,-6.7434297193497414
1789911377988945000,8.78494482421875,5.178362422841787,0.3759960436284542,-7.763948824641108
1789911377998953700,8.79495361328125,5.697548209264874,0.694796620351076,-7.857631901466846
1789911378008961800,8.8049619140625,6.14959639596045,0.5432189884394407,-7.022561133506894
1789911378018971000,8.814970947265625,6.617648207473755,0.057069210177659986,-5.092802446717023
1789911378028979000,8.82497900390625,5.968941138124466,0.13877718704938888,-2.138054231223464
1789911378038987800,8.83498779296875,4.028714248812198,0.4104086008399725,0.8573246853441
1789911378048996900,8.844996826171876,2.706752528834343,0.13466039938032626,3.3008208300232886
1789911378059004700,8.855004638671875,2.7208208016753197,0.18236206175386904,3.2648855932891365
1789911378069013800,8.865013671875,1.4552633982256054,-1.9463550168037413,4.482344736263156
1789911378079022800,8.87502294921875,0.652131929231435,-2.8746219548553227,3.6222903336942194
1789911378089030700,8.88503076171875,-0.4983661396257579,-4.350642017644644,2.4395143815666436
1789911378099039700,8.895039794921875,-1.15248018258512,-6.997342521098256,0.5544757109910249
1789911378109048800,8.905048828125,-1.1982916472978888,-6.849578309994936,0.4035392995923757
1789911378119057000,8.915056884765624,0.6967864789940417,-11.120685603153705,-2.27698573205173
1789911378129065700,8.925065673828126,2.250691014844179,-15.113739340519905,-5.264643698978424
1789911378139074800,8.93507470703125,-2.07971032493487,-14.861297195845841,-6.637476359015703
1789911378149083000,8.945082763671875,-5.353119270288944,-10.98001924135685,-5.550936675328016
1789911378159092000,8.955092041015625,-5.122673268845677,-5.8097238051146265,-2.070685745349526
1789911378169101800,8.965101806640625,-3.981279128420353,-1.8190140005260704,1.2394260601103304
1789911378179109600,8.975109619140625,-3.9518630643218753,0.4618739996612072,2.9635493615865705
1789911378189118700,8.98511865234375,-4.46946830355525,2.0631974354207516,4.093380489990115
1789911378199126800,8.995126708984374,-4.775061608180404,3.2149656703442333,4.979214061459898
1789911378209135600,9.005135498046876,-4.988935829529166,4.086176842221618,5.644980402159691
1789911378219144700,9.015144775390626,-4.708371752220392,4.6913457986176015,6.252981367111206
1789911378229152800,9.02515283203125,-4.480021846273541,4.956556239449977,6.177727680945396
1789911378239161900,9.035161865234375,-3.885183729755878,4.681190899828076,5.574859987229108
1789911378249170400,9.04517041015625,-3.281196092098951,3.692965459898114,4.370404118213057
1789911378259178800,9.0551787109375,-2.958666265720129,2.1888298942148685,2.5989766292482614
1789911378269187600,9.0651875,-2.6791753706008192,0.536909074640274,0.6607283465325832
1789911378279196700,9.07519677734375,-2.714130364125967,-0.9017904345363378,-1.0940560506671666
1789911378289204500,9.08520458984375,-2.7162679606765505,-2.065878052806854,-2.610471252208948
1789911378299213600,9.095213623046876,-2.0885709461301563,-2.7031343383371826,-3.807456346952915
1789911378309221600,9.1052216796875,-1.2529589109003543,-2.885078466939926,-4.333661656749248
1789911378319230500,9.11523046875,-0.4591765042055398,-2.083452287942171,-3.2624779476255177
1789911378329239600,9.125239501953125,0.28512568613588807,-0.8929343433856963,-1.5336200188428162
1789911378339247600,9.13524755859375,1.936892776453495,0.07148527354300022,0.026752397847175598
1789911378349256700,9.145256591796874,4.391504773908853,1.0159925677776336,1.9244728553414343
1789911378359265500,9.155265625,7.7380854845881455,1.2668868984878063,4.345823219186068
1789911378369273600,9.165273681640626,7.3358397319376465,0.5021171627223492,2.74506443157196
1789911378379282700,9.17528271484375,4.480917918330431,0.19311375739276407,-0.6486451100289822
1789911378389291500,9.18529150390625,1.03178876038976,1.2190905435681343,-1.6893804893970488
1789911378399299600,9.195299560546875,-0.2838835771203041,1.3581301809459925,-2.0646265914410353
1789911378409308700,9.20530859375,-1.3831085548579691,1.403105633226037,-2.330487020614743
1789911378419317800,9.21531787109375,-2.267868798007816,1.675271300023794,-2.081257408246398
1789911378429325600,9.22532568359375,-2.565565942555666,2.1660130822509527,-1.1072060396194456
1789911378439334700,9.235334716796874,-2.2075649898231027,2.263709486371279,-0.28294483496546746
1789911378449342700,9.2453427734375,-1.3032207791507244,2.2673311839997767,0.297037657725811
1789911378459351600,9.2553515625,0.1767639494858682,2.230153253728151,0.9104279145002364
1789911378469360600,9.265360595703125,1.2988754434227943,1.6665578322142363,0.9280950886160134
1789911378479368700,9.27536865234375,1.9246236619889736,0.9453075047016143,0.4261579586356878
1789911378489377800,9.285377685546875,2.025431329997629,0.7944955964654684,0.41216099746525287
1789911378499386600,9.29538671875,1.9202946928739546,0.9110925158888101,0.3361380804926157
1789911378509394700,9.305394775390624,1.6963994282484054,0.974997125044465,-0.020822423276305197
1789911378519403800,9.31540380859375,1.2995933824338017,0.9704664958775043,-0.31297815417945385
1789911378529412900,9.325412841796876,0.9951613766729831,0.9706289929628371,-0.15798340730071067
1789911378539420700,9.335420654296875,0.5983961012601852,0.9192220463305711,0.33007951110601425
1789911378549429800,9.3454296875,0.2713783158123493,0.8481260643661022,0.6976087551623582
1789911378559437800,9.355437744140625,0.030888328608125445,0.7361001061201096,0.7009516358494758
1789911378569446700,9.36544677734375,-0.1667516740374267,0.5641425340026617,0.28743863925337787
1789911378579455500,9.37545556640625,-0.3037466538451612,0.15957038423120976,-0.4720154544472694
1789911378589463800,9.3854638671875,-0.3679878014788031,-0.18639175566136837,-1.4056442117929457
1789911378599472600,9.39547265625,-0.5421661183856428,-0.3004477584302425,-2.169345441544056
1789911378609481500,9.4054814453125,-0.7211246553063392,-0.19257833534181118,-2.5790210519343613
1789911378619489800,9.41548974609375,-0.6883550429962575,0.17847616023123264,-2.779713135626912
1789911378629498600,9.42549853515625,-0.42941769108399747,0.5839192476183176,-3.0248592780739068
1789911378639507500,9.435507568359375,-0.17870222407206893,0.6835983499884605,-3.345468073262274
1789911378649515500,9.445515625,0.09942381243482232,0.44253392389714713,-3.8951650255441663
1789911378659524600,9.455524658203124,0.29653847603201866,-0.006336217284202575,-4.733063710406422
1789911378669532400,9.465532470703126,0.2787982366800308,-0.5926181023806333,-6.002749884223937
1789911378679541500,9.47554150390625,0.30492519610524177,-1.2765449536710978,-7.730466826277971
1789911378689550600,9.485550537109376,0.9057856416523457,-1.9657897851139305,-9.284779504537582
1789911378699558700,9.49555859375,2.022213244733959,-2.3898346971184012,-10.124729276710749
1789911378709567500,9.5055673828125,1.929936819835752,-2.419748189345002,-10.04197617470026
1789911378719576600,9.51557666015625,3.3581039752125736,-2.4237965879529715,-10.373568428456784
1789911378729584600,9.525584716796875,4.871541037726402,-2.059789088281989,-9.968181455171107
1789911378739593700,9.53559375,5.774995606082678,-1.1376491086781024,-8.059256882095337
1789911378749601500,9.5456015625,5.291855531030893,-0.17347791355252265,-5.735127121552825
1789911378759610600,9.555610595703126,3.830112415397167,0.34060616581737996,-3.7199791390299795
1789911378769619700,9.56561962890625,1.9882155519336462,0.3084305738776922,-2.3222072680473325
1789911378779627500,9.57562744140625,1.2819032658338545,-0.456732545119524,-1.34851128872931
1789911378789636600,9.58563671875,1.1241004757970572,-1.853416620865464,-1.01728611471951
1789911378799645700,9.595645751953125,0.9672527945280075,-3.532317801824212,-1.2278653861761093
1789911378809653800,9.60565380859375,0.42014257080368694,-4.822367549234628,-1.7486194448292254
1789911378819662600,9.61566259765625,-0.23142288365140556,-5.70287145011425,-1.4298638762921094
1789911378829670700,9.625670654296876,-1.0714799155913293,-6.184273157066106,-0.7878086660474538
1789911378839679700,9.6356796875,-1.5785025321424007,-6.516846238553524,-0.05539689305126667
1789911378849688600,9.6456884765625,-2.015350957749039,-6.743008863589167,0.7251309683382511
1789911378859696600,9.655696533203125,-2.9697482162266966,-6.5041416552811855,1.5569810206860304
1789911378869705700,9.665705810546875,-4.015362015286088,-5.777943934494257,2.5518250019729134
1789911378879714800,9.67571484375,-4.575540906354784,-4.9786611037522555,2.9217770892620085
1789911378889722600,9.68572265625,-4.680831418865919,-3.740966982001066,3.0346009198874233
1789911378899731700,9.695731689453124,-4.383402715995907,-2.192536932039261,3.1173481766790148
1789911378909739800,9.70573974609375,-4.689518290929496,-1.0755477495521306,2.926583612760901
1789911378919748600,9.71574853515625,-5.0627135979235165,-0.6167699623405933,2.6355139235287903
1789911378929757700,9.7257578125,-4.600882560621201,-0.4460913241177797,2.0227344921290875
1789911378939765800,9.735765869140625,-3.658576283562183,-0.5718839419096708,1.0806973874002694
1789911378949774800,9.74577490234375,-2.517663204652071,-0.6232926421076059,0.1332329969257116
1789911378959783700,9.75578369140625,-1.6496584276005626,-0.4102642239332199,-0.27371991050243377
1789911378969791700,9.765791748046874,-1.9315619368195533,-0.14375848259329796,-0.1505705006957054
1789911378979800600,9.775800537109374,-2.6714631887882945,0.24308570278584957,0.4794213467895984
1789911378989808600,9.78580859375,-2.847909012235701,1.2853987067341803,3.1779742025554176
1789911378999817700,9.795817626953125,-3.0877313293114304,1.1327180820167064,4.527165874764323
1789911379009826600,9.80582666015625,-3.418662196549773,0.6245218916416168,5.17647324809432
1789911379019835000,9.8158349609375,-3.3312972168296575,0.3935030587464571,5.665117181259394
1789911379029843500,9.825843505859375,-3.1682483428329227,0.3441799326509237,6.230400117468833
1789911379039852500,9.8358525390625,-2.923354129320383,0.3931435777842998,6.887330240762234
1789911379049860600,9.845860595703124,-2.9261864301368594,0.4964017076849937,7.22087479763031
1789911379059869400,9.855869384765626,-2.9214485879600045,0.4794572948858142,7.233284197348356
1789911379069877500,9.86587744140625,-2.7028827016636727,0.7097524896815419,7.469807472878694
1789911379079886600,9.875886474609375,-2.8247727590590714,1.0239169310361147,7.350270992872119
1789911379089895700,9.885895751953125,-2.212387587673962,1.1878379116922617,7.3589727702438825
1789911379099903500,9.895903564453125,-2.1065157681435345,1.4330746550321578,7.076794827997684
1789911379109912600,9.90591259765625,-2.317445460473001,1.8587883770316838,6.596009207117557
1789911379119921700,9.915921630859375,-1.5210867004841566,2.1609651512116193,6.425161057546735
1789911379129929500,9.925929443359376,-0.9074065208524466,2.520423317015171,6.007542963719367
1789911379139938600,9.9359384765625,-0.5876254086598753,2.8930542681246996,5.051960148718953
1789911379149946600,9.945946533203125,0.5774670027390122,3.0421593724429608,3.641459729066491
1789911379159955000,9.955954833984375,1.4762778369426726,3.169090638875961,1.782802284938097
1789911379169964000,9.965964111328125,1.8052262981921434,3.2526462894409893,-0.6763865189135074
1789911379179972000,9.97597216796875,1.933677321538329,3.0391625287145376,-3.497879525649547
1789911379189981000,9.98598095703125,2.396676525837183,2.2593197269797325,-6.061183953014016
1789911379199989000,9.995989013671876,2.892204373297095,0.7737374705970287,-7.985214909806847
1789911379209998000,10.005998046875,3.3065614195019006,-0.8975462210953236,-9.010266397830843
1789911379220007200,10.016007080078126,3.263981922447681,-1.5308926397055387,-8.434223582676053
1789911379230015000,10.026014892578125,2.8577047223240135,-1.1419383303046227,-6.838133371394872
1789911379240024000,10.036024169921875,2.9841917521208523,-1.1055132642269134,-6.831621797543764
1789911379250033200,10.046033203125,3.056550593627989,1.3742214840471745,-2.721580680131912
1789911379260041000,10.056041015625,1.8724344789378344,2.316065112030506,-0.5241150595188141
1789911379270050000,10.066050048828124,-0.1513029066234827,2.707431158748269,1.4617086288422345
1789911379280058000,10.07605810546875,-1.1705044995754956,2.342930322602391,3.4240678549855947
1789911379290067200,10.086067138671876,-0.8597508895777165,0.30969489472508427,4.575182009914517
1789911379300076000,10.096075927734375,1.2475382010258733,-2.200171956962347,4.472496711465716
1789911379310084000,10.106083984375,4.144742428436875,-5.404685206875205,3.405238066831231
1789911379320093200,10.11609326171875,4.269970398083329,-5.303389316958189,3.3356565810829397
1789911379330102300,10.126102294921875,4.41521415079832,-8.890359915468096,1.3173761457532644
1789911379340110000,10.136110107421874,5.346656796276569,-13.456368438845873,-2.534358318865299
1789911379350119200,10.146119140625,4.9496805084615945,-16.832420743203162,-6.712649381160736
1789911379360127200,10.156127197265626,-0.8976834376089274,-16.436886470890045,-7.664561983215808
1789911379370136000,10.166135986328126,-4.661065811166167,-12.64440674379468,-6.38798020466566
1789911379380145200,10.176145263671875,-4.972211489221453,-6.872526054862141,-2.7793799581497907
1789911379390153200,10.1861533203125,-4.4449686530709265,-2.4391081388533116,0.8290098604857921
1789911379400162000,10.196162109375,-3.7054192832797765,-0.01656242774426937,2.8218460579574107
1789911379410170000,10.206170166015625,-3.4554379757612943,1.6208452978312968,4.124509787747264
1789911379420179200,10.21617919921875,-3.7479917660713196,2.911589457246661,5.07982839885354
1789911379430188300,10.226188232421874,-4.156331743943691,3.923817704054713,5.909934237882495
1789911379440196000,10.236196044921876,-4.339345547604561,4.647180493676662,6.41355069925189
1789911379450205200,10.246205078125,-4.036612893107534,5.020873521059751,6.591615940594672
1789911379460213200,10.256213134765625,-4.055049298030138,5.178659944483638,6.491834546893835
1789911379470222000,10.26622216796875,-3.255985662996769,4.673619587790966,5.636527631112933
1789911379480231200,10.276231201171875,-2.2741104688763616,3.27021292579174,3.8973739337652917
1789911379490239200,10.2862392578125,-2.302314234575629,1.7542869690716265,2.199191129231453
1789911379500248300,10.296248291015624,-2.222358069807291,0.0685363606095314,0.5707897169321775
1789911379510257000,10.3062568359375,-2.1681319741010663,-1.6578841118931769,-1.0674766712993382
1789911379520265200,10.31626513671875,-2.0607395208746193,-3.104166623544693,-2.612940272670984
1789911379530274000,10.326274169921875,-1.558272229540348,-4.050813267895579,-3.494737720492482
1789911379540282000,10.3362822265625,-1.1432318772464989,-3.8265561842203137,-3.3891824195653197
1789911379550291000,10.346291015625,-0.41700142323374745,-2.279740583717823,-1.7811042488485573
1789911379560300000,10.356300048828125,-0.006833060890436172,-0.6644879913270473,-0.10602934817969799
1789911379570308000,10.36630810546875,-0.18390337291173636,0.5950590657919645,1.305176004871726
1789911379580317000,10.37631689453125,-0.6265419262271374,1.2902625133782624,2.1926228567570445
1789911379590325000,10.386324951171876,3.744212247532606,0.7666530652940273,3.1526427774220704
1789911379600334000,10.396333984375,7.675323031204939,-0.10920447108447551,0.040024551874399183
1789911379610343200,10.40634326171875,8.055044817358255,0.2690928352236748,-0.8780617684245109
1789911379620351000,10.41635107421875,7.3520987928211685,0.9273486541628837,0.1474415550202131
1789911379630360000,10.426360107421875,3.8920132835149763,0.9121440707683562,0.46516485790014267
1789911379640367900,10.436367919921874,0.47591428851671513,0.639346535807848,-0.16499708545506
1789911379650377000,10.446376953125,-1.8285165728867052,0.8254501221776008,-0.6635808133542538
1789911379660386000,10.456385986328126,-3.0636276924073695,1.394718913152814,-0.5346072274386883
1789911379670394000,10.46639404296875,-3.1957986130595204,1.8375731550455092,-0.24614333679080008
1789911379680403000,10.47640283203125,-2.7635107733666895,2.127626360711455,-0.006841244196891784
1789911379690411000,10.486410888671875,-1.6351416803397236,2.305851761052012,0.049640521481633185
1789911379700420000,10.496420166015625,-0.20555413677096365,2.1824743877083064,-0.348696533292532
1789911379710429200,10.50642919921875,1.0234767860531806,1.7670844913244246,-0.822146988978982
1789911379720437000,10.51643701171875,2.2686169860266148,1.4175392322480678,-1.1864432424634694
1789911379730446000,10.526446044921874,3.138900083273649,1.0804004502803086,-1.6269576432317494
1789911379740455200,10.536455078125,3.16512056620121,1.1083622239172457,-1.6802274611264467
1789911379750463000,10.546462890625,2.309278812891245,0.7056202121824026,-2.382386719200015
1789911379760472000,10.55647216796875,1.6324701230429113,0.42463586363494393,-2.486808047661185
1789911379770480000,10.566480224609375,0.9912976869821548,0.21583879941999912,-2.5214368779718876
1789911379780489200,10.5764892578125,0.441560694950819,0.09593757775425911,-2.33651694842875
1789911379790498000,10.586498046875,-0.0288391409933567,0.18606266983747483,-2.071284295764565
1789911379800506000,10.596506103515624,-0.5452231678687036,0.3613800737768411,-2.0931568126156925
1789911379810515200,10.60651513671875,-0.9175649267733097,0.4157780189186334,-2.4659306793272493
1789911379820523000,10.61652294921875,-0.9655331311285495,0.46659810557365416,-2.9281907556965945
1789911379830532000,10.626531982421875,-0.46278468476533885,0.5091109671324491,-3.677502517828345
1789911379840541200,10.636541259765625,0.7134884613394736,0.6943202350109815,-4.41332117665857
1789911379850549000,10.646549072265625,2.634283504951,1.1585422591030596,-5.250808650371432
1789911379860558000,10.65655810546875,4.045886625148356,1.9113538460493087,-5.635782365703583
1789911379870566100,10.666566162109374,4.16606870958209,2.4534464608073234,-5.916375084584951
1789911379880575200,10.6765751953125,3.3631332015514372,2.549233816435933,-6.5777405599772925
1789911379890584000,10.686583984375,1.8864602278113365,2.021177910336852,-7.493205884122848
1789911379900592000,10.696592041015625,0.7704735003650188,1.1707809784293175,-8.351075928390026
1789911379910601200,10.706601318359375,0.6115292121428996,1.1208896970570086,-8.23987589957416
1789911379920609000,10.716609130859375,0.859236729510501,0.4792459902226925,-8.58506705509424
1789911379930618000,10.7266181640625,2.037291425269842,-0.04466214854717254,-8.411658699646592
1789911379940627200,10.736627197265625,2.5234067167401313,-0.4886854342192411,-7.676728806349635
1789911379950635300,10.74663525390625,1.8249299465715885,-0.996185459023714,-6.524103662335873
1789911379960644000,10.75664404296875,0.5306429999828338,-1.39312199935019,-5.279787492096424
1789911379970652200,10.766652099609376,-0.39462767886221406,-1.66503982886672,-4.365918497231602
1789911379980661200,10.7766611328125,-0.6686171270210296,-2.2736937047690153,-4.084899077370762
1789911379990670000,10.786670166015625,-0.8819026617616414,-3.363293945071101,-4.0577404368102545
1789911380000678100,10.79667822265625,-1.0600881684832275,-4.8436780482888215,-3.830475988012552
1789911380010687200,10.806687255859375,-1.0642775829970836,-6.513260196760297,-3.373969068342447
1789911380020695300,10.8166953125,-0.986439871687442,-8.134577203756571,-2.5844196961075068
1789911380030704000,10.8267041015625,-0.8967449877150356,-9.225147750395536,-1.7340736176043747
1789911380040713000,10.836712890625,-0.8369535129666328,-9.823552034962177,-1.0368792884618043
1789911380050721300,10.84672119140625,-1.3343915779620408,-9.522700371906161,-0.6105564946532249
1789911380060730000,10.856730224609375,-2.2846464759379623,-8.283273142752051,0.1768389144182205
1789911380070738200,10.86673828125,-2.8921330616265535,-6.984515188229084,0.9165063576310872
1789911380080747000,10.8767470703125,-4.148270894823968,-5.753922422915696,1.9224094930708406
1789911380090756000,10.886756103515625,-5.394401713269948,-4.388220929932594,2.8297148916363715
1789911380100764200,10.89676416015625,-5.626216080456972,-2.8334359579861164,3.8312878889173265
1789911380110773000,10.90677294921875,-4.15435664447844,-1.4901841972202061,4.356601802831888
1789911380120781000,10.916781005859375,-2.4459715948820113,-0.4706739767104387,4.157071748656034
1789911380130790000,10.926789794921875,-2.010890325078368,0.34377310541570183,3.378720646783709
1789911380140799000,10.936799072265625,-1.4947089811682701,0.9869996975272893,2.448486208051443
1789911380150807000,10.94680712890625,-1.5624965692371129,1.39174194316864,1.6300672996848822
1789911380160816000,10.956816162109375,-2.087281490841508,1.5787559223815797,1.8821505479186773
1789911380170824400,10.966824462890624,-2.8699630231335758,1.7410662529706953,2.5802853727817534
1789911380180833500,10.97683349609375,-3.6433763763427733,0.5218582205027341,4.552573287743329
1789911380190842600,10.986842529296876,-4.070430114774406,0.18620207830816507,4.677295061433315
1789911380200850400,10.996850341796875,-4.2327369382321836,0.24395342553108929,4.991345813280343
1789911380210859500,11.006859619140625,-4.791562661126256,0.6675687139466404,5.488496293506026
1789911380220867600,11.01686767578125,-5.5556525979340075,1.0791299919530748,5.941774314257502
1789911380230876700,11.026876708984375,-5.827836384910345,1.4613827578887342,6.390255163860321
1789911380240885500,11.036885498046875,-5.9013493648886675,1.467602947577834,6.345222428435087
1789911380250893600,11.0468935546875,-4.700154543495178,1.4080278920590876,7.361051914605498
1789911380260902700,11.056902587890624,-4.142119386456907,1.33889736494869,7.718105357354879
1789911380270910500,11.066910400390626,-3.655333356118202,1.4009373492762445,7.951140206247568
1789911380280919600,11.07691943359375,-2.996025690038502,1.673541115230322,8.251637064516544
1789911380290927600,11.086927734375,-2.722728096601367,2.115975962667167,8.093237477630376
1789911380300936700,11.096936767578125,-2.162702058006823,2.519899000880122,7.60525230063498
1789911380310945500,11.106945556640625,-1.4358259995669125,2.651046423703432,6.510843198746443
1789911380320953600,11.11695361328125,-0.41406946143507956,2.464451838946342,5.170182623517513
1789911380330962700,11.126962646484374,0.5305377860426902,2.1476070724666116,3.9103140793591735
1789911380340970500,11.136970458984376,1.3943471572309731,1.778477407476306,2.339371753337979
1789911380350979600,11.1469794921875,2.4948116136357186,1.1867261510580778,0.430721321028471
1789911380360988700,11.15698876953125,3.604293489232659,0.5575374366492033,-2.13226103477478
1789911380370996700,11.166996826171875,4.05463487201035,0.25004969657957554,-5.9017287195950745
1789911380381005600,11.177005615234375,3.8499814834713932,-0.25201719726026056,-9.55550724748671
1789911380391013600,11.187013671875,3.0515742665201424,-1.4064204568624497,-10.90519576330185
1789911380401022700,11.197022705078124,1.6597124963641166,-2.03516961081028,-9.63751391504407
1789911380411031600,11.207031494140624,0.8434484279438853,-1.696415210339427,-7.114117719697952
1789911380421039600,11.21703955078125,0.5463792060360312,-0.9956810166329145,-4.275705142343044
1789911380431048700,11.227048583984375,0.6571393821299075,-0.16783143209815024,-1.2485258968889712
1789911380441056500,11.237056396484375,0.7691115643620491,-0.10558686510920524,-1.2600439007252453
1789911380451065600,11.247065673828125,1.8629430124931037,-0.02474924133121967,2.1019640961885453
1789911380461073700,11.25707373046875,2.900291233640909,-2.0320219604343173,2.160486427783966
1789911380471082800,11.267082763671874,4.810243688459694,-4.057271650254727,1.3956477184355258
1789911380481091600,11.277091552734374,6.873702112904191,-5.657386294746399,0.2607522923797369
1789911380491099600,11.287099609375,6.642076546287536,-6.943630220133066,-0.6923328605860471
1789911380501108700,11.297108642578126,6.690764297088981,-6.880783011075854,-0.731664169499278
1789911380511116500,11.307116455078125,4.8523067604243755,-8.03914640648067,-2.4634125590264797
1789911380521125600,11.317125732421875,1.8078471482150256,-8.140522960418462,-3.935291868749261
1789911380531134700,11.327134765625,-1.702618156632781,-7.425161106422543,-4.019574080023169
1789911380541142800,11.337142822265625,-4.6864749777108425,-6.580275631412864,-3.3425369882464406
1789911380551151600,11.347151611328124,-5.309091912513971,-4.9611120030581946,-1.0997761818796397
1789911380561159700,11.35715966796875,-4.363996589258313,-3.410502855491638,1.3707470859348774
1789911380571168800,11.367168701171876,-3.535663605120778,-2.2169144174486397,2.816871776676178
1789911380581177600,11.377177490234375,-3.1560587233453985,-1.011118239739537,3.7722201983988284
1789911380591185700,11.387185546875,-3.0015690033793447,0.03931903395354747,4.405615716847777
1789911380601194500,11.397194580078125,-2.781158658260107,0.9389999289900064,5.006703541409969
1789911380611202800,11.407202880859375,-2.8085476004451513,1.7071142990082502,5.541645699891448
1789911380621211600,11.417211669921874,-3.1325171042382713,2.34058288269341,5.891621167078614
1789911380631219700,11.4272197265625,-3.5376883889466524,2.853393288865685,6.08523352164328
1789911380641228800,11.437228759765626,-3.7990789792299267,2.9110341614514588,5.952538284856081
1789911380651237400,11.4472373046875,-3.313569252437353,2.1842466580778357,5.060042332887649
1789911380661245700,11.45724560546875,-2.4430413866490124,0.9549959550231695,3.5548785932004447
1789911380671254500,11.467254638671875,-2.220485261672735,-0.3805909702032804,1.8967191714972256
1789911380681262600,11.4772626953125,-2.2136323270380496,-1.7513024003028868,0.22540976084172723
1789911380691271400,11.487271484375,-2.2359604787021876,-2.9806460423380137,-1.5229975025415419
1789911380701280500,11.497280517578124,-2.316139930832386,-3.8205624967634675,-3.1206273444801567
1789911380711288600,11.50728857421875,-2.435740708246827,-4.064856406295299,-4.452865543800592
1789911380721297400,11.51729736328125,-1.9412439574003217,-3.341857773810625,-4.878902506405115
1789911380731305500,11.527305419921875,-0.07890576066626236,-1.078710012975335,-3.5203427018702027
1789911380741314600,11.537314453125,0.23772271444797513,1.0484159969985485,-2.0124743793994186
1789911380751323600,11.54732373046875,2.300814935928583,3.1546289828032252,-0.8457581661909818
1789911380761331500,11.55733154296875,4.946588972187042,4.840504094427824,0.6743453684747218
1789911380771340500,11.567340576171874,3.1460569692909717,4.2952316805899144,0.6934750163584947
1789911380781348600,11.5773486328125,1.62712423197031,2.4490818358570334,-0.13045125725269316
1789911380791357400,11.587357421875,0.857787042158842,2.1736223882108927,-0.6451432393878698
1789911380801365500,11.597365478515625,0.0878209433266893,2.017192640092969,-0.8637953426629305
1789911380811374600,11.60737451171875,-1.0757084930717944,1.6838573420614003,-0.6049772332161665
1789911380821383700,11.6173837890625,-2.3854607198178766,1.4520920747131107,-0.3618435996353626
1789911380831391500,11.6273916015625,-2.590164961761236,0.8647837691783905,-0.07613689874112606
1789911380841400600,11.637400634765624,-1.171211259605363,-0.09860241304934024,0.299982479006052
1789911380851408400,11.647408447265626,2.1453344513595103,-0.5866840361565351,0.14589432557821272
1789911380861417500,11.65741748046875,4.465879339152575,-0.23179741605222223,0.05796703580021858
1789911380871425500,11.667425537109375,3.1589386626958844,0.6595961276322603,0.82617902097404
1789911380881434600,11.6774345703125,1.2747569012105464,1.242444531148672,1.3481927242994307
1789911380891443500,11.687443359375,-0.34255335436239837,1.339214468073845,1.36660165669322
1789911380901451500,11.697451416015625,-1.0939221220891922,1.343600720334053,1.083725210788846
1789911380911460600,11.707460693359375,-0.9564379705250262,1.2489414919525383,0.7042717201828956
1789911380921468400,11.717468505859374,-0.3048281654715538,1.1345470510095357,0.1801677665799856
1789911380931477500,11.7274775390625,0.6744704561591148,0.7124725622951984,-0.45740474529266356
1789911380941486600,11.737486572265626,1.2947814521074295,0.1947118402391672,-0.86428108035326
1789911380951494700,11.74749462890625,1.3412649708628654,0.13945932409465311,-0.809373432123661
1789911380961503500,11.75750341796875,0.9969069051660596,0.3813876735389232,-0.6818745949357747
1789911380971511600,11.767511474609375,0.23027838979139922,0.4789245031833648,-0.7696130841434001
1789911380981520600,11.777520751953125,-0.6782675103545188,0.283264568439126,-1.3617872421488164
1789911380991528400,11.787528564453124,-1.1093217165991662,-0.02021978120803833,-2.316536528934538
1789911381001537500,11.79753759765625,-0.8813292457878589,-0.219582077601552,-3.3086355954274533
1789911381011546600,11.807546630859376,-0.1734146390579641,0.05438625470399856,-4.243741147327423
1789911381021554700,11.8175546875,0.751570208583027,0.6767091749966144,-5.040857155424356
1789911381031563500,11.8275634765625,1.3564685313440858,1.353369834676385,-5.587834035092592
1789911381041571600,11.837571533203125,1.460258430033922,1.7879332180857657,-5.7189820424377915
1789911381051580700,11.84758056640625,1.4861435435272752,1.8989327558934688,-5.474570644006133
1789911381061588500,11.85758837890625,1.4482920979082583,1.9132658171504735,-5.49035273502767
1789911381071597600,11.86759765625,0.562017796933651,0.5606687204122544,-5.759096026161313
1789911381081606700,11.877606689453126,-0.15486571367159485,-0.4927729957938194,-6.690626349923014
1789911381091614500,11.887614501953125,0.2905481495760381,-2.078539965981245,-7.55392718706727
1789911381101623600,11.89762353515625,1.8271616511464117,-3.294018164271116,-7.626853307068347
1789911381111631600,11.907631591796875,1.7270343666173518,-3.331654359704256,-7.533804436492919
1789911381121640700,11.917640625,2.624779179024696,-3.6054403211802244,-7.1670344863712785
1789911381131648500,11.9276484375,2.494828272509575,-3.3095559251427646,-6.7174874688416715
1789911381141657600,11.93765771484375,2.4569161827445027,-2.888610732719302,-6.124021225199103
1789911381151666700,11.947666748046874,2.467154668164253,-2.007654411897063,-4.731802312168479
1789911381161674200,11.95767431640625,2.153611865839362,-0.509245407167077,-2.6739140890717503
1789911381171683300,11.967683349609375,1.7948317454278468,0.08144728010892868,-1.5677718792915343
1789911381181691100,11.977691162109375,1.2299421924501657,-0.46510757475495335,-1.6116443387657402
1789911381191700200,11.9877001953125,0.5646889889042824,-1.5474363627493382,-2.026222334244847
1789911381201709300,11.997709228515625,0.030016295013949274,-2.619480488094687,-2.4270471141815184
1789911381211717000,12.007717041015624,-0.3519048278145492,-3.715735510110855,-2.5566747800916434
1789911381221726200,12.017726318359376,-0.5213787664227187,-5.044451380524039,-2.2515362334966658
1789911381231734300,12.027734375,-0.3642939153969288,-6.4531497191905975,-1.5339239702254532
1789911381241743400,12.037743408203125,-0.13986834328696132,-7.453924259570241,-0.501927193108201
1789911381251751200,12.047751220703125,-0.06858882144913077,-7.835866059860587,0.5792249523222446
1789911381261760300,12.05776025390625,-0.5687088190048932,-7.178590484130382,1.6078618976175785
1789911381271769300,12.067769287109375,-1.1469466599859297,-5.5990457494586705,2.3953303719252346
1789911381281777200,12.077777099609374,-1.9973720873355865,-4.40538658426702,2.485093060436845
1789911381291786200,12.0877861328125,-3.8589015797689554,-3.498783196491003,2.7032278618395327
1789911381301794300,12.097794189453126,-5.489049251213669,-2.642763748526573,3.362857891741395
1789911381311803400,12.107803466796875,-4.949664726370573,-1.8917542425662277,4.120485354536772
1789911381321811200,12.117811279296875,-3.1557831212744114,-1.150678686121106,4.409537274205684
1789911381331820300,12.1278203125,-1.7872718315675853,-0.7239139937639236,3.988803678706288
1789911381341829400,12.137829345703125,-1.2078174544036389,-0.2814431982308626,3.2622885625332594
1789911381351837200,12.147837158203124,-1.4146645535945892,0.3329641266316175,2.46951087590158
1789911381361846300,12.15784619140625,-2.0741715416386723,0.7814590047597885,2.022591284266114
1789911381371854300,12.167854248046876,-2.0466323773279784,1.2124380999416111,2.1604168696790933
1789911381381863200,12.17786328125,-2.055986188867688,1.3993202694684266,3.4917543207675217
1789911381391871200,12.187871337890625,-2.587058227917552,0.7296592594176531,4.035291873636842
1789911381401880300,12.19788037109375,-3.2069831471577284,0.4063721849307418,3.8405326871246097
1789911381411889400,12.207889404296875,-3.7690564736709,0.5477925799652934,3.5941841831505297
1789911381421897200,12.217897216796874,-3.768476335695386,0.789895409193635,3.852106220540404
1789911381431906300,12.22790625,-3.6831066214457153,1.1090136735633016,4.448444220227003
1789911381441914400,12.237914306640626,-3.6152287247449157,1.3388032569244503,5.212562798607349
1789911381451923200,12.247923095703126,-3.504691543751955,1.4878490322709084,5.783212230286002
1789911381461931300,12.25793115234375,-3.155129625801742,1.3829267685502766,6.308220439252257
1789911381471940400,12.2679404296875,-2.4334827001869677,1.1787459659591317,6.974312943166494
1789911381481949400,12.277949462890625,-2.22733878082931,1.1649316678792239,7.365427645471692
1789911381491957200,12.287957275390625,-2.1871359497785567,1.204049918563664,7.3614113955676554
1789911381501966300,12.29796630859375,-2.0349404782295224,1.2084700730934739,7.1937611652553075
1789911381511974400,12.307974365234376,-1.431807996097207,1.621175260438025,7.009523957279324
1789911381521983200,12.317983154296876,-0.6282485109493136,1.9309253924816845,6.695301355996728
1789911381531991300,12.3279912109375,0.16146452741473913,2.0901614301919937,6.223504512736201
1789911381542000400,12.33800048828125,0.6497516099661589,2.3884809444218873,5.427387452548742
1789911381552009200,12.34800927734375,1.367603234951198,2.480181907519698,3.9804742417782544
1789911381562017300,12.358017333984375,2.419071312996745,2.248108597135544,1.927373837479949
1789911381572026400,12.3680263671875,2.9211797078907487,1.8788433230668304,-0.8367840016186237
1789911381582034200,12.3780341796875,2.7674916596964,1.2547756049335002,-4.082910533902049
1789911381592043300,12.388043212890626,3.065225190731883,0.28284546624422074,-7.701913516488671
1789911381602051300,12.39805126953125,3.428975500771403,-0.6119599317103624,-11.044318987309932
1789911381612060400,12.408060302734375,3.5985610830605026,-1.3502151700377463,-12.550691518265008
1789911381622068200,12.418068115234375,3.572691605527699,-1.2425485760450363,-10.594437038737535
1789911381632077300,12.428077392578125,3.940602250117063,-0.7783364888250828,-7.855266341379284
1789911381642086100,12.438086181640625,3.8417192665606734,-0.2044283476114273,-4.520951822555065
1789911381652094200,12.44809423828125,3.1461335416585205,0.36527883478105067,-1.4145295290380715
1789911381662103300,12.458103271484376,2.2901541334435342,-0.41394846540391445,0.6244675311058759
1789911381672111400,12.468111328125,2.5553742188870907,-2.242678973302245,1.7954805647253989
1789911381682120400,12.478120361328125,4.16651528430581,-4.511197321259975,1.9803461337327957
1789911381692128300,12.488128173828125,4.793468787008524,-6.54221624213159,1.5769582253098486
1789911381702137300,12.498137451171875,4.8378176318228245,-6.460583668583631,1.5175246240884064
1789911381712146200,12.508146240234375,3.999891474431753,-8.187745899364351,0.950256067019701
1789911381722154200,12.518154296875,2.852901413695514,-9.166099933621286,0.16908055537641048
1789911381732163000,12.5281630859375,0.7909253367632627,-8.996281127098202,-0.5904319905132055
1789911381742171400,12.53817138671875,-1.8416583785325287,-7.731781416007876,-0.6025403614580631
1789911381752180200,12.54818017578125,-3.5696953463211654,-5.4266304967015975,0.4566565572738647
1789911381762188300,12.558188232421875,-3.812920457577705,-3.31972952863276,1.9406722949922084
1789911381772197000,12.568197021484375,-3.5457074447512626,-1.8106787183791397,3.006925561976433
1789911381782206200,12.578206298828125,-3.2806098166435955,-0.6316168183386326,3.697461602273583
1789911381792214300,12.58821435546875,-3.300379515996575,0.1809872662693262,4.244811991429328
1789911381802223000,12.59822314453125,-3.4159581982880827,0.7468231601864099,4.682214982178807
1789911381812231400,12.6082314453125,-3.6615988462537525,1.1300018087953327,5.057426597431302
1789911381822240000,12.618239990234375,-3.9291561424732206,1.267387249225378,5.340504703387618
1789911381832248300,12.628248291015625,-4.359043350765109,1.1938467967182398,5.370775338488817
