time,seconds_elapsed,z,y,x
1789664895640009500,0.119009521484375,-0.14489245505928994,-0.013323591953516005,-0.1732211623124778
1789664895650035500,0.129035400390625,-0.2962584900468588,0.11729366951584816,-0.08631342484056949
1789664895660061400,0.1390615234375,-0.36696459591090674,0.29567513720095157,-0.07675210803002118
1789664895670087400,0.14908740234375,-0.3069792060256004,0.49958559841811656,-0.08825885981991886
1789664895680113400,0.159113525390625,-0.18681845664083957,0.5999889234095811,0.00023965397477149962
1789664895690139400,0.169139404296875,-0.06928805575966834,0.6569067424178123,0.15296791722625494
1789664895700165400,0.179165283203125,0.1867027213066816,0.6152472828179597,0.25357903974950313
1789664895710191400,0.18919140625,0.38813539423346516,0.5352279896855354,0.32759741196669634
1789664895720217300,0.19921728515625,0.48598377404510973,0.4014578171432018,0.37221462539359923
1789664895730243300,0.209243408203125,0.4826946693718433,0.32141222052574153,0.4424052560161799
1789664895740269300,0.219269287109375,0.4172790711313486,0.28149346711337564,0.4828607466537505
1789664895750295300,0.22929541015625,0.2508826402723789,0.22573300144672392,0.5189070425469428
1789664895760321300,0.2393212890625,0.06544833146631718,0.19339725050926207,0.4617831795725971
1789664895770347300,0.24934716796875,-0.03353811246454715,0.12855097658932207,0.3643773558966815
1789664895780373200,0.259373291015625,-0.09291969123780727,0.05971592529416084,0.376195950114727
1789664895790399200,0.269399169921875,-0.07268646602630614,0.05482639968693256,0.42318588402234014
1789664895800425200,0.27942529296875,-0.02286532728075981,0.09173954154253006,0.47575646760649976
1789664895810451200,0.289451171875,0.1264583882242441,0.1525917773902416,0.48973012096658347
1789664895820477200,0.299477294921875,0.23617139335274695,0.1304752226501703,0.48878071128726003
1789664895830503200,0.309503173828125,0.25513386797606946,0.004883095866441726,0.4947380853217095
1789664895840529400,0.319529296875,0.34037586419284344,-0.19296645787656305,0.4363468327600509
1789664895850555400,0.329555419921875,0.3237947317481041,-0.4650397702157497,0.36487631839476525
1789664895860581400,0.339581298828125,0.30219840148985383,-0.49773734020292754,0.13830774290673434
1789664895870607400,0.349607421875,0.6334031172335147,-0.28655250406861305,-0.34341559721492226
1789664895880633300,0.35963330078125,1.0120721794635057,-0.3505547283798456,-0.5848089629996568
1789664895890659300,0.369659423828125,0.6819564280003308,-0.6231091022342443,-0.5171702818822116
1789664895900685300,0.379685302734375,0.8896259494900703,-0.5890238772809505,-0.41495603501126166
1789664895910711300,0.389711181640625,1.028640452426672,-0.1764046146541834,-0.14363785188831388
1789664895920737300,0.3997373046875,0.8364929097175597,-0.046617374268174167,0.0706730803772807
1789664895930763300,0.40976318359375,0.36600656453371044,-0.22901392281353472,0.21450996196903288
1789664895940789200,0.419789306640625,-0.2708499080240726,-0.38538404969871043,0.026352365678921342
1789664895950815500,0.4298154296875,-0.7871230218708515,-0.4764502220243215,-0.2973046380989253
1789664895960841500,0.439841552734375,-0.9903478389114141,-0.43160570264756676,-0.5333028668418527
1789664895970867500,0.449867431640625,-0.783048904299736,-0.2369371170282364,-0.5844879874169826
1789664895980893400,0.4598935546875,-0.4186252250432968,-0.08534837920069693,-0.46746838560216125
1789664895990919400,0.46991943359375,-0.24601883362829685,-0.04287000443339348,-0.3538572039913386
1789664896000945400,0.4799453125,-0.09007657676637172,-0.012754852154850959,-0.25634631250575185
1789664896010971400,0.489971435546875,0.08565992936789989,0.02027589530944824,-0.06091456049419939
1789664896020997400,0.499997314453125,0.23807225853800773,0.023309563916921613,0.1594074487544596
1789664896031023400,0.5100234375,0.31896891902685165,0.015244330883026121,0.3401913014061749
1789664896041049300,0.52004931640625,0.3242635183036327,0.0440367101252079,0.3962935662478208
1789664896051075300,0.530075439453125,0.26953064211905003,0.04922317285239696,0.3822062233801931
1789664896061101300,0.540101318359375,0.1950222213625908,0.06150631584227085,0.40976160817332563
1789664896071127300,0.550127197265625,0.16967092248499394,0.12260872705876827,0.532991097478941
1789664896081153300,0.5601533203125,0.11851298217773437,0.17877309735119343,0.6804788297284394
1789664896091179300,0.57017919921875,-0.03563946865797043,0.1925596306413412,0.7206720892332494
1789664896101205200,0.580205322265625,-0.194206813326478,0.31115561492741106,0.698762747503072
1789664896111231200,0.590231201171875,-0.39060090756416316,0.3640560149878263,0.48494383653812106
1789664896121257200,0.60025732421875,-0.5060848973095416,0.2319464691340923,0.15749335876144469
1789664896131283200,0.610283203125,-0.5428191754668951,0.11460369977951049,-0.26967801470048725
1789664896141309200,0.62030908203125,-0.3562549858480692,0.07380757901072502,-0.5680694981880485
1789664896151335200,0.630335205078125,-0.08912263704240321,0.020472294664382933,-0.46832887488901614
1789664896161361200,0.640361083984375,0.049882513543963426,-0.05267185200154781,-0.12094941554442047
1789664896171387100,0.65038720703125,0.17938275368213652,-0.04264320994019508,0.20106354735344648
1789664896181413000,0.6604130859375,0.19487667541205883,-0.02030862853527069,0.31471264982186253
1789664896191439000,0.670439208984375,0.17245909189879893,0.014993570992350578,0.23474413702860472
1789664896201465000,0.680465087890625,-0.08095920433104038,-0.08050035464763641,-0.0032817250844091174
1789664896211491000,0.690490966796875,-0.4279132778704166,-0.1403103879660368,-0.2593750126771629
1789664896221517300,0.700517333984375,-0.22519231869876383,0.3056470806390047,-0.10009922747835516
1789664896231543300,0.710543212890625,-0.08680442322790623,0.4192202683269977,-0.07414053729213774
1789664896241569300,0.7205693359375,-0.0024321955829858777,0.20830840391516683,0.14925905277095733
1789664896251595300,0.73059521484375,0.2861532756179571,0.19862112263739107,0.3168450587406754
1789664896261621200,0.740621337890625,0.4385615131348371,0.17961363982856274,0.32422260177135465
1789664896271647200,0.750647216796875,0.4521118995815515,0.13039222054183483,0.350530616851896
1789664896281673200,0.760673095703125,0.4290560181647539,0.18323709102272986,0.31679822392426427
1789664896291699200,0.77069921875,0.312326996794343,0.20583412275612353,0.22346461812332272
1789664896301725200,0.78072509765625,0.13375906662642956,0.17168343135118483,0.14175086909793316
1789664896311751200,0.790751220703125,-0.019905308431386947,0.10947685828506946,-0.0020537176594138144
1789664896321777200,0.800777099609375,-0.02533843939602375,0.050098202121257776,-0.12149528592415153
1789664896331803400,0.810803466796875,0.02276245142817497,-0.009182838886976241,-0.18330832962803542
1789664896341829400,0.820829345703125,0.01776245118379593,-0.0010275894820690155,-0.15328816215656696
1789664896351855400,0.83085546875,-0.03326747882962227,0.003743278181552887,-0.11687756299562752
1789664896361881300,0.84088134765625,-0.10723287875056266,-0.03205810303986072,-0.11781389399766921
1789664896371907300,0.8509072265625,-0.1191220539867878,-0.09112871616780757,-0.12963643373847006
1789664896381933300,0.860933349609375,-0.15659458329081535,-0.16610884608924387,-0.20748013639748095
1789664896391959300,0.870959228515625,-0.16774726094603537,-0.24760405699312685,-0.27800803615041075
1789664896401985300,0.8809853515625,-0.1291559567451477,-0.3117857295244932,-0.30283326532728966
1789664896412011300,0.89101123046875,-0.089145433396101,-0.29808278286457063,-0.20990560997873545
1789664896422037200,0.901037353515625,-0.04582651615142822,-0.19471417832672594,-0.04735599074102938
1789664896432063000,0.91106298828125,-0.05572422530949116,-0.045368835511803624,0.08717968628108501
1789664896442089200,0.921089111328125,-0.13805237990617752,0.07047638876140118,0.17902488015517593
1789664896452115200,0.931115234375,-0.1231166765809059,0.07482406257688999,0.2354933114280924
1789664896462141200,0.94114111328125,0.05059972190260887,-0.06575695902407169,0.20871976119503377
1789664896472167200,0.951167236328125,0.2889291700720787,-0.1854670420318842,0.09230323983989655
1789664896482193200,0.961193115234375,0.4250035279035568,-0.25563597227931023,0.010783552081882954
1789664896492219100,0.97121923828125,0.45543023034930225,-0.2950017679840326,-0.08971391746643931
1789664896502245000,0.9812451171875,0.41339375413060186,-0.31246377491652966,-0.045787718511000275
1789664896512271000,0.99127099609375,0.2880126397490501,-0.3130634943753481,0.18267222368158398
1789664896522297000,1.001297119140625,0.2909668133795261,-0.36278351083397864,0.5227621105398983
1789664896532323000,1.011322998046875,0.38466801038384435,-0.4838379941880703,0.7118738657496869
1789664896542349000,1.02134912109375,0.40047231323719024,-0.6333247913002967,0.4961673144072294
1789664896552375300,1.031375244140625,0.2968494416773319,-0.8504384329617023,0.1640446070358157
1789664896562401300,1.0414013671875,0.17461071697473524,-0.8284241695523261,0.10257416622452438
1789664896572427300,1.05142724609375,0.023048867154121397,-0.3824894973009825,0.15444105851873755
1789664896582453200,1.061453369140625,-0.31239713942110536,0.10046528431177139,0.3344748965207487
1789664896592479200,1.071479248046875,-0.7602595648646354,0.7744260373830795,-0.09642448448836803
1789664896602505200,1.081505126953125,-0.6803975081205368,1.0443863030910492,-0.3831516144715249
1789664896612531200,1.09153125,-0.25144670389592644,0.2019891377657652,0.4270665979132056
1789664896622557200,1.10155712890625,0.3108475718915462,-1.0409013835847378,1.2020227966502308
1789664896632583200,1.111583251953125,0.6420008497089147,-2.228909975668788,1.3269165659062563
1789664896642609200,1.121609130859375,0.42254327526986596,-4.417189834785461,0.6953460709273814
1789664896652635100,1.13163525390625,0.2886456769555807,-5.9664908223629,0.6240978210106491
1789664896662661400,1.141661376953125,0.09604980595707893,-5.654395296236872,1.1765678182024508
1789664896672686000,1.15168603515625,-0.1334831722944975,-3.953579220589995,0.9714112293817102
1789664896682713300,1.16171337890625,-0.7253028177738189,0.33078912068009375,0.885273234173283
1789664896692739300,1.1717392578125,-1.698287433952093,1.0298813923984766,-0.20937018792778253
1789664896702764300,1.181764404296875,-2.635251473200321,-1.700383529448509,0.5715048063989728
1789664896712790300,1.191790283203125,-3.117745651564002,-2.4412732079327104,1.530429406107962
1789664896722816300,1.201816162109375,-3.2083973978698253,-2.279919447416067,1.4254241402789949
1789664896732842200,1.21184228515625,-3.154083623880148,-1.5629530808329581,1.0384514331493526
1789664896742868200,1.2218681640625,-2.6346330490410326,-0.22540157753527162,-0.24493520311005412
1789664896752894200,1.231894287109375,-1.2344091087311506,2.1629846743404864,-2.364327623157203
1789664896762920200,1.241920166015625,0.19013971001803873,4.187962561482191,-4.753221532294154
1789664896772946200,1.2519462890625,0.20563772340118883,4.4104035356462,-6.375628088092804
1789664896782972200,1.26197216796875,-1.316884562844038,2.9944506958067416,-5.946966622203588
1789664896792998400,1.271998291015625,-2.815705070984363,1.2325281172901392,-4.35301693008244
1789664896803024400,1.2820244140625,-2.3768577266454693,-0.0015460603982210158,-3.25905060352534
1789664896813050400,1.29205029296875,-2.628696644729376,-0.7717267152965068,-3.037314855021238
1789664896823076400,1.302076416015625,-3.517729889023304,-1.7864380110919476,-0.46914530583843583
1789664896833102300,1.312102294921875,-5.149806774964929,-2.360471239989996,-0.12964200496273115
1789664896843128300,1.32212841796875,-5.553892018002271,-2.2598457966804504,-0.6455313619226217
1789664896853154300,1.332154296875,-5.397262363398075,-2.0421622461766002,-0.42625959237925704
1789664896863180300,1.34218017578125,-5.513278268063068,-2.0707021119624374,-0.3181325778005645
1789664896873206000,1.3522060546875,-5.665035932716727,-2.157796458047628,0.04842635991889983
1789664896883232000,1.36223193359375,-5.845912139827012,-2.2349206142604348,0.15202902894094586
1789664896893258000,1.372258056640625,-6.018334406846761,-2.373794247421622,-0.19650033109113574
1789664896903284200,1.3822841796875,-6.129125270339847,-2.5129309154331683,-0.6177618959873914
1789664896913310200,1.392310302734375,-6.367031524661183,-2.608016844794154,-1.0866155254028738
1789664896923336200,1.402336181640625,-6.924623321846127,-2.873212088057399,-1.4936144639298319
1789664896933362200,1.412362060546875,-7.954796390667557,-3.293053703153133,-1.9029862690679729
1789664896943388200,1.42238818359375,-9.254093274372815,-3.8549925896316766,-2.211344362231344
1789664896953414100,1.4324140625,-10.446867473423481,-4.495880509662628,-2.7111358584851026
1789664896963440000,1.442440185546875,-11.391606822848319,-5.302942742234468,-3.1555954897478222
1789664896973466000,1.452466064453125,-11.981998481351136,-6.070436934527755,-3.5906858196407554
1789664896983492000,1.4624921875,-9.992213488143681,-7.136733456131815,-4.945619834893941
1789664896993518000,1.47251806640625,-9.949925667512415,-8.092012319749593,-4.438834095838666
1789664897003544300,1.48254443359375,-11.972044073569775,-8.03183520668447,-2.639632757024467
1789664897013570300,1.4925703125,-10.037283632969856,-7.739380785095691,-2.6639567586809396
1789664897023596300,1.50259619140625,-8.580810566693543,-8.31999689951539,-1.1140858622610568
1789664897033622300,1.512622314453125,-7.370859607392549,-8.524804017311334,0.8429343409419059
1789664897043648300,1.522648193359375,-6.527212149745226,-7.928775814226269,2.2179390843212605
1789664897053674200,1.53267431640625,-5.505861854326724,-7.16162298271656,2.780377152493596
1789664897063700200,1.5427001953125,-3.9263510219246145,-6.937462345153093,3.6499212679415938
1789664897073726200,1.552726318359375,-2.3652368469566105,-7.0704948510706425,4.741538108763098
1789664897083752200,1.562752197265625,-0.7295265729486942,-7.374338681679964,5.739367827862501
1789664897093778200,1.572778076171875,0.7005588371396064,-7.672170704653858,7.07885468313694
1789664897103804200,1.58280419921875,1.5934282985955477,-7.778502250650525,8.267827736338972
1789664897113830400,1.592830322265625,2.0076205096274613,-7.882678664439916,8.965461041420697
1789664897123856400,1.6028564453125,2.232050611782074,-8.057374137088656,9.799078103441
1789664897133882400,1.61288232421875,2.8339631967306134,-8.046966140320897,10.835358256965876
1789664897143908400,1.622908447265625,3.512548102471232,-7.585890013039112,11.527294227188825
1789664897153934600,1.6329345703125,3.403805403679609,-7.456441210827231,11.322903288978338
1789664897163960600,1.642960693359375,2.9860961244374513,-7.915014415377378,11.21739474980235
1789664897173986600,1.652986572265625,2.477059683845937,-8.178077322787045,11.148308938616514
1789664897184012500,1.663012451171875,2.6538407305970786,-7.901038496994972,10.970718329048156
1789664897194038500,1.67303857421875,3.1122485154524444,-7.289856563919782,11.208642119026184
1789664897204064500,1.683064453125,3.406910676218569,-6.9731859849631785,11.644613615667819
1789664897214090800,1.6930908203125,3.864304023334384,-6.161860249727964,12.33028117314577
1789664897224116700,1.70311669921875,4.635725033682585,-4.944311674904823,12.750688020908832
1789664897234142700,1.713142822265625,5.542206256383657,-3.5845389874488114,12.956820834350586
1789664897244168700,1.723168701171875,6.464737281131744,-2.0088982744783164,12.665427319991588
1789664897254194700,1.733194580078125,7.197245500239729,-0.3164993140429258,11.922156299328803
1789664897264220700,1.743220703125,7.619627447468042,1.215139175593853,10.889276894158124
1789664897274246700,1.75324658203125,7.809858927422762,2.351927283528447,9.905946240532398
1789664897284272600,1.763272705078125,7.693519197630882,3.21116744710505,9.099936731883883
1789664897294298600,1.773298583984375,7.286400870507955,3.8971494773596524,8.37993961930275
1789664897304324600,1.78332470703125,6.81672759527266,4.197987111890316,7.6935881712138645
1789664897314350600,1.7933505859375,6.464529775860905,4.202015052232146,7.18463736307919
1789664897324376800,1.803376953125,6.385801107060909,4.290378979861736,6.698470633682608
1789664897334402800,1.81340283203125,6.178158473578095,4.518455329564214,5.86855768687725
1789664897344428800,1.8234287109375,5.763039795351028,4.569295289963484,5.0301393620550625
1789664897354454800,1.833454833984375,5.374774637258053,4.555962345659733,4.295233434155583
1789664897364480800,1.843480712890625,4.900933136427402,4.5687926011383535,3.6863100936621427
1789664897374506800,1.8535068359375,4.447788386666774,4.513311536934972,3.2494571380108592
1789664897384532700,1.86353271484375,4.085099568378925,4.43015394577682,2.8937931037932634
1789664897394558700,1.873558837890625,3.7871827897310255,4.379283590239286,2.643538240030408
1789664897404584700,1.883584716796875,3.606459142833948,4.240578883904218,2.502957218429446
1789664897414610700,1.893610595703125,3.6857355086445804,3.906051745739579,2.590691031461954
1789664897424636700,1.90363671875,3.755073833286762,3.461231172209978,2.852306662672758
1789664897434663000,1.913662841796875,3.64625456212759,2.981202507176995,2.9295459696978328
1789664897444689000,1.92368896484375,3.3653988083958626,2.5965274825304747,2.5967589531987905
1789664897454715000,1.93371484375,2.7771535142719745,2.2601327969282865,2.24990600194633
1789664897464740900,1.943740966796875,2.104924115037918,1.8525369154214857,2.0944395459026097
1789664897474766800,1.953766845703125,1.5859142697036266,1.3806664224028586,2.1059470283448696
1789664897484792800,1.963792724609375,1.0297533821046352,0.9049334087371825,2.246671257808804
1789664897494818600,1.973818603515625,0.5156073434144258,0.38707273343801496,2.550401106649637
1789664897504844500,1.983844482421875,0.03306348525669891,-0.1353513042539358,2.820736050888896
1789664897514870500,1.99387060546875,-0.22488252209722995,-0.539883706536889,3.0320845531523224
1789664897524896500,2.003896484375,-0.2326478954017162,-0.7428624398618936,3.0546085196495056
1789664897534922500,2.013922607421875,-0.14590836323671974,-0.8657938230037688,3.0257454132586714
1789664897544948700,2.02394873046875,-0.004643460157979279,-0.873622909194231,2.98436418607831
1789664897554974700,2.033974609375,0.40319735428690906,-0.8036743436992168,2.978828763782978
1789664897565000700,2.044000732421875,0.786376002895832,-0.7557511475294828,2.8715228197962044
1789664897575026700,2.054026611328125,0.9269920958101748,-0.6795499513804912,2.6627766089856624
1789664897585052700,2.064052734375,0.7916916449606418,-0.705446024659276,2.570110600247979
1789664897595078700,2.07407861328125,0.6023077217459678,-0.8194839072495699,2.407733341902494
1789664897605104600,2.084104736328125,0.42937699374742805,-1.0748299566715955,2.2444027283549306
1789664897615129600,2.094129638671875,0.43498716177940366,-1.3535346698492765,2.0438304716497657
1789664897625156600,2.104156494140625,0.5871382827300577,-1.3788187487095593,1.8566361674338578
1789664897635182600,2.1141826171875,0.8344857346136122,-1.1833125432223082,1.9183102410584687
1789664897645207600,2.12420751953125,1.2164518656276166,-0.8130114963650703,2.0336001695364714
1789664897655233500,2.134233642578125,1.5011889908373355,-0.09701134446561335,2.1920529479146
1789664897665259500,2.144259521484375,1.7121766969643533,0.9003723844319581,2.1518670679986474
1789664897675285800,2.15428564453125,1.8914016297362743,1.925135703164339,2.0004384891688822
1789664897685311700,2.164311767578125,1.9387782979391515,2.657005039846897,2.1104203743666408
1789664897695337700,2.174337646484375,2.007428348056227,3.0535505350291725,2.4615362437605857
1789664897705363700,2.18436376953125,2.2456631036795676,3.2734026617437597,2.9013772753119467
1789664897715389700,2.1943896484375,2.4339245987355707,3.312612390103936,3.3344723397344347
1789664897725415700,2.204415771484375,2.5892367410004136,3.2250767299920318,3.692036070093512
1789664897735441700,2.214441650390625,2.709158420932293,3.134526105973124,3.8856431639611717
1789664897745467600,2.224467529296875,2.7432515369310972,2.9758523783206936,3.9291853685677047
1789664897755493600,2.23449365234375,2.6492735688120126,2.815125809791684,3.7327749077171086
1789664897765519600,2.24451953125,2.3737507005408407,2.609168937438726,3.434868650463223
1789664897775545600,2.254545654296875,2.045031371872127,2.3923335281968114,3.064877984729409
1789664897785571800,2.26457177734375,1.7008251357361672,2.2142221096247434,2.6650959918439385
1789664897795597800,2.274597900390625,1.3829682696044445,2.091738470250368,2.1877987976014612
1789664897805623800,2.284623779296875,1.1603311883464456,2.1147031662523745,1.7285563154876231
1789664897815649800,2.29464990234375,0.9335435632802546,2.234299267491698,1.331686995178461
1789664897825675800,2.30467578125,0.753507167994976,2.3866566516041754,0.9409656761050224
1789664897835701800,2.31470166015625,0.6981753030039369,2.605530873197317,0.5636281547397375
1789664897845727700,2.324727783203125,0.6086030224978923,2.7698662798732516,0.30709084970653056
1789664897855753700,2.334753662109375,0.4970014271438121,2.8811294370532035,0.12799977244734764
1789664897865779700,2.34477978515625,0.4063550876654684,2.9718472343325613,-0.06823883896768093
1789664897875805700,2.3548056640625,0.25188670274838804,3.099090050932765,-0.16306465608775614
1789664897885831700,2.364831787109375,0.15124869221821427,3.1433477103322742,-0.23935236147642133
1789664897895858000,2.37485791015625,-0.019732289952039718,3.055117053693533,-0.4052092786312103
1789664897905884000,2.3848837890625,-0.1942062288045883,2.9406524701237675,-0.6004962884098292
1789664897915910000,2.394909912109375,-0.2479284666419029,2.8322289202839133,-0.882934927418828
1789664897925935900,2.404935791015625,-0.30072474874071775,2.735253231653571,-1.1099977161645889
1789664897935961600,2.414961669921875,-0.3962532342374325,2.5740672289192674,-1.1642425165712833
1789664897945987600,2.424987548828125,-0.462893551967293,2.391234042522311,-1.290280049034953
1789664897956013600,2.435013671875,-0.5168962141811847,2.2607740174412725,-1.4456629184484482
1789664897966039600,2.44503955078125,-0.5092598740838468,2.1842571794718504,-1.4453390933215617
1789664897976065500,2.4550654296875,-0.48675015530772503,2.0483394735068083,-1.407795836868882
1789664897986091500,2.465091552734375,-0.34630342761091887,1.8507120380818842,-1.2837854263186455
1789664897996117800,2.47511767578125,-0.14331183480434118,1.7948112871617077,-1.0750573356866835
1789664898006143700,2.485143798828125,-0.016525602865219115,1.8805431127220391,-0.8593792797863483
1789664898016169700,2.495169677734375,-0.0037209932845085857,1.9014590595006942,-0.4429243845194578
1789664898026195700,2.50519580078125,-0.049553354654833674,1.812595950177312,0.12775544229745864
1789664898036221700,2.5152216796875,-0.11140410002060235,1.6923744105160234,0.8575473881840705
1789664898046247700,2.52524755859375,-0.3056032414972782,1.6503636532604693,1.7520564335405826
1789664898056273700,2.535273681640625,-0.6468296581048518,1.5969821916848421,2.3089795376837254
1789664898066299600,2.545299560546875,-0.9413877739746123,1.3845622607976198,2.5671950050622225
1789664898076325600,2.55532568359375,-1.305265436720848,0.8915864359080791,2.878620084580779
1789664898086351600,2.5653515625,-1.57320676382184,0.29399755937755107,3.1626205660790205
1789664898096377600,2.575377685546875,-1.5642916359603405,-0.20289982286989688,3.526940784960985
1789664898106403800,2.58540380859375,-1.3432733880758285,-0.5175152228623628,3.993091146767139
1789664898116429800,2.595429931640625,-1.1904838961564004,-0.6805372088521718,4.549643664032221
1789664898126455800,2.605455810546875,-1.101026474201679,-0.775290545257926,5.218966820430755
1789664898136481800,2.615481689453125,-1.0015373414456843,-0.9877473010241985,5.852958551207185
1789664898146507800,2.6255078125,-0.8174876188658178,-1.1963473813623189,6.364606927862763
1789664898156533500,2.635533447265625,-0.677077423787117,-1.5009563511252402,6.776826377516985
1789664898166559500,2.6455595703125,-0.34022096589207645,-1.7355922054737805,7.016551079437137
1789664898176585500,2.65558544921875,0.2112462109327316,-1.4883949757158756,6.8450961961448185
1789664898186611500,2.665611572265625,0.6837887579940259,-0.8431465223878621,6.5321671418040985
1789664898196637400,2.675637451171875,1.059200425863266,-0.007258592826128006,6.1687500092417
1789664898206663400,2.685663330078125,1.2990439318574964,1.0154945551276207,5.794245665475726
1789664898216689400,2.695689453125,1.3546388316988944,1.8654133481293915,5.429582332244515
1789664898226715600,2.705715576171875,1.3095711710907518,2.30568751040101,4.986204358738661
1789664898236741600,2.71574169921875,1.1001403390169142,2.216155123513937,4.591971816673874
1789664898246767600,2.725767578125,0.8121556101880967,1.7232956184804438,4.1902784372091295
1789664898256793600,2.735793701171875,0.599361585291475,1.0205354719042778,3.756086225199699
1789664898266819600,2.745819580078125,0.4577519512951374,0.32352935881018635,3.251640327268839
1789664898276845600,2.755845458984375,0.3700643154919147,-0.30685061120986934,2.7556355099469423
1789664898286871600,2.76587158203125,0.28994156198501586,-0.8546610190927982,2.3493045338094234
1789664898296897500,2.7758974609375,0.3417185109734535,-1.2636504007846117,2.0571224994212387
1789664898306923300,2.78592333984375,0.5478934099912643,-1.4654285261481999,1.8058745329678056
1789664898316949200,2.79594921875,0.8272305758535862,-1.464641759684682,1.5744097098708152
1789664898326975200,2.805975341796875,1.0934450791619716,-1.3807225365042686,1.469781460660696
1789664898337001500,2.81600146484375,1.308877781999111,-1.3489151933550834,1.3351625623345373
1789664898347026400,2.8260263671875,1.5787224585033952,-1.2365771004199981,1.0042997918963432
1789664898357052700,2.836052734375,1.763081685423851,-1.0052601613610983,0.5680553235322237
1789664898367078700,2.84607861328125,1.8656629389762878,-0.7846586775839328,0.04984510414302349
1789664898377104600,2.856104736328125,1.871399436801672,-0.5536155870303511,-0.41614334509968753
1789664898387130600,2.866130615234375,1.7506677556611596,-0.38563948576450346,-0.8388380115389823
1789664898397156400,2.87615625,1.6879975106060503,-0.17432225542217492,-1.2580366525560616
1789664898407182300,2.886182373046875,1.6342647513747215,0.08262889110893011,-1.626044620040059
1789664898417208300,2.896208251953125,1.5421451244734228,0.22997400001734494,-1.8809961171865461
1789664898427234300,2.906234375,1.4355715864144265,0.26761750197410583,-2.0681611953079697
1789664898437260300,2.91626025390625,1.3843851506650446,0.26516104873269797,-2.2707371930509805
1789664898447286300,2.926286376953125,1.3190553310118616,0.14413169981986285,-2.4994798977077006
1789664898457312300,2.936312255859375,1.338263889350742,-0.030372341910004614,-2.685418648904562
1789664898467338500,2.94633837890625,1.3853028500318527,-0.25520430286377666,-2.8132342969566584
1789664898477364500,2.956364501953125,1.4721591495774686,-0.5125602308034897,-2.92958863979578
1789664898487390500,2.966390380859375,1.5389676634810865,-0.8727508025348186,-2.948248332080245
1789664898497416400,2.97641650390625,1.6439983560122549,-1.2903449309647081,-2.9976363401055335
1789664898507442400,2.9864423828125,1.7482805682636797,-1.7097393868148325,-3.2580718216210602
1789664898517468400,2.996468505859375,1.7821639870345591,-2.1109955439060926,-3.5720705510199067
1789664898527494400,3.006494384765625,1.8319300345920024,-2.3398156977131963,-3.8184903666645287
1789664898537520400,3.016520263671875,1.7051754399001597,-2.662383810275793,-3.940705125969648
1789664898547546400,3.02654638671875,1.584412048447132,-3.031693215747177,-3.972934493923187
1789664898557572400,3.036572265625,1.4460837742090225,-3.3945211502447723,-3.83484412009418
1789664898567598300,3.046598388671875,1.2569044336557387,-3.8505537304013964,-3.531385489410162
1789664898577624600,3.05662451171875,1.057647789593786,-4.298350689393281,-3.130951754617691
1789664898587650600,3.066650634765625,0.9620447775561362,-4.702597552733123,-2.7467519462674854
1789664898597676500,3.076676513671875,0.9954629899680614,-5.111488442486524,-2.286224685040116
1789664898607702500,3.08670263671875,0.9471849890112877,-5.611024941065907,-1.6259388215780257
1789664898617728500,3.096728515625,0.9854873932681977,-6.174273156577349,-1.074030915248394
1789664898627754500,3.10675439453125,0.9516203411102294,-6.644739628016948,-0.700382311528921
1789664898637780500,3.116780517578125,0.9256699803609401,-6.91068656643033,-0.5361842674970626
1789664898647806500,3.126806396484375,0.8297288224101066,-6.938367185038328,-0.6385866573512554
1789664898657832400,3.13683251953125,0.5918669917523861,-6.7470029016613955,-1.1072241597980261
1789664898667858400,3.1468583984375,0.22171850510835647,-6.650224781429767,-1.6362474496245383
1789664898677884700,3.156884765625,-0.3538869415424764,-6.844844851732254,-1.828142478877306
1789664898687910700,3.16691064453125,-0.9495184003949165,-6.824211813548207,-2.051553174856305
1789664898697936600,3.1769365234375,-1.5708885500073433,-6.359936013442278,-2.3760908339262006
1789664898707962600,3.186962646484375,-2.168390332776308,-5.5595618803322315,-2.818540586671233
1789664898717988600,3.196988525390625,-2.757623468893766,-4.57840389457047,-3.384495138531923
1789664898728014600,3.2070146484375,-3.3330537051081657,-3.712861415979266,-3.8964796152740715
1789664898738040300,3.217040283203125,-3.847994109046459,-3.4467110639482734,-4.023971438199282
1789664898748066300,3.22706640625,-4.100076188236475,-3.8894671061635013,-3.6587779436141252
1789664898758092300,3.23709228515625,-3.742028473752737,-4.559676105485856,-2.8388533068597317
1789664898768118300,3.2471181640625,-3.0102795485794545,-5.195643227988481,-1.6681845566332338
1789664898778143500,3.2571435546875,-2.2989468039691445,-5.751338836163282,-0.41304070290923117
1789664898788169500,3.26716943359375,-1.4891723898291587,-6.015109015059471,0.8494757254093885
1789664898798195500,3.277195556640625,-0.6289162541430443,-5.831945573794841,1.9040221879869699
1789664898808221700,3.2872216796875,0.025862828596308826,-5.461566201004386,2.6537071673452854
1789664898818247700,3.29724755859375,0.5352876109182835,-5.1309156120121475,2.9445214205116033
1789664898828273400,3.3072734375,0.9543804534733294,-4.636051781418919,2.722136560449004
1789664898838299400,3.31729931640625,1.286470573749393,-3.9203199250668286,2.1499796468168495
1789664898848325400,3.327325439453125,1.4755074370920658,-3.138469582901895,1.386993871858716
1789664898858351400,3.337351318359375,1.378442901134491,-2.41148041947633,0.6335837344974279
1789664898868377300,3.34737744140625,1.139599073702097,-1.6488921194031834,-0.10876607966721057
1789664898878403300,3.3574033203125,0.9084827717818319,-0.9517463055774569,-0.7231517772197723
1789664898888429300,3.36742919921875,0.7644820048652589,-0.269398247911036,-1.1164303795605897
1789664898898455300,3.377455322265625,0.713486123251915,0.4105076773002743,-1.3863421299517154
1789664898908481300,3.387481201171875,0.6093148240290582,1.0632657756060362,-1.4494927058696745
1789664898918507500,3.397507568359375,0.4235785366017371,1.6508850467860698,-1.4206348601758478
1789664898928533500,3.407533447265625,0.2719523893732577,2.2398481337904927,-1.4130916051894427
1789664898938559500,3.4175595703125,0.15944237393736838,2.7436282612890004,-1.436252116024494
1789664898948585500,3.42758544921875,0.04080547311902046,3.101836719292402,-1.5383938091158866
1789664898958611500,3.437611572265625,-0.11686937968917191,3.362453987115621,-1.6479653599470854
1789664898968637400,3.447637451171875,-0.25757548897452653,3.607293255570531,-1.6154501607894896
1789664898978663400,3.457663330078125,-0.3238029150545597,3.80470500241816,-1.5578373452544212
1789664898988689400,3.467689453125,-0.27159926508665083,3.8404584528446195,-1.3871236357182264
1789664898998715400,3.47771533203125,-0.04256378802843391,3.7386259718328714,-1.1089292101502417
1789664899008741400,3.487741455078125,0.20984343146272003,3.6318700629442926,-0.750806676864624
1789664899018767400,3.497767333984375,0.5550177819784731,3.4673265664756294,-0.31504677714705465
1789664899028793600,3.507793701171875,0.9933516969025135,3.2916952742815018,0.08960428307950496
1789664899038819600,3.517819580078125,1.36185080890432,3.0809242796450853,0.5772001684963702
1789664899048845600,3.527845458984375,1.7083271819293497,2.7864865752846,1.138366317036748
1789664899058871600,3.53787158203125,2.0032943169914184,2.5320260765254496,1.7723253145873545
1789664899068897500,3.5478974609375,2.305502801483869,2.3892735561043024,2.424685645747185
1789664899078923500,3.557923583984375,2.5229940442860124,2.3120172979444265,3.0041736329197883
1789664899088949500,3.567949462890625,2.635590495896339,2.1246154884576796,3.5989866149961944
1789664899098975500,3.5779755859375,2.6661563145518303,1.8871102161526678,4.188484539529681
1789664899109001500,3.58800146484375,2.6268171145930883,1.6510837842285633,4.768451834651827
1789664899119027500,3.59802734375,2.646174726013839,1.4384294600635765,5.386209638985991
1789664899129053400,3.608053466796875,2.6286449145421384,1.1654495542734862,6.0468725190669295
1789664899139079700,3.61807958984375,2.6713758027657866,0.9731582191795111,6.773311062872409
1789664899149105700,3.628105712890625,2.681132642148435,1.0373843153744935,7.3852791778892275
1789664899159131600,3.638131591796875,2.482380294346809,1.3272253395944833,7.9670269266873595
1789664899169157600,3.64815771484375,2.3255381660357117,1.732733893433213,8.27521609302461
1789664899179183600,3.65818359375,1.909578068548441,2.2170734074026344,8.476250706544517
1789664899189209900,3.6682099609375,1.3254960315838455,2.3535417329877615,8.711428997206687
1789664899199235800,3.67823583984375,0.7978317551508546,2.066342163187265,9.01555047571361
1789664899209261800,3.68826171875,0.503296874026209,1.811302987757325,9.176070123493671
1789664899219287000,3.698287109375,0.4970011348828673,2.104620163655281,8.87183349417448
1789664899229313000,3.70831298828125,0.534265428263694,2.7765695769041776,8.274742630293964
1789664899239338800,3.7183388671875,0.4069967465698719,3.4089188011705875,7.825893531900644
1789664899249364700,3.72836474609375,0.10629296755194663,3.7895454272091387,7.469939574825763
1789664899259390700,3.738390625,-0.2824927072837949,3.8133787227392193,7.321690795075893
1789664899269416700,3.748416748046875,-0.6405766621246933,3.5026924788892266,7.476132584246993
1789664899279442700,3.758442626953125,-0.828079593898356,2.957743305656314,7.6978820690155025
1789664899289468700,3.76846875,-0.8027097364507615,2.443991819241643,7.617455948647856
1789664899299494700,3.77849462890625,-0.4487935688138008,2.203685518041253,7.232671618407965
1789664899309520600,3.788520751953125,-0.023226415678113697,2.2043542110830545,6.7349740256935355
1789664899319547000,3.798546875,0.3406020741641521,2.1790514275223014,6.213819569545984
1789664899329572900,3.80857275390625,0.5312101323463022,1.9942080703467129,5.836043072241544
1789664899339598800,3.818598876953125,0.6058455404832959,1.6907739895820617,5.440357993280887
1789664899349624800,3.828624755859375,0.6541701570607722,1.3705430877953766,4.924005384457111
1789664899359650800,3.83865087890625,0.7053250286281109,1.1385837591797112,4.283115710860491
1789664899369676800,3.8486767578125,0.7364895438291132,0.9717273095935582,3.5664456968754528
1789664899379702800,3.858702880859375,0.755414024529606,0.8371849836349486,2.9318647680342194
1789664899389728800,3.868728759765625,0.77731591360569,0.7146773788630962,2.338631748625636
1789664899399754800,3.878754638671875,0.8002360398136079,0.6301280410856008,1.7668904300570487
1789664899409780700,3.88878076171875,0.8289934938728809,0.5586094497948885,1.2921592869102954
1789664899419806700,3.898806640625,0.8590190681718289,0.45996612021327016,0.7897048550575971
1789664899429833000,3.9088330078125,0.9095230746150016,0.32511575121879577,0.2917822214156389
1789664899439859000,3.91885888671875,0.985719010066986,0.14777531701922417,-0.16859481768608092
1789664899449885000,3.928885009765625,1.1205248092673719,-0.06751140147596597,-0.5411117870271206
1789664899459911000,3.938910888671875,1.285653704408556,-0.28920097275078294,-0.8904308361321687
1789664899469937000,3.94893701171875,1.3690651241973042,-0.5189782811522483,-1.205767536136508
1789664899479963000,3.958962890625,1.3750164338171482,-0.8342667581006884,-1.501865282663703
1789664899489988900,3.96898876953125,1.3893012720182538,-1.1277101907268166,-1.8341840971291064
1789664899501895000,3.98089501953125,1.4269731232866645,-1.496646963493526,-2.091701060849428
1789664899511921000,3.9909208984375,1.5221426392778754,-1.8155100840583442,-2.254141447558999
1789664899521947000,4.00094677734375,1.6287353204287587,-2.1288933119073508,-2.43381412409842
1789664899531972900,4.010972900390625,1.7810279687419532,-2.4327146384239193,-2.5502736808776856
1789664899541998800,4.020998779296875,2.0562980312958357,-2.7071500037193297,-2.5280402217596767
1789664899552024800,4.03102490234375,2.34129073870182,-2.991491846001148,-2.4323002124041317
1789664899562050800,4.04105078125,2.540999364314973,-3.364385247439146,-2.3758225383788347
1789664899572076800,4.051076904296875,2.62487416383177,-3.8414062550887462,-2.290167869707942
1789664899582102800,4.061102783203125,2.718306188505888,-4.253915919861197,-1.942968881496787
1789664899592128800,4.071128662109375,2.6352339375436307,-4.664105909514427,-1.6492279272288084
1789664899602154800,4.08115478515625,2.3208913631431756,-5.190213019633293,-1.4390975685834884
1789664899612181000,4.091180908203125,1.9087915943458675,-5.656400790840387,-1.2144839265555143
1789664899622207000,4.10120703125,1.580687474966049,-6.036925710070133,-0.9931593892008066
1789664899632233000,4.11123291015625,1.2316881593346596,-6.444195428362488,-0.8955717061519622
1789664899642259000,4.121259033203125,0.8943772356703877,-6.840201409840583,-0.8630360487282276
1789664899652285000,4.131284912109375,0.7525991132393479,-7.136210309040546,-1.0307084908723831
1789664899662311000,4.141310791015625,0.9243445039108396,-7.336826989409327,-1.4033213218033314
1789664899672336000,4.1513359375,1.1870505607068538,-7.446680279791354,-1.8473790942668913
1789664899682361900,4.16136181640625,1.3375424432083964,-7.715207882347703,-2.240769924810529
1789664899692387800,4.171387939453125,1.3489489494942128,-8.094598244589566,-2.409946341776848
1789664899702413800,4.181413818359375,1.1388811346910894,-8.649699978524445,-2.3639053060919046
1789664899712439800,4.191439697265625,0.8038881325803696,-9.33767522842288,-2.2122277209371326
1789664899722465800,4.2014658203125,0.6122388947822153,-9.567572363811731,-2.3028075710505247
1789664899732491800,4.21149169921875,0.6008828035093844,-8.949770135813951,-2.7963661642640827
1789664899742518000,4.22151806640625,0.49031332768201824,-7.867779201471805,-3.402746250015497
1789664899752544000,4.2315439453125,-0.05733443698510527,-7.019810958015919,-3.4849358729243276
1789664899762570000,4.241570068359375,-0.7757691956203431,-6.723450176638364,-3.170929544740915
1789664899772596000,4.251595947265625,-1.3712790008544922,-6.722448890641331,-2.9084184259951114
1789664899782622000,4.2616220703125,-1.7261784804403781,-6.954332815933227,-2.5814602617800233
1789664899792648000,4.27164794921875,-1.915956371408701,-7.3659040308117865,-2.176980466467142
1789664899802674000,4.281673828125,-1.9202128598093986,-7.7182900662720195,-1.909900140109658
1789664899812700000,4.291699951171875,-1.7695032429039477,-7.924864193740486,-1.7989087856084107
1789664899822726000,4.301725830078125,-1.552790583258867,-7.951160079991817,-1.5557383271485565
1789664899832751900,4.311751953125,-1.3510697410404682,-7.839239335685968,-1.1038187352687119
1789664899842777900,4.32177783203125,-1.1333365061759948,-7.525739787980914,-0.7384791102111339
1789664899862203000,4.341202880859375,-0.585246769895032,-6.337004635187983,-0.2612994048684835
1789664899872228900,4.351228759765625,-0.32013905878476795,-5.599034643542766,-0.09728373166620731
1789664899882254800,4.3612548828125,-0.09024901072382926,-4.827346506690978,-0.12932313000559806
1789664899892280800,4.37128076171875,0.17934658639021217,-4.011269193014503,-0.2789315076708794
1789664899902306800,4.381306884765625,0.43043607434630393,-3.2192657056257126,-0.46620121521055696
1789664899912332800,4.391332763671875,0.6943523837149143,-2.425969548077881,-0.6767617819666862
1789664899922358800,4.40135888671875,0.8111316009026021,-1.6386942582547663,-0.8673872296750545
1789664899932384800,4.411384765625,0.7589666024446488,-0.844573632581532,-0.9934738619774579
1789664899942411000,4.421410888671875,0.6497907729327679,-0.04442132552862167,-1.027922075024247
1789664899952437000,4.43143701171875,0.507186063484475,0.6802516699090599,-0.9964712902277707
1789664899962463000,4.441462890625,0.3699205231070518,1.3441186067283153,-0.9166834677636623
1789664899972489000,4.451489013671875,0.18901443231515586,1.8538859919428825,-0.7925906396269797
1789664899982515000,4.461514892578125,0.035065541227534414,2.183161200928688,-0.5834568908035754
1789664899992541000,4.471541015625,-0.06088606505207717,2.525496382495761,-0.28865970548093317
1789664900002567000,4.48156689453125,-0.16978716927580534,2.806606403249502,0.1861205375045538
1789664900012593000,4.491593017578125,-0.20979305298235265,3.0522569880872963,0.6444114179819822
1789664900022619000,4.501618896484375,-0.17054017960019408,3.2673499375760553,1.032314172503352
1789664900032644900,4.511644775390625,-0.13893840549308806,3.2806396272599696,1.3919821816653013
1789664900042670800,4.5216708984375,-0.07922850808091461,2.9982541797429323,1.8714356771588325
1789664900052696800,4.53169677734375,0.13088263440728187,2.570722594666481,2.4918355204343796
1789664900062722800,4.541722900390625,0.3609363485973328,2.1956787371963262,3.1281992410391566
1789664900072748800,4.551748779296875,0.5294552515029907,1.9539917952924966,3.8193355853170154
1789664900082774800,4.56177490234375,0.695764588600397,1.8498475302070378,4.528861572766304
1789664900092800800,4.57180078125,0.7939958302497864,1.9231483287394047,4.986697110691666
1789664900102826800,4.58182666015625,0.8163584687054157,2.0022721343368293,5.3726434704482555
1789664900112852700,4.591852783203125,0.7093804414987563,2.0596949802577496,5.802653428336978
1789664900122878700,4.601878662109375,0.4939362674195319,2.07608731213212,6.337395095810294
1789664900132904700,4.61190478515625,0.351526642151922,1.970401078301668,6.974407051190734
1789664900142930700,4.6219306640625,0.3187723735414445,1.7825486024379729,7.685848516872524
1789664900152956200,4.6319560546875,0.432453843909502,1.6107330691397188,8.259416466346382
1789664900162982100,4.641982177734375,0.7101391509115695,1.536629137530923,8.55261790691018
1789664900173008100,4.652008056640625,1.0517688145577906,1.668604243350029,8.521974931365252
1789664900183034000,4.6620341796875,1.2695651777863501,1.9259785837292671,8.362662321287393
1789664900193060000,4.67206005859375,1.3107808391414582,2.128421310481429,8.287554765594004
1789664900203086000,4.682086181640625,1.2270130071304737,2.2468746714264154,8.225810549342631
1789664900213112000,4.692112060546875,1.0889994248647241,2.36411865658164,8.23489635759592
1789664900223138000,4.702137939453125,0.9460299737572669,2.4805723681420084,8.33985836880505
1789664900233164300,4.712164306640625,0.7695020249843597,2.8187428312450646,8.153731986081599
1789664900243190300,4.722190185546875,0.453183328205347,3.4367835441738364,7.608689873868227
1789664900253216300,4.73221630859375,0.1350643770713359,4.195988631549477,6.945314812219142
1789664900263242200,4.7422421875,-0.3149998692654073,4.863322659957409,6.425630428624153
1789664900273268200,4.752268310546875,-0.790436091941595,5.220663687476516,6.277258314755558
1789664900283294200,4.762294189453125,-1.124383968913555,5.225418188527226,6.450352781948447
1789664900293320200,4.7723203125,-1.3298527654886245,5.046458044171333,6.8363768831163645
1789664900303346200,4.78234619140625,-1.257362698817253,4.776124268975853,7.31681003729701
1789664900313372200,4.7923720703125,-0.9774094468832015,4.400297736695409,7.750025513228773
1789664900323398100,4.802398193359375,-0.7001789709765464,3.9019495711177585,8.036435393956303
1789664900333424400,4.81242431640625,-0.5182919793885201,3.1637989622086287,8.175398458966612
1789664900343450400,4.822450439453125,-0.24321948523335157,2.3536942932009697,8.095178090304136
1789664900353476400,4.832476318359375,0.1498771116040647,1.6617928097695112,7.834058718177676
1789664900363502300,4.84250244140625,0.5199320747457444,1.0558441011726856,7.494220614123344
1789664900373528300,4.8525283203125,0.8515899410843849,0.6101017366230488,7.0646116382509465
1789664900383554300,4.86255419921875,1.1977217384554446,0.31653146274685856,6.551127278339862
1789664900393580300,4.872580322265625,1.4841022469580172,0.16172727000415324,5.990172726723552
1789664900403606300,4.882606201171875,1.7618705560684202,0.06551847409307957,5.417614246553183
1789664900413632300,4.89263232421875,1.9857099988535045,-0.0198071087539196,4.811998130911588
1789664900423658200,4.902658203125,2.1046857762373983,-0.0881692818403244,4.182280424192547
1789664900433684200,4.912684326171875,2.168494523803145,-0.23049860841333863,3.538751634263992
1789664900443710200,4.922710205078125,2.1375440897442397,-0.4254039253979921,2.845353774794936
1789664900453736200,4.932736083984375,2.053474644438177,-0.5832809497147798,2.1730717685908076
1789664900463762200,4.94276220703125,1.9302339030861853,-0.7957499804407357,1.525337928187847
1789664900473788200,4.9527880859375,1.7605356542028485,-1.034509636721015,0.8525976568222046
1789664900483814100,4.962814208984375,1.5687947925984858,-1.2267720379814504,0.21657880413234232
1789664900493840100,4.972840087890625,1.3873871089600025,-1.390216341036558,-0.33036300422251225
1789664900503866000,4.9828662109375,1.2433984708726404,-1.6071329988211391,-0.8436866206139325
1789664900513892000,4.99289208984375,1.1201182742930949,-1.8310878846794365,-1.3127373800367117
1789664900523918000,5.00291796875,1.0408708423160016,-2.1045669721633193,-1.7286650365591048
1789664900533944000,5.012944091796875,0.9991175669528544,-2.377447509232163,-2.0980062984734773
1789664900543970000,5.022969970703125,0.9334230056405067,-2.6498405550450084,-2.4264321971535683
1789664900553996300,5.032996337890625,0.8496141109667718,-2.9541096253290773,-2.7032752081125975
1789664900564022300,5.043022216796875,0.7663092202924191,-3.326278511884808,-2.90403743443191
1789664900574047200,5.053047119140625,0.6654300944827497,-3.7077415887475014,-3.0463591622203587
1789664900584074200,5.06307421875,0.5627988643087446,-4.096979391264915,-3.1919273245841264
1789664900594100200,5.073100341796875,0.5041945535182952,-4.507344152963161,-3.2983313512951136
1789664900604126200,5.083126220703125,0.49205871004462237,-4.925338094365596,-3.271338130429387
1789664900614152200,5.093152099609375,0.4751017300248146,-5.4060021346926685,-3.1496938644886017
1789664900624178200,5.10317822265625,0.4720809208989143,-5.926518292936683,-2.988181114017963
1789664900634203100,5.113203125,0.5346810233272612,-6.477869734427332,-2.873998269999027
1789664900644230100,5.123230224609375,0.7228351124860346,-7.025436396682262,-2.7771237036556005
1789664900654256000,5.133256103515625,0.9286007000505924,-7.470641585615277,-2.7735265559464692
1789664900664282400,5.143282470703125,1.1928094164945184,-7.963805042031407,-2.6101409973412752
1789664900674308400,5.153308349609375,1.4976082097411154,-8.383118833860754,-2.4188334125876425
1789664900684333300,5.163333251953125,1.6107986817218363,-8.56087953929901,-2.3464660955131054
1789664900694360300,5.1733603515625,1.55158208425194,-8.432371232807636,-2.4552199002206323
1789664900704385300,5.18338525390625,1.3606393872879445,-8.021453513401747,-2.7792513633340596
1789664900714412300,5.193412353515625,1.182404853792861,-7.65133600641787,-3.084548315361142
1789664900724437200,5.203437255859375,0.996538583310321,-7.298206459113955,-3.3786294613689183
1789664900734463200,5.213463134765625,0.7223251902025193,-7.272193481457233,-3.329438437220454
1789664900744489200,5.2234892578125,0.4282966511648148,-7.6598653498321765,-2.9517624776810405
1789664900754515200,5.23351513671875,0.14079502967782317,-7.9072396897226565,-2.8385096079885956
1789664900764541200,5.243541259765625,-0.07012158397436141,-7.640471498054265,-3.0435172167927025
1789664900774568200,5.253568115234375,-0.4416027805268764,-6.984626831910013,-3.367432360050082
1789664900784593200,5.26359326171875,-1.0003273811340332,-6.373095354744792,-3.429078376623988
1789664900794619400,5.273619384765625,-1.7422481562316416,-6.181194480273128,-3.2215187452495098
1789664900804646100,5.283646240234375,-2.470585811656713,-6.504589399048686,-2.8000252712935207
1789664900814671400,5.29367138671875,-2.7770599907696245,-7.058205278339981,-2.4068752637684345
1789664900824697300,5.303697265625,-2.550852357548475,-7.506919352176785,-2.0360019699811933
1789664900834723300,5.313723388671875,-2.117600056737661,-7.748585835814476,-1.5425526823610067
1789664900844749300,5.323749267578125,-1.6110171467781067,-7.969904527950287,-0.9216279384285211
1789664900854775300,5.333775390625,-1.1621277163743973,-8.164197265994549,-0.3180406982660293
1789664900864801300,5.34380126953125,-0.738003309392929,-8.123821416464448,0.12273907544016838
1789664900874827300,5.3538271484375,-0.21645203594751655,-7.680006220585107,0.3562146538376808
1789664900884853200,5.363853271484375,0.24523856997080146,-6.934640273469686,0.6234820271998643
1789664900894879000,5.37387890625,0.5914530771892518,-6.021046588414907,0.8107558263927698
1789664900904905200,5.3839052734375,0.8010673760712146,-5.089971607205271,0.8740688993960618
1789664900914931200,5.39393115234375,0.9244670343119651,-4.169349923209846,0.868546336582303
1789664900924958200,5.403958251953125,1.043175319866091,-3.2862031066060062,0.7909107237160206
1789664900934983200,5.413983154296875,1.139720727320388,-2.5139634733512994,0.6444090798944234
1789664900945009200,5.424009033203125,1.17830596710667,-1.85029118232131,0.47188335250020025
1789664900955035100,5.43403515625,1.1618434926055372,-1.2351283629164098,0.2971796965450048
1789664900965061000,5.44406103515625,0.9682347182374447,-0.6664508158326149,0.09651333181560039
1789664900975087000,5.454087158203125,0.673827628210932,-0.11810732398629188,-0.17616788328886032
1789664900985113000,5.464113037109375,0.3116109574794769,0.45858694081455464,-0.4292722912639379
1789664900995139000,5.47413916015625,-0.054464434506744146,1.0049974187716841,-0.6048334408313035
1789664901005165000,5.4841650390625,-0.3882955532312393,1.4830845943480728,-0.7300614104777574
1789664901015191300,5.49419140625,-0.6582102262318134,1.9156196868002413,-0.7499836700439453
1789664901025217300,5.50421728515625,-0.8264671902656555,2.2607944757074114,-0.663151189765334
1789664901035243300,5.5142431640625,-0.8878981027841567,2.5063661500900984,-0.5341314266204834
1789664901045269200,5.524269287109375,-0.8245802805405109,2.6740298244059084,-0.325348390930891
1789664901055295200,5.534295166015625,-0.5563501996260136,2.821234063538909,-0.08979191460609436
1789664901065321200,5.5443212890625,-0.1565828928530216,2.9211031355232,0.1911830815911293
1789664901075347200,5.55434716796875,0.235601995966956,2.865477109891176,0.6952227368086576
1789664901085373200,5.564373291015625,0.6521990031182766,2.778543507325649,1.278668521696329
1789664901095399200,5.574399169921875,1.0292075117249042,2.7557717035472393,1.842321810877323
1789664901105425200,5.584425048828125,1.406701027369499,2.7850907370120286,2.546891637223959
1789664901115451100,5.594451171875,1.6913281163334846,2.8242484429240227,3.283456438246369
1789664901125477400,5.604477294921875,1.966281368023157,2.8956279180049895,3.9826580155581235
1789664901135503400,5.61450341796875,2.071310599249601,3.00534501478672,4.836797056603431
1789664901145529300,5.624529296875,1.9937445444881914,3.0506168196648358,5.6463739023447035
1789664901155555300,5.634555419921875,1.877997812153399,3.006189648917317,6.288898483666777
1789664901165581300,5.644581298828125,1.6291501848399639,2.927887681096792,6.7202902513027185
1789664901175607600,5.654607666015625,1.286762980824709,2.8459441419035194,7.102896068459748
1789664901185633500,5.664633544921875,0.8998620968222617,2.6557752057909965,7.60819946000278
1789664901195659500,5.674659423828125,0.5919981438513845,2.4445050294607875,8.177974446934462
1789664901205685500,5.684685546875,0.4512836320638656,2.368245965644717,8.672247325897215
1789664901215711200,5.694711181640625,0.47936530575342473,2.4550796149671075,9.009594197657703
1789664901225737200,5.7047373046875,0.53582084101215,2.672709973978996,9.22651962327063
1789664901235763200,5.71476318359375,0.5759294179081916,2.9619705679625272,9.329499520751833
1789664901245789200,5.7247890625,0.5869722785133868,3.4294448718488213,9.282101809760928
1789664901255815200,5.734815185546875,0.460460625731945,3.768662213656306,9.14113734180033
1789664901265841200,5.744841064453125,0.3464683358490467,3.7470086002528666,9.01558788511455
1789664901275867100,5.7548671875,0.35583237652182576,3.661885261979699,8.71146289947629
1789664901285893400,5.764893310546875,0.45286534829735753,3.795620947730541,8.121572176232933
1789664901295919400,5.77491943359375,0.3435666961234063,4.195536796128749,7.492266557446122
1789664901305945300,5.7849453125,0.057502998485043644,4.499703867343068,6.850590117385983
1789664901315971300,5.794971435546875,-0.34345322581157084,4.578393373176455,6.387532460898161
1789664901325997300,5.804997314453125,-0.8109632585983723,4.279689243543148,6.293049173605442
1789664901336023300,5.815023193359375,-1.3248480890691279,3.543979598045349,6.453923626172542
1789664901346049300,5.82504931640625,-1.6390648451328276,2.651298352637887,6.629540305319428
1789664901356075300,5.8350751953125,-1.662981142771244,1.8437591502040624,6.852009921056032
1789664901366101200,5.845101318359375,-1.4313257655382154,1.2125941672861575,6.8763710398525
1789664901376127200,5.855127197265625,-0.9669604605179279,0.789712453842163,6.750644473034143
1789664901386153200,5.8651533203125,-0.4001577673953026,0.5184159710943699,6.663944094702601
1789664901396179500,5.875179443359375,0.12500234419703482,0.24095161336660384,6.656881316709518
1789664901406205400,5.885205322265625,0.581142330250889,-0.15307809960246085,6.619254473626613
1789664901416231400,5.8952314453125,1.0928537622053176,-0.5324035799145698,6.528149138334393
1789664901426257400,5.90525732421875,1.5621183835744856,-0.7550807009220123,6.2714434909969565
1789664901436283400,5.915283447265625,1.8873849414408206,-0.8848948293149471,5.823998998704552
1789664901446309400,5.925309326171875,2.0076548502884806,-0.9379384372383356,5.237563384351134
1789664901456335400,5.93533544921875,2.002524063271284,-0.9495271682232618,4.548551192620397
1789664901466361300,5.945361328125,1.8795771902993321,-0.8993044629395007,3.804673438236117
1789664901476387300,5.95538720703125,1.620963517383486,-0.8576625389963388,3.0243665261209007
1789664901486413300,5.965413330078125,1.4315278639815747,-0.8052233267068862,2.199628936126828
1789664901496439300,5.975439208984375,1.324386170645803,-0.6800918031722307,1.366523330760002
1789664901506465500,5.985465576171875,1.3202468788839876,-0.5512357061564922,0.6348720207422971
1789664901516491500,5.995491455078125,1.3147253389835356,-0.557914745528996,0.07719371431767941
1789664901526517500,6.005517578125,1.3958921947158873,-0.6174243345960975,-0.4415396521627903
1789664901536543500,6.01554345703125,1.4615502234101294,-0.6921168797478079,-0.8402297581583261
1789664901546569500,6.025569580078125,1.4941209521472454,-0.8299901036947965,-1.2115145553559064
1789664901556595200,6.03559521484375,1.5561911854825914,-1.108397295230627,-1.4618874925404786
1789664901566621200,6.04562109375,1.64346644109264,-1.4642507145404815,-1.7045792275726794
1789664901576647200,6.055647216796875,1.7049182502686977,-1.8030711659848688,-2.004366476267576
1789664901586673200,6.065673095703125,1.6796949616849421,-2.151845732949674,-2.311197798255086
1789664901596700400,6.075700439453125,1.6778222996808587,-2.5286542620047925,-2.5991549084246155
1789664901606726400,6.085726318359375,1.6960500302888453,-2.945825781108439,-2.9069015916913745
1789664901616752400,6.09575244140625,1.6873695879660546,-3.314519685029983,-3.180230457049608
1789664901626777300,6.10577734375,1.7109750660896301,-3.7241587628021833,-3.3746810160040854
1789664901636803300,6.11580322265625,1.787189560111612,-4.119517970809341,-3.5422979285687206
1789664901646830300,6.125830322265625,1.8482826189778745,-4.566672832505405,-3.637537587186694
1789664901656855300,6.135855224609375,1.938071172583103,-4.985292504590749,-3.742238317111134
1789664901666882300,6.14588232421875,2.0347031623423097,-5.360067481991648,-3.949778659263253
1789664901676908300,6.155908203125,1.9571954136393963,-5.820597081306577,-4.111642707389593
1789664901686934300,6.165934326171875,1.7386486704349517,-6.331783685669302,-4.2386394402742384
1789664901696960500,6.17596044921875,1.5286870924852787,-6.933274245813489,-4.369804983276128
1789664901706986500,6.185986572265625,1.2894739933490753,-7.513931276765465,-4.565592928314209
1789664901717012500,6.196012451171875,1.1458711397089063,-8.036990105229616,-4.736823939722776
1789664901727038500,6.20603857421875,1.0250106445569545,-8.424681262826919,-4.869966335755587
1789664901737064400,6.216064453125,0.950063393991813,-8.62706729095578,-4.917637018468976
1789664901747090400,6.22609033203125,0.8633094588421285,-8.657706759369372,-4.682085218319297
1789664901757116400,6.236116455078125,0.6894692878484725,-8.517511522215605,-4.266780077609419
1789664901767142400,6.246142333984375,0.6032827773232012,-7.974879393753409,-3.8849084199458357
1789664901777168400,6.25616845703125,0.580080765433982,-7.335024323901534,-3.438005779445171
1789664901787194400,6.2661943359375,0.48122518134117126,-6.966762089395523,-2.730586993408203
1789664901797220400,6.276220458984375,0.2639853560168296,-6.881355842527746,-1.996800424927473
1789664901807246300,6.286246337890625,-0.02471000529937446,-6.891454042693972,-1.5392828669101
1789664901817272300,6.296272216796875,-0.20402846157364546,-6.734686440923809,-1.4727648603856562
1789664901827298300,6.30629833984375,-0.29403328827805814,-6.174633806583285,-1.7566309018492698
1789664901837324300,6.31632421875,-0.49871867939047515,-5.359701571288705,-2.311849540162086
1789664901847350300,6.326350341796875,-1.0382662127755582,-4.758500641740858,-2.697968333876133
1789664901857376300,6.336376220703125,-1.8780583101689814,-4.78893494297117,-2.6340140403598546
1789664901867402200,6.34640234375,-2.6220892092883585,-5.602968475860357,-2.1404536935806275
1789664901877428200,6.35642822265625,-2.938548191320896,-6.778586957448721,-1.5435697504490613
1789664901887454200,6.3664541015625,-2.8216975893974303,-7.830415393239259,-0.9837065012007952
1789664901897480200,6.376480224609375,-2.3136067590929565,-8.680376271817087,-0.4305237526297569
1789664901907506200,6.386506103515625,-1.6487047801375387,-9.087418026572465,0.10230477469861507
1789664901917532400,6.396532470703125,-1.0500701939463615,-9.040567428070306,0.6142822371780872
1789664901927558400,6.406558349609375,-0.5550771474828943,-8.660610079595447,1.088596616217494
1789664901937584400,6.41658447265625,-0.12627305825259535,-8.020838011851906,1.5292852045089005
1789664901947610400,6.4266103515625,0.2438940965592861,-7.209660160654783,1.9022598544895648
1789664901957636400,6.43663623046875,0.5739771147966385,-6.2662161117374895,2.058741040533781
1789664901967662300,6.446662353515625,0.8612052531044929,-5.231494293570518,2.045108236500621
1789664901977688300,6.456688232421875,1.1001403390169142,-4.135830223184824,1.872833268997073
1789664901987714300,6.46671435546875,1.2365490433692932,-3.1521336588561533,1.555808469775319
1789664901997740300,6.476740234375,1.2515595654964446,-2.2763284371867774,1.231155659893155
1789664902007766300,6.486766357421875,1.15205866923742,-1.5007371554166078,0.8655126679748296
1789664902017792300,6.496792236328125,0.8916764522790909,-0.8083584098622203,0.44521687937080856
1789664902027818500,6.506818603515625,0.5915128080198541,-0.15958324371278285,0.016392331874370576
1789664902037844500,6.516844482421875,0.32781971294786777,0.4822665070876479,-0.32561668647825714
1789664902047870500,6.526870361328125,0.11568743989560752,1.074002858197689,-0.6321522403895855
1789664902057896400,6.536896484375,-0.12094806383755058,1.6871897013545036,-0.8308797460108995
1789664902067922400,6.54692236328125,-0.3978828812658787,2.196540322461724,-0.8826280534267426
1789664902077948400,6.556948486328125,-0.5638438433170319,2.6325381225883957,-0.8472422672688961
1789664902087974400,6.566974365234375,-0.5939046350598335,3.056101388555765,-0.7367565242022276
1789664902098000400,6.57700048828125,-0.5864508119225502,3.3494583119422194,-0.4886299046397209
1789664902108026400,6.5870263671875,-0.5212053095519542,3.4733822132527825,-0.16045184324085712
1789664902118052400,6.59705224609375,-0.4038976115107536,3.534351938000321,0.23079086935818194
1789664902128078300,6.607078369140625,-0.2515057406067848,3.52650239354372,0.5511977122336625
1789664902138104300,6.617104248046875,-0.10965163033008575,3.3368215332090854,0.8526017484754324
1789664902148130300,6.62713037109375,0.021319887937046585,3.0036487322628496,1.2137725634157657
1789664902158156800,6.63715673828125,0.22734394377470016,2.71453485327363,1.7396780134826897
1789664902168182800,6.647182861328125,0.5031167316863313,2.498009240633249,2.221100763222575
1789664902178208800,6.657208740234375,0.7785667904496193,2.270040442958474,2.6557711141377687
1789664902188234800,6.66723486328125,1.0639455745637416,1.9846224958777428,3.1689030073493716
1789664902198260700,6.6772607421875,1.3295546593248844,1.6585580656319856,3.92885920535326
1789664902208286700,6.68728662109375,1.6571664651431142,1.4000795634031296,4.808296353784203
1789664902218313000,6.69731298828125,1.9830992318332195,1.180638355576992,5.763519103300571
1789664902228339000,6.7073388671875,2.2920659584142267,0.9864455707758665,6.715263947573304
1789664902238365000,6.717364990234375,2.5493968980431556,0.8211176459312438,7.5740364936381575
1789664902248391000,6.727390869140625,2.773753934961557,0.832999222382903,8.177291725367308
1789664902258417000,6.7374169921875,2.8260113609433173,1.0391396346092223,8.554123050776123
1789664902268443000,6.74744287109375,2.7160183698296545,1.3102309501737355,8.875036674129962
1789664902278468900,6.75746875,2.525499305105209,1.6560697559475899,9.144411248904467
1789664902288494800,6.767494873046875,2.2474643078826366,2.1492343814074992,9.360830478560924
1789664902298520800,6.777520751953125,1.9941106013216077,2.7487533492177723,9.580596096035837
1789664902308546800,6.787546875,1.7453825087346135,3.336260392194986,9.803891056680678
1789664902318572800,6.79757275390625,1.4692144744277,3.697714115729928,10.029661467528342
1789664902328599000,6.80759912109375,1.3424037656344472,3.791079797169566,10.121438418471813
1789664902338625000,6.817625,1.397042387664318,4.043540062022209,9.887918416410685
1789664902348651000,6.827651123046875,1.38910794140324,4.6099306672126055,9.35619521997571
1789664902358677000,6.837677001953125,1.1083819515310227,5.219793334382772,8.604145265051722
1789664902368703000,6.847702880859375,0.6923288419980556,5.778670495203137,7.875996410197019
1789664902378729000,6.85772900390625,0.12341361370086669,6.1282876504719255,7.39323744341731
1789664902388755000,6.8677548828125,-0.5812439639944583,5.998740648582578,7.142351296013593
1789664902398781000,6.877781005859375,-1.220769217370078,5.379539659702777,7.217413843521475
1789664902408807000,6.887806884765625,-1.5096820938944815,4.503625424700975,7.437939923974871
1789664902418833000,6.8978330078125,-1.4670868147492409,3.5919665071010587,7.602000605362654
1789664902428859000,6.90785888671875,-1.1765478713929653,2.7490239828526972,7.736638208389282
1789664902438884900,6.917884765625,-0.6397193877082318,2.141920259001851,7.6419824871391056
1789664902448910800,6.927910888671875,-0.05133863063640892,1.7698346668154,7.509617505219579
1789664902458936800,6.937936767578125,0.3438146064698696,1.3864876759022473,7.390038355115055
1789664902468962800,6.947962890625,0.6713981360416859,0.9947598101347684,7.115007946535944
1789664902478988800,6.95798876953125,0.9743137458901852,0.6306430048704147,6.842710177791118
1789664902489014800,6.968014892578125,1.3013608304977415,0.32549042975008485,6.488335014340281
1789664902499040800,6.978040771484375,1.528379780101776,0.07037643551826477,6.047261810645461
1789664902509066800,6.988066650390625,1.5745570093870163,-0.1420961023390293,5.597967306572198
1789664902519092700,6.9980927734375,1.4864520249545574,-0.3015454905390739,5.194446127158403
1789664902529118700,7.00811865234375,1.2289023280084133,-0.4733218608707189,4.717947974339127
1789664902539145000,7.01814501953125,0.8972130436182022,-0.6311854411840438,4.03660003362596
1789664902549171000,7.0281708984375,0.6390449955780059,-0.679231386950612,3.254500977396965
1789664902559197000,7.038197021484375,0.46454855263270434,-0.746817314967513,2.4848382088929415
1789664902569223000,7.048222900390625,0.4291045334815979,-0.8561936354875564,1.7533470578730106
1789664902579249000,7.058248779296875,0.5279741460997611,-0.934265301683545,1.0974784263312816
1789664902589275000,7.06827490234375,0.7061106991130858,-1.0637515132963657,0.5257476291567087
1789664902599300900,7.07830078125,0.9157330351710319,-1.226892157229781,0.06805939074754715
1789664902609326800,7.088326904296875,1.1128641384463758,-1.444589151737094,-0.27430501691401005
1789664902619352800,7.098352783203125,1.3135633094668389,-1.72618403339833,-0.6144055712968111
1789664902629378800,7.10837890625,1.5204431418836115,-2.049151082150638,-0.990610873761773
1789664902639404800,7.11840478515625,1.6847534141182898,-2.309759582145512,-1.375434366968274
1789664902649431000,7.12843115234375,1.816072101855278,-2.541751643987,-1.7638830649346111
1789664902659457000,7.13845703125,1.8821558086156844,-2.8938839969471095,-1.996385998907685
1789664902669483000,7.14848291015625,1.9282617262303827,-3.2316496786415576,-2.250156177315116
1789664902679509000,7.158509033203125,1.9584746397949755,-3.574669919863343,-2.565396431207657
1789664902689535000,7.168534912109375,1.9539210681438446,-3.8820577066898343,-2.9238790299773214
1789664902699561000,7.17856103515625,1.8586533524751663,-4.290980452886224,-3.208390968129039
1789664902709587000,7.1885869140625,1.7606584037996829,-4.763281738537549,-3.4374031373769043
1789664902719613000,7.198613037109375,1.6524726082384584,-5.219008906006812,-3.6889737599134445
1789664902729639000,7.208638916015625,1.5037117873132229,-5.782895419421791,-3.7956010739862918
1789664902739665000,7.218664794921875,1.366704532545805,-6.497726527541875,-3.750345635721087
1789664902749691000,7.22869091796875,1.1916180147528648,-7.274415833681822,-3.5530291659414766
1789664902759716900,7.238716796875,1.2039513535600155,-8.002182995742558,-3.2417543085485696
1789664902769742800,7.248742919921875,1.3403379191458225,-8.583813255640864,-2.904627217018604
1789664902779768800,7.258768798828125,1.5182511847972868,-8.883297137475013,-2.651104291370511
1789664902789794800,7.268794921875,1.510513284021616,-8.895468052262068,-2.524188222506642
1789664902799820800,7.27882080078125,1.2810288210868834,-8.778741368979215,-2.460093643736839
1789664902809846800,7.2888466796875,0.9871207666236906,-8.564213652157783,-2.4177362650007006
1789664902819872800,7.298872802734375,0.7668306868832558,-8.20494370240271,-2.693172916293144
1789664902829898800,7.308898681640625,0.6555692102037369,-7.777953384596109,-3.3103339237779377
1789664902839924700,7.3189248046875,0.6334885304946452,-7.469793444353342,-3.7966058671146627
1789664902849950700,7.32895068359375,0.5098118819434195,-7.548028776678443,-3.8153041378438473
1789664902859976700,7.338976806640625,0.36908341469578443,-8.012174228402971,-3.5038305430084464
1789664902870003000,7.3490029296875,0.26796814204268155,-8.291327854391932,-3.220219937610626
1789664902880029000,7.35902880859375,0.21879121948480604,-7.87379510076046,-3.271216549876332
1789664902890055000,7.369054931640625,-0.03720248019099235,-6.947666343781352,-3.4016952796578406
1789664902900081000,7.379080810546875,-0.6704828478276729,-6.252554666131735,-3.147105601561069
1789664902910107000,7.38910693359375,-1.4629390474200248,-5.955797578912973,-2.693465177237987
1789664902920132900,7.3991328125,-2.2543325862169263,-6.085298988094926,-2.2528777112334963
1789664902930158800,7.409158935546875,-2.6785727285325525,-6.500267444196343,-1.9158125790238378
1789664902940184800,7.419184814453125,-2.569738259804249,-7.126101002958417,-1.6532745722711086
1789664902950210800,7.4292109375,-2.139184112036228,-7.685200282096862,-1.5252157631129026
1789664902960236800,7.43923681640625,-1.487027194494009,-8.152920669698714,-1.3906225837498902
1789664902970262800,7.4492626953125,-0.7926478497069328,-8.589120714399218,-1.1994921091288326
1789664902980289000,7.4592890625,-0.09925181686878204,-8.673063902977109,-0.9823071557968854
1789664902990315000,7.46931494140625,0.49747613198347385,-8.28236128860414,-0.7161240705400705
1789664903000341000,7.479341064453125,0.8153110054790973,-7.546801280710101,-0.3952952028602362
1789664903010367000,7.489366943359375,0.9186778564512729,-6.594640256851911,-0.16859774029552935
1789664903020393000,7.49939306640625,0.8458768971998244,-5.585761904993653,-0.04943243168890476
1789664903030419000,7.5094189453125,0.7298082394342869,-4.605550844693184,-0.07239420508146285
1789664903040445000,7.51944482421875,0.6749417269326746,-3.7717850218519566,-0.2397457447081804
1789664903050471000,7.529470947265625,0.7103566661197692,-3.0965567330628634,-0.48167409415245055
1789664903060497000,7.539496826171875,0.833495481467247,-2.5918895935967563,-0.689688483557105
1789664903070523000,7.54952294921875,0.9661106387555599,-2.2116946369737387,-0.8656535377502441
1789664903080548900,7.559548828125,1.0167466010153292,-1.8361855000793932,-1.0785364099740982
1789664903090575000,7.5695751953125,0.9961445424914359,-1.3969386350288986,-1.2483633998036383
1789664903100600800,7.579600830078125,0.8860077589929103,-0.9474594220384955,-1.323176940986514
1789664903110626800,7.589626708984375,0.7387702021121978,-0.428481433147192,-1.3528086936622856
1789664903120652800,7.59965283203125,0.5463805942755192,0.15536241114735602,-1.3099766831517219
1789664903130678800,7.6096787109375,0.28493571652173993,0.6290344006299973,-1.091319319179654
1789664903140704800,7.619704833984375,-0.06584522182941437,0.9305249461114407,-0.7024158631831408
1789664903150730800,7.629730712890625,-0.35070137030892073,1.2613883010715246,-0.2976262712687254
1789664903160756700,7.6397568359375,-0.4945299955289811,1.56764971421659,0.03896890534162521
1789664903170782700,7.64978271484375,-0.4753589196562767,1.7936679623454808,0.2692424728274345
1789664903180808700,7.65980859375,-0.4278677582282573,1.843155923613906,0.5522796622514724
1789664903190834700,7.669834716796875,-0.317942498588562,1.668731084600091,0.8958066839516162
1789664903200860700,7.679860595703125,-0.11843239122219383,1.4440695117771625,1.3024725911319255
1789664903210886700,7.68988671875,0.11446567954830825,1.2257020706623791,1.7952315584003924
1789664903220912600,7.69991259765625,0.2857960596781224,1.0554939725607633,2.4164631763249633
1789664903230938600,7.709938720703125,0.3941758434414863,0.9003542642533778,3.096274993512034
1789664903240964600,7.719964599609375,0.5611702401936054,0.8536649937927723,3.675547876629233
1789664903250990600,7.729990478515625,0.683098072316125,0.917635069400072,4.294152068659663
1789664903261016600,7.7400166015625,0.7785679594933986,1.0815420215308666,4.917987731602787
1789664903271042800,7.750042724609375,0.8692460092842579,1.199394493973255,5.508643009477853
1789664903281068800,7.76006884765625,0.829763966788724,1.2630273004502057,6.163662330713867
1789664903291094800,7.7700947265625,0.7037761186856776,1.2889064225941895,6.901865546593069
1789664903301120800,7.780120849609375,0.6014273587148636,1.1440127984911204,7.719953615570068
1789664903311146800,7.790146728515625,0.6180686969142407,0.8769652053594589,8.335099776101112
1789664903321172700,7.8001728515625,0.6625169104497879,0.588362783023715,8.943300063017011
1789664903331198700,7.81019873046875,0.7521803033053874,0.5839262618809938,9.406510279718042
1789664903341224700,7.820224609375,0.7759002746541053,1.0799866087824106,9.53456441270113
1789664903351250700,7.830250732421875,0.458666070465371,1.8214871126413343,9.618682957845925
1789664903361276700,7.840276611328125,0.025905937085673212,2.5044150160223246,9.653348613035678
1789664903371302700,7.850302734375,-0.3916716055355966,2.8870582425802946,9.847292976033687
1789664903381329000,7.860328857421875,-0.6576268733859062,2.93123056178391,10.13496425499916
1789664903391355000,7.87035498046875,-0.5985257920544594,3.0707313869327306,10.078743770605325
1789664903401380900,7.880380859375,-0.46021976618077604,3.6389310873717067,9.605995325708388
1789664903411406800,7.89040673828125,-0.5346446368396282,4.474285348448157,8.99194046754539
1789664903421432800,7.900432861328125,-0.8392389935553073,5.236151179465651,8.504908645752073
1789664903431458800,7.910458740234375,-1.3050257827460765,5.768910148689151,8.216071830138564
1789664903441484800,7.92048486328125,-1.7971359307169914,5.925525190246105,8.184496542179584
1789664903451510800,7.9305107421875,-2.205046869522333,5.632850403904914,8.292132741034031
1789664903461536800,7.940536865234375,-2.4802000276982783,5.118282340410351,8.439007894343137
1789664903471562500,7.9505625,-2.394007598888874,4.601594216021895,8.530193309134244
1789664903481588500,7.96058837890625,-1.9871686732292173,4.130424564749002,8.585283328193425
1789664903491614700,7.97061474609375,-1.4267325925290584,3.745661277297139,8.558761816492677
1789664903503520800,7.982520751953125,-0.792894664074853,3.40921223115921,8.382575228503345
1789664903513546800,7.992546630859375,-0.19080190025381744,3.016191987493634,8.201502622038126
1789664903523572700,8.00257275390625,0.22168935207910834,2.527722826373577,8.100569720214605
1789664903533598700,8.0125986328125,0.601455561896041,1.9960650963902473,7.970067025035619
1789664903543624700,8.022624755859376,0.9479636452335863,1.5438403840839863,7.7296502491980785
1789664903553650700,8.032650634765625,1.238372605534643,1.1802309438198804,7.401479202061891
1789664903563676700,8.0426767578125,1.3746984539091587,0.8387053250700235,7.028344393083453
1789664903573703000,8.052702880859375,1.4137854326725006,0.527166263782978,6.634566609048843
1789664903583729000,8.06272900390625,1.40537533172369,0.2405962240576744,6.209696352136135
1789664903593755000,8.0727548828125,1.3375602711260317,-0.016280688193440435,5.739845966768264
1789664903603780900,8.08278076171875,1.3172528116345406,-0.277033565095067,5.187314375582337
1789664903613806800,8.092806884765626,1.352638597792387,-0.5002332486718892,4.552912894961238
1789664903623832600,8.10283251953125,1.3527766910888255,-0.6591074673324823,3.9159576382040977
1789664903633858600,8.112858642578125,1.3248084877111017,-0.801176681664586,3.3181448897898194
1789664903643884500,8.122884521484375,1.267872402393818,-0.9912988560259341,2.6818086417138574
1789664903653910500,8.13291064453125,1.2683192693784833,-1.2160948688834905,2.120954043340683
1789664903663936500,8.1429365234375,1.3232685647927225,-1.4862696541249751,1.6187755058199167
1789664903673962500,8.15296240234375,1.3635903460480272,-1.8198481132626532,1.1397481267839669
1789664903683988700,8.16298876953125,1.3953272543095052,-2.20850256293416,0.7941448833316564
1789664903694014700,8.1730146484375,1.5352010044239461,-2.604089149956405,0.4442933347851038
1789664903704040700,8.183040771484375,1.6022726993083953,-2.982914864052832,0.24013737437427043
1789664903714066700,8.193066650390625,1.6375313519552348,-3.4118370267048475,-0.054500236472487446
1789664903724092700,8.2030927734375,1.6392893015384673,-3.812775496149063,-0.4570025942325592
1789664903734118700,8.21311865234375,1.5837844180680811,-4.222952334059775,-0.927495369157195
1789664903744144600,8.22314453125,1.4833305319331584,-4.6539536410734055,-1.3850789781481028
1789664903754170600,8.233170654296876,1.315827893397957,-5.144867564997076,-1.7272680292427538
1789664903764196600,8.243196533203125,1.137854860383272,-5.6251241935670375,-1.930439654791355
1789664903774222600,8.25322265625,0.9693827922940254,-6.085102004218101,-1.9999971751421688
1789664903784248800,8.263248779296875,0.7815455870646983,-6.649793988797068,-1.8940578433334827
1789664903794274800,8.27327490234375,0.6612861265458166,-7.297928226694464,-1.5233376942813395
1789664903804300800,8.28330078125,0.5135633434314281,-7.951203919133543,-1.1188643287092446
1789664903814326800,8.293326904296874,0.4472013311862945,-8.659784734687209,-0.9839455706536769
1789664903824352800,8.303352783203126,0.49573418368697164,-9.25598887886107,-1.1586153243392705
1789664903834378800,8.313378662109375,0.6816707429267466,-9.586292846372723,-1.4676637378543615
1789664903853803500,8.332803466796875,0.895527282488346,-9.727290047559142,-1.9658774633973837
1789664903863829500,8.34282958984375,0.9761666802804917,-9.499846150541305,-2.1297908452689644
1789664903873855700,8.352855712890625,1.0104687628548592,-9.08901318680942,-2.390709726387262
1789664903883881700,8.3628818359375,0.9132359576582908,-8.73149095750451,-2.700655381003022
1789664903893907700,8.37290771484375,0.6809129833620041,-8.623983353465794,-2.881982839012146
1789664903903933700,8.38293359375,0.19083583905603735,-8.943140488541125,-3.0771319016247984
1789664903913959700,8.392959716796875,-0.3048760962665081,-9.503618070295452,-3.4222827251344916
1789664903923985700,8.402985595703125,-0.7295441086053848,-9.77705214959383,-4.243150195696949
1789664903934011600,8.41301171875,-1.127278521311283,-9.486154894319176,-5.437255351090431
1789664903944037600,8.42303759765625,-1.518286256110668,-8.848472492331267,-6.394385980054736
1789664903954063600,8.433063720703124,-2.093864376363158,-8.22115249440372,-6.937384019219875
1789664903964089600,8.443089599609374,-2.711808643180132,-7.906670365402102,-6.901582053476572
1789664903974115600,8.453115478515626,-3.032634003728628,-7.929836136934161,-6.152234927770495
1789664903984141800,8.463141845703126,-3.065835431584716,-8.205507766026258,-4.8607852504342794
1789664903994167800,8.473167724609375,-2.8446891734063624,-8.561932847744226,-3.5209576188981533
1789664904004193800,8.48319384765625,-2.4271511590778827,-8.973739040422439,-2.463428925639391
1789664904014219800,8.4932197265625,-2.047401900395751,-9.383042310369014,-1.6105045210808515
1789664904024245800,8.503245849609375,-1.5956272699445486,-9.65724562047422,-0.9392512734025716
1789664904034271700,8.513271728515624,-1.214102233761549,-9.637253218281268,-0.48415188244283197
1789664904044297700,8.523297607421876,-0.9647101243078708,-9.308065103057027,-0.10073182629346847
1789664904054323700,8.53332373046875,-0.7958090171515941,-8.922520894360542,0.2533855630040169
1789664904064349700,8.543349609375,-0.7405155114095657,-8.4352523412019,0.37806466659605503
1789664904074375700,8.553375732421875,-0.676898633154109,-7.785977116575837,0.4391413588494062
1789664904084401700,8.563401611328125,-0.5295663106620312,-7.101309676051139,0.4192074088454246
1789664904094428000,8.573427978515625,-0.265127438724041,-6.402272349390387,0.3431114266365766
1789664904104454000,8.583453857421874,-0.03696867143511772,-5.713450127273798,0.1749877335935831
1789664904114479900,8.59347998046875,0.1770784953277558,-5.059674084097146,-0.05337152470350265
1789664904124505900,8.603505859375,0.31712650603055953,-4.449148276843131,-0.29382278733253475
1789664904134531800,8.61353173828125,0.3536485296767205,-3.7654943972751496,-0.48564182873964307
1789664904144557800,8.623557861328125,0.27797292830441145,-3.0569930766984816,-0.6785819831311702
1789664904154583800,8.633583740234375,0.13091536763310432,-2.406904197601974,-0.7719681228369474
1789664904164609800,8.64360986328125,0.045481648236513135,-1.7645643251970409,-0.8193401148647069
1789664904174635800,8.6536357421875,-0.12335983768701553,-1.1271057950928807,-0.7148702710866928
1789664904184661500,8.66366162109375,-0.294478584360145,-0.5624938900128007,-0.5703951646566391
1789664904194687500,8.6736875,-0.42605091806463896,-0.141994103269279,-0.32293782265782356
1789664904204713500,8.68371337890625,-0.5161117858052253,0.18654373135268687,-0.072858315461874
1789664904214739500,8.693739501953125,-0.5243325016617775,0.4179577010452747,0.2569160752177238
1789664904224765400,8.703765380859375,-0.44128830775022504,0.47982525141537186,0.6330062268704175
1789664904234791400,8.71379150390625,-0.21614096070434896,0.4592366368949413,0.9649538699358701
1789664904244817400,8.7238173828125,0.057763622182607645,0.3941004401177168,1.3834399787694216
1789664904254843400,8.733843505859374,0.3382067765254527,0.31365386148393154,1.8392653459161519
1789664904264869600,8.74386962890625,0.5907214019138366,0.2827998735368252,2.4157693488419056
1789664904274895600,8.7538955078125,0.8684055398721248,0.3736678929418325,3.0700264535337687
1789664904284921600,8.763921630859375,1.2114857676528394,0.4897931032001972,3.6663358116477727
1789664904294947600,8.773947509765625,1.5243183758817613,0.549731146812439,4.404034585136175
1789664904304973600,8.7839736328125,1.802711100500822,0.6078349607348442,5.29420998520255
1789664904314999600,8.79399951171875,2.013085058643669,0.7556774977713823,6.386098044180869
1789664904325025500,8.804025634765624,2.031843681257963,0.9350041373521089,7.758606294569373
1789664904335051500,8.814051513671876,1.8838253492631016,1.188600128236413,9.179722216260433
1789664904345077500,8.824077392578126,1.6160791063427924,1.4572025495946406,10.385532422494888
1789664904355103500,8.834103515625,1.2814952695548534,1.5152163471460343,11.200459981614351
1789664904365129500,8.84412939453125,0.8253405243232845,1.6250310590833426,11.674513079369067
1789664904375155700,8.85415576171875,0.39152810541167854,1.9759289018124342,11.821525010800361
1789664904385181700,8.864181640625,0.03049801411628723,2.564256029000878,11.622727947074175
1789664904395207700,8.874207763671874,-0.3999113183535635,3.1930770791411396,11.446355481123923
1789664904405233700,8.884233642578126,-0.8028678496219217,3.7783255295366045,11.471115828371047
1789664904415259600,8.894259765625,-1.2139561032891273,4.1442110980391496,11.70790798397064
1789664904425285600,8.90428564453125,-1.6757833411991596,4.313383423352241,12.161412799215316
1789664904435311600,8.9143115234375,-2.045941180193424,4.313811877897382,12.22333938629627
1789664904445337600,8.924337646484375,-2.2441502148985863,4.579916637220978,11.581983264231681
1789664904455363600,8.934363525390625,-2.345434998899698,5.242434205257893,10.603933181357384
1789664904465389600,8.9443896484375,-2.375735444617271,6.022919981071353,9.525583818387984
1789664904475415600,8.95441552734375,-2.282963637417555,6.7379030648827545,8.628898013514279
1789664904485441800,8.96444189453125,-2.0950527093648907,7.148947625538707,8.11906048567295
1789664904495467800,8.9744677734375,-1.9822575203120707,7.024550261497497,8.100650384235381
1789664904505493800,8.98449365234375,-1.827842034626007,6.476507798424363,8.25394008076191
1789664904515519700,8.994519775390625,-1.3479216522730886,5.8451160210132596,8.45888397668004
1789664904525545500,9.00454541015625,-0.48439204787425694,5.300283167636394,8.427440790668129
1789664904535571500,9.014571533203124,0.29595278509855266,4.751527003335952,8.313000172495842
1789664904545597400,9.024597412109374,0.967899348803237,4.255238108375668,8.169860114061832
1789664904555623400,9.03462353515625,1.5155693983674048,3.7342321207880973,8.107898455667495
1789664904565649400,9.0446494140625,1.8984487717688083,3.1876293351292606,8.104206615412235
1789664904575675400,9.05467529296875,2.258104067579657,2.585211723268032,8.124062824004888
1789664904585701600,9.06470166015625,2.594698513537645,2.0423241587400436,8.105923940724134
1789664904595727600,9.0747275390625,2.7363001103579996,1.5665180798381566,7.937356011044979
1789664904605753600,9.084753662109375,2.7582442311406132,1.099465800756216,7.539816828650236
1789664904615779600,9.094779541015624,2.7057740391910077,0.7508639600098133,7.048131628093123
1789664904625805600,9.1048056640625,2.507607090061903,0.4154249676972627,6.536009204185008
1789664904635831600,9.11483154296875,2.266893815495819,0.12260112827420235,5.939692831808328
1789664904645857500,9.124857421875,2.018521112217754,-0.0743096833139658,5.377434796378016
1789664904655883500,9.134883544921875,1.7947699322380124,-0.19630290882289408,4.934127550020814
1789664904665910500,9.14491064453125,1.6184968350090085,-0.2830979797005653,4.458963860675692
1789664904675935500,9.154935546875,1.4925824905335903,-0.3683101653009653,4.053085304480791
1789664904685962800,9.164962646484375,1.3972738583326338,-0.5517863257765769,3.5594074688017368
1789664904695988700,9.17498876953125,1.312611707830429,-0.848825737068057,2.9961463938087225
1789664904706014700,9.1850146484375,1.3645979156553745,-1.1628916864842176,2.4702391901761294
1789664904716040700,9.195040771484376,1.4244881746031344,-1.5324106430530546,1.9652473488003015
1789664904726066700,9.205066650390625,1.491340966039896,-1.9236328973859547,1.5284867476075887
1789664904736092700,9.2150927734375,1.5569921266019344,-2.346548805360496,1.1843062304347753
1789664904746118700,9.22511865234375,1.6198223845243453,-2.7864783919781444,0.895652370172739
1789664904756144600,9.23514453125,1.6739973345652222,-3.2534397779062387,0.5872153665542602
1789664904766170600,9.245170654296874,1.6983178290903567,-3.727852064362168,0.21011516107618808
1789664904776196400,9.2551962890625,1.7323615529894827,-4.222547260390222,-0.1312567284166813
1789664904786222600,9.26522265625,1.7478477298043666,-4.740106906916201,-0.552774752292037
1789664904796248600,9.27524853515625,1.8116895028568802,-5.259854126614332,-1.030790908458829
1789664904806274600,9.285274658203125,1.8843220467388628,-5.757812416091561,-1.4490057991355656
1789664904816300500,9.295300537109375,1.7953202595971525,-6.332711321908235,-1.8232739960581064
1789664904826326500,9.305326416015625,1.599621308016777,-7.042649981811643,-2.092494257053733
1789664904836352500,9.3153525390625,1.4280419215619564,-7.777535451444983,-2.2376444862663742
1789664904846378500,9.32537841796875,1.2697265058279037,-8.441058981654047,-2.374952185285091
1789664904856404500,9.335404541015626,1.1097019480884074,-9.048060414174198,-2.4861463688820598
1789664904866430500,9.345430419921875,0.9507890779178589,-9.589894085735082,-2.7232448139518497
1789664904876456400,9.35545654296875,0.7871955025851726,-10.076860441076755,-2.925906736412644
1789664904886482400,9.365482421875,0.7027169650215656,-10.483091463971137,-3.084378804013133
1789664904896508700,9.3755087890625,0.6431435900032519,-10.711582239693403,-3.2484996911555526
1789664904906534700,9.38553466796875,0.5385375526249409,-10.658083289217949,-3.4996120485305786
1789664904916560600,9.395560546875,0.38259069265313445,-10.405535930603742,-3.7995670550078153
1789664904926586600,9.405586669921876,0.12240246389694512,-10.028631539958715,-4.315451461797952
1789664904936612600,9.415612548828125,-0.28216742085218427,-9.849645092117786,-4.720388937750458
1789664904946638600,9.425638671875,-0.693981796836853,-10.026978512054681,-4.714503971365094
1789664904956664600,9.43566455078125,-1.1330068358302117,-10.28146180716753,-4.6435032664686435
1789664904966690600,9.445690673828125,-1.372801095855236,-10.369023186242579,-4.764410450306534
1789664904976716500,9.455716552734375,-1.4092249928891658,-9.92367712753415,-5.038891408309341
1789664904986742500,9.465742431640624,-1.5098241327136754,-9.069760789328813,-5.3696688385516405
1789664904996768500,9.4757685546875,-1.819011077916622,-8.255124906632304,-5.522817665302753
1789664905006794800,9.485794677734376,-2.3454735773444173,-7.87563985184431,-5.399270780611038
1789664905016820700,9.49582080078125,-2.8471996949225664,-7.981340698722004,-4.980250418770313
1789664905026846700,9.5058466796875,-3.242659732955694,-8.41404822513163,-4.40514459220469
1789664905036872700,9.515872802734375,-3.4410224969178436,-9.034139440849422,-3.7478088107198473
1789664905046898700,9.525898681640625,-3.457249409097433,-9.651938746237754,-3.060365475741029
1789664905056924700,9.535924560546874,-3.2201836972534656,-10.050970797538756,-2.4835411548197266
1789664905066950700,9.54595068359375,-2.8328754014939066,-10.182232202130555,-1.9851655167132616
1789664905076976600,9.5559765625,-2.4501567716121673,-10.141353079253435,-1.4448697222441433
1789664905087002600,9.566002685546875,-2.002244661808014,-9.949890596199035,-0.9110703040570021
1789664905097028600,9.576028564453125,-1.6712047812372446,-9.647860537013411,-0.38735681107640263
1789664905107054600,9.5860546875,-1.3780699761688708,-9.200434749421477,-0.07687281180024147
1789664905117080600,9.59608056640625,-1.0724264026612043,-8.606552326193452,0.12393091557323932
1789664905127106600,9.6061064453125,-0.713126057767868,-7.954332864809036,0.2191635599285364
1789664905137132500,9.616132568359374,-0.41103579282760616,-7.340713475453853,0.2581944245904684
1789664905147158500,9.626158447265626,0.0042120738702360536,-6.705342857539653,0.20768471905887126
1789664905157184000,9.63618408203125,0.4151531650185585,-6.052668053603172,0.17098142056167126
1789664905167210000,9.6462099609375,0.7229647302150726,-5.351188009965419,0.2085235079705715
1789664905177236200,9.656236328125,1.0208990445196628,-4.544493149401247,0.2619511467754841
1789664905187262200,9.66626220703125,1.1488088005959987,-3.704351361787319,0.4147849162280559
1789664905197288200,9.6762880859375,1.152109011185169,-2.8490444460064173,0.5740145241975784
1789664905207314200,9.686314208984374,1.0949719964683056,-2.0792326244205235,0.7063011801838874
1789664905217340200,9.696340087890626,0.9435282200694084,-1.3499851606741546,0.8173223453015088
1789664905227366100,9.7063662109375,0.7416016261458397,-0.7429115397006273,0.9763099612087011
1789664905237392100,9.71639208984375,0.4861819269657135,-0.24076456636190413,1.2306570627212523
1789664905247418000,9.726418212890625,0.25317283356878906,0.22056290533244607,1.538394978159666
1789664905257444000,9.736444091796875,0.13860767570137977,0.6298328575313091,1.876902710393071
1789664905267470000,9.746469970703124,0.16154080752134323,0.9279939663290977,2.202335272476077
1789664905277496000,9.75649609375,0.33483167406916614,1.147652031776309,2.4960972695320844
1789664905287522300,9.766522216796876,0.5648585733175278,1.2259329568088053,2.8010739035636183
1789664905297548300,9.77654833984375,0.826973386222124,1.2678916916161775,3.2014240517258643
1789664905307574300,9.78657421875,1.1600597509939223,1.382823892697692,3.7460371248722075
1789664905317600300,9.796600341796875,1.457845523673296,1.5477099189937114,4.343500329196453
1789664905327626200,9.806626220703125,1.5371664592780172,1.654184088331461,5.081795899534225
1789664905337652200,9.81665234375,1.6211116936825214,1.7694377764523028,5.7757806189805265
1789664905347678200,9.82667822265625,1.6592355265021324,1.9420465059548615,6.504481262499094
1789664905357704200,9.8367041015625,1.620134519213438,2.032664349991083,7.182935819858312
1789664905367730200,9.846730224609376,1.6030046668447553,2.1440753912091255,7.885937958496808
1789664905377756200,9.856756103515625,1.5201229700185357,2.265880985191464,8.575456346184016
1789664905387782100,9.8667822265625,1.3688146565675734,2.268727606794238,9.279528159880638
1789664905397808400,9.876808349609375,1.2010557051837443,2.1639204938858745,9.99779333410263
1789664905407834400,9.88683447265625,1.1834719715677202,2.0436352413386105,10.660706623458863
1789664905417860400,9.8968603515625,1.2992672192193566,2.1947154451221227,11.107027664679288
1789664905427886300,9.90688623046875,1.4073558380164206,2.642276841792464,11.43586097511649
1789664905437912300,9.916912353515626,1.5371268579199908,3.2201065403640268,11.707235783797502
1789664905447938300,9.926938232421875,1.643735321161896,3.859069045290351,12.02561316667199
1789664905457964300,9.93696435546875,1.5985796900093554,4.4593519832104445,12.224660405766963
1789664905467990300,9.946990234375,1.3992495423197746,4.910742582780123,12.317536257863043
1789664905478016300,9.957016357421875,1.1523812522552908,4.906453361153602,12.666415161985158
1789664905488042200,9.967042236328124,1.0021955130934714,4.798270634332299,12.730647103399038
1789664905498068000,9.97706787109375,0.9541524899363517,5.116016149044037,12.33512802865505
1789664905508094200,9.98709423828125,0.81727836002931,5.700010215464234,11.625614316165446
1789664905518120200,9.9971201171875,0.4673404483735561,6.264725580918789,10.928587160283326
1789664905528146200,10.007146240234375,0.03252973913960159,6.63459057444632,10.390343037647009
1789664905538172200,10.017172119140625,-0.5172480232935398,6.528828352770209,10.246747052139042
1789664905548198100,10.0271982421875,-1.061256700805947,5.978567629125714,10.330811821269988
1789664905558224100,10.03722412109375,-1.3547335242450236,5.123974999094009,10.4561157787621
1789664905568250000,10.04725,-1.3361679399847983,4.3393443785607815,10.403974088114499
1789664905578276000,10.057276123046876,-1.2081143184583634,3.6974341297447677,10.174497808486223
1789664905588302000,10.067302001953125,-0.9715982033211737,3.2946792585283515,9.825918179571628
1789664905598328000,10.077328125,-0.7233341480493545,2.892529367467761,9.492012388175725
1789664905608354300,10.087354248046875,-0.4841466217458248,2.2040227871716023,9.265801247823237
1789664905618380300,10.09738037109375,-0.19794373483248054,1.4072767814308405,9.056444211637974
1789664905628406300,10.10740625,0.05449271075315773,0.594782002416253,8.849175087642669
1789664905638432300,10.117432373046874,0.47902737903594966,-0.09055354662835598,8.406584465122222
1789664905648458200,10.127458251953126,0.9288216493248939,-0.6212298643589019,7.851323156711459
1789664905658484200,10.137484130859375,1.1268506512880325,-1.0685896009773015,7.2612208365440365
1789664905668510200,10.14751025390625,1.2679904758155345,-1.4243085802525282,6.590518208485841
1789664905678536200,10.1575361328125,1.32917121296525,-1.7024807939887046,5.983496902221441
1789664905688562200,10.167562255859375,1.3413035493075847,-1.9467589214295147,5.43182981891036
1789664905698588200,10.177588134765625,1.2831656869851051,-2.1753099029064176,4.7705783252865075
1789664905708614100,10.1876142578125,1.1920528990387915,-2.3908494271188974,4.047873122790455
1789664905718640400,10.197640380859376,1.1741420523602515,-2.667283272755146,3.285359056997299
1789664905728666400,10.207666259765626,1.212700696400553,-2.9432582687079907,2.552221307814121
1789664905738692400,10.2176923828125,1.3123733690299093,-3.2551001123338934,1.883775518772006
1789664905748718300,10.22771826171875,1.4170061482846736,-3.581570785292983,1.3049585627287625
1789664905758744300,10.237744384765625,1.5239011733829975,-3.915530060441792,0.7747299887657165
1789664905768770300,10.247770263671875,1.6222760612867773,-4.206343144564331,0.2166886942476034
1789664905778796300,10.25779638671875,1.6634779863774776,-4.4406402684777975,-0.2946288430184126
1789664905788822300,10.267822265625,1.7598761673808097,-4.673054062862694,-0.7731915271520614
1789664905798848300,10.27784814453125,1.7963538404285906,-4.940314714223146,-1.2108107910007238
1789664905808874200,10.287874267578125,1.8101134857118129,-5.205725646063685,-1.5949819577783346
1789664905818900200,10.297900146484375,1.8328489030025898,-5.548385237279534,-1.8943296460121868
1789664905828926200,10.30792626953125,1.9780992315888404,-5.918779807639122,-2.1489526418566705
1789664905838952200,10.3179521484375,2.096724588099867,-6.3247121398478745,-2.4484476296067235
1789664905848978200,10.327978271484374,2.1990087584018707,-6.842677444565296,-2.655574714782834
1789664905859004200,10.338004150390624,2.2673766305767,-7.359962950325012,-2.845598104944825
1789664905869030100,10.348030029296876,2.2060672986112535,-7.871995357862114,-2.9263369445234537
1789664905879056100,10.35805615234375,2.0259458553910252,-8.49915052061677,-2.9690917981445786
1789664905889082000,10.36808203125,1.8266402576208114,-9.113958827495575,-2.972849104851484
1789664905899108000,10.378108154296875,1.6621663192570209,-9.550999999195337,-2.913175265133381
1789664905909133300,10.38813330078125,1.5162464208461344,-9.842241537863016,-2.9616292071789503
1789664905919159300,10.3981591796875,1.3811273179128765,-10.08492567411065,-3.0662440123856065
1789664905929186000,10.40818603515625,1.415686151727289,-10.279791243606805,-3.1253876907497644
1789664905939211000,10.4182109375,1.675834779125452,-10.394356364941597,-3.1929321177124974
1789664905949237000,10.428237060546875,1.9093033432602882,-10.374779557812213,-3.2649194955587384
1789664905959263200,10.43826318359375,2.0832792694628237,-10.213114831650257,-3.4244694215238094
1789664905969289200,10.448289306640625,1.9437832666195929,-9.945036726427078,-3.767620011126995
1789664905979315200,10.458315185546875,1.5308990694463251,-9.950323142397403,-3.991704076322913
1789664905989341200,10.468341064453124,1.018765612687543,-10.28765306302309,-4.038015745642781
1789664905999367200,10.4783671875,0.5843161379814148,-10.674942069560288,-4.168443622019887
1789664906009393200,10.48839306640625,0.374532400816679,-10.631515600287914,-4.709148581811785
1789664906019419100,10.498419189453125,0.14873981466982514,-10.152841272473335,-5.3708022264957425
1789664906029445000,10.508445068359375,-0.1629659084210172,-9.51345206656754,-5.761368647268414
1789664906039471000,10.51847119140625,-0.5979015957415104,-8.998454379484057,-5.630272662371397
1789664906049497000,10.5284970703125,-1.1868752041399477,-8.759874171423911,-5.142087578889727
1789664906059523000,10.538523193359374,-1.8464169712364673,-8.885678479653595,-4.396358643680811
1789664906069549300,10.54854931640625,-2.399517886742949,-9.140462219017744,-3.5635523135215044
1789664906079575300,10.5585751953125,-2.8162960226148366,-9.429864851820469,-2.7889889134943484
1789664906089601300,10.568601318359375,-3.0453695666611194,-9.76093629657328,-2.0963211218655107
1789664906099627300,10.578627197265625,-3.021998043423891,-9.93609821768999,-1.6388900730878113
1789664906109653200,10.5886533203125,-2.658611305999756,-9.787004219287633,-1.3423036662608385
1789664906119679200,10.59867919921875,-2.240827207955718,-9.425344159525633,-1.0189414807111024
1789664906129705200,10.608705322265624,-1.9528753584831953,-9.054719287541507,-0.5801338838607073
1789664906139731200,10.618731201171874,-1.6566192065238952,-8.584758427536487,-0.14639058466255664
1789664906149757200,10.628757080078126,-1.3255243808954953,-7.97040078703463,0.2257207264870405
1789664906159783700,10.63878369140625,-1.0259177494645118,-7.278994978165626,0.5090238733708858
1789664906169809700,10.6488095703125,-0.7504816826939582,-6.594923165446519,0.6686486181378364
1789664906179835600,10.658835693359375,-0.376841262280941,-5.915832648271322,0.6347498556673526
1789664906189861600,10.668861572265625,-0.0833457706740126,-5.41607110876441,0.569462852242589
1789664906199887600,10.6788876953125,0.22644496737467124,-5.070924961429834,0.4870084409177303
1789664906209913600,10.68891357421875,0.5264403241286054,-4.708388411094248,0.43992403365969657
1789664906219939600,10.698939697265626,0.7155155832529068,-4.227696605977416,0.3728285195082426
1789664906229965600,10.708965576171876,0.7955623489141463,-3.624042438058555,0.3454647117644548
1789664906239991600,10.718991455078125,0.6388333255887031,-3.0027780869081613,0.46045887216627596
1789664906250017500,10.729017578125,0.38954409198760986,-2.3439959060072897,0.6643167264133691
1789664906260043500,10.73904345703125,0.11000468155145644,-1.6483099356010555,0.8519616970062255
1789664906270069500,10.749069580078125,-0.09447864765021949,-1.015716088923812,1.06191553004086
1789664906280095500,10.759095458984374,-0.1803507219314575,-0.4370891024947166,1.2187000829458237
1789664906290121500,10.76912158203125,-0.2054733996849507,0.0008493103057146072,1.4412714054912328
1789664906300147500,10.7791474609375,-0.17495441584587096,0.24771219354271887,1.7950754910558462
1789664906310173400,10.78917333984375,-0.027181436914205548,0.4726525833070278,2.287902847385406
1789664906320199400,10.799199462890625,0.2892669506590813,0.7721639376699924,2.8886843824774027
1789664906330225400,10.809225341796875,0.6122094494920224,1.040939962029457,3.621074528163671
1789664906340251600,10.819251708984375,0.9019781391281634,1.179582709044218,4.519383550325036
1789664906350277600,10.829277587890624,1.2332324661672114,1.3647569056093691,5.554143946936726
1789664906360303600,10.8393037109375,1.565262965210527,1.7888848197221754,6.619422815930843
1789664906370329600,10.84932958984375,1.7502105134129524,2.31829564756155,7.590268666514754
1789664906380355600,10.85935546875,1.7936987958751618,2.692718158262968,8.513060388025641
1789664906390381600,10.869381591796875,1.7966997312568127,2.9596307268381117,9.453167401474714
1789664906400407600,10.879407470703125,1.7249686662591992,3.181032421082258,10.292097767472267
1789664906410433500,10.88943359375,1.6438051715277135,3.366658453068137,10.990804839265346
1789664906420459500,10.89945947265625,1.4746670407451687,3.529148524138331,11.774445279717444
1789664906430485500,10.909485595703124,1.1785985203124583,3.4333073924958706,12.635090633916855
1789664906440511700,10.91951171875,0.9400129054248333,3.3635710084468124,13.103722875666618
1789664906450537700,10.929537841796876,0.8111025940038263,3.591951309531927,13.57908880958557
1789664906460563700,10.939563720703125,0.7189432196140289,3.877429462367296,13.859115711277722
1789664906470589700,10.949589599609375,0.5853741226017475,4.31334952108264,13.746795153999328
1789664906480615700,10.95961572265625,0.5281017910674214,4.759221064969897,13.446479497516155
1789664906490641700,10.9696416015625,0.5982806581869721,4.986536951693892,13.135838846373558
1789664906500667600,10.979667724609374,0.8102209888637065,4.974084881877899,12.784828775441646
1789664906510693600,10.989693603515626,1.043751366188377,4.795332242792845,12.476753006350993
1789664906520719600,10.9997197265625,1.3570505690157413,4.620509928894043,11.975637714147567
1789664906530745600,11.00974560546875,1.5355239527679978,4.664524427187443,11.157372535037993
1789664906540771600,11.019771484375,1.5741256322324275,4.966758484512567,10.17325394590497
1789664906550797800,11.0297978515625,1.5037003891363738,5.2610126489996905,9.33299320808649
1789664906560823600,11.039823486328125,1.3602804908476769,5.36002714998126,8.730602484232186
1789664906570849500,11.049849609375,1.100567186126858,5.0677206124305725,8.43107710134387
1789664906580875500,11.05987548828125,0.9452867541745305,4.449048615860939,8.304920910936593
1789664906590901500,11.069901611328126,0.9869827463924884,3.6736166163057087,8.224896357107163
1789664906600927500,11.079927490234375,1.1208384052611886,2.883293337088823,8.160739234495162
1789664906610953500,11.089953369140625,1.4177498062588274,2.223022086673975,8.103777576345205
1789664906620979500,11.0999794921875,1.6592809730790554,1.609035617572069,8.029538620179892
1789664906631005400,11.11000537109375,1.8800258108496666,0.9648287822514772,8.005399035179614
1789664906641031400,11.120031494140624,2.003060654366016,0.26715339159369467,7.9349173857212065
1789664906651057400,11.130057373046874,2.146308264827728,-0.35566695682704447,7.7807795479327435
1789664906661083600,11.140083740234376,2.2506021675169467,-0.8199801663339138,7.554127093553543
1789664906671109600,11.150109619140625,2.2848083885014057,-1.2031430328518151,7.244572484081983
1789664906681135600,11.160135498046875,2.304428596381098,-1.4566379014492035,6.841239520716667
1789664906691161600,11.17016162109375,2.2305692871831355,-1.621799822077155,6.377618969649076
1789664906701187600,11.1801875,2.119413243639469,-1.7036369782865046,5.8360594388544555
1789664906711213600,11.190213623046875,2.0314671030305327,-1.761103078827262,5.248353073912859
1789664906721239600,11.200239501953124,1.9984300719559192,-1.841441520911455,4.57860906175375
1789664906731264500,11.210264404296876,2.0249882624052464,-1.9174322891801594,3.8888036738187073
1789664906741290500,11.22029052734375,2.093113996387273,-2.0443845984011886,3.2571722424328327
1789664906751316500,11.23031640625,2.1463281385719775,-2.200444344162941,2.600702137866616
1789664906761342500,11.240342529296875,2.201138610037416,-2.3553613496303556,1.9698072040617465
1789664906771368400,11.250368408203125,2.231192533648014,-2.5282015498012305,1.3697569058537482
1789664906781394400,11.26039453125,2.2147275749288498,-2.718620953543484,0.8141232569992541
1789664906791420700,11.270420654296874,2.2131856061838566,-2.9964295946642756,0.33392157348692414
1789664906801446700,11.28044677734375,2.218523752341419,-3.285245952011645,-0.1356657770305872
1789664906811472600,11.29047265625,2.2614671142719684,-3.577876314689219,-0.5218161349266767
1789664906821498600,11.30049853515625,2.3166624934017657,-3.897533800502121,-0.8342641277521848
1789664906831524600,11.310524658203125,2.322687745040655,-4.258248396107554,-1.0416495716035366
1789664906841550600,11.320550537109375,2.3103930577434597,-4.6664039573237295,-1.1880337265253067
1789664906851576600,11.33057666015625,2.3087398837089537,-5.064302328419685,-1.418426536476612
1789664906861602600,11.3406025390625,2.293447475900501,-5.487046094697713,-1.6853975572407245
1789664906871628500,11.350628662109376,2.238795848258585,-6.001220774960517,-1.7415771251022816
1789664906881654500,11.360654541015625,2.1650353232599793,-6.582092909967899,-1.8944623324811458
1789664906891680500,11.370680419921875,2.0398225511826573,-7.14017512101829,-2.113390914610028
1789664906901706800,11.380706787109375,1.889678751466423,-7.774473141264915,-2.3045278189718723
1789664906911732700,11.390732666015625,1.654800320533663,-8.479652039420603,-2.6064883200526237
1789664906921758700,11.4007587890625,1.4540671741783617,-9.233039964950084,-2.9132804790735243
1789664906931784700,11.41078466796875,1.282968410847336,-10.002630837261677,-3.1337282335937022
1789664906941810700,11.420810791015626,1.195501724318415,-10.70506014444828,-3.335979237166047
1789664906951836700,11.430836669921876,1.1814845971427856,-11.280147850835323,-3.5015602599889037
1789664906961862700,11.440862548828125,1.218030366990715,-11.611456026953459,-3.7548213198304174
1789664906971888600,11.450888671875,1.2104467069286853,-11.676703867411613,-4.0539673480123275
1789664906981914600,11.46091455078125,1.0992320650655776,-11.56197391090393,-4.287988869854807
1789664906991940600,11.470940673828125,0.8893734360337257,-11.291936488306522,-4.630877009129524
1789664907001966600,11.480966552734374,0.6295043562293052,-10.907696347945928,-4.929616210076213
1789664907011992600,11.49099267578125,0.19759521365575491,-10.628950718235968,-5.032029705846309
1789664907022018600,11.5010185546875,-0.3079776059458032,-10.703986962258815,-4.914986796221137
1789664907032044500,11.51104443359375,-0.6994342170238494,-10.93771856124401,-4.824646600082517
1789664907042070500,11.521070556640625,-0.9691016372650861,-10.764903495514393,-5.109990897405147
1789664907052096500,11.531096435546875,-1.1440946315556764,-10.07698202162981,-5.528876819211244
1789664907062122500,11.54112255859375,-1.469557588776946,-9.338425170007348,-5.54774050963521
1789664907072148500,11.5511484375,-1.9550497799128292,-8.793682333001493,-5.228565254381299
1789664907082174500,11.561174560546876,-2.43446645052731,-8.534135909280181,-4.709163194859028
1789664907092200400,11.571200439453126,-2.964029838579893,-8.556943368893862,-3.922029067072272
1789664907102226400,11.581226318359375,-3.2792011188894508,-8.786518432721495,-3.068496175226569
1789664907112252400,11.59125244140625,-3.4006863948762414,-9.091825321620702,-2.3480472272247073
1789664907122278700,11.601278564453125,-3.4072137508183715,-9.51716261152327,-1.721916731342673
1789664907132304600,11.6113046875,-3.1282816586256024,-9.830089327776431,-1.29420219091475
1789664907142330600,11.62133056640625,-2.535037533301115,-9.767078452590107,-1.0020236636579036
1789664907152356600,11.631356689453124,-1.9522166023135183,-9.55060193978846,-0.6381102720111608
1789664907162382000,11.641382080078126,-1.5561463234275579,-9.287871625334024,-0.11603928554058074
1789664907172408000,11.651407958984375,-1.2241869899243116,-8.828046374896168,0.44694355703294275
1789664907182434300,11.661434326171875,-0.8525041333198546,-8.075721694684027,0.8337614389270543
1789664907192460300,11.671460205078125,-0.4792144260406494,-7.127115732958912,1.081029980355501
1789664907202486300,11.681486328125,-0.17676992256892843,-6.158191205826402,1.1764677918940782
1789664907212512300,11.69151220703125,0.07102057864069938,-5.298212791103125,1.1756705040365456
1789664907222538200,11.701538330078124,0.32730420117378234,-4.548801660250127,0.9942816712290048
1789664907232564200,11.711564208984376,0.4980827926397323,-3.9717645733609794,0.7770774286746979
1789664907242590200,11.721590087890625,0.5254138671576977,-3.4958915667027233,0.5570926154911517
1789664907252616200,11.7316162109375,0.43980358561780303,-3.0022274672880767,0.3296533946484327
1789664907262642200,11.74164208984375,0.2689735562255606,-2.4720064921095966,0.17069266674816608
1789664907272668200,11.751668212890625,-0.025195213266741484,-2.030635474511981,0.1293956107199192
1789664907282694100,11.761694091796874,-0.36088381469249725,-1.6123840512171386,0.26081483622193335
1789664907292720400,11.771720458984374,-0.6823544874072075,-1.2154010414004326,0.5645347481906414
1789664907302746400,11.781746337890626,-0.8687585180282592,-0.8533207103997469,0.8705097456097602
1789664907312772400,11.7917724609375,-0.9166799606323242,-0.5278261889964342,1.1566524998337029
1789664907322798300,11.80179833984375,-0.7579004345178604,-0.25488018547594543,1.4575035783678292
1789664907332824300,11.81182421875,-0.49408696446921674,-0.00019406126737594602,1.8848212284326553
1789664907342850300,11.821850341796875,-0.15213585031628607,0.2041442699730396,2.3829636423051355
1789664907352876300,11.831876220703125,0.22161329116821288,0.34921909586191174,2.913290415945649
1789664907362902300,11.84190234375,0.6225532219171523,0.5675690013200044,3.491108424079418
1789664907372928300,11.85192822265625,0.9530359800618141,0.7984715143591165,4.1439755357176065
1789664907382954200,11.861954345703126,1.1928209608018399,0.9200789554208516,4.927141344395279
1789664907392980200,11.871980224609375,1.3964811005197464,1.0486439605355262,5.75777792930007
1789664907403006200,11.882006103515625,1.6701238541327417,1.3946411717414855,6.4511874792069195
1789664907413032200,11.8920322265625,1.8200588334038852,1.7260738510221243,7.128848840361833
1789664907423058200,11.90205810546875,1.8777730634868144,2.097484320425987,7.876603728440403
1789664907433084200,11.912084228515624,1.9277016081295906,2.5151561902672053,8.545950850236416
1789664907443110100,11.922110107421876,1.8469933098196982,2.847955481725931,9.231423177403212
1789664907453136100,11.93213623046875,1.7299441165842115,3.085616821375489,9.870538242542743
1789664907463162000,11.942162109375,1.578005688536167,3.220594616141915,10.467510448479652
1789664907473188000,11.95218798828125,1.4272094162605702,3.184506819194555,11.059774915117025
1789664907483214000,11.962214111328125,1.3315201141789554,3.0449925500422714,11.528604725265502
1789664907493240000,11.972239990234375,1.2669661012038589,2.9402929891616103,11.854791320586203
1789664907511412200,11.990412109375,1.2568588409483432,3.2171938677877185,12.208467980378865
1789664907521438200,12.000438232421875,1.2054479487933218,3.61581733828783,12.032293082827328
1789664907531464200,12.010464111328124,1.1963058803081512,3.9663042621284723,12.130441322368382
1789664907541490400,12.020490478515624,1.1905682134389877,4.126985822471976,12.304509603029489
1789664907551516400,12.030516357421876,1.232060207517445,4.192257043805718,12.377331678134203
1789664907561542400,12.04054248046875,1.4502151749253271,4.399359579062462,12.14560732731819
1789664907571568000,12.050568115234375,1.669773287129402,4.879011227476597,11.584221983069181
1789664907581594000,12.060593994140625,1.7313152588069438,5.4909255664795635,10.784665011560916
1789664907591620000,12.0706201171875,1.4764951329551637,5.921641626811027,9.991617275816202
1789664907601646000,12.08064599609375,1.0629144779503346,6.0133788302659985,9.485542899900674
1789664907611672000,12.090672119140624,0.5365443329811096,5.657008109083772,9.385954398423433
1789664907621698000,12.100697998046876,0.16556114907860756,4.903597387200594,9.498956508225202
1789664907631724000,12.11072412109375,-0.05120543271079659,4.0830701083779335,9.6491704505682
1789664907641750000,12.12075,-0.2603189424637705,3.3449820433109996,9.714375036406517
1789664907651776300,12.1307763671875,-0.36122970552071926,2.777985873442888,9.768357971006632
1789664907661802200,12.14080224609375,-0.3800034526389092,2.3120821798741815,9.575094576010107
1789664907671828200,12.150828125,-0.36594460521340366,1.7635528100669382,9.231765707230567
1789664907681854200,12.160854248046874,-0.18250168942026793,1.088234797167778,8.955071749353408
1789664907691880200,12.170880126953126,0.1393991183400154,0.3929606224328279,8.670632876437901
1789664907701906200,12.18090625,0.49952897286005316,-0.2875906149446964,8.38879571045339
1789664907711932200,12.19093212890625,0.9249370629765092,-0.858501327908039,8.04957018533945
1789664907721958100,12.200958251953125,1.29073305349946,-1.1689981866657733,7.612384636732935
1789664907731984100,12.210984130859375,1.4568271404109894,-1.3439210383296012,7.128105328518152
1789664907742010000,12.221010009765624,1.3590683385789393,-1.4934621959775685,6.548021129018068
1789664907752036000,12.2310361328125,1.1535388247925789,-1.5913374637961386,5.960221825096011
1789664907762062300,12.241062255859376,0.8826502652585506,-1.7442004593431948,5.203989031529426
1789664907772088300,12.25108837890625,0.6202675951980055,-1.8920844974339006,4.384995538145303
1789664907782114300,12.2611142578125,0.454376921904087,-1.9802257222235202,3.545523904877901
1789664907792140300,12.271140380859375,0.3263479233622551,-2.124715441700816,2.714468217778206
1789664907802166300,12.281166259765625,0.28392573576159774,-2.3485715433597565,1.9146762684702872
1789664907812192300,12.291192138671875,0.36180275616832075,-2.6098323697835206,1.2660136227846144
1789664907822218200,12.30121826171875,0.4998211607396602,-2.8882015673965213,0.6809072112083434
1789664907832244200,12.311244140625,0.6613794308524579,-3.183626821489632,0.13753390899002552
1789664907842270200,12.321270263671876,0.8113094416875392,-3.442370404395461,-0.39638825879395007
1789664907861696300,12.3406962890625,1.0035773959059269,-3.9749528480082748,-1.2221896786272526
1789664907871722200,12.35072216796875,1.117476016156003,-4.314866939908266,-1.5741379071921109
1789664907881748200,12.360748291015625,1.1850748767197132,-4.652122626253962,-1.8632646456629036
1789664907891774200,12.370774169921875,1.3212509413599967,-4.97033517395556,-2.136674175041914
1789664907901800200,12.38080029296875,1.439976689505577,-5.352690815743804,-2.369426699861884
1789664907911826200,12.390826171875,1.6384920136809349,-5.69729335772097,-2.6496821496129033
1789664907921852200,12.40085205078125,1.7611117005251347,-5.947231995141506,-2.9294869329869746
1789664907931878400,12.41087841796875,1.8177648772478103,-6.228655904150009,-3.1031244210153814
1789664907941904400,12.420904296875,1.8308990841090678,-6.667315616962314,-3.118090519478917
1789664907951930400,12.430930419921875,1.89016974985376,-7.17790425543189,-3.0116631118923425
1789664907961956400,12.440956298828125,1.9270693015754221,-7.722607344949245,-2.7131799315333365
1789664907971982300,12.450982421875,1.8780105255044997,-8.365910509428382,-2.275431488347053
1789664907982008300,12.46100830078125,1.9213583765827118,-8.945700694417953,-2.0656658713608977
1789664907992034300,12.471034423828126,2.0041816212199626,-9.254530496746302,-2.0715900007128716
1789664908002060300,12.481060302734376,1.9775953737199305,-9.436544183453917,-2.164528981173038
1789664908012086300,12.491086181640625,1.8810114608861506,-9.541181200492382,-2.3699866718322036
1789664908022112300,12.5011123046875,1.8562872078657149,-9.661355393880605,-2.7397470359414813
1789664908032138000,12.511137939453125,2.0570599555790423,-9.677257896411419,-3.173464616176486
1789664908042164200,12.521164306640625,2.2345419902063903,-9.409692416885495,-3.6335984941720962
1789664908052190200,12.531190185546874,2.300953175355494,-9.167080176830291,-4.038667487549781
1789664908062216200,12.54121630859375,2.3012464592136443,-9.206953922057151,-4.2100218330770725
1789664908072242200,12.5512421875,2.024469353097677,-9.556263618811965,-4.074168424519896
1789664908082268200,12.56126806640625,1.6201462096512316,-9.948403572511673,-4.115518087518215
1789664908092294100,12.571294189453125,1.2898643078409135,-9.850013340908289,-4.509970994335413
1789664908102321200,12.581321044921875,0.9472807775359601,-9.313053412863612,-4.940314714223146
1789664908112347100,12.59134716796875,0.5083598565042019,-8.768022406566143,-5.126691856837272
1789664908122373000,12.601373046875,-0.13483283333778381,-8.37012841938436,-5.112852716577053
1789664908132399400,12.6113994140625,-0.856602800810337,-8.19433229201734,-4.904544312661886
1789664908142425300,12.62142529296875,-1.5603694940805435,-8.298595215046406,-4.27994584865272
1789664908152451300,12.631451416015626,-2.133721170455217,-8.614871826249361,-3.584869242316484
1789664908162477600,12.6414775390625,-2.628456990754604,-8.97979585624337,-2.928025628262758
1789664908172503600,12.651503662109375,-2.834672806304693,-9.358084394723177,-2.44664496409893
1789664908182529500,12.661529541015625,-2.8566169270873067,-9.50321182758212,-2.1314824516177175
1789664908192555500,12.671555419921875,-2.6923884879171847,-9.422708550325035,-1.8382669825285671
1789664908202581500,12.68158154296875,-2.4076152684807774,-9.286756942090392,-1.4035907863944768
1789664908212607500,12.691607421875,-2.0797101788043975,-9.04031549913585,-0.7911006933301686
1789664908222633500,12.701633544921876,-1.7774200073778628,-8.680856164288521,-0.18742986653745172
1789664908232659500,12.711659423828126,-1.481329275113344,-8.001030318576097,0.08228548449873924
1789664908242685400,12.721685546875,-1.2338684259831905,-7.180152326619624,0.27913609033226966
1789664908252711400,12.73171142578125,-1.022722752815485,-6.401412517690658,0.385146149289608
1789664908262737200,12.741737060546875,-0.7849988693237304,-5.667080005764961,0.34649113220274447
1789664908272763400,12.751763427734375,-0.5044681097626685,-5.003204008856415,0.21810791339576244
1789664908282789400,12.761789306640624,-0.23531685888264328,-4.434980050759017,0.07578560108542443
1789664908292815400,12.7718154296875,-0.028826318044401705,-3.8772310171857476,-0.04506722221672535
1789664908302841300,12.78184130859375,0.0792378238985315,-3.3334289681613445,-0.16284779846668243
1789664908312867300,12.791867431640625,0.014497311908006667,-2.8034800879225132,-0.3268991275042295
1789664908322893300,12.801893310546875,-0.18497662816643715,-2.2658570197939873,-0.43015082766413687
1789664908332919300,12.811919189453125,-0.4436006763458252,-1.765207591536641,-0.4144166674375534
1789664908342945300,12.8219453125,-0.7038251454591751,-1.3374860368460415,-0.31954291952252384
1789664908352971300,12.83197119140625,-0.9242296453595161,-0.9650643445730209,-0.12797405348420143
1789664908362997200,12.841997314453126,-1.086806225669384,-0.6086340021580458,0.14750234529674053
1789664908373023200,12.852023193359376,-1.1559949127078055,-0.3295546104490757,0.4812567455232143
