time,seconds_elapsed,z,y,x
1789881468093869800,0.053869873046875,2.8492975439846515,-0.36431057427078484,2.6611551452636717
1789881468103885000,0.063885009765625,2.2278981682777403,-0.7544853653773665,1.9366209737747906
1789881468113900000,0.073900146484375,1.7851932717278598,-1.0074193852216005,1.2291887437343596
1789881468123915000,0.0839150390625,1.5999033398285507,-1.1366852320820093,1.066747772502899
1789881468133930000,0.093929931640625,1.8709782887801527,-1.166182544723153,0.9051631258398294
1789881468143945000,0.103945068359375,2.3748922717913983,-1.044896006178856,0.7938906163096427
1789881468153960000,0.1139599609375,2.6835736055597663,-1.181402910208702,1.4255103572577237
1789881468163975000,0.123974853515625,2.6602213715448975,-1.288797701522708,2.628857972770929
1789881468173990000,0.133989990234375,2.091115369915962,-0.9324147053807973,2.7190532074809073
1789881468184005000,0.144005126953125,0.5476698303684592,-0.9578606968045235,1.7127753935098646
1789881468194020000,0.15402001953125,-0.9327630804270506,-1.7917729423791169,1.058456329497695
1789881468204035000,0.16403515625,-0.11992051088809966,-2.4526684621721504,1.1839186924219132
1789881468214048800,0.174048828125,1.502437529593706,-2.0431798987865446,1.890342037680745
1789881468224064000,0.18406396484375,1.0917509885951877,-1.6704349659085274,2.247283836749196
1789881468234079000,0.194078857421875,0.5160086176916957,-2.2054227170974015,1.5895517494231461
1789881468244094000,0.204093994140625,-0.002028290957212448,-2.4667308897942304,1.067186163920164
1789881468254109000,0.21410888671875,-0.9151219175353645,-2.0370704759955407,1.6097732841968535
1789881468264124000,0.2241240234375,-1.7477520143449305,-1.5941133582502602,2.1151392195820806
1789881468274139000,0.234138916015625,-3.040200055068731,-1.2033370941191912,1.7471616472363471
1789881468284153900,0.24415380859375,-4.040449694791436,-0.45447687514722346,0.03084697368443012
1789881468294168800,0.2541689453125,-4.767932779213786,0.7827332624793052,-2.48213596419692
1789881468304184000,0.26418408203125,-5.094710326164961,2.125719065785408,-4.846197337633371
1789881468314199000,0.274198974609375,-4.533004663920402,2.997887099996209,-6.720234721723198
1789881468324214000,0.284214111328125,-3.7106542613238096,3.4764205580353735,-7.4743158902138465
1789881468334229000,0.29422900390625,-3.189092977941036,3.638703123834729,-7.295244102177024
1789881468344244000,0.304243896484375,-2.9779794534772632,3.4566757008627054,-6.704188426807522
1789881468354259000,0.314259033203125,-3.3554484922677275,3.2391473409205673,-5.434058016353846
1789881468364273000,0.32427294921875,-3.5959535309106108,2.6474738259136674,-3.334983211866021
1789881468374288000,0.334287841796875,-3.070404054674506,2.039665460924804,-1.4303572127670048
1789881468384302800,0.344302734375,-2.270115261760354,1.8974580071657894,-0.48596565386652946
1789881468394317800,0.35431787109375,-0.9483131162583828,1.7211217815726993,-0.6498275978118181
1789881468404332800,0.364332763671875,1.0289625239878892,1.813209405900538,-1.0936638364791869
1789881468414347800,0.37434765625,2.401684124866128,1.8156462776586413,-0.5666062937676907
1789881468424363000,0.384363037109375,3.844066121947765,1.276341247792542,0.5261147089034318
1789881468434378000,0.3943779296875,4.5212277168869965,0.8690197993129491,1.896992727741599
1789881468444393000,0.40439306640625,3.5255320872068405,0.17313626050800085,2.9202707763522864
1789881468454408000,0.414407958984375,2.0239751398399473,-0.6358326824679971,4.18000020430088
1789881468464423000,0.4244228515625,-0.7414332838416099,-0.6331786608278751,5.339839517477154
1789881468474438000,0.43443798828125,-5.256866050714254,-0.6133692139863968,5.595339296156168
1789881468484452900,0.444452880859375,-6.525480795907974,-0.2928054269835353,5.526007401254772
1789881468494468000,0.454468017578125,-4.247205024045705,0.2000347888275981,5.3525908625006675
1789881468504483000,0.464483154296875,-1.649945281717926,-0.6027328152902424,4.676490174791216
1789881468514498000,0.474498046875,0.7278526483871043,-2.067745746374875,4.303457657143474
1789881468524512000,0.484511962890625,3.0681670894026754,1.2650631901919842,5.377492079523205
1789881468534527000,0.49452685546875,5.430483080476522,1.550679582454264,4.8968970127791165
1789881468544542000,0.5045419921875,1.642605878740549,-1.3365467101693154,3.221193166556954
1789881468554557000,0.514556884765625,-0.28862258834093807,-0.188846747598052,2.507161099860072
1789881468564572000,0.524572021484375,-0.982054350079596,1.100176579374075,0.17223112836182117
1789881468574587000,0.5345869140625,-1.7394497576847672,1.7435358579546212,-2.135225145277381
1789881468584601900,0.544601806640625,-1.8003062313161788,2.4100234986662863,-3.1623645454913376
1789881468594616800,0.554616943359375,-1.363990889672935,2.2913176242649556,-3.641867725345492
1789881468604631800,0.5646318359375,-0.6068482877850532,1.9851430126205085,-2.987306669270992
1789881468614646800,0.574646728515625,-0.2751227630376816,0.49606443855464455,-2.1533090835005044
1789881468624662000,0.584662109375,-1.576959394353628,2.486974636399746,-0.11118658481240272
1789881468634677000,0.594677001953125,0.7678019430682063,2.955922812230885,0.8218453756839037
1789881468644692000,0.60469189453125,1.3346332777634262,-0.16862667412906884,0.0012017770051956176
1789881468654707000,0.61470703125,1.645324051658064,-1.3124573940515518,0.46818858963549137
1789881468664722000,0.624721923828125,2.463749243634939,-1.6900301854774356,1.2547183217883109
1789881468674737000,0.63473681640625,3.090719112950563,-1.9377941092073916,1.3427099089741705
1789881468684752000,0.644751953125,3.6884640568256377,-1.4578279880166052,1.8051807054847477
1789881468694766000,0.65476611328125,3.8613504342257974,-0.5221431749239563,2.801898663949966
1789881468704781000,0.664781005859375,3.3542484688282013,0.6325041225671768,4.0535155125916
1789881468714782200,0.6747822265625,1.3812825084745883,1.2933321300819516,4.894899701482057
1789881468724797200,0.684797119140625,-1.2312182037353514,1.7650854264616964,4.919107091021537
1789881468734812200,0.694812255859375,-3.281002030831575,1.9902865129888057,4.26595823983252
1789881468744827400,0.704827392578125,-4.450190771633387,1.542046486404538,3.470475385895371
1789881468754842400,0.71484228515625,-4.249479983240366,0.7122855152904987,3.3470746316760778
1789881468764857300,0.724857421875,-3.9963948644876477,-0.47352059831321236,3.5295430764138698
1789881468774872300,0.734872314453125,-3.1128993805766103,-1.0245639967679976,3.660565996074676
1789881468784887300,0.74488720703125,-2.1386942826926707,-0.8906921174168586,2.680114112755656
1789881468794902000,0.754902099609375,-0.9749624921225011,0.858245891842246,0.625478169453144
1789881468804917000,0.7649169921875,1.1393597119882701,0.8711036198496818,0.11561696847528219
1789881468814932200,0.77493212890625,1.7318648555137217,0.13215864569246769,-0.03871785319000482
1789881468824947200,0.784947265625,2.0770530884243548,0.589114478173852,0.5167535908401012
1789881468834962200,0.794962158203125,0.7717210162080824,2.827083958610892,1.8852669263735413
1789881468844977200,0.80497705078125,-2.432330023020506,4.019920116981864,1.670970680220425
1789881468854992100,0.8149921875,-2.742276262158155,3.8745191278785467,0.6869174114085733
1789881468865007000,0.825007080078125,-1.3975228646576403,3.54455593662858,0.2311260926619172
1789881468875021300,0.835021240234375,-1.3425053263127804,4.750876430472731,0.6856105665937066
1789881468885036300,0.845036376953125,-2.7221371449708935,4.595540322810411,0.35640608475655317
1789881468895051300,0.85505126953125,-2.0634324132204056,4.289467710235715,0.28502836324125524
1789881468905066200,0.865066162109375,-1.1662848360538483,4.593420261916518,-0.19321210320070384
1789881468915081200,0.875081298828125,-0.7581915264189243,3.4946114637643095,-1.5161393072098492
1789881468925096200,0.88509619140625,-0.4801928791513666,2.777566186726093,-1.5614853463679552
1789881468935111200,0.895111083984375,1.2629051353752612,-1.3045225093990565,-2.892327122893929
1789881468945126400,0.90512646484375,1.3127894024848936,-4.7882636195808645,-1.889223262783885
1789881468955141400,0.915141357421875,-0.7060165180236101,-7.336688457721471,2.0963792817935345
1789881468965156400,0.92515625,0.26222000857843086,-13.838373367500305,3.441601758110523
1789881468975171000,0.935171142578125,0.789770321509242,-18.998847082430125,4.330897452732921
1789881468985186000,0.94518603515625,1.6587363448083399,-22.273978175401687,5.982299216869473
1789881468995201000,0.955200927734375,2.34686766205132,-23.695977309668063,5.40763996502757
1789881469005216000,0.965216064453125,1.688885983878374,-20.85742444705963,4.78070049085021
1789881469015231200,0.975231201171875,-5.857566921785473,-15.256533361995219,2.4921017701551316
1789881469025246200,0.98524609375,-12.69004036772251,-9.000207360631228,-0.5302043163046241
1789881469035261200,0.99526123046875,-4.827372810176015,-3.9399060845464464,0.3729965695515275
1789881469045276200,1.005276123046875,-2.067239988809824,-0.6397615463495254,-0.5488815442457795
1789881469055290000,1.0152900390625,-0.24441428450848907,1.4841992775917052,-1.420216927024722
1789881469065305300,1.025305419921875,0.920406945266202,2.512878892984986,-1.8265598858609795
1789881469075320300,1.0353203125,1.4292612342238424,3.635982174438238,-2.1040636988162995
1789881469085335300,1.045335205078125,0.7966121502280235,4.80190577596426,-2.267996077649295
1789881469095350300,1.055350341796875,-0.6131178695738315,5.16420062649846,-1.9214172671630978
1789881469105365200,1.065365234375,-0.8658101896166801,3.519727200320363,-1.0677861756399274
1789881469115380200,1.075380126953125,0.24620171591453252,1.5332833342343568,-0.4308943395078182
1789881469125395200,1.085395263671875,1.4799240844905375,0.039434184765815734,-0.08992752368450165
1789881469135410400,1.095410400390625,2.4592554393470287,-1.3509814782351255,0.5103785028502345
1789881469145425400,1.10542529296875,2.6721418187022206,-2.4066531454503535,0.5273325602605938
1789881469155440000,1.115440185546875,2.048866127729416,-2.8023493303269147,0.20049568433761594
1789881469165455000,1.125455078125,0.9993746835190802,-2.7066356244564056,-0.5772219419367611
1789881469175470000,1.135469970703125,-0.1493803410630673,-2.3538018452286718,-1.5438022440306842
1789881469185485000,1.145485107421875,-0.7744166119676082,-1.6167250030308962,-2.220123881014436
1789881469195500000,1.1555,-0.8342658813178538,-0.7226239539533853,-2.4441850037261843
1789881469205515300,1.165515380859375,-0.511909146483615,0.26597733355164527,-2.190299820636958
1789881469215530200,1.1755302734375,-0.12187873228378593,1.167479014274478,-1.6925222945541143
1789881469225545200,1.185545166015625,0.12722710757441819,2.10044492379725,-1.1268621955953537
1789881469235559200,1.19555908203125,0.2836650389987975,2.9886469779640437,-0.5767059552386403
1789881469245574100,1.20557421875,0.5015864168465137,3.63911170463562,-0.04886208445504307
1789881469255589000,1.215589111328125,0.7605670964438468,4.090532699343562,0.45687078454643487
1789881469265604400,1.225604248046875,0.9192215348739177,4.129427370405197,0.7487372501794248
1789881469275619300,1.235619384765625,1.053876454361528,4.333431355124712,0.9761036980468779
1789881469285634300,1.24563427734375,1.0891560767311603,4.667087555673718,1.0589979620937258
1789881469295649300,1.255649169921875,0.9834148978430777,4.841177463644743,0.7267562314525247
1789881469305664300,1.265664306640625,0.8257729243911802,4.788945172104239,0.14384279987588525
1789881469315679200,1.27567919921875,0.6393114644944667,4.451038328373432,-0.41256329465582964
1789881469325694200,1.285694091796875,0.044271687924861906,4.031904569286108,-0.9809206698745488
1789881469335709200,1.295709228515625,-1.0318248546164481,3.5850270632266996,-1.6250807434439658
1789881469345724200,1.30572412109375,-2.075311067062616,2.961732083031535,-2.3656034883119164
1789881469355739100,1.3157392578125,-2.9462334851264953,2.1541461188465356,-3.075070292919874
1789881469365754000,1.325754150390625,-3.3241339010715483,1.284020988640189,-3.5437545571178197
1789881469375769000,1.33576904296875,-3.2343665363848206,0.460011128398776,-3.955425725239515
1789881469385784000,1.3457841796875,-2.607721661239862,-0.28893852242231366,-4.589766415584087
1789881469395799000,1.355799072265625,-1.8817934050440788,-0.8110147695899009,-5.532342449495196
1789881469405814300,1.365814208984375,-1.1022153917253017,-1.09330377099514,-6.319772345358133
1789881469415828200,1.375828125,0.13309448350416495,-1.7975439269959925,-5.636036048203707
1789881469425843200,1.38584326171875,-0.23347090222239492,-4.282188659143448,-3.1202330844655632
1789881469435858200,1.395858154296875,-1.494755742919445,-7.630749145463109,1.3515002414122224
1789881469445873200,1.405873046875,0.231958141305577,-9.015484424740075,5.910574289351701
1789881469455888400,1.415888427734375,1.2807868290245532,-9.439561485448479,7.984229405900836
1789881469465903400,1.4259033203125,-1.913829880774021,-9.109600632286071,8.754800521421432
1789881469475918300,1.43591845703125,-4.303479284453392,-3.914062033715844,8.286592642563582
1789881469485933300,1.445933349609375,-0.851220523250103,0.877371448072791,6.3237061776757235
1789881469495948300,1.4559482421875,1.8202806594610212,2.1724685420006513,4.7087134052649136
1789881469505963000,1.465962890625,1.984564043688774,3.3744518834233284,3.82848452193439
1789881469515978000,1.47597802734375,1.8282371714234351,4.294989688527584,3.5789208553060887
1789881469525993200,1.4859931640625,1.732099687182903,4.445063345617056,3.3186966784536835
1789881469536008200,1.49600830078125,1.620494584697485,4.154023467001319,2.764091203603148
1789881469546023200,1.506023193359375,1.6279109984338282,3.5203070460349317,2.6474650580853223
1789881469556038100,1.5160380859375,1.755365996479988,2.7461218316704032,3.1723458412796255
1789881469566053000,1.52605322265625,1.9916683227360248,1.7403426148712633,3.6243969505846496
1789881469576068000,1.536068115234375,2.365392914301157,0.7129343345880508,3.836434311895072
1789881469586083000,1.5460830078125,2.65711142283082,0.05500584790706634,3.722648650500178
1789881469596098300,1.556098388671875,2.7977099800884724,-0.41790509407520293,3.2858769433915613
1789881469606112300,1.5661123046875,2.787596582353115,-0.7928571816086769,2.6161533894985913
1789881469616127200,1.576127197265625,2.7105484139859675,-0.794565154570341,1.6222627634137867
1789881469626142200,1.58614208984375,2.586511699950695,-0.5636006822109222,0.7188271920189261
1789881469636157200,1.5961572265625,2.549172441637516,-0.2536450907230377,0.03723550567775964
1789881469646172200,1.606172119140625,2.885166145223379,0.23851532613039014,-0.4608148459970951
1789881469656187400,1.6161875,3.2973277272105217,0.2304611990123987,-1.3688503124028444
1789881469666202400,1.626202392578125,4.014841206282377,0.09177402833402157,-2.1401140863627193
1789881469676217300,1.63621728515625,4.590065690791606,-0.15847791281938553,-3.0595114892601964
1789881469686232000,1.646232177734375,4.534794469946623,-0.5471463910162448,-3.7440485814034936
1789881469696247000,1.6562470703125,4.0698891397655,-0.9624451019853353,-3.7709143764972683
1789881469706262000,1.666261962890625,3.9223271732360123,-1.4329501518696546,-3.458053418956697
1789881469716278000,1.676278076171875,4.3257314482718705,-1.8492863891929388,-2.5614786732420325
1789881469726293000,1.68629296875,4.351406572276353,-2.3395149612009525,-2.8883599728286264
1789881469736308200,1.69630810546875,2.1170463683776557,-3.2325486733078956,-4.740322010971606
1789881469746323200,1.7063232421875,-0.11638473797738551,-3.417819315984845,-4.934514503511786
1789881469756338000,1.716337890625,-1.6692705983042715,-2.922444028738141,-4.888399233546853
1789881469766353000,1.726352783203125,-3.313830241461098,-2.8648528405129907,-4.653116021205484
1789881469776367900,1.736367919921875,-4.722693123039603,-2.980053921663761,-4.788421732752025
1789881469786382800,1.7463828125,-5.977290448796749,-2.5305086576998232,-4.672321656934916
1789881469796397800,1.756397705078125,-9.283127645677327,-1.79844350618422,-3.448657229579985
1789881469806412000,1.766412109375,-14.59689807139635,-0.8309802837759256,-1.200204056790471
1789881469816427000,1.776427001953125,-9.65750573271513,-1.502263926592469,-2.944333204463124
1789881469826442000,1.78644189453125,-4.693099948808551,-1.8995143551737068,-4.781884147676825
1789881469836457000,1.79645703125,-4.69444493367672,-1.9280057056427,-3.391188206429779
1789881469846472000,1.806471923828125,-6.528625523674488,-2.5051789861321447,-1.0061021651431918
1789881469856487000,1.81648681640625,-7.443650702837109,-3.5384956136763095,0.02023760912567377
1789881469866502100,1.826502197265625,-6.469305319699645,-3.9134704975634813,-1.0047408136621117
1789881469876517000,1.83651708984375,-5.905221822407841,-3.724348440155387,-2.5962214853212235
1789881469886532000,1.846531982421875,-4.189918956246972,-3.2603415201187134,-4.339369805262983
1789881469896547000,1.856547119140625,-2.9829794537216423,-3.067684858843684,-5.499021779173613
1789881469906562000,1.86656201171875,-3.1694422287926076,-2.7675691088467835,-6.455486053183675
1789881469916577000,1.876576904296875,-5.192686716270447,-2.6356267362534997,-7.75310945071876
1789881469926592000,1.886592041015625,-7.704540942382812,-3.1264655491143465,-9.42224970064163
1789881469936607000,1.89660693359375,-5.443471741387247,-4.168707241392135,-10.2480587192595
1789881469946622000,1.9066220703125,-3.241860399271548,-5.401235943204164,-10.67669446618557
1789881469956637000,1.916636962890625,-3.4083480155453083,-6.261181624701619,-10.753169803100823
1789881469966652000,1.92665185546875,-4.957315533384681,-6.730532243853807,-9.253911488065123
1789881469976667000,1.9366669921875,-6.782419082957506,-6.618554216402769,-5.288071920838952
1789881469986681900,1.946681884765625,-5.517251847869158,-6.697098176285624,-2.426210663357377
1789881469996696800,1.95669677734375,-3.1197938162654637,-7.297717798814177,-0.9128177322462201
1789881470006711000,1.9667109375,-0.21276947497725485,-7.833496408119797,0.8937348461136221
1789881470016726000,1.97672607421875,2.2370921130806205,-8.205625839447976,2.784846991384029
1789881470026741000,1.986740966796875,3.4852404088288544,-8.488378366711736,5.013401577743887
1789881470036756000,1.996755859375,5.087132584387064,-9.065240097033977,7.281678518161177
1789881470046771000,2.00677099609375,6.4174149734646075,-9.484870115205645,8.88888107508719
1789881470056786200,2.0167861328125,6.392467579212784,-9.081856885313988,9.838305367457867
1789881470066801200,2.02680126953125,5.082057180818915,-8.026962047690153,9.630597852045296
1789881470076816100,2.036816162109375,3.4282495245844125,-6.5510571357131,8.852274222701787
1789881470086831000,2.0468310546875,0.798220754468441,-4.7699137238979334,7.5228154249668115
1789881470096846000,2.05684619140625,-3.3984278022944925,-2.4722885239213706,5.6545531171470875
1789881470106860800,2.06686083984375,-2.104340762192011,-0.7562140888661145,4.384622028657794
1789881470116875800,2.076875732421875,1.2202853793758899,0.058097968703508376,4.622554878725111
1789881470126891000,2.08689111328125,3.4478751392915843,0.7266781977802514,5.3657718311131
1789881470136906000,2.096906005859375,5.594857650119066,1.5864724881082772,5.81296322542727
1789881470146921000,2.1069208984375,6.407289300769567,2.41988204485774,5.252104535400867
1789881470156936000,2.11693603515625,5.57539774736762,3.2482576990932226,3.8618636444449423
1789881470166951000,2.126950927734375,3.386584219765663,3.844125743180513,2.4920532548382877
1789881470176966000,2.1369658203125,0.6533598635911941,4.196354542252421,0.5849990787442774
1789881470186980900,2.14698095703125,1.1140447995983063,4.500654884457588,-0.3511966795451939
1789881470196995000,2.1569951171875,2.85281607349962,4.971704708743095,-0.8384043693620711
1789881470207010000,2.167010009765625,3.991228860026598,5.3334501087009905,-1.0428383429966865
1789881470217025000,2.17702490234375,5.10099744361043,5.633818372154235,-0.28870127960033715
1789881470227040000,2.1870400390625,5.662343040370941,5.872714806556702,1.1328488687895237
1789881470237055000,2.197054931640625,6.136077573695778,5.521233610981702,2.6820859973505136
1789881470247070000,2.207070068359375,6.666710052284598,4.7763966561764475,3.741232939460873
1789881470257085200,2.217085205078125,6.977488650593161,4.578905414351821,4.58750373134911
1789881470267100200,2.22710009765625,6.932229705196619,4.847368719500303,5.45935729278326
1789881470277115100,2.237115234375,6.644400020799041,5.515817431151866,6.108409814569353
1789881470287129900,2.2471298828125,6.187208625996113,6.41659079760015,6.389251539775729
1789881470297144800,2.257144775390625,5.741932709914446,7.2965750585198395,6.824865309020876
1789881470307159800,2.267159912109375,5.284676433181763,7.993025291296839,7.2143421809911725
1789881470317174800,2.2771748046875,4.622784595827758,8.454160455289482,7.476457578417659
1789881470327190000,2.28718994140625,3.3636756378650663,8.744009078294038,7.852310998705029
1789881470337205000,2.297205078125,1.0749432077877223,8.518997961381077,8.292365965268015
1789881470347220000,2.307219970703125,-2.8262837481439114,7.1840487495362755,8.021271142572164
1789881470357235000,2.31723486328125,-9.430990640980005,4.157027324992418,5.692229644590616
1789881470367250000,2.32725,-15.68117682441473,0.2488087566077709,1.6387188081741333
1789881470377265000,2.337264892578125,-16.00949107941389,-4.094086007910967,-3.4754017363816496
1789881470387279000,2.347279052734375,-11.041989083057642,-7.732226237165928,-7.274573070070147
1789881470397294000,2.357294189453125,-3.9334208141803737,-9.934408949428796,-8.268727315527201
1789881470407309000,2.36730908203125,-2.883386860591173,-11.129252355968951,-8.097197028911113
1789881470417324000,2.377323974609375,-4.658381102126836,-11.037061563527583,-7.893774643471836
1789881470427339000,2.387339111328125,-4.880044662177562,-9.277645999395848,-7.535440513262152
1789881470437354000,2.39735400390625,-3.3149837954103947,-5.252354126247764,-5.196766094538569
1789881470447369200,2.407369140625,1.1668904007315635,-0.35657881097495553,-0.3589924479879439
1789881470457384200,2.41738427734375,3.2487516200900077,2.958768557050824,2.752726052241027
1789881470467399000,2.42739892578125,2.9444460171878335,4.677579139071702,4.458764830972254
1789881470477414000,2.437413818359375,2.386122398597002,3.473020978724956,5.771781320211291
1789881470487428900,2.447428955078125,1.5970435664832592,-0.5793021092116832,6.977701416561007
1789881470497443800,2.45744384765625,-1.4311679446280001,-7.047643552315234,7.456665667232871
1789881470507458800,2.467458740234375,3.481813356989622,-8.463760058283805,7.446660990568995
1789881470517474000,2.47747412109375,2.852383235040307,-8.37588888260722,6.247744635501504
1789881470527489000,2.487489013671875,2.3673580768942832,-7.232123336875438,4.114505403344333
1789881470537504000,2.49750390625,2.790772874301672,-5.0304029814273115,2.386971855033189
1789881470547519000,2.50751904296875,2.934553568726778,-2.002490161001682,1.9995916630811987
1789881470557534000,2.517533935546875,2.8509833051145077,0.6701198597341775,2.3278617866776883
1789881470567549000,2.527548828125,2.4730899034321308,2.6070535527199503,2.2994427707925436
1789881470577563100,2.537563232421875,1.6744646598160267,3.9847167016535994,2.5419053732439876
1789881470587578000,2.547578125,1.3549579806506633,5.02315081834197,2.1323001977413893
1789881470597593000,2.557593017578125,1.2262532748043535,5.480698186975717,1.4776453259035944
1789881470607608000,2.567608154296875,1.3421803321421146,5.206799997296929,1.1818830949410795
1789881470617623000,2.577623046875,1.610087756973505,3.922234234255552,1.469655350062996
1789881470627638000,2.587637939453125,2.0113316391050815,2.3066572322160006,1.9944100226595998
1789881470637653000,2.597653076171875,2.42467512435317,1.0263076255649328,2.4188659996829927
1789881470647668000,2.60766796875,2.7589959262907504,0.20755378615558145,2.6206962936252354
1789881470657683000,2.617682861328125,2.8402690188765525,-0.28825404728949067,2.609967686600983
1789881470667698000,2.627697998046875,3.152865480262041,-0.9301216260075569,2.0168848893180487
1789881470677713000,2.637712890625,3.624334991264343,-1.2313035439312456,1.4436543551050125
1789881470687727900,2.647727783203125,3.3846786784052845,-0.9870616568475961,1.0888825935520232
1789881470697742800,2.657742919921875,3.588853343516588,-0.3402607133805752,0.7633911408886312
1789881470707757800,2.6677578125,3.4187621497929093,0.40437575041651724,0.2214405649498105
1789881470717772300,2.677772216796875,2.8457927507340908,1.200588087671995,-0.021997896796464918
1789881470727787300,2.687787353515625,2.5898101569741963,1.5601403614997862,-0.3281574570022523
1789881470737802200,2.69780224609375,2.6015333279937503,1.7802169446200131,-0.07467384045124054
1789881470747817200,2.707817138671875,2.5684552342563864,1.878290365359187,0.6035580140680075
1789881470757831200,2.7178310546875,2.2773142333537337,1.4252648580640555,0.31597309821173547
1789881470767846100,2.72784619140625,1.4376801030009985,0.2800987978845835,-2.1081445383891464
1789881470777861000,2.737861083984375,1.2059697807103396,-0.5304360792338848,-2.7569161974072456
1789881470787876000,2.7478759765625,1.2561914630807935,-1.0448632729530334,-2.978791062121093
1789881470797891000,2.75789111328125,0.9781618726857007,-1.449969675731659,-3.637994683304429
1789881470807906000,2.767906005859375,0.8622131880380213,-1.9173498715937136,-4.003209512938559
1789881470817921300,2.77792138671875,0.9081009328573941,-2.269961532503366,-3.9189404534071683
1789881470827936300,2.787936279296875,0.7784592384219169,-2.6398668580412865,-3.7680736001133917
1789881470837951200,2.797951171875,0.6030746144652366,-2.9638386999219652,-3.867330093157291
1789881470847966200,2.80796630859375,-0.03298720058351755,-3.140658325117826,-3.762558636084199
1789881470857981200,2.817981201171875,-1.1299310816466808,-3.338897754961252,-3.82224621206671
1789881470867996200,2.82799609375,-2.9114617392137645,-3.850293033638596,-4.1490895177304745
1789881470878011100,2.83801123046875,-10.423935510647297,-4.609326856100559,-5.401076953250169
1789881470888026000,2.848026123046875,-16.32210507645607,-4.261976476719975,-5.250557890480756
1789881470898041300,2.858041259765625,-18.010876494044066,-4.1132261771887535,-5.379854717001319
1789881470908056300,2.868056396484375,-13.051846557956933,-4.309788613730669,-5.767961469662189
1789881470918071300,2.8780712890625,-4.694475621075928,-4.028494468581676,-6.061667352616786
1789881470928085000,2.8880849609375,-1.555687473744154,-3.9821185018539427,-5.919689323699474
1789881470938100200,2.898100341796875,-2.183274890436232,-3.6225463542819023,-6.184876383656263
1789881470948115200,2.908115234375,-0.6935451589852571,-1.6659680496275424,-6.510759027594328
1789881470958130200,2.918130126953125,0.21262772841900585,-0.2729121012508869,-6.7952516765236854
1789881470968145200,2.928145263671875,-0.7930512428760528,0.2753004576921463,-7.5884490498721595
1789881470978160000,2.93816015625,-2.519973235160112,-0.22584932130277155,-8.814422923213243
1789881470988175000,2.948175048828125,-6.083102939355373,-2.109856895264983,-11.278730969774722
1789881470998190000,2.958190185546875,-9.316365898412466,-4.195041706088185,-13.507014922499655
1789881471008205000,2.968205078125,-7.814445670691132,-5.591509508734942,-12.714867350465058
1789881471018220300,2.97822021484375,-4.650472520959377,-6.098786830699443,-10.059795909029244
1789881471028235300,2.9882353515625,-1.89028139353469,-5.942257713860273,-7.5463535369426005
1789881471038250200,2.998250244140625,0.25063641042634843,-5.795779450914264,-5.869798042327165
1789881471048265200,3.00826513671875,1.965253778541088,-6.166130766654014,-4.069164624883234
1789881471058280200,3.0182802734375,3.295083747676015,-6.494983366313576,-2.0901319118365644
1789881471068295200,3.028295166015625,3.6877953637838363,-6.9340931609809395,0.2649820389039814
1789881471078310100,3.03831005859375,3.819353120973706,-7.6310770622432225,2.9951725803405043
1789881471088325400,3.048325439453125,4.020236343324184,-8.328252686685323,5.577258280542493
1789881471098339300,3.05833935546875,4.9714650547683235,-9.378422249352932,7.9578709758073085
1789881471108354000,3.06835400390625,6.36198184005618,-9.762512167587875,9.09076499891281
1789881471118369000,3.078369140625,7.0386477604329585,-9.66725789592266,9.776985514098405
1789881471128384000,3.088384033203125,6.812966196912527,-8.749033628457784,8.734173328456283
1789881471138399200,3.098399169921875,5.393883826875686,-7.062406821683049,7.111513674679398
1789881471148414200,3.108414306640625,-4.532304406696558,-4.893277068716287,3.645458151052892
1789881471158429200,3.11842919921875,-8.088710940116643,-2.51958628166914,1.4833150421030818
1789881471168444200,3.128444091796875,-0.07956979579925537,-1.0286451286017895,2.6192171609833834
1789881471178459100,3.138459228515625,3.3261925871670246,-0.19434943666756152,3.0732860398516055
1789881471188474000,3.14847412109375,4.2196576764285565,0.6580909837663174,3.8346974050998686
1789881471198489000,3.158489013671875,4.103967934978008,1.833125527986884,4.496128931465745
1789881471208504300,3.16850439453125,4.235221156263351,3.0740602390944956,4.656237368096411
1789881471218519300,3.178519287109375,4.166267447024584,4.259101798066497,3.874704713578522
1789881471228534300,3.1885341796875,4.009628732331097,5.10685259937942,2.8508824750885364
1789881471238549200,3.19854931640625,3.7638381545007227,5.742592050606012,2.3713056454762813
1789881471248564200,3.208564208984375,4.1883842940255995,6.423589278185367,2.0010455151513216
1789881471258578200,3.218578125,4.904863461613655,6.966597838744521,1.5270203283168375
1789881471268593400,3.228593505859375,5.36948237606883,7.162838203725219,1.680948468877375
1789881471278608100,3.238608154296875,5.735379050487279,6.856416631582379,2.927012651827931
1789881471288623000,3.248623046875,6.280878843340277,6.075785309818387,4.6831838272109625
1789881471298638000,3.25863818359375,6.892159560614824,5.299615059116483,5.951511864417791
1789881471308653000,3.268653076171875,7.23141022017002,5.114009485396743,6.786015061622858
1789881471318668000,3.27866796875,6.90535280418694,5.361510666537285,7.0440113332927226
1789881471328683300,3.288683349609375,6.221364578098059,5.909807981154322,7.209701661708951
1789881471338698200,3.2986982421875,5.744708019846677,6.672463501244783,7.291654553252458
1789881471348713200,3.308713134765625,5.551309600293636,7.391456405219436,7.268460724669694
1789881471358728200,3.318728271484375,5.31894110635519,7.631760368332267,7.162722468391061
1789881471368743200,3.3287431640625,4.64265278711915,7.615709981763362,7.2254516040265555
1789881471378758100,3.338758056640625,3.3046424341380596,6.899726196476816,6.958665876701474
1789881471388773000,3.348773193359375,0.23618907513990997,5.1531408878237,6.051859075307846
1789881471398788000,3.3587880859375,-8.20854494176507,2.537050042167306,3.727247960989177
1789881471408802300,3.36880224609375,-17.843567624515295,-1.6881781278699635,-0.038673301662225275
1789881471418817300,3.3788173828125,-18.944070367103812,-6.185277365672588,-4.238620443312824
1789881471428832300,3.388832275390625,-14.564085350596903,-9.69409329587817,-7.372697344213724
1789881471438847200,3.39884716796875,-4.976966574794054,-11.433470280587672,-7.571328403723239
1789881471448862200,3.4088623046875,1.068463928771019,-11.74211186686754,-7.242768649530411
1789881471458877200,3.418877197265625,-1.6200585313677787,-11.82154371550083,-8.393214111417532
1789881471468892200,3.42889208984375,-4.384145643317699,-9.947883348029851,-8.657078982859849
1789881471478907100,3.4389072265625,-4.938990187621116,-4.725332823893428,-6.08935615453124
1789881471488922000,3.448922119140625,-2.324858659338951,0.34392391206324097,-2.0225831009596584
1789881471498937000,3.45893701171875,2.1789736861109734,3.1473768197178837,1.7839336270555852
1789881471508952000,3.4689521484375,2.97431157861948,3.7939024533748626,4.471459477372467
1789881471518967000,3.478967041015625,1.6281939070284366,1.919769792217016,6.691225484859943
1789881471528982300,3.488982177734375,-9.450819961565733,-1.934699065801501,11.465848117101192
1789881471538997200,3.498997314453125,-8.06984257351756,-7.144830253347754,10.854975980627536
1789881471549012200,3.50901220703125,4.501526991117,-7.1252967008382075,6.731091631302237
1789881471559027200,3.519027099609375,3.40260947189331,-5.92536503124833,4.631143551111221
1789881471569041200,3.529041259765625,3.2759085070848464,-4.337808255034685,3.011547961080074
1789881471579056400,3.539056396484375,3.702734574240446,-1.654491546845436,2.4134768539905544
1789881471589071400,3.5490712890625,3.57877852422595,0.6310276202738284,2.5973893600568174
1789881471599086300,3.55908642578125,3.4598049387991425,2.021476601022482,3.1467002356305716
1789881471609101300,3.569101318359375,3.285349704647064,3.158859752240777,3.5380002313748
1789881471619116300,3.5791162109375,2.9067431862592694,3.707611824887991,3.475705103242397
1789881471629131300,3.58913134765625,2.7261025414705276,3.9887896501809355,2.9794629700332877
1789881471639146000,3.59914599609375,2.6545745978295803,4.113620729464293,2.248021795634925
1789881471649161200,3.6091611328125,2.6591806303203103,4.021317124298215,1.7129530881643293
1789881471659176200,3.61917626953125,2.8014100036501883,3.368694342809915,1.5203754834748804
1789881471669191200,3.629191162109375,2.998662760543823,2.2480349473774432,1.7342457593008875
1789881471679206100,3.6392060546875,3.2749463840544224,1.2160551213949917,2.022325326806307
1789881471689221000,3.64922119140625,3.3507214637458325,0.41508009978234767,2.0546020410329104
1789881471699236000,3.659236083984375,3.280017695969343,-0.2639437818974256,1.565641735395044
1789881471709251000,3.6692509765625,3.679063775795698,-0.7276251232415437,0.7861525694034993
1789881471719265000,3.67926513671875,4.054239150691032,-1.1473217769086361,-0.13496098976209758
1789881471729280000,3.689280029296875,3.919207579910755,-1.361150405550003,-0.8124345732599496
1789881471739295000,3.699294921875,3.8668367566823956,-1.1807944229215384,-1.0201771599859
1789881471749310000,3.70931005859375,3.8902188013136385,-0.6164917299211025,-1.1152049294188617
1789881471759325000,3.719324951171875,3.9773347747087477,-0.21974399016499518,-0.9704330319993197
1789881471769340200,3.729340087890625,3.8887610037207603,0.08866203379333018,-0.6185765733711421
1789881471779355100,3.739355224609375,3.3106548262953757,0.3172632841527462,-0.6271994402877986
1789881471789370000,3.7493701171875,2.9169594598472117,0.4980564891546964,-0.8779892877101898
1789881471799385000,3.759385009765625,2.5020254905372856,0.2908323733448982,-0.7410046831659972
1789881471809400000,3.769400146484375,1.6005261479020119,-0.2004635356336832,-1.3593755048319696
1789881471819415000,3.7794150390625,0.9404506392549723,-0.6973001276046037,-2.0388390931032596
1789881471829430000,3.789429931640625,0.5039613292843104,-0.9561813654154538,-3.213123257347941
1789881471839445000,3.799445068359375,0.43543797428682446,-1.0381745889693499,-4.252435618175566
1789881471849460200,3.809460205078125,0.4521351343266666,-1.2030980246663092,-4.929170219874382
1789881471859475200,3.81947509765625,0.2340080778390169,-1.3570476464062928,-4.367578247137367
1789881471869489200,3.8294892578125,0.06639174979627133,-1.3440209915727377,-3.9277021442726254
1789881471879504000,3.83950390625,-0.697338706049323,-1.3767629852235317,-3.4010032057404516
1789881471889519000,3.84951904296875,-1.725430876943469,-1.554038537493348,-3.0809310016468165
1789881471899534000,3.8595341796875,-2.751207172110677,-2.006302412766218,-3.041530134628713
1789881471909549000,3.869549072265625,-5.1932408430218695,-3.2587317468345165,-3.279734202852845
1789881471919564000,3.87956396484375,-8.371520750525594,-3.803562262123823,-2.973866172939539
1789881471929579000,3.8895791015625,-10.251199939894676,-3.721839672204852,-2.468173782078922
1789881471939594000,3.899593994140625,-11.25370641863346,-4.204552461755275,-2.9185914449632167
1789881471949609000,3.90960888671875,-13.840076664286851,-4.871469141533971,-4.079527905726432
1789881471959624000,3.9196240234375,-14.184251336240768,-5.552210933047533,-4.776411561484634
1789881471969639200,3.92963916015625,-7.476977802899479,-5.588180656573176,-4.851757602109014
1789881471979654100,3.939654052734375,-2.1745587922781704,-3.9277883612513538,-4.283621906816959
1789881471989669000,3.949669189453125,0.7851847472846507,-2.5640233892887827,-4.962399120259285
1789881471999684000,3.95968408203125,1.1428279726207256,-1.9628245055675506,-6.46950113453269
1789881472009699000,3.969698974609375,0.38565512172505256,-1.391989780449867,-6.9718170346975326
1789881472019713300,3.97971337890625,-0.5176048008419573,-1.8681664462298153,-8.267602695411444
1789881472029728300,3.989728271484375,-4.331394880861044,-3.3827959333986044,-10.859979488003253
1789881472039743200,3.9997431640625,-8.996047902864218,-4.9291918471843,-13.846935444140433
1789881472049758200,4.00975830078125,-6.819239285832643,-5.4723196502089495,-14.153968426179885
1789881472059773000,4.01977294921875,-5.184174908512831,-5.726801776278019,-12.464554034513235
1789881472069788000,4.029787841796875,-3.6525270665258165,-5.2921910465955735,-8.757095354360342
1789881472079803000,4.039802978515625,-1.1221657814074306,-4.829550154215097,-5.833351933461428
1789881472089818000,4.049818115234375,0.9220733441084623,-4.828173020642995,-3.636252808073163
1789881472099833000,4.0598330078125,2.0979349868029353,-5.010086754107475,-1.5645046941891312
1789881472109848000,4.06984814453125,2.9467256525576113,-5.7307981524378055,0.43205863404683764
1789881472119863000,4.079863037109375,2.9961908174723386,-6.610338176721334,2.685288008262217
1789881472129878000,4.0898779296875,2.6327584873408076,-7.402673964804411,4.839508653649688
1789881472139893000,4.09989306640625,2.837086881709099,-8.27464033896327,6.697711924269795
1789881472149908000,4.109907958984375,3.808353588053584,-8.990152999606728,7.908996178001165
1789881472159922200,4.119922119140625,5.563697957223654,-9.006683278647065,8.598751881575584
1789881472169937200,4.129937255859375,6.867822407215833,-8.03112618163228,8.418435061913728
1789881472179952000,4.1399521484375,6.880114902555942,-6.943467138525843,6.273734232282639
1789881472189967000,4.149967041015625,4.553457084840536,-6.2310173725843425,4.256132719127834
1789881472199982000,4.159982177734375,-7.238264323848486,-3.993348920920491,1.0316911452341824
1789881472209997000,4.1699970703125,-5.601407802414894,-1.5672212596714497,1.1277432162135839
1789881472220012300,4.18001220703125,1.4795885689258574,0.10874152974784373,2.494831487379968
1789881472230027000,4.190027099609375,3.662150050395727,1.0417015940517187,3.2326176468908785
1789881472240042000,4.2000419921875,3.746916245794296,1.639248969528079,4.123185553406179
1789881472250057000,4.210056884765625,3.3104432293713093,2.6204829431355,4.9882168676048515
1789881472260072000,4.220072021484375,3.6840018167197703,3.468864443567395,5.2797828159213065
1789881472270087000,4.2300869140625,4.483562295359373,4.4347582247018815,5.107708339425921
1789881472280102000,4.240101806640625,5.0954561760962,5.2901013808399435,4.824693361833691
1789881472290117000,4.2501171875,5.818682772117853,6.14916735689342,4.129442567974329
1789881472300131000,4.260131103515625,6.219480079525709,7.077512036356329,3.322512145088613
1789881472310146000,4.27014599609375,6.198653564596176,7.8062021584808825,2.8694971591874956
1789881472320161000,4.2801611328125,5.6333086690664285,7.934820939609408,3.0365690050899983
1789881472330176000,4.290176025390625,5.41536091466844,7.524338689011335,3.9097795340910553
1789881472340191200,4.300191162109375,5.881832178992033,6.906413711416721,4.879967505288124
1789881472350206200,4.310206298828125,6.232723591980338,6.494227579510212,5.486895872572064
1789881472360221200,4.32022119140625,6.261825183302164,6.540420006364584,6.204794551569223
1789881472370236200,4.330236083984375,6.143789170986413,6.839418735030293,6.780295514932274
1789881472380251100,4.340251220703125,5.848571714425087,7.165700607419014,7.164685877418518
1789881472390266000,4.35026611328125,5.431171647262573,7.514957697203755,7.7341136583477255
1789881472400281000,4.360281005859375,4.901444008558988,7.497909531769156,7.885112029066681
1789881472410296000,4.370296142578125,3.763356508463621,7.172002922433614,7.777902531191706
1789881472420311000,4.38031103515625,0.539130257821083,6.1944561129063365,7.276142511343956
1789881472430325000,4.390324951171875,-8.91420782404542,3.4548289039522406,4.584003029751777
1789881472440340000,4.400340087890625,-18.408234474653003,-0.7736778493642806,-0.047497043179534376
1789881472450355000,4.41035498046875,-19.00823333493471,-5.34779193778634,-5.184537312084436
1789881472460370200,4.4203701171875,-15.083585025274752,-9.087481739458442,-10.24391913523674
1789881472470385200,4.43038525390625,-3.779274208563566,-10.980256557244061,-11.246709691613912
1789881472480400100,4.440400146484375,3.2320085750818253,-12.22136370230913,-9.991133291691542
1789881472490415000,4.4504150390625,0.01190086567401886,-13.213818742632865,-10.904668524557351
1789881472500430000,4.46043017578125,-4.751738600260019,-11.329863775640725,-10.734255843794346
1789881472510445000,4.470445068359375,-6.061404317766428,-7.843283642640709,-6.8707374178797
1789881472520460000,4.4804599609375,-1.197671323442459,-7.233904375073314,-1.801549070984125
1789881472530475300,4.490475341796875,2.2185165919482706,-8.397011750134824,4.102151825466752
1789881472540490200,4.500490234375,-0.2454114971186034,-9.076153120714425,6.650372080945968
1789881472550505200,4.510505126953125,0.4869827219545841,-6.873433817356824,6.704597592130303
1789881472560520200,4.520520263671875,-0.3761164551377296,-2.5088573823839426,6.956879577806592
1789881472570534000,4.530533935546875,-2.9885365033268925,1.715918952232599,7.336600779438019
1789881472580549000,4.540549072265625,0.4278570907037705,5.482753365939855,6.272046717587113
1789881472590564000,4.550564208984375,3.0773066736698147,6.653076079207659,4.19736342703402
1789881472600579000,4.5605791015625,2.065676977276802,7.110299038192629,4.161740617249905
1789881472610594000,4.570593994140625,2.555261990684271,6.803349642783403,4.439315157353878
1789881472620609000,4.580609130859375,3.487083406347036,5.0029070717364545,5.106448694753647
1789881472630624000,4.5906240234375,3.407035471642017,3.0361978336900473,5.7512850601494305
1789881472640639000,4.600638916015625,2.708078224480152,1.665877448734641,5.82085193285048
1789881472650654000,4.610654052734375,2.549316234022379,0.32936405631303783,5.924217030256986
1789881472660669200,4.620669189453125,2.65106863553524,-0.5623562351077794,6.158443719282746
1789881472670684200,4.63068408203125,2.825189815427363,-1.0410820008486508,6.0199675610065455
1789881472680699100,4.64069921875,3.263993612885475,-1.3479250132739544,5.578034525611996
1789881472690714000,4.650714111328125,3.732686644911766,-1.2959867362439632,4.6139229517191644
1789881472700728000,4.66072802734375,4.007866691094637,-0.9317612099081277,3.0856065922424194
1789881472710743300,4.670743408203125,4.071114297646284,-0.6496499031573534,1.7330984889619052
1789881472720758500,4.680758544921875,4.003979620528221,-0.5739701005339622,0.6530591270789504
1789881472730773200,4.690773193359375,4.03734763712287,-0.3684107030659914,-0.1534929640136659
1789881472740788200,4.700788330078125,4.288008451338112,0.0982733272254467,-0.31036826394200323
1789881472750803200,4.71080322265625,4.382193340206146,0.26586510534882546,-0.5064839796297251
1789881472760818200,4.720818115234375,4.576032489264011,0.21113573629558086,-0.5972143441297113
1789881472770833200,4.730833251953125,4.67529979596287,0.18138181854486465,-0.5850634492173791
1789881472780848400,4.740848388671875,4.429411018455029,0.2641442729055881,-0.34255247757956386
1789881472790863400,4.75086328125,3.908599676656723,0.1833136633902788,-0.35448476130515333
1789881472800878300,4.76087841796875,3.864626094895601,0.18962182362377641,-0.503274662194401
1789881472810893300,4.770893310546875,3.7494016328692434,0.1294523093432188,-0.5865140864171088
1789881472820908300,4.780908203125,3.4392134016692637,-0.03782090435028076,-0.2745706821128726
1789881472830923300,4.79092333984375,3.0200925020635125,-0.20227438444793222,0.6735640088386833
1789881472840937500,4.8009375,1.52490362842381,-1.0110340685874224,-0.7536144277617335
1789881472850952400,4.810952392578125,0.1224111586600542,-2.0768980439931153,-3.6205092954963445
1789881472860967400,4.820967529296875,-0.4979651576094329,-2.3426702103614807,-4.015211500899493
1789881472870982400,4.830982421875,-1.2924115081056953,-2.3246879789471624,-3.896396905426681
1789881472880997400,4.840997314453125,-2.578268187740445,-2.342660273489356,-3.943761883191764
1789881472891012400,4.851012451171875,-4.215575375550985,-2.4263977103620764,-4.279905224381387
1789881472901027300,4.86102734375,-7.436420751583576,-2.603384508818388,-4.648663717971742
1789881472911042300,4.871042236328125,-10.527254430824518,-2.3643343451589343,-4.439926274989545
1789881472921057300,4.881057373046875,-9.262244432124495,-2.036241623955965,-3.9243767992421983
1789881472931072300,4.891072265625,-7.9519380786269895,-2.1680057173728944,-3.8382112584397197
1789881472941087200,4.901087158203125,-6.779447373670339,-2.550416304218769,-4.250672992417216
1789881472951102200,4.911102294921875,-6.276108560198545,-2.864137970241904,-4.650042605109513
1789881472961117200,4.9211171875,-9.863227042746542,-3.662328329572081,-4.762211186696589
1789881472971131400,4.93113134765625,-8.86239346565604,-4.067607166308164,-4.913161334359645
1789881472981146400,4.941146484375,-5.069311681014299,-3.5579607771247623,-5.27201685809493
1789881472991161300,4.951161376953125,-2.1655355278670787,-2.953987167993188,-5.579145701724291
1789881473001176300,4.96117626953125,0.4170481849849224,-1.961620974996686,-6.244745453685522
1789881473011191300,4.97119140625,-0.08639014333859085,-1.9498224006533622,-8.292161382606626
1789881473021206300,4.981206298828125,-5.221425904020667,-2.464724226146936,-9.763858321499823
1789881473031221500,4.991221435546875,-5.563004129740595,-3.463677396318316,-10.660161849057674
1789881473041236500,5.001236572265625,-1.9389732359893619,-4.400604026165604,-10.544323639047144
1789881473051251500,5.01125146484375,-0.8773802159011364,-5.147766209048032,-10.930039112657308
1789881473061266400,5.021266357421875,-2.597960730203986,-5.891753269025683,-11.576830119252204
1789881473071281400,5.031281494140625,-5.269344424015284,-5.913275365003943,-10.104999324846267
1789881473081296400,5.04129638671875,-6.56752428638935,-5.54801932657659,-6.734694039708375
1789881473091311000,5.05131103515625,-4.094995523971319,-5.40281064517498,-4.135575663901865
1789881473101325300,5.0613251953125,-0.5717747093815356,-5.495704617449641,-2.1008621262960134
1789881473111340300,5.07134033203125,1.5090595780819653,-5.800642088514566,-0.3011725655734539
1789881473121355300,5.081355224609375,2.9502964967817067,-6.43053924345374,1.341252403642237
1789881473131370200,5.091370361328125,3.5724890686929225,-7.076886013412476,3.3893022465527056
1789881473141385200,5.10138525390625,3.6675206375181673,-7.6002154755115505,5.234933620369434
1789881473151400400,5.111400390625,4.654470650684833,-8.337050325646995,6.996534127324819
1789881473161415400,5.12141552734375,6.381891824662685,-8.758150416371226,8.12993434638679
1789881473171430400,5.131430419921875,6.556347058814763,-8.232635426926612,8.16589062590897
1789881473181445400,5.1414453125,5.262236637836694,-7.2201453143119805,7.422048527359962
1789881473191460400,5.15146044921875,4.4176995378732675,-6.084671211585402,6.135905139738321
1789881473201475300,5.161475341796875,3.8279029226541517,-4.526572585046291,4.959180158212781
1789881473211490300,5.171490234375,0.15712781338468193,-2.106366130539775,3.1041540563240644
1789881473221505300,5.18150537109375,-1.5355189843319355,-0.4945370828568935,1.2118992438245564
1789881473231519200,5.191519287109375,-0.4566458897493779,-0.2170721406072378,1.4010355489537119
1789881473241534200,5.2015341796875,0.5395886691130697,0.5150888724982738,2.4955916580975055
1789881473251549200,5.211549072265625,1.8099089030504225,1.0504325975179671,3.368575684866309
1789881473261564200,5.221564208984375,2.650980957251787,1.5877642814844846,3.885345934580266
1789881473271579400,5.231579345703125,3.024263650268316,2.333012155178189,4.145592907786369
1789881473281594400,5.241594482421875,3.6961201245367525,3.387289153164625,3.9612159990787505
1789881473291609300,5.251609375,4.607216732078791,4.3779508803308005,3.3375860878407955
1789881473301624300,5.261624267578125,5.452789604830741,5.276628735804557,2.65709271813035
1789881473311639300,5.271639404296875,6.103047995275259,6.158370654046535,1.945615304352343
1789881473321654300,5.281654296875,6.1650768736869095,6.9518854227811095,1.4813364355064929
1789881473331669200,5.291669189453125,5.840050554317235,7.391192785847187,1.819457068118453
1789881473341684200,5.301684326171875,5.540361505299806,7.384505855429172,2.9246292638227342
1789881473351698400,5.311698486328125,5.697905352139473,6.743295279315114,4.009278603719174
1789881473361713400,5.32171337890625,6.369728508660197,6.014325755727291,4.980027131408453
1789881473371728400,5.331728271484375,6.87746935648322,5.675089124697447,5.8946893224775785
1789881473381743400,5.341743408203125,6.687723029696941,5.71704493689537,6.640694152018427
1789881473391758300,5.35175830078125,6.149345636069774,6.120070441746711,7.008107660740613
1789881473401773300,5.361773193359375,5.299596938937902,6.751484430989622,7.130055878064036
1789881473411788300,5.371788330078125,4.67218604785651,7.157791441729664,7.228721419477463
1789881473421803300,5.38180322265625,4.116426434534788,7.321217916867137,7.341328392481803
1789881473431818200,5.391818359375,3.0107401518285273,7.189314122718573,7.580752650150656
1789881473441833200,5.401833251953125,0.7444402105726301,6.261465702340007,7.545914561003446
1789881473451848200,5.41184814453125,-4.894566524004936,3.9872172862976787,6.185539231479168
1789881473461863200,5.42186328125,-14.653606047046184,0.3948182329982519,2.5828140144765377
1789881473471878400,5.43187841796875,-17.395684740805624,-3.9796681860923764,-2.176986019425094
1789881473481892400,5.441892333984375,-14.821569581091403,-7.675156442466378,-6.853675808441639
1789881473491907300,5.4519072265625,-6.842489228516817,-9.81379285749197,-8.966181172388792
1789881473501922300,5.46192236328125,0.5441607993341983,-10.461847600412367,-8.8230229937762
1789881473511937300,5.471937255859375,-1.2621592854440211,-11.064398483264446,-9.123705730006098
1789881473521952500,5.481952392578125,-3.2468542620360847,-10.468172127258777,-8.707295842924713
1789881473531967500,5.491967529296875,-3.1036008063554763,-6.586652180707454,-7.124942480573058
1789881473541982500,5.501982421875,-1.5598995384812353,-1.5443769751787184,-3.090020024770498
1789881473551997400,5.51199755859375,2.1957786904394627,2.037694745373726,1.2805480518326162
1789881473562012400,5.522012451171875,2.895413982993364,3.5017005452424286,4.080551988077163
1789881473572027400,5.53202734375,1.492030701869726,1.6784668811947105,5.765220646521449
1789881473582042000,5.5420419921875,-6.153142690265178,-2.510076110523939,8.916061342957615
1789881473592057300,5.552057373046875,-9.91953754351139,-8.295967789152265,9.562715571430324
1789881473602072300,5.562072265625,1.5235668268620968,-8.835817593419552,6.890816913834214
1789881473612086300,5.572086181640625,3.2565257612228393,-7.414215934038162,5.693690364792943
1789881473622101200,5.582101318359375,2.2722516892671583,-5.776475615507364,3.662043959672749
1789881473632116200,5.5921162109375,2.7549580490767953,-2.9633892025887962,2.3282955019198357
1789881473642131500,5.60213134765625,2.7296353917717933,-0.19054887534081935,1.966805391897261
1789881473652146400,5.612146484375,2.630859375721216,1.9907535459786652,2.368082445646077
1789881473662161400,5.622161376953125,2.5268869600713253,3.514419157040119,2.93824248637259
1789881473672176400,5.63217626953125,2.152913508311659,4.3075469722837205,3.279237651507556
1789881473682191400,5.64219140625,1.7616227187871931,4.797007482528686,3.388507004521787
1789881473692206300,5.652206298828125,1.6882231360554694,5.077729965269565,3.1052339605152603
1789881473702221300,5.66222119140625,1.7445874128341674,4.861900518199801,2.825606579534709
1789881473712236300,5.672236328125,1.987618755084276,3.9103456435412167,2.762396382384002
1789881473722251800,5.682251708984375,2.475023501843214,2.4870927098214626,2.9195488918185233
1789881473732265700,5.692265625,3.0916473337113857,1.2258417713940142,3.11581877515465
1789881473742280700,5.70228076171875,3.588230243182182,0.46824879539012904,2.902398727314174
1789881473752295700,5.712295654296875,3.676959496992826,-0.031765257573127745,2.0232845272272826
1789881473762310700,5.722310546875,3.7308021463394163,-0.45246378175914287,0.8513004566185176
1789881473772325600,5.73232568359375,4.060768260198832,-0.8334042960524558,-0.07825257572084665
1789881473782340900,5.7423408203125,4.051145860850811,-1.1910989593148231,-0.5566485249854624
1789881473792355800,5.75235595703125,4.734769929802417,-1.0792810908615589,-0.5787482747212052
1789881473802370800,5.762370849609375,5.225221204650402,-0.7493956410229206,-0.46171676327288147
1789881473812385800,5.7723857421875,4.422975432449579,-0.5190104298561811,-0.6377174733012915
1789881473822400800,5.78240087890625,4.286867172348499,-0.06541676728427409,-0.4352916976839304
1789881473832415700,5.792415771484375,4.790449146926402,0.3227127817302942,0.14603124983087182
1789881473842430700,5.8024306640625,5.023916542017459,0.7135247016966343,0.29134295321553944
1789881473852446000,5.812446044921875,3.855096634528041,0.5700824454456568,-0.49678281595706936
1789881473862460000,5.8224599609375,2.0635697758644818,-0.11629355256259441,-2.062819249758124
1789881473872475000,5.832474853515625,1.216910861441493,-0.5399409896820784,-2.874057014448941
1789881473882489900,5.84248974609375,0.4287210871219635,-0.7597574605613946,-2.9534239811524747
1789881473892504800,5.8525048828125,-0.009511924710869788,-0.9908762466996908,-3.071223262102902
1789881473902520000,5.86252001953125,-0.33053324622288344,-1.4129548270672558,-3.2332392859205603
1789881473912534800,5.87253466796875,-0.5815031263872981,-1.6934668819278478,-3.3032153239443898
1789881473922549800,5.8825498046875,-0.5740016647160053,-1.9864444506078958,-3.489433768865466
1789881473932564700,5.892564697265625,-1.6498685632199048,-2.4186878666371108,-3.3195918737277386
1789881473942579700,5.902579833984375,-3.2344229427471753,-3.131220634686947,-3.633196927633881
1789881473952594700,5.9125947265625,-6.066084000015258,-4.007470969775319,-4.089147674725949
1789881473962609700,5.922609619140625,-7.799616934871673,-3.6169583250164985,-3.5816298220038414
1789881473972625000,5.932625,-9.075819943237304,-3.235115308925509,-3.4082392944738267
1789881473982639900,5.942639892578125,-9.334419441497324,-3.273241918224096,-4.1441830409884455
1789881473992653800,5.95265380859375,-9.162759391021728,-3.7592578409731385,-5.216077528730034
1789881474002668800,5.962668701171875,-10.955588564455509,-4.645586502483487,-5.977794891187548
1789881474012683800,5.972683837890625,-8.401584464877843,-5.0820390606403345,-6.292032105517387
1789881474022698800,5.98269873046875,-4.28639955483675,-4.50523753607273,-6.084530341809987
1789881474032714000,5.9927138671875,-1.2605489276379347,-3.257163474604487,-6.257979029268026
1789881474042729000,6.00272900390625,0.046979923970252274,-2.465828972518444,-7.3933730524957175
1789881474052744000,6.012743896484375,0.20654373233020304,-1.4995248570173978,-8.101796047139167
1789881474062759000,6.022759033203125,-1.3303515087909996,-1.2661001320242882,-9.370472751653194
1789881474072774000,6.03277392578125,-5.49415855705142,-2.2139497224241493,-11.322951219773293
1789881474082788900,6.042788818359375,-6.387047307729721,-3.614555355527997,-12.53823068062067
1789881474092803800,6.052803955078125,-4.349060301411152,-4.67629669804573,-12.507319994050263
1789881474102818800,6.06281884765625,-3.9018753368377683,-5.379679944956302,-12.041751816046236
1789881474112832800,6.072832763671875,-4.014083081391454,-5.747151905867457,-9.471053186777233
1789881474122847700,6.08284765625,-3.3055560418516396,-5.478949882003665,-6.035090311336517
1789881474132862700,6.09286279296875,-1.458339444670081,-5.586571467810869,-4.184389086909592
1789881474142877700,6.102877685546875,0.2565553886791691,-5.850799911868572,-2.3401468293637038
1789881474152893000,6.112892822265625,2.1970511945933104,-6.253134511846303,-0.4711392561346292
1789881474162908000,6.122907958984375,3.367814637365937,-6.766866124516725,1.8318913100168108
1789881474172923000,6.1329228515625,3.436669562405348,-7.240203767478466,4.386764885905385
1789881474182937900,6.142937744140625,3.6304303855299946,-7.745045386728644,6.358246745181083
1789881474192952800,6.152952880859375,4.879101243847608,-8.416761575743555,8.352996667319536
1789881474202967800,6.1629677734375,6.353032809925079,-8.582277132114768,9.293857714006304
1789881474212982800,6.172982666015625,6.284290697610378,-8.163705683085322,9.299230639216303
1789881474222998000,6.182998046875,5.7759729266822335,-7.201110358974337,7.966737588351965
1789881474233011700,6.19301171875,5.045969383871555,-5.68828645992279,6.105220078617334
1789881474243026700,6.203026611328125,0.5686918678700924,-3.3523996260911226,4.239934448520839
1789881474253041700,6.213041748046875,-2.5902070473372936,-0.9856786780565977,2.428188539301604
1789881474263056600,6.223056640625,0.3322911958061158,-0.09441314466595649,2.343199933324009
1789881474273071900,6.23307177734375,3.0907156058192253,0.5921306111246347,2.2778727440193296
1789881474283086800,6.2430869140625,4.456646231383085,1.387905726006627,2.6407503628775477
1789881474293101800,6.253101806640625,3.424963927042484,2.3287276097267866,2.973871725897491
1789881474303116800,6.26311669921875,2.7969349040627476,2.962569118377566,2.8204192400246857
1789881474313131800,6.2731318359375,3.5152082615911957,3.8934488692760465,2.8645433361724018
1789881474323146800,6.283146728515625,4.504631971395016,4.797460486993193,2.569010237790644
1789881474333161700,6.29316162109375,4.919010644909739,5.595081522002816,2.089284501226991
1789881474343177000,6.303177001953125,5.389720861977339,6.389926662558317,2.0270161149710417
1789881474353191000,6.31319091796875,5.706486133480071,7.070537521168589,2.109757088152319
1789881474363206000,6.323205810546875,5.772269395989179,7.35631085755825,2.4414995640344914
1789881474373220900,6.333220947265625,5.883419740444421,6.946489701217413,3.385429789033532
1789881474383235800,6.34323583984375,6.342751069885492,6.235850199568271,4.684002450117468
1789881474393250800,6.353250732421875,6.900955446010828,5.600092628163099,5.769703344893455
1789881474403265800,6.363265869140625,7.120102054804563,5.376822801959515,6.60255000706315
1789881474413280800,6.37328076171875,6.878426803338527,5.536993490171432,7.034575980949401
1789881474423295700,6.383295654296875,6.455471440136432,6.049769994074106,7.001543479919433
1789881474433310700,6.393310791015625,6.030566111910343,6.677324385279417,6.867980228126049
1789881474443325700,6.40332568359375,5.558037447243929,7.192011106717586,6.712965607503056
1789881474453340700,6.413340576171875,4.861807579219341,7.449438054066896,6.67746642409861
1789881474463356000,6.42335595703125,3.621806349569559,7.457615515303611,6.678663524928688
1789881474473369900,6.433369873046875,1.3958277511775492,6.584712152555585,6.472044389274716
1789881474483384800,6.443384765625,-4.790803367191553,4.26769310080111,5.12041116913259
1789881474493399800,6.45339990234375,-16.514933002644778,0.4287450525194406,1.8699357939898966
1789881474503414800,6.463414794921875,-20.06601220356226,-4.10025271384716,-2.545185125567019
1789881474513429800,6.4734296875,-17.118712550508974,-8.13040137937665,-6.8676318530797955
1789881474523445000,6.483445068359375,-7.596377504783868,-10.370084677994251,-8.025749749290943
1789881474533460000,6.4934599609375,0.5541126498322934,-10.860867961275577,-7.208624387866259
1789881474543475000,6.503474853515625,-0.6729051065385341,-11.449921064651011,-7.475583133670687
1789881474553490000,6.513489990234375,-3.5961540219187733,-10.689037230408191,-7.861091686531901
1789881474563505000,6.5235048828125,-4.05377737839818,-6.785203745239973,-7.165569089993834
1789881474573520000,6.533519775390625,-2.193978363019228,-2.425876901358366,-3.1384198985412715
1789881474583534600,6.54353466796875,2.2160195144355295,-1.062309497794509,2.32850636819154
1789881474593548800,6.553548828125,1.9274796359419821,-3.4077994417518376,6.224441501325368
1789881474603563800,6.563563720703125,-2.7762895909190175,-7.552250193765759,7.825109688046574
1789881474613578800,6.573578857421875,-3.7730063803404565,-10.020388612270354,7.810604192832112
1789881474623593700,6.58359375,1.1632839006721973,-7.899841980686784,5.09417081246078
1789881474633608700,6.593608642578125,3.069385817542672,-3.6402655508458612,4.286806674332916
1789881474643624000,6.6036240234375,2.3594857360839843,-0.3079559421032667,3.8001594679430126
1789881474653639000,6.613638916015625,2.2392273715436457,2.4242057532757517,3.070047496321797
1789881474663654000,6.62365380859375,2.3031658829689023,4.679164362436532,2.9283152588590977
1789881474673668900,6.6336689453125,2.467151161032915,6.235377321359515,3.574166061994433
1789881474683683800,6.643683837890625,2.4474819994449613,6.556612431752681,4.69933884319812
1789881474693698800,6.65369873046875,2.466033555179834,5.8960226169079535,5.241429412129521
1789881474703713800,6.6637138671875,1.7022142520070076,4.830604631704092,4.497672069254517
1789881474713727700,6.673727783203125,0.936268458199501,3.913388079977035,3.9522903498232362
1789881474723754200,6.683754150390625,0.9798679459512233,3.0964924356549974,4.252069415211677
1789881474733769200,6.693769287109375,1.2176011817932129,1.9366513689130544,4.816476737630367
1789881474743784200,6.7037841796875,1.356112995904684,0.7754840220034122,4.9982081002652645
1789881474753799200,6.713799072265625,1.4802373882234097,-0.044586745223402974,4.755482462963462
1789881474763814100,6.723814208984375,1.6337246531486511,-0.4182715893000364,3.966108739556372
1789881474773829000,6.7338291015625,1.7941583762109279,-0.4903098205506801,2.834150828257203
1789881474783844400,6.74384423828125,1.8709376645088194,-0.38771921464800835,1.870136869519949
1789881474793859300,6.753859375,2.097152311992645,-0.32968378978669644,1.1555983146056532
1789881474803874300,6.763874267578125,2.1911387556791304,-0.25792963617444037,0.8469237028390169
1789881474813889300,6.77388916015625,2.3681506885766983,-0.17285130608677862,0.652370706423372
1789881474823904300,6.783904296875,2.351099016010761,-0.08457388769686222,0.6336217284202575
1789881474833918200,6.793918212890625,2.353876664030552,-0.03797814073860645,0.5104729031354188
1789881474843933200,6.80393310546875,2.6652865459799764,-0.08535831607282161,0.3885816766962409
1789881474853948200,6.8139482421875,3.219808434200287,-0.30094284847080705,0.08279913310930133
1789881474863963100,6.823963134765625,3.624529052531719,-0.6026578503578901,0.21372093048319218
1789881474873978000,6.83397802734375,3.325633784240484,-0.5836147117137909,0.5591147689685225
1789881474883993000,6.8439931640625,3.7196214116334914,-0.6615946079730988,0.5767094623699784
1789881474894008000,6.854008056640625,3.9408185232162474,-1.2075450672030448,-0.714256230841577
1789881474904023300,6.864023193359375,2.8940310042023656,-1.5073346539855002,-3.1135534605711697
1789881474914038300,6.874038330078125,2.776277315959334,-1.5532295591980219,-4.473356250904501
1789881474924053200,6.88405322265625,2.6530449040442705,-1.8226783682525156,-4.883046766602993
1789881474934068200,6.894068115234375,1.9437989025801419,-1.7960206629514692,-4.564466846893728
1789881474944082200,6.904082275390625,1.8605949880622326,-1.9007400975763797,-4.6582668280974024
1789881474954097200,6.91409716796875,0.35810616667270656,-1.617340504580736,-4.428863029183447
1789881474964112400,6.9241123046875,-0.9787218446560203,-1.219132044622302,-3.8349256608977913
1789881474974127400,6.93412744140625,-1.820969518508017,-1.2026280690670013,-3.69203110165745
1789881474984142300,6.944142333984375,-3.035261429622769,-1.4486474872171877,-3.494467379118502
1789881474994157300,6.9541572265625,-5.410695845466852,-2.322103807672858,-4.06200043234229
1789881475004172000,6.964172119140625,-9.718429864755272,-3.850763573759794,-5.112834011876583
1789881475014187000,6.97418701171875,-12.14844342752695,-4.392410782837867,-5.563072518801689
1789881475024202000,6.984201904296875,-13.541840736687183,-4.819700375851989,-6.658540189832449
1789881475034217200,6.99421728515625,-10.918462072110175,-5.039871651518345,-8.049227655512095
1789881475044232200,7.004232177734375,-7.891971977964043,-5.033991945829987,-7.965662068074941
1789881475054247200,7.0142470703125,-5.300051696968079,-4.985286659371853,-7.518133404630422
1789881475064262100,7.02426220703125,-6.05569236986041,-4.305141080185771,-7.86047735402584
1789881475074276000,7.034276123046875,-8.600635211104153,-3.2147681019455194,-8.069981689727307
1789881475084291300,7.044291259765625,-3.5645249579459426,-1.9281220254987477,-7.646078232020139
1789881475094306300,7.054306396484375,-0.7238019116915761,-1.8970950190722942,-8.313366667720675
1789881475104321300,7.0643212890625,-1.6989742471724747,-2.8065117107033726,-9.945878437948226
1789881475114336300,7.074336181640625,-6.040518766126036,-3.648251288902759,-12.73882690272331
1789881475124351200,7.084351318359375,-8.07327780866325,-4.802276947364211,-14.012304870039223
1789881475134366200,7.0943662109375,-4.1534523891150945,-5.62476471260488,-11.743208429932594
1789881475144381200,7.104381103515625,-1.6782811493642626,-5.630141729468107,-8.624967688328027
1789881475154396400,7.114396484375,0.23636136296689508,-5.636745073255896,-6.240257494616508
1789881475164411400,7.124411376953125,1.5397364558964968,-5.77597994094491,-4.42562039400041
1789881475174426400,7.13442626953125,2.7616069855719805,-6.217970259484648,-2.755046019621193
1789881475184440000,7.144440185546875,3.217749163582921,-6.963945862931013,-0.2836237571403384
1789881475194455000,7.154455078125,3.033649902772903,-7.429666016626357,2.7318784945234653
1789881475204470300,7.16447021484375,3.107989396703243,-8.173203579270838,5.269022352454066
1789881475214485200,7.1744853515625,4.389905522018671,-9.529874209058285,8.037344325494766
1789881475224500200,7.184500244140625,6.379580625110864,-10.341770437657832,9.896541283327341
1789881475234515200,7.19451513671875,7.230680736851692,-10.611747069978714,10.860198099189995
1789881475244530200,7.2045302734375,8.31619166201353,-10.577080245745181,10.12871571599841
1789881475254545200,7.214545166015625,7.8776412547945975,-9.010206192076206,7.418503402099013
1789881475264560000,7.22456005859375,5.719988589131832,-6.325785322037339,5.85531651251018
1789881475274575400,7.234575439453125,3.13908479219079,-3.7029409104675053,4.673069844953716
1789881475284590300,7.24459033203125,-4.049970971852541,-0.03247428262531757,1.6406182120546697
1789881475294605300,7.254605224609375,-2.671027719980478,2.027290840259194,-0.013557081048982218
1789881475304619300,7.264619384765625,-0.16797376317828894,2.6251123565018175,1.6094894988194106
1789881475314634000,7.274634033203125,1.1333118101261555,3.2071161258876324,3.4807752461135384
1789881475324649200,7.284649169921875,2.842720503681898,3.3262335036993025,4.4284395430743695
1789881475334664200,7.294664306640625,3.683709555774927,3.6989749294459817,4.451342864277959
1789881475344679200,7.30467919921875,4.424006821323931,4.356042415383458,4.478344268450141
1789881475354694100,7.314694091796875,5.2230491213083265,5.097909998989105,4.484861687520146
1789881475364709000,7.324709228515625,5.724649566680193,5.799074400806426,4.31107397736609
1789881475374724000,7.33472412109375,6.063528470313549,6.4133846950352185,3.9925007796585557
1789881475384739000,7.344739013671875,6.14297434747219,6.964967607194185,3.492917227067053
1789881475394754000,7.354754150390625,6.123104110354185,7.272734164205193,3.4508769514560695
1789881475404769300,7.364769287109375,6.36718525391817,7.145450431072711,4.074440519459546
1789881475414783200,7.374783203125,6.817894885486364,6.807398625913262,5.154292395946383
1789881475424798200,7.384798095703125,7.0384899395227425,6.348316887319087,6.0468865475922815
1789881475434813200,7.394813232421875,6.994918508821725,6.115214233887195,6.54189884674549
1789881475444828200,7.404828125,6.543173104465008,6.2655591091334815,6.850586610254645
1789881475454843400,7.414843505859375,5.890718080759048,6.626556321072578,7.189808628237247
1789881475464858400,7.4248583984375,5.389349106055498,7.043834807682037,7.355809337776899
1789881475474873300,7.434873291015625,4.891884737575054,7.315229490107297,7.356718853837251
1789881475484888300,7.444888427734375,3.9615012457609176,7.433122294560074,7.297644733577966
1789881475494903000,7.454903076171875,2.3771768755972382,6.9262260808676475,7.210192075574398
1789881475504918000,7.46491796875,-1.9669372015833853,4.877881346663832,6.61940995644927
1789881475514933000,7.47493310546875,-14.417050038290023,1.1748071652054786,4.2749186681404705
1789881475524947200,7.484947265625,-22.389446967577932,-3.507425352630019,-0.3882194923203438
1789881475534962200,7.494962158203125,-19.078491697031257,-7.888325730416178,-6.0206450218766925
1789881475544977200,7.50497705078125,-10.001085361385345,-10.907286013579368,-9.42663712194562
1789881475554992000,7.5149921875,-0.30397125638127326,-11.739705974769592,-9.442902612569927
1789881475565007000,7.525007080078125,1.9272423200547695,-12.24486382036209,-11.485911246442795
1789881475575022300,7.535022216796875,-0.7683774048686027,-12.058394323289393,-12.533228342288732
1789881475585037300,7.545037353515625,-2.232844392508268,-8.508313485759496,-9.284085677054524
1789881475595052300,7.55505224609375,-0.6605488983124495,-3.478204518842697,-3.825252115884423
1789881475605067300,7.5650673828125,2.000556562590599,-0.41629181365966794,1.948056560024619
1789881475615082200,7.575082275390625,1.3938222565740346,-0.32130759110748763,5.766002152287959
1789881475625097200,7.58509716796875,-3.8255432077854867,-3.2177813122868537,7.804020722788572
1789881475635112200,7.5951123046875,-6.15767156586647,-6.474767092236876,8.003032306048274
1789881475645126100,7.605126220703125,-1.0194394202958792,-8.427621992453933,5.37694321346879
1789881475655141000,7.61514111328125,3.894054433953762,-6.952581588351726,3.4408611688762902
1789881475665156000,7.625156005859375,5.426007980889081,-3.474688619676232,2.7680799809783694
1789881475675171000,7.635171142578125,2.7749486977040765,-0.7986223210066556,3.1880586664572355
1789881475685186000,7.64518603515625,1.0831073711514472,1.1225906557559966,3.4397105375364423
1789881475695201300,7.655201171875,0.9414315400511026,2.6293799508184192,3.6724265297383067
1789881475705216300,7.66521630859375,0.7802870383709669,3.4037902061104774,4.229625820474326
1789881475715219500,7.675219482421875,0.7106009232044219,3.9276597664356228,4.60903722550422
1789881475725234400,7.685234375,0.47810500349402424,4.4975878981024024,4.698702298860252
1789881475735249400,7.69524951171875,0.3472644546627998,4.501476722234488,4.576059085009992
1789881475745264600,7.7052646484375,0.5874643728792667,4.262374536126852,4.121348401106894
1789881475755278300,7.7152783203125,0.7875303605627268,3.6787288447529076,3.60905705037266
1789881475765293300,7.725293212890625,0.612716376100853,2.724911870381236,3.3910631187453864
1789881475775308300,7.735308349609375,0.5960667815297842,1.9462351898163557,3.234120160408318
1789881475785323300,7.7453232421875,0.8523334529280662,1.4416770636826752,2.970167318421602
1789881475795338500,7.75533837890625,1.2520803745001554,1.124417871183157,2.8285043468028306
1789881475805353500,7.765353515625,1.6847627664685247,0.9207704448163508,2.515055652502179
1789881475815368400,7.775368408203125,2.0477806705802677,0.7664853075116872,2.155516530416906
1789881475825383400,7.785383544921875,2.1624118428885937,0.6249556068837643,1.9582957760967312
1789881475835398400,7.7953984375,2.2577789272785185,0.26855624412894247,1.7589362561821937
1789881475845413400,7.805413330078125,2.3520459414720536,-0.09086860392689704,1.6750347147889435
1789881475855428400,7.815428466796875,2.511185533070564,-0.051147418913245195,1.9457954832248388
1789881475865443600,7.825443603515625,2.682888838165998,0.11823182714879513,1.850171647594869
1789881475875457500,7.83545751953125,2.7101182058751583,0.32527357212901115,1.544735871618986
1789881475885472500,7.845472412109375,3.041516398364305,0.6692278793305159,1.5327834218882024
1789881475895487500,7.855487548828125,4.655293657505512,0.6530974132627249,1.5523466388836502
1789881475905502500,7.86550244140625,3.912086934250593,-0.23769173478782177,1.1991099779434502
1789881475915517700,7.875517578125,3.2518402337551113,-0.8668582373648881,-0.6239426304489374
1789881475925532400,7.885532470703125,2.9464789843201635,-1.0891343763560055,-2.4200416193336247
1789881475935547400,7.89554736328125,2.8886639242112633,-1.2178069334983825,-3.222728121039271
1789881475945562400,7.905562255859375,3.3056121559530496,-1.6509160264462233,-3.5519925163701176
1789881475955577300,7.915577392578125,3.1550702968299387,-2.055044524103403,-3.2630396731615066
1789881475965592300,7.92559228515625,2.4087277597673236,-2.3397604603946207,-3.4102892127409574
1789881475975606500,7.9356064453125,1.4966967939846216,-2.2578017236322165,-3.8115374787867067
1789881475985621500,7.94562158203125,0.2909948704302311,-1.9811779083818195,-3.6581554278016086
1789881475995636500,7.955636474609375,-0.8850865524947643,-1.9086860881447791,-3.678044954141974
1789881476005651500,7.9656513671875,-1.7420400664389133,-1.8787831173121927,-3.274350463987887
1789881476015666400,7.97566650390625,-2.696141995231807,-2.0156869117051364,-3.031203094142675
1789881476025681400,7.985681396484375,-5.143810164898634,-2.952233602324128,-4.130860910339654
1789881476035696400,7.9956962890625,-9.117408675688505,-4.303671592155099,-5.783724855983257
1789881476045711600,8.005711669921874,-8.292603281155229,-4.4785552808523175,-6.565936724936962
1789881476055726600,8.0157265625,-10.555272903084754,-4.943843472871184,-7.804779432201385
1789881476065741600,8.025741455078125,-11.037430981361865,-5.300297196161747,-9.219867179644107
1789881476075756500,8.035756591796876,-5.834131685662269,-4.655825572425127,-9.03477715423107
1789881476085771500,8.045771484375,-3.079874770592153,-3.473152496150136,-8.015359288179875
1789881476095785500,8.055785400390626,-2.43809004785195,-2.421782910043001,-7.172861000567674
1789881476105800400,8.065800537109375,-4.125059822845459,-1.973491445532441,-7.347268303924799
1789881476115815400,8.0758154296875,-7.7914686997294424,-1.9807336717456578,-9.055518328964709
1789881476125830400,8.085830322265625,-5.939400570863485,-2.491719200578332,-10.404629921674728
1789881476135845400,8.095845458984375,-3.439188851749897,-2.5194167703211305,-11.065476341629028
1789881476145860400,8.1058603515625,-8.58271961518526,-3.200519796362519,-13.109994795542955
1789881476155875300,8.115875244140625,-6.178394620421528,-3.5779081711322065,-12.104039637655019
1789881476165890600,8.125890625,-2.568247728985548,-4.104630198279023,-10.127388851308822
1789881476175905500,8.135905517578125,-2.20881995832026,-4.816254619312286,-8.20867412110269
1789881476185920500,8.14592041015625,-0.7634726816922426,-4.795412906813621,-5.6018193058252335
1789881476195935500,8.155935546875,0.9271312120199203,-4.819882162159681,-4.008952732765675
1789881476205949400,8.165949462890625,2.4225731836378572,-5.185094945967197,-2.4826263780623674
1789881476215964700,8.175964599609374,3.210741915169358,-5.642377526184916,-0.18672058575693518
1789881476225979600,8.185979736328125,3.1542227400898932,-6.021459845390916,2.221763464915007
1789881476235994400,8.195994384765624,3.108839291530847,-6.8056707792073485,4.2657174168139695
1789881476246009300,8.20600927734375,3.483859183603525,-8.14496532678008,6.034496437096595
1789881476256024300,8.2160244140625,4.827563948833942,-9.171226190593838,7.880688951927423
1789881476266039300,8.226039306640626,6.035210722845792,-9.43506417402923,9.400342404738067
1789881476276054300,8.23605419921875,6.243584593212604,-9.251683875143527,8.792448407292365
1789881476286069500,8.246069580078125,6.282095233392715,-8.240096264326572,7.242538347905874
1789881476296084500,8.25608447265625,5.610285520875453,-6.501856759214401,5.943233865416049
1789881476306099500,8.266099365234375,4.881159929943085,-4.230375469797849,4.808080665206909
1789881476316113400,8.276113525390626,6.181988845521211,-2.202152317124605,2.90682589610666
1789881476326128400,8.28612841796875,5.909426288360357,1.0147036970108747,0.7160442833021283
1789881476336143600,8.2961435546875,-0.007798544921725988,3.92013053997457,-0.14207905987268313
1789881476346158600,8.30615869140625,-4.463247529344261,4.385421654602885,0.35512112297993154
1789881476356173600,8.316173583984375,-2.8926608848929405,4.68441044639647,1.428916950830817
1789881476366188500,8.3261884765625,0.16882395026683805,4.739355504027008,2.96822290635556
1789881476376203500,8.33620361328125,2.8004081331312656,4.844111179009079,3.712339145670831
1789881476386218500,8.346218505859374,4.605093748575449,4.952632928526401,3.9776030702561136
1789881476396233500,8.3562333984375,5.7233741399168965,5.179050989627838,3.950685544975102
1789881476406248400,8.36624853515625,6.469735527810454,5.602876705923676,3.7475358389973636
1789881476416263400,8.376263427734376,6.781686092507838,5.988730126699805,3.6263545143932103
1789881476426277400,8.38627734375,6.554468405461311,6.025869478526711,3.562929213187098
1789881476436292400,8.396292236328126,6.244060394030809,5.613385240456462,4.2883501043826335
1789881476446307300,8.406307373046875,6.247207459884882,5.115473128208517,5.213768667265772
1789881476456322300,8.416322265625,6.509921992248296,4.745858894571661,6.1366743705451485
1789881476466337500,8.426337646484376,6.515580164140463,4.793088847780227,6.930025473150611
1789881476476352500,8.4363525390625,6.0894368185520165,5.200545613077282,7.0475617192506785
1789881476486367500,8.446367431640626,5.475891078954935,5.93066313765645,6.772067200291156
1789881476496382500,8.456382568359375,4.785038812315464,6.549314091438054,6.464234007784724
1789881476506397400,8.4663974609375,4.158037378817797,6.899182006597519,6.257884336721896
1789881476516412400,8.476412353515625,3.5594203282833097,7.010873033800721,6.18738105995357
1789881476526427400,8.486427490234375,2.7406033605098723,6.6928504557132715,6.240482535544038
1789881476536441600,8.496441650390626,-0.11862535651102661,5.329280714061856,6.283395794597268
1789881476546456300,8.506456298828125,-11.010890180438757,2.1431898405462504,4.10531730376035
1789881476556471300,8.51647119140625,-20.51508634288311,-1.8279788127481937,-0.5679864595470949
1789881476566486300,8.526486328125,-18.520150542783735,-5.5524879964232445,-5.174302333796024
1789881476576501200,8.536501220703125,-11.9089566260159,-8.500240069419146,-8.574318866586685
1789881476586516500,8.5465166015625,-1.2972362979136407,-9.591317981058358,-8.22505008636415
1789881476596531500,8.556531494140625,3.277351107108593,-10.312628514325619,-7.858540833005309
1789881476606546400,8.56654638671875,1.2696797440767287,-11.414466304910182,-8.061082343956828
1789881476616561400,8.5765615234375,-1.6863935825407503,-10.47556866725087,-9.218544406607746
1789881476626576400,8.586576416015625,-2.2457553120076654,-6.880615837815403,-7.412156663420796
1789881476636591400,8.59659130859375,-0.21817685044612734,-4.24669356739223,-2.271501455421746
1789881476646605600,8.60660546875,1.263196227276325,-4.281185035058856,2.434912148468196
1789881476656620500,8.61662060546875,-3.194011145120859,-6.44072278381586,4.644661788854003
1789881476666635500,8.626635498046875,-6.608989684721827,-7.26277975642383,5.49980796111524
1789881476676650500,8.636650390625,-1.1539584384441375,-5.591421245929599,5.206631070470809
1789881476686665500,8.64666552734375,4.556891735464334,-1.769953909280896,4.169539308302104
1789881476696680400,8.656680419921875,0.5174467607360332,0.7304711603224278,4.119998447802662
1789881476706695700,8.66669580078125,-1.126312306627631,2.4312281992584466,4.224361908596753
1789881476716710700,8.676710693359375,0.3159837657362222,3.5127456708699465,3.776976453015208
1789881476726725600,8.6867255859375,0.22536592170000075,4.30810752877593,4.1843119300201534
1789881476736740600,8.69674072265625,0.19773323388695715,4.605024774992466,4.839184828522801
1789881476746755600,8.706755615234375,0.24648119044303893,4.134260197389126,5.1310599889189
1789881476756769500,8.71676953125,0.4609375955939293,3.279010564753413,4.853249301971495
1789881476766784500,8.726784423828125,0.8657195887237786,2.6407787121891975,4.521714623621106
1789881476776799500,8.736799560546874,0.9327280091136694,1.959567549598217,4.827410219576954
1789881476786814500,8.746814453125,1.360304017853737,1.0217916094452142,4.982575062325597
1789881476796829400,8.756829345703125,2.0024995133519172,0.2464431965202093,4.853643561986089
1789881476806844400,8.766844482421876,2.5553964307188988,-0.2224234385073185,4.422654529932141
1789881476816859400,8.776859375,2.9935388416588307,-0.3365028221517801,3.3468218259587883
1789881476826874400,8.786874267578124,3.238241916513443,-0.15050795685350893,2.3066604470863936
1789881476836889600,8.7968896484375,3.2545535843670366,0.05100421105027198,1.7996461599722504
1789881476846904600,8.806904541015625,3.0390836182594296,0.2128203283816576,1.5142361039370298
1789881476856918500,8.81691845703125,2.8738439562201497,0.3326379634171724,1.1389312574431298
1789881476866933500,8.82693359375,2.8809330376982687,0.3434808444708585,0.5423983197063207
1789881476876948500,8.836948486328126,3.011283757185936,0.2587871297866106,0.040967677943408484
1789881476886963700,8.846963623046875,3.1867981450021263,-0.02926408840715885,0.3651758127979934
1789881476896978400,8.856978515625,3.3083494719624515,-0.28315409380197526,0.4235525984428823
1789881476906993400,8.866993408203125,3.298669789469242,-0.15108897161185741,0.045335079372674225
1789881476917008400,8.87700830078125,3.4833319448590276,-0.020788521006703375,0.1297859252117574
1789881476927023400,8.8870234375,3.9543957976698874,0.1770090102881193,0.25838132546469567
1789881476937038300,8.897038330078125,4.546021966403723,0.41455344555974005,0.9194396346040069
1789881476947053300,8.90705322265625,5.270672457748651,-0.07794833207726479,0.866901491984725
1789881476957068500,8.917068603515625,4.795301847654581,-0.9718664258033036,-1.314989835138619
1789881476967083500,8.92708349609375,3.2070261095166206,-0.8389362112164497,-3.294870689447224
1789881476977097500,8.937097412109376,2.444272389748692,-0.8082529036611318,-3.571012566399574
1789881476987112400,8.947112548828125,2.424427287071943,-0.9879372706383466,-3.63333925871402
1789881476997127400,8.95712744140625,2.06030931276381,-1.1584271082907915,-3.7221599902004003
1789881477007142700,8.967142578125,0.5251806429237127,-1.1978367431372403,-3.2304189678028226
1789881477017157600,8.97715771484375,-0.572672461938858,-1.1696236250877379,-3.1565555669516323
1789881477027172600,8.987172607421876,-1.5259107596397399,-1.2391045730710029,-3.1013790386527775
1789881477037187600,8.9971875,-2.22616447635293,-1.4629787949085236,-2.891802222236991
1789881477047202600,9.00720263671875,-2.6365637248426674,-1.89581608517766,-2.8498370576888323
1789881477057217500,9.017217529296875,-3.8144793774574994,-2.7534400457292794,-3.612874562834203
1789881477067232500,9.027232421875,-9.74538158456683,-5.243788542476296,-6.192818867093324
1789881477077247500,9.03724755859375,-13.372872994035482,-5.9158484303623435,-7.301725865411758
1789881477087261400,9.047261474609375,-10.486879165816307,-5.20249090192616,-8.170279800778626
1789881477097276400,9.0572763671875,-14.16940214215517,-6.026750353014469,-10.73691541839242
1789881477107291400,9.06729150390625,-11.793974156051874,-5.9762114213883875,-9.281533654484152
1789881477117306400,9.077306396484374,-8.35986889117658,-5.2204018216699355,-7.431732886028289
1789881477127321600,9.087321533203125,-3.3517174890458583,-3.8689538949668405,-6.87627810087204
1789881477137336600,9.097336669921875,1.3194449148513376,-2.557335289826989,-6.408087757670879
1789881477147351600,9.1073515625,1.5329209306627511,-2.1870453488856554,-7.298854693889617
1789881477157366500,9.117366455078125,1.6601567330002784,-2.5348463946431874,-8.937658842259644
1789881477167381500,9.127381591796874,0.03887479731738567,-3.0414357343435285,-9.93647231169939
1789881477177396500,9.137396484375,-9.544978254687786,-3.7602392532259223,-12.88967212870717
1789881477187411500,9.147411376953125,-12.997945456421375,-5.027117968407273,-13.989063110661506
1789881477197426400,9.157426513671876,-4.630598192188144,-4.987558111435175,-8.108675285258888
1789881477207440400,9.1674404296875,-1.8210872996687888,-4.897713589859008,-5.196609442672133
1789881477217455400,9.177455322265626,-0.028345841051079332,-4.948838212418556,-4.168056668528914
1789881477227470300,9.18747021484375,1.0978478441655635,-5.1504678692221635,-2.453842182126641
1789881477237485300,9.1974853515625,3.0926509577959775,-5.786959600120783,-0.72437993077524
1789881477247500500,9.20750048828125,3.8954391663104295,-6.381643402859568,1.8950319490626453
1789881477257515500,9.217515625,3.40253523761332,-7.040483159166574,4.085801871429384
1789881477267530500,9.227530517578124,3.487565052384138,-7.8396818187564605,5.855666056600213
1789881477277545500,9.23754541015625,4.249234484046697,-8.599250478747486,7.8386764411062
1789881477287560400,9.247560546875,4.9052340484917165,-8.783388902524113,9.343532137757538
1789881477297575400,9.257575439453126,4.542307914316654,-8.466657533290983,9.57173182157874
1789881477307590400,9.26759033203125,4.556666110014915,-7.726060115751624,8.853344482281804
1789881477317605400,9.27760546875,4.634236840951442,-6.425011419942975,7.854045275151729
1789881477327619600,9.28761962890625,1.2419593779802323,-4.0402895357936615,6.345529886949062
1789881477337634600,9.297634521484374,-1.16104532796517,-1.063353453889489,4.400421947596967
1789881477347649500,9.3076494140625,0.4179845890522003,0.6035235272765159,3.184335262019932
1789881477357664500,9.31766455078125,1.7085270884156225,1.4531249248921871,2.7515172609731553
1789881477367679500,9.327679443359376,1.9850233317635952,2.1312457202523944,3.5163077472656963
1789881477377694700,9.33769482421875,2.3014649242699146,2.71121476894021,4.140651651991903
1789881477387709400,9.34770947265625,2.989280015170574,3.137363375225663,4.005609852078557
1789881477397724400,9.357724365234375,3.781101423990726,3.713271750345826,3.7947932647347447
1789881477407739400,9.367739501953125,4.445874661999941,4.535933703109622,3.1814757809355854
1789881477417754400,9.37775439453125,4.623462348958849,5.416245880809426,2.312023435424268
1789881477427769300,9.387769287109375,4.713769227349758,6.243770471173525,1.37945178591609
1789881477437783600,9.397783447265626,4.8774376945495606,6.731026164850592,0.9986791755355894
1789881477447798500,9.407798583984375,5.089014744871855,6.922129751464724,1.763264348514378
1789881477457813500,9.4178134765625,5.280679472500085,6.403146794137358,3.275256472916901
1789881477467828500,9.427828369140625,5.795007297497987,5.706681948313117,4.630944229146838
1789881477477843500,9.437843505859375,6.018364801985025,5.358970334404707,5.678148512268066
1789881477487858400,9.4478583984375,6.084778179091215,5.393946955239772,6.48872839757204
1789881477497873700,9.457873779296875,6.1105731300830834,5.818331474462151,6.853972161039709
1789881477507888600,9.467888671875,5.63655159651041,6.236960206636786,6.537814207780361
1789881477517903600,9.477903564453126,5.267221440511942,6.918756475639343,6.271603065472841
1789881477527918600,9.487918701171875,5.068662861716747,7.194779402387142,6.119757138013839
1789881477537933600,9.49793359375,4.798894319188594,7.465549230912328,6.185697636911272
1789881477547948500,9.507948486328125,4.170707475298643,7.229521629944443,5.998845862522721
1789881477557962500,9.51796240234375,2.586552616482973,6.353080740720033,5.746658569392562
1789881477567977500,9.5279775390625,-2.5130302841544148,4.622463985571265,5.363333790311217
1789881477577992400,9.537992431640625,-14.867985295307635,1.149406766489148,2.9456504245415327
1789881477588007400,9.54800732421875,-21.18536460804939,-3.8306057518720626,-1.7779995608314871
1789881477598022400,9.5580224609375,-18.1823869069159,-8.33577256079614,-6.764813868162036
1789881477608037400,9.568037353515624,-8.973527443498373,-11.009434720933436,-8.209095561385155
1789881477618052600,9.578052490234375,-1.125799680930376,-12.006014147710799,-6.994034711724519
1789881477628067600,9.588067626953125,-0.5206990770628676,-12.258480842304229,-7.628873999240994
1789881477638082600,9.59808251953125,-2.4508815787553786,-11.249874293124675,-8.987547785544395
1789881477648097500,9.60809765625,-3.613129706639051,-7.317477561295032,-8.003109462937712
1789881477658112500,9.618112548828124,-2.2436218071103093,-2.0040391440093517,-4.01186102142781
1789881477668126500,9.62812646484375,1.9695687191307543,0.8177432010620832,0.8949703792579472
1789881477678141700,9.6381416015625,2.414468787637353,0.6774567784935236,4.314218120610714
1789881477688156700,9.64815673828125,-0.6219219382762908,-2.0242577561736104,6.174452604797482
1789881477698171400,9.65817138671875,-4.196302519804239,-5.37910594446063,8.12629920475483
1789881477708186400,9.668186279296876,-0.8098211758911609,-7.357712541049718,6.659874653306603
1789881477718201300,9.678201416015625,2.9272751021564005,-5.75123128413558,4.467161780178547
1789881477728216300,9.68821630859375,2.1881366512537,-3.3316157812595364,4.195444441670179
1789881477738231300,9.698231201171875,2.2233406511038543,-0.6048825406700372,3.676540687058866
1789881477748246500,9.70824658203125,1.9947873315393922,1.3992027805685996,3.151194332179427
1789881477758261500,9.718261474609376,1.8266998788535593,2.690610372328758,3.441301606120169
1789881477768276200,9.728276123046875,1.6198948652386664,3.5782664830505846,4.1457875535756346
1789881477778291200,9.738291259765624,1.5656524029195307,3.9534067866325375,4.401415927070379
1789881477788305400,9.748305419921875,1.5178022719860076,4.147129031312465,4.192924567803741
1789881477798320400,9.7583203125,1.5272306100666522,4.200612199696899,3.9666573133498426
1789881477808335400,9.76833544921875,1.6325579474568366,3.969078403016925,3.833892810718715
1789881477818350300,9.778350341796875,1.8030103757083416,3.3386429034173486,3.703085287374258
1789881477828365300,9.788365234375,1.817566139805317,2.4571967532515524,3.7254917649716135
1789881477838380300,9.79838037109375,1.8437480442881584,1.6024603308349847,3.6064255328252908
1789881477848395300,9.808395263671875,2.1252759981930254,0.9741332016915082,3.315094854569435
1789881477858410200,9.81841015625,2.555408121156692,0.7448550749838352,2.9428011725902556
1789881477868425500,9.828425537109375,2.634318576264381,0.6177256556302309,2.303745874813944
1789881477878440400,9.8384404296875,2.4932640919327733,0.5067828164458275,1.640900389996916
1789881477888455400,9.848455322265625,2.4812872384130955,0.13764496814906596,0.8262536936454474
1789881477898469000,9.85846923828125,2.5555273636221885,-0.14741875866651535,0.2905320752240717
1789881477908484000,9.868484130859375,2.974477582836151,-0.1576549059987068,0.4468519332267344
1789881477918499300,9.878499267578125,3.2244846093177792,-0.044787236231565476,0.5828204925961792
1789881477928514300,9.888514404296876,3.1795044808626174,0.3197475021839142,0.8333877833090723
1789881477938529300,9.898529296875,3.4346459476232525,0.7259317633271217,1.2030373805202543
1789881477948544300,9.908544189453124,3.484467086368799,0.6850134774833917,1.7717361165225505
1789881477958559200,9.918559326171875,3.1271184600651263,0.2138087548971176,1.5214973271116614
1789881477968574200,9.92857421875,3.3771675721228123,-0.017148118677735327,0.16855507019758223
1789881477978589200,9.938589111328126,3.1262346629679203,-0.2378805353581905,-1.3455723126679657
1789881477988604400,9.9486044921875,2.618037888070941,-0.4550900386095047,-2.6629294614598154
1789881477998619400,9.958619384765624,2.9239386512100696,-1.0349649792730808,-3.497774311709404
1789881478008634400,9.96863427734375,3.1069583000898358,-1.5492185699909924,-3.3772640182346105
1789881478018648300,9.9786484375,2.7289263667196035,-2.0022008226662873,-3.3546804305046796
1789881478028663300,9.988663330078126,1.9254839320801198,-2.188390333753824,-3.4392215849757193
1789881478038678500,9.998678466796875,1.0229423869155347,-2.195948786309361,-3.1852354257300495
1789881478048693500,10.008693603515624,0.16756942016109824,-2.2279683109045028,-2.9150948350191115
1789881478058708500,10.01870849609375,-0.4982318457216024,-2.3168939640700814,-2.820902055105567
1789881478068723500,10.028723388671875,-1.2012006666123867,-2.5035136832684275,-2.6958339521959425
1789881478078738200,10.03873828125,-1.8389324606999753,-2.86034150056839,-2.834450980247557
1789881478088753200,10.048753173828125,-2.739393400198221,-3.4271196437716482,-3.320071766199171
1789881478098768100,10.05876806640625,-6.19870266443491,-5.068103474268317,-5.052070623356103
1789881478108783400,10.068783447265625,-12.16601415553093,-6.63216656216979,-6.826924579638242
1789881478118798300,10.07879833984375,-12.122927877998352,-6.105516431215405,-7.293456049716472
1789881478128812300,10.088812255859375,-12.209786661762,-5.9275996584326025,-8.379692951065302
1789881478138827300,10.0988271484375,-9.539795299091935,-5.682026230484247,-9.117989690446853
1789881478148842200,10.10884228515625,-5.639580004420877,-5.026169289380312,-8.499269178560375
1789881478158857500,10.118857421875,-5.430445671075582,-3.726876497328281,-7.71422296296358
1789881478168872400,10.12887255859375,-5.146964829537272,-2.669787949052453,-7.851587360605597
1789881478178887400,10.138887451171875,0.11786255544498563,-1.62581899459064,-7.4068497891843315
1789881478188902400,10.14890234375,1.103367484369874,-2.0599685365021227,-8.059667216461897
1789881478198917400,10.15891748046875,1.0131640663534403,-2.6972476183861493,-9.954646266293524
1789881478208932400,10.168932373046875,-3.8397757312774656,-3.166338125297427,-11.859351760369538
1789881478218947300,10.178947265625,-13.707192626929283,-4.502852686762809,-15.088144296014308
1789881478228962300,10.18896240234375,-6.803640734684467,-5.252251250395179,-12.378570864540338
1789881478238976300,10.198976318359374,-1.3796727351903915,-5.141052975144982,-8.064339884448051
1789881478248991200,10.2089912109375,-0.41745099363215266,-4.84177835214734,-5.20172517825067
1789881478259006200,10.219006103515625,0.030361199461482462,-4.731703527969121,-3.297196502046287
1789881478269021200,10.229021240234376,1.016993269252777,-5.012149531856179,-2.4080169811494647
1789881478279036200,10.2390361328125,2.5867151135683057,-5.377487403348088,-0.162443893840909
1789881478289051400,10.249051513671875,3.2787305787682532,-6.129247435414791,2.586732064703107
1789881478299066400,10.25906640625,3.0076994689583776,-7.035266885823011,4.237038727079332
1789881478309081300,10.269081298828125,3.132468004399538,-8.09457311014831,5.816347607168555
1789881478319096300,10.279096435546874,4.470875832265615,-8.918730269905923,7.646993008777499
1789881478329111300,10.289111328125,5.476062928390503,-8.794926780104637,9.398689376834035
1789881478339126300,10.299126220703124,5.473757574057578,-8.24699946784377,8.885382711577416
1789881478349140500,10.309140380859375,5.343460630583762,-7.333164959770441,7.494483648973703
1789881478359155500,10.319155517578125,4.860437459909916,-5.837668043094873,6.256922213691473
1789881478369170400,10.32917041015625,5.513305156069993,-4.213059593337774,5.483235596498846
1789881478379185400,10.339185302734375,7.169695230013132,-2.309933477407694,3.618490356889367
1789881478389200100,10.3492001953125,8.291548219144344,-0.3820733177155256,1.7393609103575347
1789881478399215000,10.359215087890625,7.68095080795884,1.7451462157607078,1.5123475137114524
1789881478409230300,10.369230224609375,1.9351006323397157,3.3623815064013,2.2099645983107385
1789881478419245300,10.379245361328126,-2.789426135867834,4.49026266978085,2.1042200584217903
1789881478429260300,10.38926025390625,-3.2430545774921775,5.019187175408005,2.107711261538416
1789881478439275300,10.399275146484374,-1.0968119252465665,5.739515711900592,2.918354421336949
1789881478449290200,10.409290283203125,1.863032590472698,6.1227405377388,3.638751639151573
1789881478459304400,10.419304443359374,4.023166843818128,5.946961946028471,3.5326690994799135
1789881478469319400,10.4293193359375,5.478069007515907,5.843171316686273,3.2993080873727796
1789881478479334400,10.43933447265625,6.674691698688268,5.672036751389503,3.6906916697472334
1789881478489349400,10.449349365234376,7.110220127737522,5.343064909264445,4.537046048265696
1789881478499364400,10.4593642578125,6.928321007320284,5.067465760886669,5.366029020744562
1789881478509379300,10.46937939453125,6.574125876611471,4.985261524930596,5.9253673693358895
1789881478519394300,10.479394287109375,6.447880838876962,5.172580916830897,6.206656253787875
1789881478529409500,10.489409423828125,6.391570338112116,5.51260431432426,6.427215067467093
1789881478539424500,10.499424560546874,6.210742646318674,6.105200204873085,6.532514347806573
1789881478549439500,10.509439453125,5.708979703861474,6.776399092015624,6.348021119242906
1789881478559454500,10.519454345703124,5.221966586768627,7.34860744357407,6.070263331526517
1789881478569468200,10.52946826171875,4.7955157826662065,7.698096004027128,5.876463345435261
1789881478579483400,10.5394833984375,4.3204912095308305,7.711288078555464,5.711368644824624
1789881478589498400,10.549498291015626,3.6684208012282844,7.464599967363476,5.519148036879301
1789881478599513300,10.559513427734375,2.4173171628057957,6.706592565339803,5.424747751694917
1789881478609528300,10.5695283203125,-2.9247406152427193,4.460532132905722,5.0601691741377115
1789881478619543300,10.579543212890625,-19.09135585477948,0.18679566028714178,2.5331287770703432
1789881478629558300,10.589558349609375,-25.395292333102226,-5.152239555069804,-2.3958862522423265
1789881478639573200,10.5995732421875,-20.092505073690415,-9.852830736416578,-7.6175710994601245
1789881478649588200,10.609588134765625,-5.47839984690547,-11.692266178202628,-9.186864489230514
1789881478659603500,10.619603515625,5.234948817938566,-12.234545839965342,-8.975216711759566
1789881478669618400,10.629618408203125,3.1074726793527603,-13.208776656812429,-8.911881426924467
1789881478679632400,10.63963232421875,-1.7167466352283953,-11.845742921733855,-8.167724271076917
1789881478689647400,10.6496474609375,-3.301194924032688,-6.9517211721301075,-6.00211041727662
1789881478699662300,10.659662353515625,-1.8368904334783553,-1.7064853534549473,-3.1242440736725925
1789881478709677300,10.66967724609375,0.13216332186758517,1.1187316422402858,-0.27699122379068286
1789881478719707100,10.67970703125,1.0416676917821168,0.05110299524962902,2.5260230367183683
1789881478729722000,10.68972216796875,-0.1880067896425724,-3.6617701111674306,4.679304063168168
1789881478739737000,10.699737060546875,-2.930301171979308,-5.978342003676295,6.0434711861908434
1789881478749752000,10.709751953125,-0.52052317250669,-6.965352222597598,5.153039765536785
1789881478759767000,10.71976708984375,2.5281185476928947,-5.485212449529767,3.5583594210535288
1789881478769782000,10.729781982421875,4.157715307256579,-2.485777535569668,3.0450021946534513
1789881478779797000,10.739796875,3.4674271042406555,-0.17233692682385443,2.748455535314977
1789881478789811200,10.749811279296875,1.5933458810091017,0.9889216055005788,2.742375923140347
1789881478799826200,10.759826171875,1.0666162550777196,2.1669553315371273,3.388234617321193
1789881478809841200,10.769841064453125,0.954375777298212,3.064768094614148,4.276445147055387
1789881478819856100,10.779856201171874,0.7538853536576032,3.488712468853593,4.7696404599145055
1789881478829871000,10.78987109375,0.7094312949031591,3.780685828927159,4.692315520432591
1789881478839886000,10.799885986328125,0.7870540482878684,4.0398271789789195,4.362868754272163
1789881478849901000,10.809901123046876,0.6463830103158951,3.9732600726157425,4.245477469600737
1789881478859916000,10.819916015625,0.635368279826641,3.611162205958366,3.8645734879255293
1789881478869931000,10.829930908203124,0.9552806171834468,2.7247785993903872,3.6219656317844984
1789881478879946000,10.839946044921875,1.5092553929150103,1.8116098617494105,3.4564027291402217
1789881478889960000,10.8499599609375,2.0161586208701134,1.2490449523270128,3.0732585673227906
1789881478899975200,10.85997509765625,2.172720470935106,0.9532020573437213,2.5699194615900516
1789881478909990100,10.869990234375,2.129997766017914,0.6874871741205454,1.959670133189857
1789881478920005000,10.880005126953124,2.2389888866126535,0.3026321167320013,1.3953582339696586
1789881478930020000,10.89002001953125,2.424416765677929,0.13684943385720252,1.010351200889796
1789881478940035000,10.90003515625,2.304026299190521,0.010081833553314209,0.8443630585707723
1789881478950050000,10.910050048828126,2.501640290611982,-0.127443307608366,0.730880910167098
1789881478960065000,10.92006494140625,2.787874814772606,-0.0037871173232793807,0.7292308048725128
1789881478970080300,10.930080322265624,2.804209863501787,0.33599136549830433,0.7014137004032731
1789881478980095200,10.94009521484375,3.2599101429641246,0.5907938095629215,0.8818409947022795
1789881478990110200,10.950110107421875,3.5724949139118194,0.6298427944034337,0.9694694476641714
1789881479000124000,10.9601240234375,3.6249031465411186,0.5072194542974233,0.6909336613126099
1789881479010139000,10.970138916015625,3.5743373269081116,0.22781799102723596,0.6674903880134224
1789881479020154000,10.980154052734376,3.7542917429983613,0.16760054595172405,0.18869915582090616
1789881479030169000,10.990169189453125,3.940485345739126,-0.1338923376172781,-0.6263149125382304
1789881479040184000,11.00018408203125,3.1932237941354513,-0.34843116035461424,-1.3596625050798057
1789881479050199000,11.010198974609375,2.4616893884956834,-0.6434598163455725,-2.7040882780611515
1789881479060214000,11.020214111328125,2.639942261365056,-1.2096680507063864,-3.3130233089923857
1789881479070229000,11.03022900390625,2.50048819796741,-1.4841682979315518,-3.5735832936704157
1789881479080244000,11.040243896484375,1.3980395820081233,-1.753937424981594,-3.4602293016910552
1789881479090259200,11.05025927734375,0.2616489489585161,-1.9586247157901524,-3.062584320834279
1789881479100273200,11.060273193359375,-0.6017968496143817,-2.0126012206494805,-2.843633819134533
1789881479110288100,11.0702880859375,-1.3171104805544018,-2.0080226606875655,-2.6679315075308083
1789881479120303000,11.08030322265625,-1.891487116062641,-2.1823007847070692,-2.460110887132585
1789881479130318000,11.090318115234375,-2.4195932910442353,-2.4894962638318536,-2.2108073327451945
1789881479140333000,11.1003330078125,-4.099883296012878,-3.1548113536328075,-2.832380895975232
1789881479150348300,11.110348388671875,-10.973465581929682,-5.219049822539091,-5.024617968285083
1789881479160363000,11.120363037109374,-13.244845164537429,-5.7451943420588965,-6.024581776803732
1789881479170378000,11.1303779296875,-10.431790315800905,-4.937630589705705,-6.723274820071459
1789881479180393000,11.14039306640625,-12.052492990291118,-5.25633238222897,-7.910137749251723
1789881479190408000,11.150407958984376,-8.62332342825234,-5.165640303912759,-7.258637834313512
1789881479200423000,11.1604228515625,-5.371960164359211,-4.314994950202107,-6.046873103588819
1789881479210438000,11.17043798828125,-4.208177081993222,-3.112778969067335,-6.193403973504901
1789881479220452000,11.1804521484375,-0.7396795720420777,-1.713313738170266,-5.993491057491302
1789881479230467000,11.190467041015625,0.41031726929470896,-1.1488894646167755,-5.924456099709868
1789881479240482000,11.20048193359375,0.7577056425981223,-1.2222995687425136,-6.701594903182983
1789881479250497000,11.2104970703125,0.520975446318835,-1.8272697876960038,-7.75200938052237
1789881479260512000,11.220511962890624,-4.885711017376184,-2.8867385091066358,-10.001704954588412
1789881479270527200,11.23052734375,-14.687401933664082,-4.541960123792291,-14.156639691215753
1789881479280542200,11.240542236328125,-6.979073289436101,-5.223840563946962,-11.665111629295348
1789881479290557200,11.25055712890625,-1.2730261318951845,-5.594764711138605,-8.493035837128758
1789881479300572200,11.260572265625,0.5174374449184164,-5.651477947485446,-6.474138731205463
1789881479310587100,11.270587158203124,1.5209855781972408,-5.497825262865423,-4.282244773244858
1789881479320601000,11.28060107421875,2.2063661354273556,-5.469906159326434,-2.3360946313634514
1789881479330616000,11.290615966796874,2.4849907691061497,-6.05047083581984,-0.6179028388280421
1789881479340631000,11.300631103515625,2.580353177320957,-6.622904228305816,1.8114850663259625
1789881479350646000,11.31064599609375,2.8636393730700016,-7.064767705595493,4.305530079503357
1789881479360661000,11.320660888671876,3.354830652630329,-7.988493493086099,6.481620611393451
1789881479370676000,11.330676025390625,5.230244585770368,-9.055418960243463,8.696013985931874
1789881479380691000,11.34069091796875,6.9285355268538,-9.304977658435702,10.15501569390297
1789881479390706200,11.3507060546875,7.559951269662379,-8.677755860185624,9.2633889259845
1789881479400721200,11.36072119140625,7.277105803418159,-7.534470791447162,8.236906528374552
1789881479410736000,11.370736083984376,7.199872926133871,-5.38404807703793,6.737690298914909
1789881479420751000,11.380751220703125,6.58550417971611,-2.9955443362623453,4.986638658502698
1789881479430766000,11.39076611328125,6.533664102363586,-0.595289367416501,3.2824931461721656
1789881479440780300,11.4007802734375,4.959730193310976,1.9389841957747935,1.3876581809863446
1789881479450795300,11.410795166015625,1.0427196850530802,2.6787328875303267,1.297741032565385
1789881479460810200,11.420810302734376,-1.5260370163679122,3.5657319956481452,1.4453719726778567
1789881479470825200,11.4308251953125,-1.0839327160596848,3.861560277584195,1.8727426681041717
1789881479480840000,11.44083984375,1.2138847916185855,3.923797245788574,2.1112024646550416
1789881479490855000,11.45085498046875,3.441866254265606,4.122283343869447,2.306017326877266
1789881479500870000,11.460869873046875,4.67620375906527,4.375874074056744,2.163852250955254
1789881479510885000,11.470885009765626,5.576896461492777,4.964181327500939,1.7623180075749754
1789881479520900000,11.480900146484375,6.20765286360979,5.468790891560912,1.5469121927447615
1789881479530915000,11.4909150390625,6.653254942905902,5.761075801801681,1.6068267093509434
1789881479540930000,11.500929931640625,6.797246065211295,5.671393192788958,1.9296949739038942
1789881479550944000,11.510944091796874,6.691130792313814,5.401532295802236,2.8581220709532498
1789881479560959000,11.520958984375,6.751764416974782,5.120308877801895,4.132112079444528
1789881479570974200,11.53097412109375,7.052919446891546,4.8079941559672355,5.326136570817232
1789881479580989200,11.5409892578125,7.090971821910142,4.789665303072333,6.338902577763795
1789881479591004200,11.551004150390625,6.384982776415348,5.045014859625697,6.903097718736529
1789881479601019100,11.56101904296875,5.559498751968145,5.540259798491001,7.193545476678014
1789881479611034000,11.5710341796875,4.82764227476716,6.170684192174673,7.335602416050434
1789881479621049000,11.581049072265625,4.232874885398149,6.687042061695456,7.115939089906215
1789881479631064000,11.59106396484375,3.7678456365764137,6.897244901055097,6.999224681583047
1789881479641079300,11.601079345703125,3.1785026103436946,6.742533647292852,7.016331883728504
1789881479651094000,11.611093994140624,2.3257203907348214,6.150085640782118,7.205760815128683
1789881479661109000,11.62110888671875,0.10208777094706892,4.5711447172224515,7.251720602270961
1789881479671123000,11.631123046875,-7.178311082667112,1.6018302162379026,5.649492911148071
1789881479681138000,11.641137939453126,-16.929543731349707,-2.2913567872315643,1.478563609792292
1789881479691153200,11.651153076171875,-18.47465252793431,-6.349146908402442,-3.654729252745211
1789881479701168000,11.661168212890624,-15.729434951627253,-9.818956523865461,-8.280359301131963
1789881479711183000,11.67118310546875,-6.076045422059297,-11.199437068307398,-9.295082871887088
1789881479721183000,11.681182861328125,-0.4972211708417162,-11.581167271673678,-8.768346231693029
1789881479731198000,11.691197998046874,-0.268225441271998,-11.413610564863681,-7.9945175756812095
1789881479741213200,11.701213134765625,-0.5468856942534447,-9.701971481907368,-7.331079385668039
1789881479751228200,11.711228271484375,-0.9092045101851224,-5.67786151202023,-5.8752580612987275
1789881479761243100,11.7212431640625,-1.482109027314186,-1.46320909653306,-3.504334985399246
1789881479771258000,11.731258056640625,-0.8236316745787858,0.4917968442380428,-0.9704633540723472
1789881479781272000,11.74127197265625,0.23922957534696906,-0.9859680163919925,2.3275649956882
1789881479791287300,11.751287353515625,0.27614797789957374,-4.113417900368571,3.708171212336421
1789881479801302300,11.76130224609375,-2.515788642951846,-6.391064142155647,3.9252360464200375
1789881479811317000,11.77131689453125,-4.673150216713547,-7.73501966727674,3.2936411476522682
1789881479821332000,11.78133203125,-0.08220832760930061,-5.625677735796571,2.4107724173374474
1789881479831347000,11.791346923828126,4.489463628357648,-1.6133406212896109,3.306999226397276
1789881479841362000,11.80136181640625,2.9922756898552176,0.873613556843996,3.1173829557314514
1789881479851377000,11.811376953125,1.1564666218727826,2.5018542256236076,3.247493728983402
1789881479861392100,11.82139208984375,0.5885749644696712,4.025588810268045,3.874035143753886
1789881479871407000,11.831406982421875,0.5526332979947328,4.876050039583444,4.376730398625135
1789881479881422000,11.841422119140624,0.6606850919127464,5.038065478879213,4.712339194546639
1789881479891437000,11.85143701171875,0.6181541101753711,4.59446071088016,5.203710214588046
1789881479901451000,11.861450927734374,0.5211486109286546,4.019522642096877,5.257725297892093
1789881479911466200,11.87146630859375,0.7050666699528694,3.512861406204104,4.868769819447398
1789881479921481200,11.881481201171875,0.8461936349987983,2.9177690226644275,4.54123356308341
1789881479931496200,11.89149609375,0.9361889632225036,2.1329817502647637,4.362563341584801
1789881479941511200,11.90151123046875,1.2072861240059136,1.3800918373852968,4.125481847649812
1789881479951526100,11.911526123046874,1.498001008450985,0.9807307002604008,3.5780440724715588
1789881479961541000,11.921541015625,1.9402233821809292,0.7820780134409666,2.796078871755302
1789881479971556000,11.93155615234375,2.222932070302963,0.612301877015829,2.087304725586623
1789881479981571000,11.941571044921876,2.1116519619882106,0.4224608576834202,1.371661570431292
1789881479991586000,11.9515859375,2.1604875968277453,0.17556874835193156,0.7990498987689614
1789881480001601000,11.96160107421875,2.191939550668001,-0.032767712613940236,0.7023601874731481
1789881480011615000,11.971614990234375,2.208430082219839,-0.044940380966663356,0.8236803360261022
1789881480021630000,11.9816298828125,2.2229180417776107,0.02004325559735298,1.0072076421670615
1789881480031645200,11.991645263671876,2.2593735029935837,0.050234395721554755,1.161645193554461
1789881480041660200,12.00166015625,2.335272501325607,0.008368015372753142,1.297648824237287
1789881480051675100,12.011675048828126,2.496269703489542,-0.13494389249682426,1.2304546720169485
1789881480061690000,12.021690185546875,2.7609073128700254,-0.3338765653014183,0.9979933852285147
1789881480071705000,12.031705078125,3.3514088614881037,-0.4714198266416788,0.6678259035781026
1789881480081720000,12.041719970703125,4.355422237658501,-0.7389893978208303,0.14645488207042218
1789881480091735000,12.051735107421875,4.37638553071022,-1.0576222167611122,-0.17292963201999664
1789881480101750000,12.06175,3.000037556028366,-1.6398469354212284,-1.438117617635429
1789881480111765200,12.07176513671875,2.1841747618854046,-1.2549918780326843,-2.7094085963010786
1789881480121779000,12.081779052734374,1.8684135528586803,-1.1447259151965379,-3.8205893847703933
1789881480131794000,12.0917939453125,2.003047794884443,-1.515875103315711,-3.9565199502170083
1789881480141809000,12.101808837890625,2.4627789372980593,-1.4392577275812626,-3.812006849864125
1789881480151824000,12.111823974609376,1.8997535707570612,-1.2485785038590431,-3.702226624718308
1789881480161839000,12.121839111328125,0.3259308669939637,-0.8202572297096252,-3.1354625100404023
1789881480171854000,12.13185400390625,-0.908581555981189,-0.5161883581727743,-2.6322344634667036
1789881480181869000,12.141869140625,-1.6745675356686114,-0.5900006133586168,-2.3491218707188963
1789881480191884000,12.151884033203125,-2.319882624492049,-0.9922083720862865,-2.3081096229813993
1789881480201899000,12.16189892578125,-2.9881621170565484,-1.5947434728473424,-2.3826173130854964
1789881480211914000,12.1719140625,-4.350040252359211,-2.8183459408819673,-3.038279316139221
1789881480221929000,12.181928955078124,-8.143743676030635,-5.177713603544235,-4.926144734573364
1789881480231943200,12.191943115234375,-10.496780966627597,-5.731233036723733,-5.738028103691339
1789881480241958100,12.201958251953124,-10.84967202900052,-5.5170040105879306,-6.517606117010116
1789881480251973000,12.21197314453125,-12.435884404867886,-5.908904894834756,-8.403499943110345
1789881480261988000,12.221988037109375,-9.186152541568875,-5.861957265698909,-8.44881032643318
1789881480272003000,12.232003173828126,-5.166634575647115,-5.176866046804189,-6.919213571757078
1789881480282018300,12.242018310546875,-5.650605840826034,-4.085643173736334,-6.739637341329455
1789881480292033300,12.252033203125,-5.800506479436159,-3.0980308972686528,-7.324296593660116
1789881480302048000,12.262048095703125,-2.2030941280193628,-2.406972878924012,-6.930700595933199
1789881480312063000,12.27206298828125,-0.5893471178859472,-2.7663994805455205,-7.209216508540511
1789881480322078000,12.282077880859376,-2.7625410515516995,-3.611460896643996,-9.50046925087571
1789881480332093000,12.292093017578125,-11.67251284546256,-4.7923424133270975,-12.7407885581851
1789881480342107100,12.302107177734374,-9.731623108327389,-5.733328547698259,-11.695146702075004
1789881480352122000,12.3121220703125,-3.587648643901944,-6.321228389385342,-8.420244741684197
1789881480362137000,12.32213720703125,-1.3531845412373542,-6.329026495915651,-5.665935511904954
1789881480372152000,12.332152099609376,-0.3179190446477383,-6.391398488676548,-3.7692753771185874
1789881480382167000,12.3421669921875,0.8429086219787597,-6.253948166316747,-2.63092659573853
1789881480392182000,12.35218212890625,2.4013860187023877,-6.321068814909458,-0.4807569793075323
1789881480402197200,12.362197265625,2.7633009300082922,-6.599990385708212,1.9641351497747004
1789881480412212200,12.372212158203125,2.2015701333224773,-7.034613390350342,4.245094607762992
1789881480422227200,12.382227294921876,2.8285212979376313,-7.619881714490056,6.13182342338264
1789881480432242200,12.3922421875,4.308049076586961,-8.346191078957915,7.803941227811574
1789881480442257200,12.402257080078124,6.280623407274485,-8.865885983946919,9.617131052228808
1789881480452271000,12.41227099609375,7.073737778514623,-8.532090667188166,10.42669094683528
1789881480462286000,12.4222861328125,7.769825023198127,-8.144184405535459,9.464713462361694
1789881480472301000,12.432301025390625,7.720545151722431,-6.620057022181153,7.31261258560717
1789881480482316000,12.44231591796875,5.951597204613686,-3.817213770857453,6.004654256540537
1789881480492331000,12.4523310546875,5.11742718488574,-0.289935716766119,4.865491236168146
1789881480502346000,12.462345947265625,2.494736502572894,2.5498405501574277,2.217049295874685
1789881480512361000,12.47236083984375,-0.48079848036170003,3.990736108073592,0.38018670025132595
1789881480522376000,12.4823759765625,-2.7207705327928067,4.569817268010974,1.2528944673620164
1789881480532391200,12.49239111328125,-1.3672269489847122,4.368311529847979,1.9797246408335862
1789881480542406100,12.50240625,1.6407321938231587,4.0329315742462875,2.0831378151655198
1789881480552420000,12.512420166015625,4.187008621758222,4.041197882810235,2.170591496082395
1789881480562435000,12.52243505859375,5.839759462416172,4.489613265961409,1.9938887752644716
1789881480572450000,12.532449951171875,6.473918950974941,5.139687532010674,1.7829377478860318
1789881480582465300,12.54246533203125,6.635778907448053,5.690687675845623,1.4855122598864137
1789881480592480300,12.552480224609376,6.917218014025687,6.1189534204155205,1.479922477055341
1789881480602495200,12.5624951171875,7.079306518557667,6.204872877502441,1.7030960032775997
1789881480612510000,12.572510009765624,7.169504675877094,5.89940582960546,2.333579725933075
1789881480622525000,12.58252490234375,7.581283980548381,5.299180174830556,3.630591421310603
1789881480632540000,12.592539794921874,7.781363485300541,4.908041507127881,5.205563733500242
1789881480642555000,12.602554931640626,7.585902872520685,4.954433840468526,6.14569821947813
1789881480652570000,12.612570068359375,7.05307960588932,5.344302342104911,6.516036091214418
1789881480662584000,12.622583984375,6.22354250665903,6.016867256903648,6.4109396399706595
1789881480672599000,12.63259912109375,5.498524935567379,6.720913351637124,6.18603841317296
1789881480682614000,12.642614013671874,5.0131250988900655,7.054482458424568,5.936740996265411
1789881480692629000,12.65262890625,4.625758935463428,7.334814480543137,5.813206971055269
1789881480702644200,12.662644287109375,4.152223724102973,6.964529800298809,5.529229285910725
1789881480712659200,12.6726591796875,3.4629005667269226,6.253803204888105,5.336571455591916
1789881480722673700,12.682673583984375,1.6651368595004081,4.791789455619454,5.417142537388205
1789881480732688600,12.692688720703124,-6.315232948362827,1.5685568921893833,4.575244261495769
1789881480742703600,12.70270361328125,-21.53790612633228,-3.387725791016221,0.390132961258851
1789881480752718600,12.712718505859375,-21.620218498837946,-8.407754677945375,-5.412945085698365
1789881480762732800,12.72273291015625,-14.259756366819142,-11.450012250065804,-8.63079946322143
1789881480772747800,12.732747802734375,-4.80020832439661,-12.084005734407901,-7.418619721955061
1789881480782762800,12.7427626953125,-0.5385199804356321,-11.906897939920425,-7.083055641958117
1789881480792777700,12.75277783203125,-1.4071125307798384,-11.813028400611877,-7.28708183850944
1789881480802792700,12.762792724609374,-2.495170802336931,-10.153545036828517,-6.906790728035569
1789881480812807700,12.7728076171875,-2.1661492758512497,-6.851241274771094,-5.00629145347774
1789881480822823000,12.782822998046875,-1.2906003670305013,-4.787799509200453,-1.2974749289751053
1789881480832838000,12.792837890625,-0.19511227426622063,-4.812062428319454,3.0790777749955653
1789881480842852600,12.8028525390625,-0.18323303590212017,-5.422761546313763,5.083002352714538
1789881480852867600,12.81286767578125,-3.3053643186718222,-5.554210582432151,5.121950799790024
1789881480862882600,12.822882568359375,-6.059788114741444,-4.097632886737585,5.321093315953016
1789881480872896800,12.832896728515625,-1.9740052402734756,-1.3908107997983694,4.043139372266829
