time,seconds_elapsed,z,y,x
1789666058559219500,0.048219482421875,-1.760840043976903,0.07967500973939895,0.28563235701639206
1789666058569172500,0.05817236328125,-2.0644412980020044,-0.15963877329230308,0.41851643090657886
1789666058579124500,0.06812451171875,-1.8804694629639387,0.5632172358512878,0.13876809042748062
1789666058589076500,0.078076416015625,-1.6053163047879933,1.0256628979206084,0.05628225191789679
1789666058599028200,0.0880283203125,-1.2031588149428367,1.0714584344118834,0.1413601527472958
1789666058608980500,0.09798046875,-0.7803712095230817,0.8255199725434184,0.315374401666224
1789666058618932500,0.107932373046875,-0.5678145005136728,0.48576253250986334,0.5186660368653014
1789666058628885500,0.117885498046875,-0.539391539105773,0.31879882315695285,0.6615887627542019
1789666058638837200,0.127837158203125,-0.42406887740194793,0.3802545778557658,0.6508782028432936
1789666058648789500,0.13778955078125,-0.35414719991385935,0.5590089705064892,0.5431171355001628
1789666058658741500,0.147741455078125,-0.43253100079894063,0.7381482708215713,0.33787045724317427
1789666058668693200,0.157693359375,-0.5782224972814322,0.9021221507087349,0.08008766392720863
1789666058678645200,0.167645263671875,-0.8624205471783876,0.958767874777317,-0.12627605392728
1789666058688598300,0.177598388671875,-1.2129390352010727,0.8673860606312751,-0.2725562370179221
1789666058698550500,0.187550537109375,-1.4532541042298077,0.7981307380974292,-0.4565661390440538
1789666058708502500,0.19750244140625,-1.5384078376412391,0.7669865350320935,-0.7597074839398265
1789666058718454300,0.207454345703125,-1.3482768954515456,0.8231000519201159,-0.8161237831667065
1789666058728406500,0.217406494140625,-0.9296534239739179,0.979860931688547,-0.43658853256143626
1789666058738358500,0.227358642578125,0.3509206390827894,1.1763102632448077,0.07236490592174231
1789666058748311600,0.2373115234375,1.7327391541302204,1.006893461651355,0.7153125349614768
1789666058758263300,0.24726318359375,2.2906489312231537,0.543670677729696,1.3138264904476702
1789666058768215300,0.25721533203125,3.211187905371189,0.20669307767301798,1.1775360056474804
1789666058778167600,0.26716748046875,3.4115649317651986,-0.0027155425690114495,0.7746860034935176
1789666058788119300,0.277119384765625,3.135602210772037,-0.2445718496903777,0.4687437393002212
1789666058798071300,0.2870712890625,2.9285733252733945,-0.38703547016754747,0.21233996098618954
1789666058808024300,0.2970244140625,2.7950030592173336,-0.32385391458943485,-0.12686812893575988
1789666058817976600,0.3069765625,2.7914316304713487,-0.19298194770663976,-0.24463687775060533
1789666058827928300,0.31692822265625,3.211532773286104,-0.2390301437847316,-0.2404153145328164
1789666058837880300,0.32688037109375,3.8345582888901233,-0.4825048458881676,-0.28145441374462093
1789666058847832300,0.336832275390625,4.054721965771913,-0.948130891559273,-0.1893495460210368
1789666058857785300,0.346785400390625,3.6657799313306807,-1.419200443458557,0.010583380734128877
1789666058867737600,0.356737548828125,2.9461808781564236,-1.48328113983348,-0.07845685698813758
1789666058877689300,0.366689453125,2.1524510053664443,-1.5811887024864553,-0.38658279449660327
1789666058887641300,0.376641357421875,1.3278741588920353,-1.927739894313365,-0.48183074601888654
1789666058897593600,0.386593505859375,0.4727776709914207,-2.1213699306651947,-0.4325115654461086
1789666058907545300,0.39654541015625,-0.4880208328306675,-2.685875160500407,-1.0699648348532615
1789666058917498400,0.406498291015625,-1.3158663257122039,-3.8523943898320194,-1.9192763096116483
1789666058927450400,0.416450439453125,-0.7897732441186904,-3.347861398139596,-2.1613895141035315
1789666058937402400,0.42640234375,0.0719219113945961,-2.5403221957057713,-2.055724907582998
1789666058947354400,0.436354248046875,0.6027630642980337,-1.9762363603264093,-2.1808269127622246
1789666058957306400,0.446306396484375,-0.46245559894144533,-1.0762029985904693,-2.022410374741256
1789666058967258400,0.45625830078125,-3.6461288899213073,1.3247756083548068,-1.149355474693328
1789666058977211400,0.46621142578125,-3.512268701007962,2.580605106255412,0.03360379811190069
1789666058987163400,0.476163330078125,-2.3023025441378353,1.5239850522741674,1.091257286794111
1789666058997115400,0.486115478515625,-1.8329665380328892,0.8495280401185155,1.0358063985332846
1789666059007067400,0.4960673828125,-0.5646838012725115,0.27765549638569353,0.2636602887809276
1789666059017019400,0.506019287109375,0.9250035523414611,-0.8834604125976562,0.6523992749307305
1789666059026972400,0.515972412109375,2.0113836615532636,-1.9485715238094328,1.2339644337035716
1789666059036924400,0.52592431640625,2.3006588685840366,-2.3522046391651035,1.4273214983329177
1789666059046876400,0.53587646484375,1.6142741027474403,-2.0250988831728693,1.0393050543040037
1789666059056828400,0.545828369140625,0.18843582870960235,-1.2441636100262403,0.5036050631925464
1789666059066780400,0.555780517578125,-1.417762519609928,-0.37531887501925226,-0.3198332807712257
1789666059076732400,0.565732421875,-3.0438720215797423,0.1582259838849306,-0.9491555584318936
1789666059086685400,0.575685546875,-3.8663258845508097,0.625780367270112,-0.9465040210098028
1789666059096637400,0.585637451171875,-3.7555946422904727,1.090416817381978,-0.6589294804170728
1789666059106589400,0.59558935546875,-3.1574317652642727,1.2530699700593948,-0.4699751077260822
1789666059116541400,0.60554150390625,-2.697798238006234,1.1871057980254291,-0.1078697153493762
1789666059126493400,0.615493408203125,-2.581145789003372,0.6468152642533183,0.4908746148265898
1789666059136445400,0.625445556640625,-2.9010160407841203,-0.372713953217864,0.8157820570569485
1789666059146398200,0.635398193359375,-3.2244203119099137,-0.4471402486488223,0.5901936882453039
1789666059156350500,0.6453505859375,-2.35072784461081,0.18606646922975778,0.24054266723953185
1789666059166302500,0.655302490234375,-1.158228370848298,0.727497697469592,0.18359832555055616
1789666059176254500,0.66525439453125,-0.605531944489479,0.7575435839042067,0.29169549298025665
1789666059186206500,0.67520654296875,-0.07071662725806235,0.685440178462863,0.35009478271789846
1789666059196159500,0.685159423828125,0.09075988285541534,0.6857409149751067,0.4057142324786633
1789666059206111700,0.69511181640625,-0.245035667809844,0.6799716839239001,0.14997121962830423
1789666059216063700,0.705063720703125,-0.34955928760170935,0.4490773541912436,-0.30284590561315416
1789666059226015500,0.715015380859375,-0.25210896719694137,0.14822598339617252,-0.6250201234873384
1789666059235967700,0.7249677734375,-0.30221827523410316,-0.18670126000195741,-0.7595555082485079
1789666059245919700,0.734919677734375,-0.42814299497306346,-0.36966391799747944,-0.8656389977682382
1789666059255872800,0.744872802734375,-0.4342278678447008,-0.23290800764262676,-0.9565031447157263
1789666059265824500,0.754824462890625,-0.08662555952966212,0.1713289188250899,-0.9314610579177737
1789666059275776500,0.764776611328125,0.5785913305938244,0.5673594502225517,-0.7049635018393396
1789666059285728800,0.774728759765625,1.4591653741002082,0.7480056479692458,-0.4295069768026471
1789666059295680500,0.784680419921875,2.2931284730792045,0.6404080275595188,-0.21184176567308605
1789666059305633500,0.794633544921875,3.444364208561182,0.27162644535452124,-0.0785179303924553
1789666059315585500,0.80458544921875,3.6233506564021107,-0.454473952537775,0.47647203199733046
1789666059325537800,0.814537841796875,1.840559477379918,-0.7515197935700416,1.508599559354782
1789666059335489500,0.824489501953125,1.9320435828566551,-0.3710965811491012,1.8259109204329549
1789666059345441500,0.834441650390625,1.2011264323323965,0.16336451581716538,1.6795128831163049
1789666059355393500,0.8443935546875,0.6024427463024854,0.2487628716394305,1.7634661546967922
1789666059365346600,0.8543466796875,0.7769991027414799,0.09143149850666522,1.8714273477219043
1789666059375298800,0.864298828125,1.18043669552505,0.18552783230841158,1.972227124685049
1789666059385250600,0.87425048828125,1.84656134814322,0.36615298726707696,1.7066192089676857
1789666059395202600,0.88420263671875,2.506594113627076,0.7549801631569862,-0.2029938212962821
1789666059405154800,0.89415478515625,3.3952316366016864,1.1225158369541168,-3.0922309788182374
1789666059415107800,0.90410791015625,4.342864369380474,-0.06936141325682402,-1.4192451593831181
1789666059425059600,0.9140595703125,4.366564393919706,-1.474189486361295,0.5645343463318422
1789666059435011600,0.924011474609375,3.606245207822323,-1.3630012941136955,0.5717694852171465
1789666059444963600,0.933963623046875,1.836693449601531,-1.1101695656001567,0.6856046483095735
1789666059454915600,0.94391552734375,0.013787702333927154,-0.7237015200570225,-0.43540286644082515
1789666059464868600,0.95386865234375,-0.7579243999153376,-0.09796791453808545,-1.0996454681720584
1789666059474820600,0.963820556640625,-0.41852644084393975,0.05991568564996123,-0.4417604187740013
1789666059484772600,0.973772705078125,-0.30160160464048386,0.08057619636282325,0.4123042053282261
1789666059494724600,0.983724609375,-0.45200142494440076,0.15409326799437403,1.2838980929128825
1789666059504676600,0.993676513671875,-0.46607437396049495,0.4547530617401004,1.3432234114542603
1789666059514628600,1.003628662109375,-0.16194938832223416,1.0026052629381417,0.4621422952085733
1789666059524581600,1.01358154296875,0.19147592705786226,1.0475881678722798,0.6795682907547801
1789666059534533600,1.02353369140625,-0.06307049641907214,0.65857087623775,1.0800625235628336
1789666059544485600,1.033485595703125,-0.5526467419981956,0.30254122357815505,1.497234407992661
1789666059554437600,1.043437744140625,-0.6860428205311297,0.27361791143268344,1.3776461977988481
1789666059564389600,1.0533896484375,-0.8052712575018406,0.28647417813539505,0.9211293412566185
1789666059574341600,1.063341552734375,-0.7441589094132185,0.06676657445803284,0.5757503350142389
1789666059584294700,1.073294677734375,-0.5790145244419574,-0.20927023468464612,0.29090478099398315
1789666059594246700,1.08324658203125,-0.8721358855068683,-0.42948315753564237,0.2483286449406296
1789666059604198700,1.09319873046875,-1.5383102224856615,-0.4215301527045667,0.17031659997738896
1789666059614150400,1.103150390625,-2.159898983284831,-0.2514009650580585,0.04403868288658559
1789666059624102700,1.1131025390625,-2.357986437436938,-0.07151143089756369,-0.0036731355547904966
1789666059634055700,1.1230556640625,-1.9782944618999956,0.02125759982317686,-0.07759111613743007
1789666059644007700,1.133007568359375,-1.6755127075642346,-0.13267214817255735,-0.23639358473606406
1789666059653959400,1.14295947265625,-1.3895213445097208,-0.34791619656980033,-0.1985213155247271
1789666059663911700,1.15291162109375,-1.5921283219128846,-0.29868133327960966,-0.1131179182011634
1789666059673863700,1.16286376953125,-2.312512387984991,-0.11694339477345347,-0.26500300862677395
1789666059683816700,1.172816650390625,-2.854908369603753,0.05985021919831633,-0.35682752503901716
1789666059693768700,1.182768798828125,-2.987084550952911,0.18021262863501905,-0.3294540726840496
1789666059703720400,1.192720458984375,-2.765995575919747,0.12865151435434818,-0.30794892784059047
1789666059713672700,1.202672607421875,-2.708754516306519,0.04005830801352858,-0.36857816858738657
1789666059723624700,1.212624755859375,-2.6419775665849445,0.0679807725533843,-0.31904790254719556
1789666059733576400,1.222576416015625,-2.75601252656579,0.15621522858440876,0.02395571633335203
1789666059743529500,1.232529541015625,-2.846251015895605,0.2929331450164318,0.4611240215441212
1789666059753481700,1.242481689453125,-2.48385270498693,0.4542921662300825,0.4425715159611776
1789666059763433700,1.252433837890625,-1.9402783272385595,0.5299010955743492,0.27717585964258756
1789666059773385500,1.262385498046875,-1.3814829994827509,0.4671554471954703,0.08421557577848433
1789666059783337500,1.27233740234375,-1.0127508093774318,0.3623727380760014,-0.11199888757597655
1789666059793289700,1.282289794921875,-1.1108026028066873,0.30848142728209493,-0.2935924857079983
1789666059803242800,1.29224267578125,-1.101406997951865,0.3913023338317871,-0.3378501816401258
1789666059813194500,1.302194580078125,-0.9657716160595416,0.5292956770271062,-0.16747180500552059
1789666059823146500,1.312146484375,-0.6900935572266578,0.6443544270977377,-0.24281039297580717
1789666059833098800,1.3220986328125,-0.19358663560152053,0.6991165293768048,-0.36830647550653667
1789666059843050800,1.33205078125,0.3622492578268051,0.743954619012773,-0.40260581813454627
1789666059853003800,1.342003662109375,0.9387427393585442,0.49645051526278255,0.08976363835968076
1789666059862955500,1.35195556640625,1.9438409881561993,-0.013578297366946934,0.43989539208710193
1789666059872907500,1.361907470703125,3.2465339440405367,-0.6216460439443587,0.4785035743575543
1789666059882859800,1.37185986328125,2.794984354516864,-0.8508806237712502,1.0537422335226088
1789666059892811500,1.3818115234375,1.6488485725224018,-0.7155255201250315,1.5875395328179
1789666059902763500,1.391763427734375,1.0447399388343095,-0.7314955349341035,2.089862739506364
1789666059912716500,1.401716552734375,0.5528121616929769,-0.7006070601955056,2.584624278768897
1789666059922668800,1.411668701171875,0.345949280411005,-0.3606479601100087,2.7450056871220467
1789666059932620500,1.42162060546875,0.5413870968371629,-0.18902531903535127,3.2729373823195695
1789666059942572500,1.431572509765625,0.6000485446423292,-0.5351113775685429,3.626105215807259
1789666059952524500,1.441524658203125,0.7027057860404252,-1.1119903512865303,3.6719191647380587
1789666059962476800,1.451476806640625,0.936162075215578,-1.342341952444613,3.0930040090173483
1789666059972429600,1.4614296875,0.9021943391621112,-1.0407117062315345,0.4005930170074105
1789666059982381600,1.471381591796875,1.0137135169297455,-0.5992781447917223,-2.894179472762346
1789666059992333600,1.48133349609375,0.8482891459733247,-0.6511094543159007,-2.5924016347721217
1789666060002285800,1.491285888671875,-0.013300795599818229,-1.056769983845949,-1.9132757540225982
1789666060012237600,1.501237548828125,-1.2384136681973934,-1.9816551705047487,-0.9501856321319937
1789666060022190600,1.511190673828125,-2.6403262922465798,-3.0705034233957527,-0.7980421830311417
1789666060032142600,1.521142578125,-3.5426568250089883,-3.873773862469196,-1.4942586070522665
1789666060042094600,1.531094482421875,-3.8043513666749,-4.134489329969883,-2.3814587907001377
1789666060052046600,1.541046630859375,-3.908637086057663,-4.015269368566573,-2.561908296830952
1789666060061998600,1.55099853515625,-4.007631713294983,-4.554331529587507,-1.478475931508839
1789666060071950600,1.56095068359375,-3.939571153503656,-5.827790792202949,0.12769348297715186
1789666060081903600,1.570903564453125,-4.14628147457242,-7.308133394366502,-1.1607669494152069
1789666060091855600,1.580855712890625,-2.9300971738398074,-7.742996052983402,-2.6753683795332908
1789666060101807600,1.5908076171875,-2.482265143534541,-7.5028849820941685,-2.923331332966685
1789666060111759600,1.600759521484375,-3.1701638210654255,-9.330720002457499,-3.993749902936816
1789666060121711600,1.610711669921875,-3.670587623873353,-7.901986591500044,-2.2064742719769477
1789666060131663600,1.62066357421875,-4.280363781803846,-4.227789252696931,1.1877291906207799
1789666060141616600,1.63061669921875,-3.980544384405017,-2.9524130505442616,3.3515058921217915
1789666060151568600,1.640568603515625,-2.9680723919689656,-3.658826458930969,3.516813943222165
1789666060161520600,1.650520751953125,-1.3638199170202017,-4.111127451343834,2.3846651855260133
1789666060171472600,1.66047265625,0.1981654878243804,-3.733818863812089,1.204471066585183
1789666060181424600,1.670424560546875,1.1216875694364308,-3.0273218687951564,0.6576724660933018
1789666060191377700,1.680377685546875,1.4850859972983599,-2.4731013016089793,-0.049472179177403444
1789666060201329700,1.69032958984375,1.1119269306614994,-2.7065274879068135,-1.5894699163585901
1789666060211281700,1.70028173828125,-0.011924246549606322,-3.3056004655152558,-2.822185080653429
1789666060221233700,1.710233642578125,-1.0842536185771225,-3.77103274217993,-3.1878724962353706
1789666060231185700,1.720185546875,-1.4169409740939736,-3.512389697039127,-2.560795074892044
1789666060241137700,1.7301376953125,0.013002104914188383,-2.749347223457694,-1.373897658920288
1789666060251090400,1.74009033203125,3.0058219846487044,-2.815639020010829,0.22077859390974044
1789666060261042700,1.750042724609375,-0.20118878116831182,-1.7945177110426127,0.5127735812932253
1789666060270994700,1.75999462890625,0.37612799944505093,-1.5502534659966825,1.3688339457899332
1789666060280946700,1.76994677734375,0.8062655292361974,-1.369973763474822,1.475249662938714
1789666060290898700,1.779898681640625,0.3189121473383158,-2.060035756519437,1.781095481020212
1789666060300850700,1.7898505859375,0.6230248580168932,-3.2987788028016682,2.2104116114258763
1789666060310803700,1.7998037109375,0.6706336544752121,-2.5822549192890523,3.4503532198429108
1789666060320755700,1.809755615234375,0.928986995954439,-1.40250299115777,5.084385331505537
1789666060330707500,1.81970751953125,1.5692863755077122,-0.5391778963550925,7.571970208758115
1789666060340659700,1.82965966796875,2.789790877526998,0.3518056052237749,10.168078589093685
1789666060350611700,1.83961181640625,3.626073359364271,1.523196824505925,10.487435630655288
1789666060360563500,1.8495634765625,3.05517784397006,2.925420414200425,10.181883827084302
1789666060370516500,1.8595166015625,1.9739935498356818,3.0617426093131304,10.045379261142015
1789666060380468500,1.869468505859375,1.358052439534664,2.5069974337309597,9.466474626815318
1789666060390420700,1.879420654296875,0.7568113971721381,2.2784306701630355,9.097315735730529
1789666060400372700,1.889372802734375,0.8294955981761216,2.319940492159128,9.454715215438604
1789666060410324500,1.899324462890625,1.407695299103856,2.341343345671892,9.519650336685777
1789666060420276700,1.90927685546875,1.661487104821205,2.4389818821251392,9.185741038158536
1789666060430229800,1.919229736328125,1.4714870955348014,2.8654011220455167,8.483936584872007
1789666060440181800,1.929181640625,0.9430043423257768,3.3283786990344524,7.819819180423021
1789666060450133500,1.939133544921875,0.3625384500317275,3.70666139229536,7.7739757131367915
1789666060460085500,1.94908544921875,0.19457666955217717,3.9636785897999998,7.737791470077633
1789666060470037800,1.959037841796875,0.06599091391041874,3.9880537371218203,7.43984429629147
1789666060479989500,1.968989501953125,-0.19417408010065554,3.8752427659779785,6.924670668119192
1789666060489942500,1.978942626953125,-0.5373199935287237,3.741763685336709,6.433191803789138
1789666060499894500,1.98889453125,-1.8367706064909695,4.0921255214929575,7.261043141889572
1789666060509846800,1.9988466796875,-0.7867600337773561,4.457114433416724,4.898638888010383
1789666060519798500,2.008798583984375,-1.6728087093025445,5.057444717609882,5.708047391447424
1789666060529750500,2.01875048828125,-1.9139562836326658,5.419398791882395,4.699977433362603
1789666060539702500,2.02870263671875,-2.3970317690156397,5.465149320188164,4.014165498977899
1789666060549655600,2.038655517578125,-2.2185832274436947,4.963454182270169,4.316421183612943
1789666060559607800,2.04860791015625,-1.9778860272295773,4.400772368469834,4.642029686784744
1789666060569559600,2.0585595703125,-1.9104742867358029,4.198458236533403,4.585622739908099
1789666060579511600,2.068511474609375,-1.8073418290413914,3.8470197110563515,4.107219045728445
1789666060589463800,2.0784638671875,-1.7933681026160715,2.8225480687469244,3.461464396443963
1789666060599415600,2.08841552734375,-2.2017899135529992,1.5103835201621054,2.931747863656282
1789666060609368600,2.09836865234375,-2.498421913087368,0.5103337869256734,3.057065849673748
1789666060619320600,2.108320556640625,-1.1549755795974284,0.7421276958465576,3.557131340563297
1789666060629272600,2.1182724609375,-0.5513637164503336,0.5038514391690493,3.38729850551486
1789666060639224600,2.128224609375,-0.3806406910965219,-0.6433452500551938,2.5679315026432272
1789666060649176600,2.138176513671875,-0.41231764933168885,-1.7095786432951687,0.7866232556551694
1789666060659128600,2.148128662109375,-0.8493395318090915,-2.0759020186930894,-2.277104974517226
1789666060669081600,2.15808154296875,-3.5632080301284788,-3.0719097830623388,-4.897369306465983
1789666060679033600,2.16803369140625,-5.056584301388264,-3.898938698863983,-6.2409004686951635
1789666060688985600,2.177985595703125,-1.5654770463526249,-3.3851094710379837,-6.031847968414425
1789666060698937600,2.1879375,-3.4608220068871973,-3.097996702738106,-2.9562761557132005
1789666060708889600,2.1978896484375,-2.7340497010827063,-1.8034408760800957,-0.48589960289299483
1789666060718841600,2.207841552734375,-2.598061852490902,0.26933248919844627,-0.09759411278963089
1789666060728794600,2.217794677734375,-3.0538381197988986,2.2271002958983184,-0.9310247123271226
1789666060738746600,2.22774658203125,-2.117153482013941,3.2877786853596564,-0.10319967771172522
1789666060748698600,2.23769873046875,0.13296119424700736,3.981024569137394,0.26899346650242806
1789666060758650600,2.247650634765625,3.103267628878355,2.0416186408191916,1.9824580113202332
1789666060768602600,2.2576025390625,6.286080503636598,1.0303855425283313,2.33416717043221
1789666060778555600,2.2675556640625,7.888279553186893,0.21831191153526305,1.4322586624741553
1789666060788507600,2.277507568359375,7.408035199576616,-0.4637812945872545,0.20630290931165218
1789666060798459600,2.287459716796875,4.946414784663915,0.8319755784235894,-0.7349357385158538
1789666060808411600,2.29741162109375,3.370930723559856,1.9399682383760808,-1.3967390208035706
1789666060818363600,2.30736376953125,2.613679108339548,2.181700772987306,-1.6459037512421606
1789666060828315600,2.317315673828125,3.003996230526268,1.327542734980583,-2.2449013255268335
1789666060838268400,2.327268310546875,5.094512757766246,-1.2706160020135342,-3.532368070706725
1789666060848220700,2.337220703125,4.298100514024496,-5.466802932614088,-6.5966954358160494
1789666060858172700,2.347172607421875,1.3253788349449633,-8.027704975011945,-9.848487738776207
1789666060868124700,2.357124755859375,-0.5437549950122833,-7.730923922395705,-9.759359256514907
1789666060878076700,2.36707666015625,0.7900282417930662,-5.501231856438517,-7.360802323758602
1789666060888028700,2.377028564453125,-2.3095077993415294,-3.9408670385330913,-5.3769361992061135
1789666060897980700,2.386980712890625,-4.21526791703701,-2.871577180331945,-2.751245750555396
1789666060907933700,2.39693359375,-4.995369077447056,-0.2270708259217441,-0.21366203990280627
1789666060917885400,2.406885498046875,-7.864228815513849,0.0645830929391086,0.1750403405636549
1789666060927837700,2.416837646484375,-12.305844651025533,-0.7910634300597011,2.2587802132755517
1789666060937789700,2.426789794921875,-9.323298328024148,0.9526251342386006,9.605006314671039
1789666060947741700,2.43674169921875,-2.638252116321027,1.8987673361986874,11.755940485733747
1789666060957694500,2.446694580078125,-2.3797414653882383,0.685753482195735,7.147755200883746
1789666060967646700,2.456646728515625,-1.2919079424977302,0.7970206579636782,1.6763924130082128
1789666060977598700,2.4665986328125,2.4147274385735393,0.4348887429062277,-2.636345698177814
1789666060987550700,2.47655078125,3.7588273406013846,0.7415155552975833,0.7725958993464708
1789666060997502500,2.48650244140625,4.570982512398064,2.1919386738851667,4.630781147539615
1789666061007454700,2.496454833984375,2.5488071154564618,2.9540991039350626,4.83914917268753
1789666061017407700,2.50640771484375,-1.469294846187532,2.640342951120436,4.8545530780464405
1789666061027359700,2.51635986328125,-1.5703832308337091,2.062004426243901,3.0203333250820634
1789666061037311500,2.5263115234375,0.5402876111626624,1.2384195134162903,1.9460580796837805
1789666061047263700,2.536263671875,0.26276041733175515,-1.0760027998432515,1.7458745300352572
1789666061057215700,2.5462158203125,-0.22133038257360457,-5.664214094939828,-0.3235638456016779
1789666061067167500,2.55616748046875,0.11066548354774713,-8.67688667613566,-0.09394260454475879
1789666061077120500,2.56612060546875,0.7806015111476182,-6.502876749911904,-0.7980313693761825
1789666061087072500,2.576072509765625,0.03892798880934715,-5.054684020724892,-0.6552741727799177
1789666061097024800,2.586024658203125,0.257292507314682,-5.309003065186738,-0.4822592005640268
1789666061106976500,2.5959765625,2.5150436698034406,-3.807311385524273,-0.7803951749205589
1789666061116928500,2.605928466796875,2.631625683918595,-1.072334778854996,-0.8646388077497482
1789666061126880800,2.615880859375,1.9904253369376061,-0.0965815747462213,-1.9616443558722734
1789666061136833800,2.625833740234375,0.8531576287925243,-0.18653963969945905,-2.6590216403663156
1789666061146785800,2.635785888671875,1.740224249188602,-0.9858481894046067,-3.200048671719432
1789666061156737500,2.645737548828125,0.2872624059036374,-1.7592907687082886,-2.430675241550803
1789666061166689500,2.655689453125,-0.5550222389578819,-2.2718875321298837,-2.552234751817584
1789666061176641800,2.665641845703125,0.58090282240659,-3.401878527270257,-3.578754558828473
1789666061186593300,2.67559326171875,2.594523156970739,-5.04181927845478,-3.9713235515952108
1789666061196546300,2.68554638671875,4.101237048709392,-6.633953445586561,-4.4896366468369955
1789666061206498300,2.695498291015625,5.160315894019603,-7.116348839750885,-3.9905636741161343
1789666061216450600,2.705450439453125,5.856617073714733,-6.419320514824986,-1.7803823643147945
1789666061226402300,2.71540234375,5.602199245053529,-4.67377974678874,0.1778887157320976
1789666061236354300,2.725354248046875,4.745015137223899,-2.694646495977044,0.6547796672612428
1789666061246307300,2.735307373046875,4.4890933337405325,-1.083335334688425,0.850291717967391
1789666061256259300,2.74525927734375,4.77136655305475,-0.46039340571463105,0.8305798862814903
1789666061266211300,2.75521142578125,4.719432075417042,-0.05754033482074737,0.6656459291905165
1789666061276163300,2.765163330078125,3.839322142291069,0.7025193235576153,-0.06916939781606198
1789666061286115300,2.775115234375,2.7106130036547778,1.5791384919583797,-0.38484161338508127
1789666061296067600,2.785067626953125,2.025593242561072,2.575520934858918,-0.1790314560264349
1789666061306020400,2.795020263671875,1.3018028751768171,2.9308897855222225,0.08093406988978386
1789666061315972400,2.804972412109375,0.6395464422941207,2.8855525141924616,0.3224117529571056
1789666061325924400,2.81492431640625,-0.6149882665555924,2.934461798790097,0.8934194965541362
1789666061335876400,2.82487646484375,-2.286924357742071,3.0115432849049566,1.5883502646788954
1789666061345828400,2.834828369140625,-2.8029075487315653,3.2859085075736045,1.4166101347044109
1789666061355781400,2.844781494140625,-2.6402690091013907,3.285484729203582,0.9466945751458405
1789666061365733400,2.8547333984375,-1.9445213716357945,3.0649960581511255,0.8854878267720341
1789666061375685400,2.864685302734375,-1.5905676484674214,3.1461154214799403,1.0926052673369646
1789666061385637400,2.874637451171875,-1.8889988063782452,2.745724941307306,1.4488383336141704
1789666061395589400,2.88458935546875,-2.677046541878581,2.0585142460405828,1.7965876491844652
1789666061405541400,2.894541259765625,-2.763929875561595,1.413810567113757,2.6557021405547854
1789666061415494400,2.904494384765625,-2.835243299669027,1.2203490191966295,3.1665365704789754
1789666061425446100,2.914446044921875,-2.6136551429420707,1.8597060763984918,3.696617260403931
1789666061435398400,2.9243984375,-2.372159339696169,2.199227954110503,4.246945496326685
1789666061445350400,2.934350341796875,-2.255962817767262,2.551536832681298,4.820288697133958
1789666061455302400,2.944302490234375,-1.9200027241900561,2.9978210490226744,5.515466718018055
1789666061465254400,2.95425439453125,-1.2973980643466114,3.284809021899104,5.957766248637437
1789666061475207400,2.96420751953125,-0.8328649284787476,3.5497003137797116,5.868293482983112
1789666061485159400,2.974159423828125,-1.0667857664257288,3.378741105049848,5.6175575577050445
1789666061495111400,2.984111328125,-1.7119582319080828,3.119876818373799,5.793839422762393
1789666061505063200,2.994063232421875,-2.107436390119791,3.247803525584936,6.374812095534801
1789666061515015400,3.004015380859375,-2.9095582436800003,-4.9338849734365935,4.877795129685103
1789666061524968400,3.013968505859375,-2.648937760986388,0.9681944592922925,7.211853286784887
1789666061534920400,3.02392041015625,-2.1144830937609074,-4.839693362566829,6.263222190618515
1789666061544872200,3.0338720703125,-2.7483482755482194,-6.965582524222135,7.482820099186897
1789666061554824400,3.043824462890625,-3.9984468285813923,-10.600164184212684,10.279213735979795
1789666061564776400,3.0537763671875,-6.282671571975946,-14.026902719712256,10.212368981719017
1789666061574728400,3.063728515625,-5.904976323214173,-13.920191234487294,5.794332759237289
1789666061584681200,3.07368115234375,-2.713220263543725,-11.296250259852409,2.6515879832342266
1789666061594633200,3.08363330078125,-1.9183385903701184,-8.880158839449287,1.2739578597873449
1789666061604585500,3.09358544921875,-2.5440055603936313,-6.470093255206942,-0.21343056923449039
1789666061614537500,3.103537353515625,-2.6396628599017857,-4.395952985489368,-1.5082166975170372
1789666061624489200,3.1134892578125,-1.336250357571244,-3.5445991912484165,-1.8272183497697114
1789666061634441500,3.12344140625,1.0487702172636986,-3.981453900465369,-1.6783868016958237
1789666061644394500,3.13339453125,3.6067502347350118,-5.5276715350747105,-2.0044186448462304
1789666061654346500,3.143346435546875,5.066226574480534,-6.483680466532707,-2.7449840598121282
1789666061664298200,3.15329833984375,6.2720496401965615,-6.188010590028762,-3.4588165122836827
1789666061674250200,3.163250244140625,5.903421494987606,-5.321128971788287,-4.145901535344124
1789666061684202500,3.173202392578125,4.934391169393062,-4.691091531595587,-4.80050701508224
1789666061694155500,3.183155517578125,4.1198517328083515,-4.094914859950542,-5.404027619749307
1789666061704107300,3.193107177734375,3.00301394149065,-3.6488726356714962,-5.038936416494846
1789666061714059300,3.203059326171875,2.9686662662088867,-3.299070771485567,-5.178710797888041
1789666061724011500,3.213011474609375,4.132907613736391,-3.363688497346639,-8.425117900678515
1789666061733963500,3.222963623046875,3.583298047477007,-2.0710043097794055,-9.503559618106484
1789666061743915300,3.232915283203125,-1.254476475856453,-0.3611287293642759,-6.04271130773425
1789666061753868300,3.242868408203125,-4.109974481916427,1.1443155808299779,-1.77537359624207
1789666061763820300,3.2528203125,-0.659134063078463,2.349060788181424,2.6343206220909954
1789666061773772500,3.2627724609375,1.5349974446758627,1.8876257644593715,5.108982597145438
1789666061783724300,3.272724365234375,5.292559295386075,1.6402794816195965,3.5987428693681953
1789666061793676300,3.28267626953125,5.213245520174503,0.7610667895942926,2.2697715628892183
1789666061803629300,3.29262939453125,2.0992446080967784,0.1779758094936609,1.251667117524147
1789666061813581600,3.30258154296875,0.260264362732321,0.3597434124857187,-1.468829859024286
1789666061823533300,3.312533203125,0.3133741677597165,0.612917378565669,-4.639942359116673
1789666061833485300,3.3224853515625,1.9987021668955682,1.624194608259201,-5.757858008798957
1789666061843437300,3.332437255859375,3.616443945753574,2.6598791339784857,-6.000674831515551
1789666061853389300,3.342389404296875,3.7987121917441486,2.443244800266623,-5.665107828909158
1789666061863342300,3.35234228515625,3.617286826318502,2.925779895162582,-5.782289854744076
1789666061873294300,3.36229443359375,3.496782085801661,3.8055812007308005,-6.770172180324792
1789666061883246300,3.372246337890625,3.56475350600481,4.33707117293179,-7.5379995500952
1789666061893198600,3.382198486328125,3.7813559832736847,4.70447649834752,-8.354970597741007
1789666061903150300,3.392150390625,3.782817287997901,5.000763045445084,-9.131048493984341
1789666061913103400,3.402103271484375,3.5228400716438886,5.250785269495845,-9.922669411796331
1789666061923055400,3.412055419921875,3.137680770611763,5.498216308009624,-10.630989530587195
1789666061933007400,3.42200732421875,3.3936627798497674,5.666566211023927,-11.051368321299552
1789666061942959400,3.43195947265625,2.9709362569674846,6.009102468121052,-10.827041679519414
1789666061952911400,3.441911376953125,1.6439198839485645,6.260149943566322,-9.762343825283645
1789666061962863400,3.45186328125,0.0952874432824552,5.200809232449531,-8.430166416239738
1789666061972816400,3.46181640625,-3.0077427235782146,3.4693764847427606,-5.662926393216848
1789666061982768400,3.471768310546875,-10.412288327473401,1.2471680525392292,-3.0258252004966137
1789666061992720400,3.481720458984375,-28.239423872625824,-3.044723085451126,2.2775606093302367
1789666062002672400,3.49167236328125,-23.208635691273212,-8.152716087037325,18.923276585400103
1789666062012624400,3.501624267578125,5.764702175605297,-11.033555601233243,31.384960617434977
1789666062022577400,3.511577392578125,11.261436136102676,-14.531640878587961,33.129466197204586
1789666062032529400,3.521529296875,7.284756025910377,-15.104929426598549,19.301777889847756
1789666062042481400,3.5314814453125,-3.980185780225694,-11.97919745245576,8.57566852762997
1789666062052433400,3.541433349609375,-18.254147490268945,-5.58867691565752,1.0762824935674666
1789666062062385400,3.551385498046875,-10.986277132707833,-0.1808557488441467,-1.3883166448950768
1789666062072337400,3.56133740234375,-0.28288389855846763,0.24562720396220683,-5.36377568885982
1789666062082290400,3.57129052734375,3.319887934064865,-2.569666948133707,-5.361415973991155
1789666062092242400,3.581242431640625,3.485096031922102,-2.1740818224161864,-4.2932630108654495
1789666062102194400,3.5911943359375,3.4682699848055836,-0.6438800875842571,-4.25805141223073
1789666062112146400,3.601146484375,1.9658150656856594,-0.6309487098187208,-4.669878063175082
1789666062122098400,3.611098388671875,-7.125427049219608,-3.435320485883951,-6.94298899962008
1789666062132051500,3.621051513671875,-13.73970490347743,-8.675223126837611,-7.037524309360981
1789666062142003200,3.631003173828125,0.6488986463986337,-9.639888827481865,-1.1008324129343032
1789666062151955500,3.64095556640625,9.228706319659947,-7.524557300198078,-0.40363340761661526
1789666062161907500,3.650907470703125,8.857145628130436,-4.190958236166835,-4.138863015009463
1789666062171859200,3.660859130859375,7.275964816689491,-0.011908464458584785,-6.458574082326889
1789666062181811500,3.6708115234375,6.200912157177925,2.9920640929311513,-6.446410181802511
1789666062191764500,3.680764404296875,4.994787478166819,4.608570484775305,-5.793744730216265
1789666062201716500,3.690716552734375,4.060083200544119,5.094979790756106,-5.349845947706699
1789666062211668500,3.70066845703125,3.47816126422286,4.376445151942968,-5.072054842242598
1789666062221620500,3.710620361328125,3.5687492976427078,2.8418559958070513,-5.030129425182938
1789666062231572500,3.720572509765625,4.440170897400379,0.6862608471959829,-4.867826401117444
1789666062241524500,3.7305244140625,4.266204323548078,-1.532477278548479,-4.870071257434785
1789666062251477500,3.7404775390625,3.974564140951633,-2.943231380701065,-4.242601621903479
1789666062261429500,3.750429443359375,4.562105670720339,-3.979016444185376,-3.314898747475445
1789666062271381500,3.760381591796875,5.187596699655056,-4.327245359966159,-2.3987583005473017
1789666062281333500,3.77033349609375,5.152975468128919,-3.697351712158322,-1.3094193415299058
1789666062291285500,3.780285400390625,4.727450546699762,-2.508774964797497,-0.5399775223001837
1789666062301238500,3.790238525390625,3.939370077973604,-1.0365139622807502,-0.3951788830041885
1789666062311190500,3.8001904296875,3.2338357905089854,0.3783265324026346,-0.3841507085114717
1789666062321142500,3.810142578125,2.801426954784989,1.6420605198174714,-0.45146921776384114
1789666062331094500,3.820094482421875,2.108693112182617,2.272272732055187,-0.20582009423077105
1789666062341046500,3.830046630859375,1.5684803198218344,2.283800088241696,0.13282470838576554
1789666062350998500,3.83999853515625,1.4242314233630895,1.9190613516867159,0.6685641547247767
1789666062360951300,3.849951416015625,0.7679968811184168,1.3818781362801789,1.4615309341877698
1789666062370903600,3.859903564453125,-0.006184095462411642,0.9491057279407977,1.9251140758544205
1789666062380855600,3.86985546875,-2.750786900871992,0.2794119846642017,3.4421564693838356
1789666062390807300,3.879807373046875,-9.469729829218982,0.037300095346570014,6.640586015468836
1789666062400759600,3.889759521484375,-8.62229700781405,0.7070897002130746,6.104818512079119
1789666062410712600,3.899712646484375,-3.188645818695426,1.1676350816190242,4.057244762247801
1789666062420664600,3.90966455078125,0.18739844848588108,1.556103068807721,2.3323406856574116
1789666062430616600,3.919616455078125,0.8442764032006264,1.6393939309567211,1.789805149437487
1789666062440568300,3.929568359375,0.7958209998503327,1.2879846315741539,1.5915857394687831
1789666062450520600,3.9395205078125,0.469462116702646,0.7199819150120019,1.16637697131671
1789666062460472600,3.94947265625,-0.5883844103336334,0.09508651388287544,1.3192491000182927
1789666062470425600,3.959425537109375,-2.6413679102540013,-0.4613321478694677,1.7201961911603807
1789666062480377300,3.96937744140625,-4.1780905712872745,-0.13284838152229786,1.5838360021248459
1789666062490329600,3.97932958984375,-3.6782466141939163,0.6014110651671886,1.7216306078776715
1789666062500281600,3.989281494140625,-1.4069126242935657,0.6370066946834325,2.6645725524917245
1789666062510233300,3.9992333984375,0.3592740414083004,-0.07654957119524479,4.461207547949254
1789666062520186400,4.009186279296875,1.1615727128401399,-0.8977595715850591,6.80958473778069
1789666062530138400,4.019138427734375,1.916135235106945,-1.6547791316151619,8.973056903377175
1789666062540090600,4.029090576171875,2.065161721231043,-1.3351415195465086,10.21907695492506
1789666062550042400,4.03904248046875,1.6254638975426554,0.01672317126393318,10.759399637401103
1789666062559994400,4.048994384765625,-0.13126783433258532,1.19821025262475,11.283213083624839
1789666062569946600,4.058946533203125,-2.429830607420206,2.1832827814817426,10.420956787097454
1789666062579899600,4.068899658203125,-2.462085109815001,2.463066522067785,9.28282369429469
1789666062589851600,4.0788515625,-1.7380337534070014,1.6547703637868165,8.359495966210961
1789666062599803400,4.088803466796875,-2.193846991724521,0.14099953927397726,7.566409067499637
1789666062609755400,4.09875537109375,-3.1219927876144644,-1.8419032932043073,7.1843772508382795
1789666062619707600,4.108707763671875,-3.6265813088864087,-3.8844536619156598,6.775799372556805
1789666062629660700,4.11866064453125,-3.094906335507333,-4.639320427826046,6.312534210798144
1789666062639612400,4.1286123046875,-2.0843542052179576,-3.812195650434494,6.751484430989622
1789666062649564400,4.138564453125,-0.6811620627522468,-2.427788872459531,7.468565948385
1789666062659516700,4.1485166015625,1.4478607207536696,-1.1738029565989971,7.685321278128027
1789666062669468400,4.158468505859375,2.149123322248459,0.21111936968266962,6.521372191545367
1789666062679420400,4.16842041015625,2.3015093479335307,0.5781044238597154,4.798523147788644
1789666062689373400,4.17837353515625,1.6805618076473474,-0.275761645463109,2.8016543338000774
1789666062699325400,4.188325439453125,0.8610089268147945,-2.4715134478956458,1.7270234068319201
1789666062709277400,4.19827734375,0.7504770065188408,-4.996987034037709,1.0128151067852973
1789666062719229400,4.2082294921875,1.1873229479074476,-6.55989686025083,-0.5404235125020146
1789666062729181400,4.218181396484375,2.7775112416684626,-7.863796269315481,-1.535532282204926
1789666062739134500,4.228134521484375,3.641780631583929,-9.922090735125542,-2.1819716988831757
1789666062749086700,4.238086669921875,2.2744389701783656,-11.883393145692347,-3.057273939466476
1789666062759038500,4.24803857421875,-1.781906797403097,-14.254653490722179,-3.668095222535729
1789666062768990500,4.257990478515625,-3.435457264006138,-14.222446334600448,-2.6850217585414646
1789666062778942500,4.2679423828125,-2.1822762347877025,-8.713660117259622,-0.564359976145625
1789666062788894500,4.27789453125,-0.7900456313192844,-4.595246308299899,-0.07981149560064077
1789666062798847500,4.287847412109375,1.1266729566335678,-2.513390349638462,-0.2347662027299404
1789666062808799500,4.297799560546875,4.214128099352121,-0.7227928807795048,-1.063778985825181
1789666062818751500,4.30775146484375,6.004718553948402,0.12505319760143757,-2.958218521952629
1789666062828703500,4.317703369140625,5.256310754919052,1.3221487669825553,-2.4206588744491335
1789666062838655500,4.327655517578125,3.9513831718504426,2.7388778518915173,-0.8742933558017015
1789666062848608500,4.3376083984375,2.6662954307615756,3.38302740406692,-0.9357412194550037
1789666062858560500,4.347560546875,2.6638100436866283,3.0721500215589996,-2.481459087848663
1789666062868512500,4.357512451171875,2.862594247931242,2.417020225685835,-3.652254094803333
1789666062878464500,4.367464599609375,2.9532489168465137,1.1244704781532286,-4.373334326446056
1789666062888416500,4.37741650390625,2.9231834489285946,0.27052140672206876,-4.925894559204578
1789666062898368500,4.387368408203125,3.2260432369366288,0.20113222867548464,-5.495235830894112
1789666062908321500,4.397321533203125,3.4554610643759367,0.432287839692831,-6.283908420294523
1789666062918273500,4.4072734375,3.6302854241013525,0.9657815529316663,-6.999588254198431
1789666062928225500,4.4172255859375,3.782676125961542,1.7345628624260425,-7.846310296985506
1789666062938177500,4.427177490234375,3.990417835904658,2.3697622154265643,-8.545285079804062
1789666062948129500,4.437129638671875,4.207480916422606,2.849704955741763,-9.19498174471259
1789666062958082600,4.44708251953125,4.288814799284935,3.3036557611882684,-9.89635540536642
1789666062968034600,4.45703466796875,4.400515763360262,3.6665275348275896,-10.552006594765185
1789666062977986600,4.466986572265625,4.243673927310109,4.120416965475679,-11.102020650172232
1789666062987938300,4.476938232421875,3.605521277461946,4.489851166370511,-11.507660136914252
1789666062997890600,4.486890625,3.4123908611953255,4.5569320674747225,-11.546208186495303
1789666063007842600,4.496842529296875,3.6906887471377847,4.550890449222922,-10.946863990730046
1789666063017795600,4.506795654296875,3.0164100141584873,4.666456272032857,-10.274211397647857
1789666063027747300,4.516747314453125,1.3456290112912654,4.146388442078233,-8.798702791512012
1789666063037699600,4.526699462890625,-2.394297375615686,2.552676650366187,-7.25617816620171
1789666063047651600,4.536651611328125,-10.823442193722725,-0.42738545460402966,-5.239484123280644
1789666063057603600,4.546603515625,-25.30078215780258,-5.42489154407978,1.4137600059702993
1789666063067556600,4.556556640625,-23.58467732760906,-9.751969730785488,18.998880984699724
1789666063077508400,4.56650830078125,0.18363018199354408,-11.850461182427406,35.03875785002708
1789666063087460600,4.576460693359375,9.820587339937687,-13.128628184342384,33.894100323891635
1789666063097412600,4.58641259765625,3.0425197301879523,-12.706682874965667,20.021981338655948
1789666063107364400,4.5963642578125,-7.045266886311769,-6.4571344049125905,6.478496926414966
1789666063117316600,4.606316650390625,-13.299177643227576,1.3398878372907639,-0.815859871533513
1789666063127269600,4.61626953125,-6.85499799695611,4.746435233154893,-1.9740449877619741
1789666063137221600,4.6262216796875,1.3683096296548842,2.808208577749133,-2.946892241296172
1789666063147173400,4.63617333984375,4.776311900502443,-0.5373953968524933,-4.630690546646714
1789666063157125400,4.64612548828125,6.348221025729179,-3.598092296504974,-5.745045873498916
1789666063167077600,4.65607763671875,5.3739691660940645,-4.303391021648049,-6.430127155521512
1789666063177030700,4.66603076171875,-2.401514028996229,-5.95787321614325,-9.171891376504302
1789666063186982700,4.675982666015625,-23.012357916891574,-11.613918033152817,-14.074017522108553
1789666063196934400,4.685934326171875,-10.929551621401309,-14.284375259768963,-4.723474044284224
1789666063206886700,4.69588671875,9.120566262936592,-10.639238303494453,3.816682440459728
1789666063216838700,4.705838623046875,12.246326294130085,-5.8545993041515345,0.7751631194859743
1789666063226791700,4.715791748046875,10.00765889455676,-1.3043418921351433,-3.566387244686484
1789666063236743400,4.725743408203125,8.941991318506002,1.300108784610033,-5.261770773890614
1789666063246695400,4.7356953125,8.02342452121377,3.3288252737581727,-5.448860448688269
1789666063256647700,4.745647705078125,7.01169545609951,4.727078790777921,-5.475920305049419
1789666063266599700,4.755599609375,6.04631196257472,5.280892238467931,-5.264112953102589
1789666063276551400,4.765551513671875,5.305035330599546,4.740704580548405,-4.749110589843988
1789666063286504400,4.77550439453125,5.300536850136518,3.266805747696757,-3.999820747283101
1789666063296456400,4.78545654296875,5.50984244839549,0.9994541054308413,-3.388971407163143
1789666063306408700,4.79540869140625,4.778756371045112,-1.6283008745342493,-2.2379241799905896
1789666063316360400,4.8053603515625,4.466811067044735,-3.54354880541265,-0.9392430900961161
1789666063326312400,4.8153125,4.893744686228037,-4.739093638220429,-0.054845688909292215
1789666063336265500,4.825265380859375,5.42824786877036,-4.801838555946945,0.8307581654578446
1789666063346217700,4.8352177734375,5.787137294775247,-3.5426895582348106,0.9811211608827114
1789666063356169500,4.84516943359375,4.8207016618490215,-1.3767553864389657,-0.313490779876709
1789666063366121500,4.85512158203125,2.6698388024568556,0.5040753110527992,-0.7872133305028081
1789666063376073500,4.865073486328125,1.6944073776483535,1.8183873930603265,-0.7401897135213017
1789666063386025500,4.875025390625,1.337670161241293,2.7418530683100224,-1.188853810736537
1789666063395978500,4.884978515625,1.9769021307587622,3.4781057346433397,-1.0599962524160742
1789666063405930500,4.894930419921875,2.333544070097804,3.0662825908303257,-0.8338754206955432
1789666063415882500,4.904882568359375,2.00713769454658,1.7168267147272824,-0.2956485414549708
1789666063425834800,4.914834716796875,1.6427151843339203,0.4614075511932373,0.46593788809925313
1789666063435786500,4.924786376953125,1.0149795182775705,-0.4824819034039974,1.2855185337215662
1789666063445739500,4.934739501953125,-5.322843959012627,-1.1864911732584238,4.113227930754423
1789666063455691500,4.94469140625,-13.296198919677733,-1.1122381885677575,7.344586517494917
1789666063465643500,4.9546435546875,-10.216086540937424,-0.4774941781193018,5.1239843514442445
1789666063475595500,4.964595458984375,-2.823111547848582,0.48608664989769457,2.990673515355587
1789666063485547500,4.974547607421875,1.205029723381251,1.5373457613676786,2.0878784338213503
1789666063495500500,4.98450048828125,2.8119769903719423,2.1833879954218864,1.5426555582135915
1789666063505452500,4.99445263671875,2.8823101712703703,2.3425293405860663,1.6951596573203802
1789666063515404500,5.004404541015625,1.9575427657723425,2.076527457115054,2.049166571980715
1789666063525356500,5.0143564453125,-0.5651539030022918,1.4390057986468077,1.8622488927491008
1789666063535308500,5.02430859375,-4.1394440297678115,0.7162608486622571,1.401313196851313
1789666063545260500,5.034260498046875,-4.624771093469858,0.20203882212638855,0.6536638149738312
1789666063555213600,5.044213623046875,-1.979827808947116,-0.16331190884709357,0.26185981523022056
1789666063565165600,5.05416552734375,-0.7365614400215447,-0.2615489957153797,0.43869821819178756
1789666063575117600,5.06411767578125,-0.935902839757502,0.12880582813322544,1.5158023303404449
1789666063585069600,5.074069580078125,-0.5173530180379748,0.4103355356037616,3.934369493207335
1789666063595021600,5.084021484375,0.728545014565438,0.11175649365484713,5.9191340279042715
1789666063604974600,5.093974609375,1.5451934061281383,-0.5075982244819403,7.503882760959863
1789666063614926600,5.103926513671875,1.4489949854806066,-0.5998597440719604,9.12847718219161
1789666063624878600,5.113878662109375,0.32348186640664933,0.24926176107227802,10.090286908882856
1789666063634830600,5.12383056640625,-0.46006388149932026,1.1217723251104355,10.537542016083002
1789666063644782600,5.133782470703125,-0.28482860288545486,1.842033057063818,9.889491949337721
1789666063654735600,5.143735595703125,-0.5439765288084745,2.6858430117964742,8.706928178656101
1789666063664687600,5.1536875,-2.1570282501541076,2.6642373291879893,8.066825856044888
1789666063674639400,5.163639404296875,-4.023492130249738,0.9528858310014009,6.580702916914224
1789666063684591600,5.173591552734375,-3.9611949562907216,-1.2512217118442057,5.3253433746129275
1789666063694543600,5.183543701171875,-3.0481442920714614,-3.279311009004712,5.46484186167419
1789666063704496600,5.19349658203125,-2.5945605663716793,-4.978877961373329,5.918677516308427
1789666063714448400,5.203448486328125,-3.064650605714321,-5.102141352948546,5.958972701817751
1789666063724400600,5.213400634765625,-3.0862387526661155,-3.5782249819964167,6.234635563081502
1789666063734352600,5.2233525390625,-2.3907126489967108,-1.5757506030857562,6.6596198017627
1789666063744304600,5.2333046875,-0.7557230904787778,-0.04584522085189819,7.113886249029636
1789666063754256400,5.24325634765625,0.559468112450838,1.2442892822325229,8.005379745957255
1789666063764209400,5.25320947265625,1.5041548549056052,2.0257073704600335,6.258692145973444
1789666063774161700,5.26316162109375,1.6288777976393698,1.9866794284075497,3.285435629364848
1789666063784113700,5.27311376953125,1.5416776530921459,0.5100894567757844,2.377983223544061
1789666063794065400,5.2830654296875,2.2827906189382077,-2.5514281116098165,2.2447575331419705
1789666063804017700,5.293017578125,2.7052468004465102,-5.518657038491964,2.4695415633007882
1789666063813970700,5.302970703125,3.8585119959294794,-7.866068305900693,1.4876120086446403
1789666063823922700,5.312922607421875,4.585679438531399,-9.681016956683992,-0.6199272573277353
1789666063833874400,5.32287451171875,3.7126270227015015,-11.246741255795955,-2.3222540297985077
1789666063843826400,5.332826416015625,1.116621372088045,-12.572789952826499,-2.4809847483351826
1789666063853778700,5.34277880859375,-2.405329787892103,-13.256641985315083,-1.5606547407627105
1789666063863730400,5.35273046875,-2.0382827743947507,-10.055684382057189,-0.18239947115480898
1789666063873683500,5.362683349609375,-0.14660744228363037,-5.591614722675085,-0.20402502750754356
1789666063883635500,5.372635498046875,1.2016744216039776,-2.9187837526649236,0.2066752497553825
1789666063893587700,5.382587646484375,3.24119375205636,-1.0291630149960518,0.17388649435341358
1789666063903539700,5.392539794921875,5.294181928151845,0.2108499050915241,-1.115131571921706
1789666063913491500,5.402491455078125,4.723639463979006,0.7828618572950363,-1.4283645776450633
1789666063923444500,5.412444580078125,3.4958430513858794,1.181291266527772,-0.7998597538471222
1789666063933396500,5.422396484375,2.0592004747390744,1.4693313788056372,-1.1296949348032475
1789666063943348700,5.4323486328125,1.7195643229976296,1.3960644825428723,-2.2891946407616137
1789666063953300500,5.442300537109375,2.449333618661016,0.536840101057291,-3.61055839484632
1789666063963252500,5.45225244140625,3.006199585789442,-0.5604729055792093,-4.6844005095243455
1789666063973205500,5.46220556640625,3.1965280963778495,-0.8301087616384029,-5.202506684017181
1789666063983157800,5.47215771484375,3.2994542178452013,-0.5292541759729386,-5.421978286981583
1789666063993109500,5.482109619140625,3.454649455732107,0.0671896221756935,-5.9258525225043295
1789666064003061500,5.4920615234375,3.6188735109880565,0.6934960591465235,-6.477936954444647
1789666064013013500,5.502013427734375,3.740058634984493,1.2643296152204275,-7.308814362367987
1789666064022965500,5.511965576171875,3.9165854147136208,1.8538123421847819,-8.074380216947198
1789666064032918500,5.52191845703125,4.161585718949139,2.4765765765041112,-8.720385626122354
1789666064042870500,5.53187060546875,4.502947379308939,2.9811066455870865,-9.292416283026338
1789666064052822500,5.541822509765625,4.741542492677271,3.496272674974799,-9.854864872592687
1789666064062774800,5.55177490234375,4.571564403939247,3.8807238277375697,-10.37040265790224
1789666064072726500,5.5617265625,4.195756576359272,4.067924561694264,-10.93018524312973
1789666064082679600,5.571679443359375,3.5685496834173795,4.37496748060584,-11.741584628123045
1789666064092631600,5.581631591796875,2.994028671002388,4.764615032967924,-12.444690811657905
1789666064102583600,5.59158349609375,3.0814927271828054,5.051223066616058,-12.585476415920256
1789666064112535600,5.60153564453125,3.135679659922421,4.902974871388078,-11.916277178162336
1789666064122487600,5.611487548828125,1.9907658209383488,3.960274918836355,-10.671779806137085
1789666064132440600,5.621440673828125,-0.8650618554674089,1.9772925913810728,-9.004605887851119
1789666064142392600,5.631392578125,-7.6915481898188585,-0.847248112487793,-6.1468923976987595
1789666064152344600,5.641344482421875,-20.613681157147884,-4.614872215268016,-0.898865779261291
1789666064162296600,5.651296630859375,-34.12321419994831,-10.02375312026739,17.28724423983097
1789666064172248600,5.66124853515625,-9.065447017782926,-14.561829096102713,41.12822740180492
1789666064182200300,5.671200439453125,9.80192940121889,-16.702539979314803,40.42537490077019
1789666064192153300,5.6811533203125,4.835985740220546,-15.774211666464804,20.11397339365482
1789666064202105600,5.691105712890625,-3.9345992103099823,-7.86873898641467,4.422494370934367
1789666064212057600,5.7010576171875,-12.08842939606905,2.0899802284061906,-1.7779536758631467
1789666064222009300,5.71100927734375,-7.381999425566196,5.989846563509106,-2.2321704387694594
1789666064231961600,5.720961669921875,1.3955050950944423,4.393541832694411,-2.716039997139573
1789666064241914600,5.73091455078125,4.018544736975431,1.8618834204375743,-4.148503242275119
1789666064251866600,5.74086669921875,4.146882363075018,-1.2830132729023693,-5.316911061832308
1789666064261818400,5.750818359375,3.3419454520940777,-3.4187791009277104,-5.928207561197876
1789666064271770400,5.760770263671875,0.593062996603921,-6.489049300089478,-7.023370696324109
1789666064281722600,5.77072265625,-16.331651487958432,-13.65283442927599,-8.485147129705547
1789666064291675600,5.780675537109375,-15.826637434750795,-17.22894402655363,-1.7442250092625617
1789666064301627400,5.79062744140625,5.576951406550407,-12.088570850366354,4.803512042117118
1789666064311579400,5.800579345703125,11.98812777788639,-6.179222303417324,0.5257184030622244
1789666064321531600,5.81053173828125,10.161623129343987,-1.15662093565166,-4.219179537522793
1789666064331483600,5.820483642578125,9.292319836914539,1.893756814560294,-5.874076158037782
1789666064341435400,5.830435302734375,8.299212470161914,4.023496221902966,-6.225134744286537
1789666064351388400,5.840388427734375,7.007733566731214,5.367230797749757,-6.083543668860197
1789666064361340400,5.85034033203125,5.760366192227601,5.8238090290904045,-6.097482177841663
1789666064371292700,5.860292724609375,5.210569578963518,5.450917965739965,-6.260491304349899
1789666064381244400,5.870244384765625,5.574075558853149,4.526980581325292,-5.851487309610843
1789666064391196400,5.880196533203125,6.0076955239325756,2.552413615515828,-5.585712220633029
1789666064401149400,5.8901494140625,5.472643475335836,-0.03302256415784359,-5.102235460972786
1789666064411101700,5.900101806640625,5.0828106295347215,-2.29604582183063,-4.079062918563187
1789666064421053400,5.910053466796875,4.935021283990144,-3.813866213995218,-2.650093360762298
1789666064431005400,5.92000537109375,5.161523516243696,-4.854562430396676,-1.2026409285485744
1789666064440957400,5.92995751953125,5.306311926406622,-4.739984449580311,0.46659898235648867
1789666064450910500,5.939910400390625,4.402089296287298,-3.54819283182621,1.1884607197657227
1789666064460862500,5.949862548828125,3.03128726529479,-1.7508704386264085,1.2129442958980798
1789666064470814500,5.959814453125,2.3946610943615436,0.09065525343716144,0.803088360504806
1789666064480766500,5.969766357421875,2.3755378762185573,1.418909351557493,0.2884244354203343
1789666064490718700,5.97971875,2.2336182994902134,1.9680413634330034,0.21614684245586394
1789666064500670500,5.98967041015625,2.1518097848534583,2.0692887380331753,0.3330231633424759
1789666064510623500,5.99962353515625,2.332481409302354,1.8475351616114377,0.40112843905836343
1789666064520575500,6.009575439453125,2.4787930835098027,1.253658583602309,0.2929804912894964
1789666064530527500,6.019527587890625,2.2105916441679,0.633447540897131,0.5131771936580538
1789666064540479500,6.0294794921875,0.26356851884424687,0.3579185351461172,0.8589315360188484
1789666064550431500,6.039431396484375,-5.777358243560791,-0.13436404678225516,2.5789368807822464
1789666064560384500,6.049384521484375,-9.197758223688602,-0.65896250590384,4.739656240539253
1789666064570336500,6.05933642578125,-8.620578513458371,0.03021042934656143,3.758979608553648
1789666064580288500,6.06928857421875,-5.51597817467153,0.6691624128788709,2.3388630731634796
1789666064590240500,6.079240478515625,-0.10737988600581884,0.8993366116434335,1.7935627484053371
1789666064600192500,6.089192626953125,3.289434343612194,1.3831658380031584,1.2103484341859816
1789666064610144500,6.09914453125,3.9644221016436814,1.6360639097511767,1.50236957892403
1789666064620097300,6.10909716796875,2.663553438577056,1.287230598336458,2.567472068437934
1789666064630049500,6.119049560546875,-0.09231076555922627,0.5689414587169885,2.7980642003536222
1789666064640001500,6.12900146484375,-3.4100697247713803,-0.005529577076435089,2.135753991457075
1789666064649953500,6.13895361328125,-4.817013036464155,-0.5962462297499179,1.9128689267873762
1789666064659905500,6.148905517578125,-3.7816923756211995,-0.6588496931791306,2.2523022494331
1789666064669858600,6.158858642578125,-1.9097038868851959,0.14317045357227326,3.08624021397084
1789666064679810600,6.168810546875,-0.2005202342569828,0.8573661863982677,4.14847197035402
1789666064689762600,6.178762451171875,0.914362039078772,0.5719464857518672,5.053862767469883
1789666064699714300,6.18871435546875,1.2814062760971485,-0.3732365157872438,6.354952379810809
1789666064709666600,6.19866650390625,1.888522859429568,-0.9141226773649453,8.053396465629339
1789666064719619600,6.20861962890625,2.5079046117037533,-0.16516718132495878,9.282344386345148
1789666064729571600,6.218571533203125,1.2313659416429699,1.5098597885489462,9.978128848689794
1789666064739523300,6.2285234375,-0.8844821568608283,2.655994401499629,10.333767163944243
1789666064749475600,6.2384755859375,-0.5209158250860869,2.9867320842534304,9.67841057357788
1789666064759427600,6.248427490234375,0.4058522527098655,3.022574382007122,8.354739711594581
1789666064769379600,6.258379638671875,-0.39936055260300635,2.103728183251619,7.394178523659706
1789666064779332400,6.268332275390625,-1.8099848908960818,0.3543149576961994,6.386421869307756
1789666064789284400,6.278284423828125,-2.677510652258992,-1.4837509493023155,5.6049073349684475
1789666064799236600,6.288236572265625,-3.5696798564910885,-3.414178913655877,5.291080455005169
1789666064809188600,6.298188720703125,-4.674397001904249,-4.493361804839968,4.85113099464327
1789666064819140400,6.308140380859375,-4.494520911747217,-4.179811403730511,4.3651095189362765
1789666064829093400,6.31809326171875,-3.4807863520294426,-2.507021399128437,5.011160520818829
1789666064839045600,6.328045654296875,-2.671712195113301,-0.6485095009505748,6.507735880380869
1789666064848997600,6.33799755859375,-1.2046452541083097,0.45701428467035293,7.751966710424423
1789666064858949400,6.347949462890625,0.14587562087774275,1.2011948213934898,8.446384560590982
1789666064868901400,6.3579013671875,1.977365072095394,1.537531639328599,7.41269033190608
1789666064878853600,6.367853515625,2.810961091327667,1.3303151223033667,5.182251831495762
1789666064888806700,6.377806640625,3.1171102762699125,-0.27015958767235276,3.689032504363358
1789666064898758400,6.38775830078125,3.7679473433852193,-2.2931652979582546,2.6757535794585943
1789666064908710400,6.39771044921875,4.315609282708167,-4.47258205166161,1.3687933215186
1789666064918662700,6.40766259765625,4.766913957560062,-7.2199530066102735,0.07455167537629603
1789666064928614700,6.41761474609375,3.5370541826963424,-10.286360100603103,-1.0826078971967101
1789666064938567400,6.4275673828125,1.6204185968518257,-13.23206517794132,-2.241115961769223
1789666064948519400,6.43751953125,-0.8452993165075778,-15.53887497037053,-3.3283711002498864
1789666064958471400,6.447471435546875,-1.5442822826325893,-14.854997218918799,-4.250494713240862
1789666064968423700,6.457423583984375,-0.9144901955030857,-9.898097280597685,-3.6146450796380636
1789666064978375400,6.46737548828125,-0.09073051063045859,-5.337148963218927,-2.1951056134834883
1789666064988327400,6.477327392578125,1.3213980947457253,-2.6291391277998684,-0.26161037051379676
1789666064998280400,6.487280517578125,4.759996725517511,-0.2785772874057293,0.3253688491970301
1789666065008232700,6.497232666015625,5.589841283261776,0.7906886053979396,0.9495786061495542
1789666065018184400,6.507184326171875,5.720167452830076,1.4312024314194918,1.3780781594753264
1789666065028136400,6.517136474609375,4.734305819422007,2.403267010143399,1.3961948309242724
1789666065038088400,6.52708837890625,3.3612790981173513,2.7561703474760053,-0.38720132825374604
1789666065048041500,6.53704150390625,2.9678853449642655,2.2777678223401305,-2.60681214517951
1789666065057993500,6.546993408203125,3.424221584242582,1.2703706489503384,-3.658237845388055
1789666065067945500,6.556945556640625,3.7884827664136886,0.08315992924571036,-3.737596628785133
1789666065077897500,6.5668974609375,3.818051098464429,-0.701121147197485,-4.0029385870426895
1789666065087849700,6.576849609375,3.6131764683902263,-0.9259580765873193,-4.693035066878795
1789666065097802500,6.586802490234375,3.521866842697561,-0.5752046107649803,-5.468263652816415
1789666065107754500,6.59675439453125,3.5763349304661154,-0.06708849988877773,-6.547032702502608
1789666065117706500,6.60670654296875,3.7018200897440314,0.5367202740699053,-7.595238856142759
1789666065127658500,6.616658447265625,3.9044749979421494,1.1968027239143848,-8.284922079002857
1789666065137610500,6.626610595703125,4.057909655897319,1.8474153346240518,-9.088535047903656
1789666065147562500,6.6365625,4.232772886328399,2.3335861556738613,-9.99494086728096
1789666065157515500,6.646515625,4.157354364989698,2.626419931969046,-10.571870986664294
1789666065167467500,6.656467529296875,4.045285152123868,2.818706006366014,-11.198893462949991
1789666065177419500,6.66641943359375,3.612337094956636,3.061856591081619,-11.72146889181137
1789666065187371500,6.67637158203125,3.0824972280502316,3.434531965854764,-11.758649160170554
1789666065197323300,6.6863232421875,2.4392998620331285,3.843463479879498,-11.610310364049672
1789666065207276300,6.6962763671875,2.1215752439789473,4.146888792815804,-11.694223157489299
1789666065217228300,6.706228271484375,2.2693419393002987,4.242813511088491,-11.641932998281717
1789666065227180500,6.7161806640625,1.3373394679822026,3.9832822849363088,-10.974127260708809
1789666065237132300,6.72613232421875,-0.42880160501226783,2.7408699024915695,-9.761699682161211
1789666065247084300,6.736084228515625,-3.5680022786676884,0.7559779420226812,-7.339661920574307
1789666065257036500,6.74603662109375,-10.876800858944653,-1.2714794869750738,-2.5942279734164475
1789666065266989600,6.755989501953125,-25.88908473507166,-5.41694789159894,5.410780016618967
1789666065276941600,6.765941650390625,-22.596311602425573,-10.596860466492176,24.687826785314083
1789666065286893300,6.775893310546875,1.6772200960040091,-13.67726276808977,39.12969328495264
1789666065296845300,6.78584521484375,7.84289025940895,-16.752514262795447,32.025776641273495
1789666065306797600,6.795797607421875,1.4806849858604372,-14.62638252455592,17.91636982587576
1789666065316750600,6.80575048828125,-6.008654724353551,-5.165803385519981,6.226252934661507
1789666065326702300,6.815702392578125,-8.363252688395976,4.228295740914344,1.540174262791872
1789666065336654300,6.825654296875,-1.9543559524297713,6.5626224858224385,0.49095221010744566
1789666065346606600,6.835606689453125,4.1871114976108075,5.698946970146894,-1.3786872312843799
1789666065356558300,6.845558349609375,7.35537796062231,4.370318193495273,-3.1818051590204237
1789666065366510300,6.85551025390625,7.737135051995516,2.7350059788942334,-5.1112335909426205
1789666065376463400,6.86546337890625,6.794499981373548,1.6963836461573838,-5.716781317523122
1789666065386415400,6.875415283203125,4.5037575266480445,0.7464525733083486,-6.743183051112294
1789666065396367400,6.885367431640625,-7.474576002454757,-4.462598417785763,-9.250477421963215
1789666065406319400,6.8953193359375,-16.92996107997894,-14.769937593531608,-4.782785480430722
1789666065416271400,6.905271240234375,-9.549453354275226,-16.60446422048807,6.576596650639176
1789666065426224400,6.915224365234375,4.729149167311191,-13.40698686056137,4.49501892439723
1789666065436176600,6.9251767578125,6.87970807532072,-7.264618662288784,-3.5050562854111194
1789666065446128400,6.93512841796875,5.862876134109497,-1.145108192512393,-6.150026604071259
1789666065456080400,6.945080322265625,5.487856242036819,2.451477791082859,-7.130864271837472
1789666065466032400,6.955032470703125,4.16729971268177,4.224961043533683,-7.115130696132779
1789666065475984400,6.964984375,3.3576717212751506,5.081006794983148,-6.852631267824768
1789666065485937400,6.9749375,2.848393873143196,5.259850034961104,-6.8981444802433245
1789666065495889400,6.984889404296875,2.9224644870042797,4.8999634146124125,-6.717021020373702
1789666065505841400,6.99484130859375,3.423663950359821,3.704304600036144,-6.836003958150744
1789666065515793400,7.00479345703125,2.939970917600393,1.4474772743940352,-6.659360858565568
1789666065525745400,7.014745361328125,2.681045256125927,-0.5510702864617109,-5.914267298650741
1789666065535698400,7.024698486328125,2.81645793517828,-2.3240146097302437,-4.976454533618688
1789666065545650400,7.034650390625,3.497443472319841,-3.495362574392557,-3.868460266231
1789666065555602400,7.0446025390625,4.822206221193075,-3.8333547583192584,-2.4859192821279166
1789666065565554400,7.054554443359375,4.871295538532734,-3.7911668909311294,-0.7669178537100553
1789666065575506400,7.06450634765625,3.6713527630269525,-2.791070980465412,0.46059652707129717
1789666065585458400,7.07445849609375,3.1735493718504904,-1.234192251110077,0.5034831903785467
1789666065595411200,7.0844111328125,3.7556151005566116,-0.042485389029979705,-0.052199266053736204
1789666065605363500,7.094363525390625,3.9453158346354957,0.6536246520072221,-0.05541150609850883
1789666065615315500,7.1043154296875,3.818887257027626,1.225180092614889,0.6706017980322241
1789666065625267500,7.114267333984375,3.5307132892370223,1.5539485211223363,0.5295516976147889
1789666065635219500,7.124219482421875,3.767186880406737,1.529625396248698,0.15831629251688717
1789666065645172500,7.13417236328125,4.252805328270792,1.2003618777006864,0.22425474558770656
1789666065655124500,7.14412451171875,3.3199411255568263,0.5995481939047574,0.8638722072914242
1789666065665076500,7.154076416015625,1.6668348955899477,0.15248480988442897,1.403444948183
1789666065675028200,7.1640283203125,-1.6721873625338077,-0.4312339467257261,2.1651588035091756
1789666065684980500,7.17398046875,-9.846458278775215,-0.7579349213093519,4.878749653930962
1789666065694932500,7.183932373046875,-10.249313103234767,-0.42410511775910853,5.0365930682390925
1789666065704885500,7.193885498046875,-6.368242069494724,0.5247445895940065,2.2714102700069545
1789666065714837200,7.203837158203125,-3.648311494657397,1.0496019919127226,1.6906629304230212
1789666065724789500,7.21378955078125,0.570769404796511,1.4895704492360353,0.9853199277468025
1789666065734741500,7.223741455078125,3.076232322436571,1.8850065218716858,0.784498956977576
1789666065744693500,7.233693603515625,2.736234643906355,1.8087784377157687,1.2994902143202722
1789666065754646300,7.243646240234375,0.15755203014612196,0.6720943746775389,2.179718805389851
1789666065764598300,7.253598388671875,-4.037041055391729,-0.7520517084896564,2.624927355323732
1789666065774550500,7.263550537109375,-7.317422031715512,-1.1445359455823898,2.9877558743432164
1789666065784502500,7.27350244140625,-4.872630294267833,-0.3153244250446558,3.2526553495302792
1789666065794454300,7.283454345703125,-0.7018681661725044,0.4635761274039745,3.7007781794756647
1789666065804406500,7.293406494140625,1.4079685630872845,0.37687633359432215,5.0625721436262126
1789666065814359600,7.303359619140625,2.3765084748163816,-0.4144681053638458,7.041327793297171
1789666065824311600,7.3133115234375,3.5046050345122812,-0.8392688041716814,8.8092054808259
1789666065834263300,7.32326318359375,3.316580709213018,0.22664777820408344,10.089376223778723
1789666065844215300,7.33321533203125,0.37263255854472516,2.1060545803725716,10.579105029571055
1789666065854167600,7.34316748046875,-2.0629047360844908,3.1328000128328797,9.746681561249494
1789666065864120600,7.35312060546875,-1.345647277600318,2.6270798571825025,7.847787968322634
1789666065874072300,7.363072265625,-0.638883156079799,1.4876269139528273,6.460982312512398
1789666065884024300,7.3730244140625,-1.3920184220224618,-0.010768062251806258,5.59182865768671
1789666065893976600,7.3829765625,-2.8193717767983673,-1.9186592006266117,4.716823061962425
1789666065903928600,7.392928466796875,-3.629225101393461,-3.3881308646857735,4.089075194011628
1789666065913880300,7.40288037109375,-4.132904106605053,-4.55831855339706,4.3770045393913986
1789666065923833300,7.412833251953125,-4.8027463184416295,-5.1847050698667765,4.951819274055958
1789666065933785300,7.422785400390625,-5.2149043932974335,-4.19113534629941,5.340507041475177
1789666065943737600,7.432737548828125,-4.665973456951976,-1.5930816771149634,6.69587594101429
1789666065953689300,7.442689453125,-3.70660644723773,0.41045302450358867,7.375001529502868
1789666065963641300,7.452641357421875,-1.8749585905879735,1.2684569242835044,7.476075301101804
1789666065973594400,7.462594482421875,-0.3719915572274476,2.0765362249433994,8.75603620069623
1789666065983546400,7.47254638671875,0.6243067875862122,2.8067233076274394,8.77019098277688
1789666065993498400,7.482498291015625,1.6098691457867622,2.999285860878229,6.725359225130081
1789666066003450400,7.492450439453125,2.899050878190994,1.8313398136138914,4.421468535017967
1789666066013402400,7.50240234375,3.841869488686323,-0.3296592398673296,3.6321485876247284
1789666066023354600,7.512354736328125,4.488630100142956,-2.6474551212131976,3.201523420447111
1789666066033307400,7.522307373046875,5.26537902751565,-4.940293086913227,2.1963494760647415
1789666066043259400,7.53225927734375,5.5395642174422735,-7.516174087256193,0.5399392361164093
1789666066053211400,7.54221142578125,4.55160298140645,-10.26865142543316,-1.351288352227211
1789666066063163400,7.552163330078125,1.8088978263117372,-12.865305749213695,-2.5544550582155585
1789666066073115400,7.562115478515625,-1.8951650739230215,-15.527459257864951,-3.041552054199576
1789666066083068400,7.572068359375,-2.588281632232666,-15.086028326773643,-3.22202143407464
1789666066093020400,7.5820205078125,-1.5683843121014533,-9.905843364679813,-2.3856480590835214
1789666066102972400,7.591972412109375,-0.6642717182278632,-5.231334719094634,-0.9382891503721476
1789666066112924400,7.60192431640625,2.0800012707054614,-2.2918372642248865,-0.6676239512652158
1789666066122876400,7.61187646484375,5.410943682748079,-0.04972878428697586,-0.38417642747461794
1789666066132828400,7.621828369140625,5.604677617865801,0.849541776382923,0.3597252923071384
1789666066142781400,7.631781494140625,5.583583391910791,1.7314362548381088,1.2441484124571085
1789666066152733400,7.6417333984375,4.471728065180778,2.422733927157521,0.7420423556506633
1789666066162685400,7.651685546875,3.88984236921668,2.2844313718825577,-1.257500645983219
1789666066172637400,7.661637451171875,3.5549463977396485,1.6882763275474308,-3.4703275018572803
1789666066182589400,7.67158935546875,3.015319296312332,0.6688508627116679,-4.399516815450787
1789666066192541400,7.68154150390625,3.01975260258466,-0.4719423892110586,-4.7714416641175745
1789666066202494200,7.691494140625,3.2080607132613657,-0.9277531433105468,-5.221753236278891
1789666066212446200,7.7014462890625,3.227174286793172,-0.7908826666653156,-5.5636751608699555
1789666066222398200,7.711398193359375,3.1671479803755878,-0.3216325852781534,-6.312188173839449
1789666066232350500,7.7213505859375,3.3658661336466666,0.31239830846488476,-7.464680631384253
1789666066242302200,7.73130224609375,3.5147388905137777,1.0958020175516605,-8.391211539423466
1789666066252255200,7.741255126953125,3.681154026073217,1.8926316099226475,-9.101821814978122
1789666066262207200,7.751207275390625,3.806624280042946,2.669060219299793,-9.553617488217354
1789666066272159200,7.7611591796875,3.903815072728693,3.280700417536497,-10.045115057247877
1789666066282111200,7.771111328125,3.924824835270643,3.721999831202626,-10.374912828803062
1789666066292063200,7.781063232421875,3.896713131769001,3.941935544547438,-10.612082585543394
1789666066302016300,7.791016357421875,3.504370348973572,4.156273876276612,-10.899276894646883
1789666066311968300,7.80096826171875,2.7869141530469057,4.213786738568544,-10.885593237209319
1789666066321920300,7.810920166015625,2.3953064065277574,4.085193091881275,-11.008187351220846
1789666066331872300,7.820872314453125,2.441442427019775,4.095451451045275,-11.094541108071803
1789666066341824300,7.83082421875,1.8578785687103867,3.934281814923882,-10.527855319327115
1789666066351776300,7.8407763671875,0.6047594988122582,2.885371312406659,-9.398543830883503
1789666066361729000,7.85072900390625,-2.1094972681723534,1.391878136768937,-7.378380066025256
1789666066371681300,7.860681396484375,-9.992928942936658,-0.8238871106445789,-3.2472932379752395
1789666066381633300,7.87063330078125,-27.80352953287363,-5.677984261617064,3.4744007426455616
1789666066391585300,7.880585205078125,-30.000497140836714,-11.81042844724655,24.822788213467597
1789666066401537300,7.890537353515625,0.5736465676680207,-15.013462272256612,44.13070592124462
1789666066411490300,7.900490234375,10.11577440136075,-17.29490381467342,33.14403248269558
1789666066421442300,7.9104423828125,1.9905695677138864,-15.48167482728958,14.199040909093618
1789666066431394300,7.920394287109375,-5.592468124634027,-7.22132254139781,1.6805267363339662
1789666066441346000,7.930345947265625,-9.045323098164797,2.029184691181779,-3.964001245883107
1789666066451298300,7.94029833984375,-4.7999791918158525,5.366601852196455,-4.328270026838779
1789666066461251300,7.950251220703125,1.1605110749579965,5.107127909189463,-5.256621136042475
1789666066471203300,7.960203369140625,3.269613206332922,3.6367695254236456,-6.13150602799654
1789666066481155000,7.970155029296875,3.4074469750523564,1.7388988458037375,-6.553325665166974
1789666066491107300,7.980107421875,2.234089570263773,-0.12051789225935935,-7.106353515437245
1789666066501059300,7.990059326171875,-2.4397240787945687,-3.857705355721712,-9.168018918985128
1789666066511011300,8.00001123046875,-11.305303334879875,-10.337732560443877,-11.370590922826528
1789666066520964000,8.009964111328125,-9.066637104350328,-13.284838152229785,-2.6830337995946407
1789666066530916000,8.019916015625,1.9303860249079763,-10.99316630769968,7.725162874650954
1789666066540868400,8.029868408203125,9.192289436888695,-8.607247322720289,5.416745647025108
1789666066550820400,8.0398203125,8.700933322155475,-4.19672922078371,-1.2803905231833457
1789666066560772000,8.049772216796875,9.569032499492168,-0.04749941779971122,-2.560194186389446
1789666066570725000,8.05972509765625,8.808053972703219,3.2740134871184825,-4.24424909684956
1789666066580677400,8.069677490234374,6.468257271951437,4.724578790655732,-5.4011020876914255
1789666066590629400,8.07962939453125,4.575691128480434,4.872241879472136,-5.875263906517625
1789666066600581000,8.0895810546875,3.664907824671268,4.655417576146125,-5.754546692293882
1789666066610533000,8.099533203125,3.31102862804383,3.8507834475040434,-5.236888261568546
1789666066620486100,8.109486083984375,3.6053099727988243,2.059977304330468,-4.425996826097369
1789666066630438400,8.1194384765625,4.017428592427074,-0.11292495291233062,-3.3504674889847634
1789666066640390100,8.12939013671875,4.783903670805692,-2.0962340281039475,-2.012453628872335
1789666066650342100,8.139342041015626,5.613674578791857,-3.881751417219639,-0.33594138887673614
1789666066660294400,8.14929443359375,5.6095338257253164,-4.672780798879265,1.4154805461525917
1789666066670246400,8.159246337890625,5.309767619818449,-4.355115363666415,2.5513845647290347
1789666066680199200,8.16919921875,5.168189403873682,-2.854866868549585,2.0655878376886245
1789666066690151200,8.179151123046875,5.070898073422908,-0.41405192577838895,0.17035305953025817
1789666066700103200,8.189103271484376,4.041721029901504,1.6031898141533136,-1.1948375613212585
1789666066710055400,8.199055419921875,2.071516350954771,1.6803198155850172,-1.2448621136844158
1789666066720007200,8.209007080078125,-0.41800325722005216,1.6139420943140983,-0.7311769705042243
1789666066729960200,8.218960205078124,-3.590204758125543,1.9289561382353304,0.35335254240483044
1789666066739912200,8.228912109375,-2.9279402880668637,1.2741735483646393,1.2559107464432715
1789666066749864400,8.238864501953126,1.5487801785737274,-0.1389198103904724,0.9887339739739894
1789666066759816200,8.248816162109375,2.565338563540578,-0.7978004832297563,0.8257195867687463
1789666066769768200,8.258768310546875,0.37819318834654986,-0.27390929559469224,0.9544085105240344
1789666066779721200,8.26872119140625,-3.537513616901636,0.7069622744411229,0.8277265426769852
1789666066789673200,8.278673095703125,-8.008738993257284,1.2725561762958764,0.42402971443533893
1789666066799625200,8.288625244140626,-6.990613505104184,1.218322481805086,0.2312935581833124
1789666066809577200,8.2985771484375,-2.007266143231839,1.0350357064217328,0.4091255752921104
1789666066819529200,8.308529296875,1.3745721971809863,1.029895420923829,0.7636895393133163
1789666066829481500,8.3184814453125,2.4756354962617158,0.9967068525493145,1.0483883783392607
1789666066839434200,8.328434326171875,2.363808129327744,1.3532260422915219,1.4103634953998028
1789666066849386200,8.33838623046875,1.8570429946690796,1.7390280251413583,1.5790869079016148
1789666066859338200,8.348338134765624,1.0060087877713144,1.9829864191085098,1.5235190421976148
1789666066869290200,8.358290283203125,-0.7032289331316948,2.11510297922492,1.6232241557918488
1789666066879242200,8.3682421875,-3.3113246883809566,2.1729881819605827,2.250355645409971
1789666066889195300,8.3781953125,-5.817023314473032,2.180874551296234,3.3791339037597177
1789666066899147300,8.388147216796876,-5.606237122267484,1.2795429664433002,3.991782402256131
1789666066909099300,8.398099365234375,-2.496901863913238,-0.7441133167058229,4.002729912728071
1789666066919051300,8.40805126953125,0.3657446987271309,-2.230806749200821,4.93523404995799
1789666066929003300,8.418003173828126,2.186650212088227,-2.948655743837356,6.631311406645178
1789666066938956300,8.427956298828125,2.6411405312389133,-2.505295890510082,8.208568322640657
1789666066948908300,8.437908203125,1.0028531002193688,-0.8451730597794055,9.526230884119867
1789666066958860000,8.447860107421874,-0.9669820147626101,0.8718652518719434,10.29744497371912
1789666066968812300,8.457812255859375,-0.38192382624223825,1.7592495599150657,9.67212637874186
1789666066978764300,8.467764404296876,0.8158620634905993,1.8720611155807971,8.572151459419727
1789666066988717300,8.47771728515625,0.5698609116494655,1.512935542732477,7.858733140707016
1789666066998669000,8.4876689453125,-0.46220264709368347,0.1949041479408741,7.1472034122198815
1789666067008621300,8.497621337890624,-1.5645388887196778,-1.8728981509268283,6.635661418548226
1789666067018573300,8.5075732421875,-2.5679221502929925,-4.025702207514644,6.034563657113909
1789666067028525300,8.517525390625,-4.607589657044411,-5.0484103472828865,5.416858459749817
1789666067038477000,8.52747705078125,-5.076216638097167,-4.229098289468884,5.661241801130771
1789666067048430000,8.53743017578125,-3.0896687271147965,-2.486408819210529,7.669510545533895
1789666067058382300,8.54738232421875,-1.1330296321839093,-1.0338970577806235,9.021564621436596
1789666067068334300,8.557334228515625,0.23863391100876033,-0.07005728656649589,7.996303290054201
1789666067078286000,8.5672861328125,1.0921644647669047,0.7071721177995205,5.985941372764111
1789666067088238300,8.57723828125,-0.32985158410165455,1.4066940131068228,4.2643224553242325
1789666067098191400,8.58719140625,-2.284037404128909,1.151896829739213,2.475443188560009
1789666067108143400,8.597143310546874,-1.9627543629407882,-0.43788639035224913,1.4883248330891132
1789666067118095000,8.60709521484375,-0.960528454709053,-2.510402858260274,1.2245111073121429
1789666067128047000,8.617047119140626,0.4199509937543422,-4.764406943175197,1.1929068855196236
1789666067137999400,8.626999267578125,2.2456302243232726,-6.939813876715302,0.8135451648503541
1789666067147951400,8.636951416015625,4.2120553847312925,-8.523996208059787,-0.8616191676676273
1789666067157904100,8.646904052734374,4.923506202763319,-9.337361340168117,-2.7671313019514083
1789666067167856000,8.656856201171875,3.711059334993362,-10.286063163483142,-3.7819247230723496
1789666067177808400,8.666808349609376,-0.12249591433405875,-11.063059928137063,-4.136084490206837
1789666067187760400,8.676760498046875,-3.605498188847303,-9.14612155995369,-3.8135853512272235
1789666067197712600,8.686712646484375,-3.185077312558889,-5.647094617834687,-2.62052941262573
1789666067207665400,8.69666552734375,-0.23741752095632254,-3.5021968043267724,-1.884323800304532
1789666067217617400,8.706617431640625,1.9117349543213844,-2.1016063687920568,-1.019805988585949
1789666067227569700,8.716569580078126,4.186533989983797,-1.134863277351856,-0.5578402189880609
1789666067237521700,8.726521728515625,5.425215369206667,-0.28472645768523214,-0.8180038978248834
1789666067247473400,8.736473388671875,4.134600389128924,0.34003917958438395,-0.2835737805187702
1789666067257426400,8.746426513671874,3.7079718903720376,1.059716558691859,0.3864659997165203
1789666067267378700,8.756378662109375,2.937563856458664,1.4565794492602346,-0.12472411177754401
1789666067277330700,8.76633056640625,2.1418657523356375,1.279843410694599,-1.677556196090579
1789666067287282400,8.776282470703125,2.1531400105439125,0.9265957899689674,-2.9864141043454406
1789666067297234400,8.786234375,2.3330289601825176,0.5839461356252431,-3.7417555020302533
1789666067307186700,8.796186767578124,2.398252396851778,0.580330283215642,-4.324764064544439
1789666067317139700,8.8061396484375,2.4668854958340525,0.8615127846837043,-5.073005274835229
1789666067327091500,8.816091552734376,2.571872933745384,1.2044266429215669,-5.9741024664103985
1789666067337043500,8.82604345703125,2.714769831073284,1.744106935840845,-6.693552466502785
1789666067346995700,8.83599560546875,2.9700697032660246,2.308781969285011,-7.350506555193662
1789666067356947700,8.84594775390625,3.1283120537638665,2.901633880421519,-7.908155051001906
1789666067366900500,8.855900390625,3.205044580310583,3.211191412502527,-8.5969316804111
1789666067376852500,8.8658525390625,3.1567025742068884,3.221691763728857,-9.464784189510345
1789666067386804500,8.875804443359375,3.154218063914776,3.1572949871420857,-10.231148500990868
1789666067396756700,8.8857568359375,3.0399867045789954,3.156589469221234,-10.512406405782698
1789666067406708500,8.89570849609375,2.980529722481966,3.2637878611803055,-10.501683936238289
1789666067416661500,8.90566162109375,2.798868502473831,3.5312305911093946,-10.166008212560415
1789666067426613500,8.915613525390626,2.4526202391162513,3.7368706525981423,-9.72248118597269
1789666067436565800,8.925565673828125,2.092859729365259,3.7088188625901934,-9.361562884488702
1789666067446517500,8.935517578125,1.4080432357586918,3.448210947117209,-8.729653805205226
1789666067456469500,8.945469482421874,-0.05973097673282027,2.8042104480236767,-7.200671383035183
1789666067466421500,8.95542138671875,-3.083188132923841,1.7319792756736279,-4.5868625108361245
1789666067476374500,8.96537451171875,-10.042065022027492,-0.14863514871895311,-0.983154712536931
1789666067486326500,8.975326416015625,-21.737024677097796,-3.8930665919601917,6.980198494073748
1789666067496278500,8.985278564453125,-13.62716924214363,-8.54293705537319,24.71587682175636
1789666067506230500,8.99523046875,5.277385107129812,-14.969102906048297,36.932351582980154
1789666067516182800,9.005182861328125,4.300446784889698,-17.421717007684705,29.646169323658942
1789666067526135600,9.015135498046876,-2.7584920684218406,-9.868671279627085,17.292738745594022
1789666067536087600,9.025087646484375,-7.976216195315122,0.6742325557500124,7.082674533686041
1789666067546039600,9.03503955078125,-7.524452086257934,5.760700538748503,1.5477636950075626
1789666067555991600,9.044991455078126,-2.515648942220211,5.675414703390002,-2.217223629528284
1789666067565943600,9.054943603515625,2.375707533697039,4.101160476341843,-4.830044659733772
1789666067575896600,9.064896484375,4.700940140914916,1.915685737773776,-7.384540342220664
1789666067585848600,9.0748486328125,5.395498276335001,-0.9956634809762239,-9.204617588064075
1789666067595800600,9.084800537109375,5.843892032176256,-2.0007851106494665,-8.874174504342674
1789666067605752600,9.094752685546876,5.140819750910997,-3.1390427066147324,-8.96942936052978
1789666067615704600,9.10470458984375,-2.1214308670721946,-6.592836422300338,-11.637192525756358
1789666067625656600,9.114656494140625,-12.579683803993463,-13.927225370907783,-11.370428425741196
1789666067635609600,9.124609619140625,-14.290455456465482,-15.5241976257205,2.5352602361410854
1789666067645561300,9.134561279296875,-1.490797214552015,-10.043550876671075,9.790769124779105
1789666067655513600,9.144513671875,6.548859333407878,-4.45626453858912,-1.0491887349367142
1789666067665465600,9.154465576171875,6.664371380203962,-0.7956155404061078,-7.034509929975867
1789666067675417600,9.16441748046875,5.536206723707914,2.2663947799324986,-8.70855256498754
1789666067685370400,9.174370361328124,4.4345863752663135,4.229585196202994,-8.381825871440768
1789666067695322600,9.184322509765625,3.3971687421441077,5.110122999352217,-7.587078930562734
1789666067705274600,9.194274658203126,2.755740139365196,5.253282347008586,-7.089207150325179
1789666067715226600,9.2042265625,2.7286569021284577,4.722513674819469,-6.313176600354909
1789666067725178400,9.214178466796875,3.1214591191291805,3.324264833974838,-5.525931413409114
1789666067735130600,9.224130615234374,3.5800679795145984,1.1135177069842814,-4.296867757359147
1789666067745083600,9.234083740234375,4.25624173246026,-1.2525105826109646,-2.6312685410439967
1789666067755035600,9.24403564453125,5.210741428399086,-3.3642087218284606,-1.2672966483324766
1789666067764987400,9.2539873046875,6.420085653978586,-4.718161324828863,-0.21557430326491592
1789666067774939600,9.263939697265625,6.640664341402053,-5.241081621605158,1.9570590739086269
1789666067784891600,9.2738916015625,6.448800876331329,-4.633284654793143,2.759701444211602
1789666067794844700,9.2838447265625,5.985989303559064,-2.7075825499176975,2.013456376174092
1789666067804796400,9.29379638671875,5.51892591856122,-0.16845920860767363,0.6752344262689352
1789666067814748400,9.30374853515625,3.3948411759793755,2.1570243046313524,-0.4138157789349556
1789666067824700700,9.31370068359375,0.6378057361066342,2.560843005686998,0.546638733755052
1789666067834652700,9.323652587890624,-4.390943632894754,2.5529835243582726,2.1757839501589533
1789666067844605400,9.33360546875,-6.353548358231783,2.67986452190876,3.6204473361760376
1789666067854557400,9.343557373046876,-1.1119085182219743,2.1424697095781564,4.004487570050358
1789666067864509700,9.353509765625,3.3519536358892914,0.5813122799903154,3.3282173709928986
1789666067874461700,9.363461669921875,3.8928859746962785,0.009574468553066253,2.1893910352289674
1789666067884413400,9.373413330078124,1.7797838138997553,0.2600584648966789,1.3757508855715392
1789666067894365400,9.383365478515625,-2.3494313750594853,0.8102958076655864,1.0407990922540427
1789666067904318500,9.393318359375,-6.792237297138572,1.1892670677125454,0.4832058337643742
1789666067914270700,9.403270751953125,-7.158609187853336,0.5786328316479921,-0.6068032795995474
1789666067924222500,9.413222412109375,-4.254895578548312,0.26219898405671116,-1.3084706625029443
1789666067934174500,9.423174560546874,-1.2325690338224171,0.6625614071786403,-1.1964715922638773
1789666067944126700,9.433126708984375,0.8960999678097665,0.9135895934015512,-0.7056244499661029
1789666067954079700,9.443079833984376,1.707479479058832,0.9578870002895593,0.0933161432094872
1789666067964031500,9.453031494140625,1.121427311065048,0.7540507733523846,0.9875668298907577
1789666067973983500,9.4629833984375,-0.7814533056713641,0.3628559915482998,1.5795581786751747
1789666067983935500,9.472935546875,-3.8729686835661528,-0.003945522755384445,1.6616013788506387
1789666067993887700,9.4828876953125,-5.853403956887125,0.1195575227946043,1.2388976523220538
1789666068003839500,9.492839599609376,-3.8813621256411075,0.22080840452611444,1.4120876888439058
1789666068013792500,9.50279248046875,-0.28571283837407824,-0.29538813695311544,2.824225062048435
1789666068023744500,9.51274462890625,1.9905185681790112,-0.7652133878797293,5.027071791177987
1789666068033696800,9.52269677734375,2.711884631025791,-1.2246224587321282,7.511314956787228
1789666068043648500,9.5326484375,2.304797721954435,-0.8794237044274806,9.493760108625889
1789666068053600500,9.5426005859375,0.6678834789842367,0.487184382006526,10.827526832687854
1789666068063553500,9.552553466796875,-0.6395394280314445,1.83106275023818,11.198389605081081
1789666068073505500,9.562505615234375,-0.25321196000277996,2.3607354438841344,10.244972443681954
1789666068083457500,9.57245751953125,0.6266233939655125,2.1493179680377246,8.981918255224823
1789666068093409500,9.582409423828125,0.42507659313976764,1.0616729534566403,7.946590287858247
1789666068103361500,9.592361572265625,-1.0451894361674785,-0.8068979819208383,7.011256480160355
1789666068113313500,9.6023134765625,-2.462587798640132,-3.063762716963887,6.035539224147796
1789666068123266600,9.6122666015625,-3.7146038757324216,-5.047770295813679,5.071714065980911
1789666068133218600,9.622218505859376,-4.793691489848494,-5.850458551084995,4.158983719757199
1789666068143170600,9.632170654296875,-5.024622644460201,-5.265826771283149,3.781601190206408
1789666068153122600,9.64212255859375,-4.3784284347146745,-3.516694700756669,4.93458230805099
1789666068163074600,9.652074462890624,-3.3913930813521143,-1.7722247768223285,7.101594922733306
1789666068173027600,9.662027587890625,-1.8628455434679985,-0.7609931398361921,7.356976627990603
1789666068182979600,9.6719794921875,0.18379472490549087,0.022172668841481207,5.642933991023898
1789666068192931800,9.681931884765625,-0.034920543266274036,1.2250386383175849,4.089513877689838
1789666068202883800,9.6918837890625,-2.174908920890093,1.808140139812231,2.8667858544021843
1789666068212836000,9.701836181640624,-2.4998995844244956,0.9725462247610092,1.659713957668841
1789666068222788000,9.7117880859375,-1.2999661612689495,-0.9346405647367239,0.9134156981393694
1789666068232741000,9.7217412109375,-0.07723872250318527,-3.3571476974010466,0.8945900016382337
1789666068242692900,9.73169287109375,1.564096405649185,-5.345634467491507,0.8924670181348919
1789666068252645000,9.74164501953125,3.9730806243956085,-6.853594559898972,-0.6830792945504188
1789666068262597000,9.75159716796875,4.3972342574715615,-8.046153654894232,-2.8309058549866077
1789666068272548900,9.761548828125,2.9045687648296354,-8.981604951491951,-4.238554684600234
1789666068282502000,9.771501953125,-2.2381518512666223,-10.033516973912715,-4.373856304493546
1789666068292454000,9.781453857421875,-5.802159507340193,-9.852679929769039,-3.176521373398602
1789666068302406100,9.79140625,-4.293656978619098,-6.764523360782861,-1.6359484666779636
1789666068312358000,9.80135791015625,-1.12327454636693,-4.314088356751204,-1.0800535365387798
1789666068322310000,9.811309814453125,2.247656177192926,-2.9071833312422037,-1.0661737720072268
1789666068332263000,9.821262939453124,4.7710944581151,-1.6652093402147292,-1.1443144117861985
1789666068342215200,9.831215087890625,5.542939246833324,-0.3809714939534664,-0.38854748216569424
1789666068352167000,9.8411669921875,4.83640893406868,0.5660036516994238,0.2608031457841396
1789666068362119000,9.851118896484374,3.8627547480657696,1.1743109061211348,0.32413083183467384
1789666068372071000,9.86107080078125,3.4386966843187805,1.223900574198365,-0.7000888815402985
1789666068382023200,9.871023193359376,2.724337285363674,1.0341332046240568,-1.9988935978144406
1789666068391976200,9.88097607421875,2.0191724157333373,0.7444049931287765,-3.030175504660606
1789666068401928000,9.890927978515625,2.0260075224503873,0.3274257817268371,-4.025255048269033
1789666068411880000,9.9008798828125,2.1954116106927395,0.1688748036712408,-4.537371626958251
1789666068421832200,9.910832275390625,2.3217688766300677,0.20840368098318576,-5.147144862279296
1789666068431784000,9.920783935546876,2.766632120257616,0.5795470238834619,-5.85707007817924
1789666068441737000,9.930737060546875,3.0269729092270135,1.3257885847896336,-6.279253287965059
1789666068451689000,9.94068896484375,3.4398110753014683,2.052782424390316,-6.70465838240683
1789666068461641000,9.950640869140624,3.822562730669975,2.748099269223213,-7.144909163802862
1789666068471593000,9.960593017578125,4.0297754483029244,3.2620360490769147,-7.722009963577985
1789666068481545000,9.970544921875,4.045013057184219,3.322547508662939,-8.413176702994107
1789666068491498000,9.980498046875,3.9343037344947454,3.1722219226390123,-8.96001037479937
1789666068501450000,9.990449951171875,3.784115511114895,2.8939702139258383,-9.392690428680181
1789666068511402000,10.000402099609374,3.5810219192385673,2.814581619912386,-9.554436987906694
1789666068521354000,10.01035400390625,3.351581879967451,3.0015082131028175,-9.354922131299972
1789666068531306000,10.020305908203126,3.0343656498268246,3.393773839008808,-9.126936967012286
1789666068541259000,10.030259033203125,2.7311364439845085,3.7522090915054083,-8.850668541070819
1789666068551211000,10.0402109375,2.0404291387736797,3.8194676872640847,-8.046823516979813
1789666068561163000,10.0501630859375,0.8483939215220511,3.714081313163042,-6.745387867680192
1789666068571115000,10.060114990234375,-1.8343394338212906,3.150131671383977,-4.97011013302803
1789666068581067000,10.07006689453125,-7.814713966238498,1.303868429404497,-2.145504547229409
1789666068591019000,10.08001904296875,-18.273557124137877,-2.044404472145438,4.672260574397445
1789666068600972000,10.089971923828125,-16.874680506783722,-5.011656195381283,20.098637877357003
1789666068610924000,10.099924072265624,1.148708408961445,-10.117980386972427,32.21088770947456
1789666068620876000,10.1098759765625,3.694280049628019,-14.979121611237526,29.149222841572758
1789666068630827800,10.119827880859376,-1.3466988324798643,-12.241798587572575,18.844369637423753
1789666068640780000,10.129780029296874,-6.731904701250791,-3.4073142885833976,9.445369879466295
1789666068650733000,10.139733154296875,-7.982790897530317,2.3855863920241593,1.7346891191542149
1789666068660685000,10.14968505859375,-4.596217199158668,2.681913855654001,-2.0017793823838232
1789666068670636800,10.15963671875,0.3321113091945648,1.9993729057639835,-4.617330129814148
1789666068680589000,10.169589111328126,2.684709039330482,0.6085258656084537,-6.6044836054742335
1789666068690541000,10.179541015625,2.849280008327961,-1.8558739508897064,-8.34131382831037
1789666068700494000,10.189494140625,3.0866309668540954,-2.5226193657547236,-8.958821457275748
1789666068710446000,10.199446044921874,3.3118460819065567,-2.132604149124026,-8.94719882402122
1789666068720397800,10.209397705078125,0.4470457022331655,-3.1441327232301233,-10.731666411823033
1789666068730350000,10.21935009765625,-9.028097238075732,-7.153391745465994,-13.876934276562928
1789666068740302000,10.229302001953124,-11.728192062586546,-11.417816784381866,-7.9478657146215435
1789666068750253800,10.23925390625,-5.281849685323238,-9.436568733373283,4.058616635122895
1789666068760206800,10.249206787109374,4.315388333433866,-6.301665610781312,5.787036172488332
1789666068770159000,10.2591591796875,7.776222030758857,-3.475547282332182,-2.116284297963977
1789666068780111000,10.269111083984376,7.983813810837268,-0.6548766978949307,-5.297805963867902
1789666068790062800,10.279062744140624,7.007915937560797,2.2155442981392146,-6.109269646269083
1789666068800014800,10.289014892578125,5.985626899987459,4.100833728605509,-5.901076977688073
1789666068809967900,10.2989677734375,4.868115739452839,4.686302543753385,-5.6701411469012495
1789666068819920100,10.308920166015625,4.113607869982719,4.486916281962395,-5.237918189138174
1789666068829871900,10.318871826171875,3.7938147750914095,3.4061715482890604,-4.442767635895311
1789666068839824000,10.328823974609374,4.082173451799154,1.4117431131899356,-3.20836028072983
1789666068849776000,10.338776123046875,4.487325447285175,-0.946138110306859,-1.6288041478812694
1789666068859729200,10.348729248046874,4.863933193071186,-3.1143396425127983,-0.24194880771040916
1789666068869681200,10.35868115234375,5.326365703397989,-4.813651158815622,1.3116115908771753
1789666068879633000,10.3686328125,5.917075341808796,-5.558756993690133,2.5433441738754508
1789666068889585000,10.3785849609375,6.193071380549669,-4.651619937428832,3.101275578278303
1789666068899537200,10.388537109375,5.3213996054232116,-1.9210645082026718,2.8487787808075544
1789666068909490200,10.398490234375,4.0369747121572495,0.8942728985130787,1.1456707948312164
1789666068919442000,10.40844189453125,1.945482910144329,2.1197031664967536,0.28363018688112496
1789666068929394000,10.418393798828125,-1.7075579511225223,2.5023668513208626,0.9342962813436985
1789666068939346200,10.42834619140625,-3.959226286566257,2.8255560183912514,1.6375132317766545
1789666068949298000,10.4382978515625,-1.9695874238312243,2.4782354496270416,1.813483546666801
1789666068959251000,10.4482509765625,0.35590251914858817,1.5100234546780584,2.040402250766754
1789666068969203000,10.458202880859375,1.228733401182294,0.861698078122735,2.351424010181427
1789666068979155000,10.468155029296875,1.6729653611689805,0.643007396402955,1.7880542141169309
1789666068989107000,10.47810693359375,0.9781131381731479,0.6767424927443265,0.9477508062005042
1789666068999059000,10.488058837890625,-0.5008318721521645,1.1101040991485118,0.595448065109551
1789666069009011000,10.498010986328126,-1.5970318760454654,1.4238643436163663,0.3621834991142154
1789666069018964000,10.5079638671875,-2.4564245998352763,1.2276561273396014,0.028380291309952736
1789666069028916200,10.517916259765625,-2.9082722955226896,0.7237479895472526,-0.03307312530130148
1789666069038868000,10.527867919921874,-3.129306325498223,0.470203436589241,0.23254677311480043
1789666069048820000,10.537820068359375,-2.6804046201348304,0.6928039852291346,0.7596342725731432
1789666069058772000,10.54777197265625,-1.4860270775407551,0.9921920054733753,0.8896550294540821
1789666069068725000,10.55772509765625,-0.33321664008796215,1.3597954838097095,0.9406697618983686
1789666069078677000,10.567677001953125,0.2057603268675506,1.2221896786272526,1.251718409319967
1789666069088629000,10.57762890625,-0.062111880519986146,0.6855921541541814,1.7309134000077844
1789666069098581000,10.5875810546875,-1.3254517540507018,0.42350656734406944,2.067024738623947
1789666069108533000,10.597532958984376,-3.4820232003480194,0.5086918649375438,2.2636877129308877
1789666069118486000,10.607486083984375,-4.819319852101803,0.15872984175384044,2.5315859315425158
1789666069128438000,10.61743798828125,-3.686886139984429,-1.1055652866750956,3.294288505645096
1789666069138390000,10.62739013671875,-1.212833821260929,-2.407614683958888,4.985189628738165
1789666069148342000,10.637342041015625,0.7173926291711628,-2.7269962754398582,7.233707975718379
1789666069158294000,10.6472939453125,1.2158078686356544,-2.0428356153935194,9.282426219409704
1789666069168246000,10.65724609375,-0.11005319686830044,-0.462103716763854,10.488625717222689
1789666069178199000,10.667198974609375,-1.729812599159032,1.3225643620461225,10.685519577676057
1789666069188151000,10.677151123046874,-1.714540211225301,2.2313427557736634,9.985761535525322
1789666069198102800,10.687102783203125,-0.8695359321415423,2.3021757028877734,8.802407491248845
1789666069208054800,10.6970546875,-0.6101707102060318,1.3629139080911874,7.857295216858387
1789666069218006500,10.707006591796874,-0.9246241976350545,-0.48273675494790075,7.154483632355928
1789666069227959600,10.71695947265625,-1.027614616510272,-2.21721193909049,6.717984896969795
1789666069237911800,10.726911865234374,-1.396096631246805,-3.642713528519869,6.258450153911113
1789666069247863800,10.73686376953125,-2.864248444879055,-4.074660591951012,5.5713768212884665
1789666069257815600,10.746815673828126,-3.9961493652939795,-3.371585972598195,5.112916429463029
1789666069267767600,10.756767578125,-3.5169618272602556,-1.8813725492835043,5.963809035933018
1789666069277720600,10.766720458984375,-2.145125777044892,-0.5045259774297476,7.014504668301344
1789666069287672800,10.7766728515625,-0.8957341301720589,0.09050970748662948,7.140019638195634
1789666069297624600,10.78662451171875,-0.22362934369836002,0.5886486142277717,6.65053691611886
1789666069307576600,10.79657666015625,-0.024385065927635875,0.9109972388207912,5.141712315836548
1789666069317528800,10.80652880859375,-0.04562310253381729,0.16712766774296758,3.3225632907539606
1789666069327480600,10.81648046875,-0.03403206999395043,-1.599179409468174,2.308595506802201
1789666069337433600,10.82643359375,0.8726128553688526,-3.5813071659207343,1.5411524601742623
1789666069347385600,10.836385498046875,2.3638591288626194,-5.298706127578019,0.5690346899583936
1789666069357337600,10.846337646484375,4.231135348254442,-7.208726679196953,-0.9551821252450347
1789666069367289900,10.856289794921874,4.426711696368455,-8.396521920791267,-2.421236674337089
1789666069377241600,10.86624169921875,3.6980432015538214,-9.58963689610362,-4.144635460931062
1789666069387194600,10.876194580078124,0.6938953606624155,-10.469278042674064,-5.399215835553408
1789666069397146600,10.886146728515625,-3.4888977622926234,-9.985948582530021,-5.097049582767486
1789666069407099000,10.896098876953126,-3.806708158934116,-7.539110726207494,-2.8299221046462653
1789666069417050600,10.906050537109374,-1.2479225241683423,-4.930829092997312,-0.9433540325462818
1789666069427002600,10.916002685546875,1.9049217671751975,-3.4411960999190807,-0.291563902489841
1789666069436955600,10.92595556640625,5.100561390280723,-2.292528753620386,-0.12466361376196146
1789666069446907600,10.93590771484375,5.9202329290568825,-1.3205296413481236,-0.6281827522367238
1789666069456859600,10.945859619140625,6.027879649305343,-0.34448622212111946,-0.43833413411974903
1789666069466811600,10.955811767578124,4.793803133529424,0.7135188564777374,0.28401275645792484
1789666069476763600,10.965763671875,3.697381522774696,1.4809189407467842,-0.6279167947769164
1789666069486715600,10.975715576171876,3.3695781399071216,1.5150024121344088,-2.2899013277262448
1789666069496668700,10.985668701171875,3.1956349469304084,1.2446347346693276,-3.3593992757201194
1789666069506620700,10.99562060546875,2.8177883069992062,1.1854150684595108,-4.0245536220014095
1789666069516572700,11.00557275390625,2.768854764743149,1.2062088501632213,-4.703960950040817
1789666069526524700,11.015524658203125,2.972970685404539,1.4565724349975586,-5.245378442016244
1789666069536476700,11.0254765625,3.0371932744681835,1.8901286871910095,-5.887539450722932
1789666069546429700,11.0354296875,2.982842091077566,2.4357547367721795,-6.54975072928965
1789666069556381700,11.045381591796875,3.0081270467206833,2.9600428147703406,-7.109971705934405
1789666069566333700,11.055333740234374,3.1110321254000066,3.3090357006609437,-7.694077416035532
1789666069576285700,11.06528564453125,3.1121286884650585,3.5569156519860026,-8.074222396036982
1789666069586237700,11.07523779296875,3.0638474726378915,3.6139807705104348,-8.592889711543917
1789666069596190700,11.085190673828125,3.0438509787917134,3.4061563507199284,-9.119556793633103
1789666069606142700,11.095142822265625,3.1096538227841255,3.11543620557785,-9.648680621224642
1789666069616094500,11.105094482421874,2.9691408979833125,3.0526053631335497,-9.889033684176207
1789666069626046700,11.115046630859375,2.8030419887661933,3.2296190495967863,-9.792952898558974
1789666069635998700,11.124998779296876,2.6610759425476194,3.342137175273895,-9.684489016708731
1789666069645950500,11.134950439453124,2.4453943795159456,3.2826895455271003,-9.343185516276955
1789666069655903500,11.144903564453125,1.836016280992329,3.0598844142258166,-8.462536069446802
1789666069665855700,11.154855712890624,0.24876769394502043,2.571038821008801,-6.879367883580922
1789666069675807700,11.164807861328125,-2.730437355804443,1.5266104323416947,-4.480559021890163
1789666069685759700,11.174759765625,-8.015621153986453,-0.06686988870203495,-1.5475158577263355
1789666069695711500,11.18471142578125,-17.80722906767726,-3.5108319462031123,3.6484471037358044
1789666069705664500,11.19466455078125,-18.612877926319836,-7.777530190747976,18.831955561530588
1789666069715616800,11.20461669921875,-2.1250901202321053,-12.725413294398784,33.3946123406291
1789666069725568800,11.21456884765625,2.398688450181484,-15.905605173003673,31.875739224541185
1789666069735520500,11.2245205078125,-2.3126737160265445,-9.975291579437256,20.352972703909874
1789666069745472800,11.23447265625,-5.880791730028391,0.2723053675293922,10.60722053246498
1789666069755424800,11.2444248046875,-6.019290684658289,6.146217274916172,3.013471038097143
1789666069765377800,11.254377685546874,-2.6233681431829927,6.038710255399346,-1.5198650497347115
1789666069775329500,11.26432958984375,2.588128487497568,4.2954239882916205,-4.321482558655738
1789666069785281500,11.274281494140626,6.497316193175315,3.0936838079750535,-6.315428178673982
1789666069795233800,11.28423388671875,9.438487718737125,1.351163264542818,-8.149808090636133
1789666069805185500,11.294185546875,10.23811950904727,-0.8422837680786848,-8.380724632200598
1789666069815138600,11.304138671875,7.620483187514543,-3.1772809595942495,-8.24384947938025
1789666069825090600,11.314090576171875,-0.5233690634571015,-9.554467967566847,-8.006187555208802
1789666069835042800,11.324042724609376,-29.3704152769804,-21.99405298051834,-1.5859680457174776
1789666069844994800,11.333994873046874,-17.62359800890088,-21.131532480096816,11.22605034994483
1789666069854946600,11.343946533203125,8.360883036655187,-11.878548628270625,0.3748299224585295
1789666069864898600,11.353898681640626,7.9804259219646445,-4.974694538208842,-9.752238026332854
1789666069874851600,11.3638515625,6.102776777118444,0.034215573334693904,-10.527428618347644
1789666069884803800,11.373803955078126,4.600732046234607,3.200669433966279,-11.132380717122555
1789666069894755600,11.383755615234374,3.333052536064386,4.737575050351023,-10.470960296672581
1789666069904707600,11.39370751953125,2.5712007335722444,5.765521090772747,-9.758055772700905
1789666069914659800,11.403659912109376,2.360581422366202,6.329927244147658,-8.859969453379511
1789666069924612900,11.41361279296875,2.9939924306452275,5.998899638536572,-8.395979484477639
1789666069934564600,11.423564697265626,3.4092274287283417,4.629689845171571,-8.665854994511603
1789666069944516600,11.4335166015625,3.342797685009241,2.790122301438451,-8.3361659440279
1789666069954468600,11.443468505859375,3.476346908277273,0.5809358478933573,-7.090470302128791
1789666069964420600,11.453420654296876,3.6345863361656665,-1.4508201550811528,-6.372572792175411
1789666069974372600,11.46337255859375,4.137209694844484,-3.059527271351218,-4.6438317677706475
1789666069984325600,11.47332568359375,5.4125487798571585,-4.659107078313827,-1.8491051874071358
1789666069994277600,11.483277587890624,5.676974792313575,-5.6028112394720315,1.407891113936901
1789666070004230000,11.49322998046875,6.120042384696006,-5.657043764919043,4.02648283649832
1789666070014181600,11.503181640625,5.659686972904205,-4.336526983052492,4.104932103835046
1789666070024133600,11.513133544921875,4.691048861497641,-2.2661545414358377,3.985151001417637
1789666070034086700,11.523086669921875,4.090790473496914,-0.5990016659379005,4.19847314184159
1789666070044038700,11.53303857421875,3.153253602796793,0.5790051720917224,4.268273531037569
1789666070053990700,11.54299072265625,1.748286267352104,1.74590667873919,4.221009091037511
1789666070063942700,11.552942626953126,0.6558452506661415,2.371498245438933,5.20720857809782
1789666070073894700,11.562894775390625,-1.4409814826339482,2.9067712433099744,6.819185509818792
1789666070083846700,11.5728466796875,-6.314990371778607,4.087546961531043,4.70292020881623
1789666070093799700,11.582799560546874,-5.805038277646899,3.3649002112239597,4.13943672324419
1789666070103751700,11.592751708984375,-1.8593249681264161,1.2788280961722134,4.957593765804171
1789666070113703700,11.60270361328125,0.746080817386508,-0.15859657076299188,4.39580948536545
1789666070123655700,11.61265576171875,-0.3604838555894792,0.022749591946601866,3.4324028448715804
1789666070133607700,11.622607666015625,-2.6923738748699426,0.5066372704952955,2.2037806489787997
1789666070143560700,11.632560791015624,-2.2935173262663184,0.5283680407881737,0.694270842911303
1789666070153512700,11.6425126953125,-0.7367297823257744,0.42608547792136664,-0.6839914409592748
1789666070163464700,11.652464599609376,0.034200375765562056,0.11769172892272471,-1.7456313689291476
1789666070173416700,11.662416748046875,-0.5856780739843845,-0.06333937648832798,-2.468143386940658
1789666070183368700,11.67236865234375,-3.6116692786976694,-0.4727823471665382,-3.329109059135616
1789666070193320400,11.682320556640626,-6.23520021122694,-0.9122481156647205,-4.166813390469551
1789666070203273500,11.6922734375,-4.230254473766684,-1.2378519426614045,-4.135071806032955
1789666070213225700,11.702225830078126,-1.0246525518342853,-1.7770289622336626,-2.7876392524510623
1789666070223177700,11.712177734375,0.2812479679197073,-1.9112930557727812,-0.6903215207636356
1789666070233129700,11.722129638671875,-0.12444354127049445,-1.9730542231589554,2.9691572645962236
1789666070243081500,11.73208154296875,0.2534305711895227,-1.9482313320696352,6.497241374373435
1789666070253034500,11.742034423828125,0.662339142730087,-1.180224514079094,7.581334249430895
1789666070262986800,11.75198681640625,-0.5943383503019809,-0.21053309422731398,7.887422644096612
1789666070272938800,11.761938720703125,-2.423074849549681,-0.07877016985416412,7.230318333280086
1789666070282890500,11.771890380859375,-2.2288445092171427,-0.5539449651151895,6.794750741264224
1789666070292842800,11.7818427734375,-1.4093801834508777,-0.6752011085212231,7.501099267721176
1789666070302794800,11.791794677734375,-2.1610072367876767,0.3418225558698177,8.793023576831818
1789666070312747800,11.801747802734376,-2.3886500173784793,1.1324082854151725,10.240013359969854
1789666070322699500,11.811699462890624,0.3705278413504362,0.5766536405295133,10.437870512497424
1789666070332651500,11.821651611328125,2.0998604019075633,-1.3496364933669567,9.570627075207232
1789666070342603800,11.831603759765626,0.4658768055617809,-3.456797573676705,8.383326923653483
1789666070352555500,11.841555419921875,-3.4845629479587075,-3.901341083830595,6.524128796777129
1789666070362508500,11.851508544921876,-5.9262026511162516,-3.443450016325712,4.950879362857341
1789666070372460500,11.86146044921875,-6.083623748359083,-2.0161586208701134,5.390162760525942
1789666070382412800,11.871412841796875,-5.186069928479195,-0.38378421328663825,6.64425096771717
1789666070392364800,11.88136474609375,-3.8261072714090343,0.35604280440211294,6.874895122081041
1789666070402316500,11.891316650390625,-2.141503494894504,0.5615992792606354,6.215903974604606
1789666070412268500,11.9012685546875,-1.614254229003191,1.0135305615782737,5.847036759942769
1789666070422221600,11.9112216796875,-2.0518395905822513,0.9919552741080522,5.254741898167133
1789666070432173800,11.921173828125,-0.9644371525853872,-0.2507043610960245,3.885496741227805
1789666070442125600,11.93112548828125,1.3975766406714916,-2.364189968252182,2.7443609594777225
1789666070452077600,11.94107763671875,3.704690384483337,-4.219330344170332,1.5208774416476487
1789666070462029600,11.951029541015625,4.869676412898301,-5.545467888528108,-0.0060553545162081715
1789666070471982600,11.960982666015624,5.50260723644495,-7.089016011667251,-1.8785203747227788
1789666070481934600,11.9709345703125,4.716558565807342,-9.271847542250155,-3.101886988174915
1789666070491886600,11.980886474609376,2.3944600188314915,-11.386825433790683,-4.0934027018219235
1789666070501838600,11.990838623046875,-1.6695827329933641,-13.276479489207267,-4.984050980097055
1789666070511790600,12.00079052734375,-4.054490495103598,-12.04902093026638,-3.7129128539055585
1789666070521742600,12.01074267578125,-3.1627696191608905,-7.5596034791380164,-0.5179863475054503
1789666070531695600,12.020695556640625,1.3806196606516836,-4.103304502633214,0.808364547342062
1789666070541647600,12.030647705078126,5.030894564336538,-1.8915835621744392,1.3839990739569068
1789666070551599600,12.040599609375,5.019574713420868,0.08222235613465309,1.9186828737631438
1789666070561551600,12.050551513671875,4.549732511359453,1.5103957951217888,2.3556360749185083
1789666070571503600,12.060503662109374,4.325684101998806,2.3592712165504692,1.8350123646467924
1789666070581456600,12.07045654296875,3.687939156168699,2.8547616546094416,-0.025099369943141936
1789666070591408600,12.08040869140625,3.3444825693562623,2.7693144912093874,-2.0806015746861695
1789666070601360600,12.090360595703125,3.086673052430153,1.8538053279221056,-4.029517966410517
1789666070611312600,12.100312744140625,2.681666018372774,1.132422313940525,-5.222113301762938
1789666070621264600,12.1102646484375,2.454159577512741,1.292087390717864,-5.840854856437445
1789666070631217700,12.1202177734375,2.623741068148613,1.7680840237557887,-5.993771043476462
1789666070641169700,12.130169677734376,2.7723136730253697,2.1328385424017906,-6.59546326367259
1789666070651121700,12.14012158203125,3.0376947942495343,2.8286463856220245,-6.468888555592298
1789666070661073700,12.15007373046875,3.490729653894901,3.815183726334572,-6.702882604905962
1789666070671025400,12.160025390625,3.652860828524828,4.229706776756048,-7.346901224178075
1789666070680977700,12.169977783203125,3.5396471217989918,4.368827662676573,-7.839922641775011
1789666070690930700,12.1799306640625,3.5151802045404907,3.9773610781937836,-8.491398591315745
1789666070700882700,12.189882568359375,3.4658848432347176,3.1281735220760107,-8.95848360362351
1789666070710834700,12.199834716796875,3.4489199721693993,2.5120295826792716,-9.250124955263733
1789666070720786700,12.20978662109375,3.5616765827775,1.9968869341671465,-9.722344992372394
1789666070730738700,12.21973876953125,3.302568550473451,1.580090678116679,-10.005540587228536
1789666070740691700,12.229691650390626,2.5817864249944686,1.382704065710306,-9.909140068137646
1789666070750643700,12.239643798828125,1.947948423475027,1.517210151311755,-9.87399627404213
1789666070760595500,12.249595458984375,1.3229926704607904,1.8926725264549253,-9.626378188523649
1789666070770547700,12.259547607421876,0.11554594906568527,1.9208885671138762,-8.591996562096476
1789666070780499700,12.269499755859375,-1.8873649215660988,1.5982739850610495,-6.603791531556844
1789666070790452700,12.27945263671875,-5.241905797469616,1.3315572313189505,-3.822290343469381
1789666070800404500,12.289404541015625,-10.181316840851306,0.1714718344271183,-0.2834744117975235
1789666070810356700,12.299356689453125,-16.112134292286633,-2.2537878118157386,7.740992896467447
1789666070820308700,12.309308837890624,-11.563750857448577,-4.427385065585375,19.095915125519035
1789666070830260500,12.319260498046875,2.842824548578262,-9.596659342086314,28.530272612583637
1789666070840212500,12.32921240234375,5.692489172309637,-13.455523220193385,28.039622600293157
1789666070850165500,12.33916552734375,0.8476597620286047,-9.748784671008586,19.297552965629098
1789666070860117800,12.34911767578125,-4.44779656997323,0.5116203196048736,10.306212802064419
1789666070870069800,12.35906982421875,-5.700788214099407,6.778152657684683,6.396980672723054
1789666070880021500,12.369021484375,-1.8706198307313024,5.41582736313641,2.1431571073204276
1789666070889973800,12.378973876953125,2.745107686191797,2.3471447254270315,-1.1598200239539145
1789666070899926800,12.3889267578125,4.688962118351459,0.22036475241184234,-3.1399528071969747
1789666070909878800,12.398878662109375,5.364711508405208,-2.02403505333364,-4.642911730316281
1789666070919830500,12.40883056640625,4.827314942508935,-3.7361528597176075,-6.57418315975666
1789666070929782500,12.418782470703125,0.828570373089984,-6.2620356111824504,-9.213761848506332
1789666070939734800,12.42873486328125,-14.341677109658717,-12.66803194953203,-9.441077150708436
1789666070949687800,12.438687744140625,-21.87046401025057,-17.201651530480383,-0.09187018218487501
1789666070959639600,12.4486396484375,-1.607069139804691,-13.0752215883255,7.62054339326918
1789666070969591600,12.458591552734376,7.783367226338386,-7.0297694574505085,-2.7130978062078355
1789666070979543800,12.468543701171875,7.837997811192274,-1.0885451782912015,-7.700408957144617
1789666070989495600,12.47849560546875,7.719026563853025,3.104930593654513,-7.461980140253901
1789666070999447600,12.488447509765624,6.313662922567128,5.774698668962717,-8.0551669824332
1789666071009400600,12.498400634765625,5.8042532647490495,6.872747588658332,-6.890471461397409
1789666071019352600,12.5083525390625,5.257637619608641,7.152534251853823,-6.124703362244367
1789666071029304800,12.518304931640625,5.475064565002918,6.8589242304891345,-5.264345592814683
1789666071039256600,12.528256591796875,6.488546026742458,6.161414844048023,-5.0562826880931855
1789666071049208600,12.53820849609375,7.444746681380272,4.377469234293699,-5.463536624294519
1789666071059161600,12.54816162109375,7.415498375064134,1.6151239975750444,-5.059529707190394
1789666071069113900,12.55811376953125,7.841688482403755,-1.199894260188937,-4.519710590322315
1789666071079065600,12.568065673828125,8.623845406299829,-3.804752348691225,-3.808545895755291
1789666071089017600,12.578017578125,8.798077353090047,-5.502917033046484,-2.042623726208508
1789666071098969600,12.587969482421874,7.973298262041807,-5.574116475385427,0.5987430150017142
1789666071108922600,12.597922607421875,6.352651701653003,-4.289529085034132,1.9567783572711048
1789666071118874600,12.60787451171875,5.074070858240127,-2.1350614791482685,1.5186666337303816
1789666071128826600,12.61782666015625,4.095046961897611,0.011763503029942512,0.42468642477840185
1789666071138778600,12.627778564453125,3.6727205442488193,1.3976070358097552,-0.08847790939807891
1789666071148730600,12.637730712890624,3.3021687375009057,2.1696090609163043,-0.4936944945529103
1789666071158683600,12.64768359375,2.8574831885278225,2.137466202202439,-0.8619849322400986
1789666071168635600,12.6576357421875,2.56149182498455,0.42398529077172276,-0.8435930971115827
1789666071178587600,12.667587646484375,0.4379104288149625,-1.4250626134902238,-0.4073533049225807
1789666071188539600,12.67753955078125,-9.887577055627107,-1.7405302463978527,1.0782714754275977
