time,seconds_elapsed,z,y,x
1789324294648289800,0.052289794921875,-0.9707271926403045,-0.13741525104641913,0.560038898076117
1789324294658253000,0.062253173828125,-1.0558873557925224,-0.04547843336611986,0.4286161654427647
1789324294668214800,0.07221484375,-0.8700327757477759,-0.298324482665956,0.12167495333999395
1789324294678177800,0.082177734375,-0.4652566278368234,0.05327361728698015,0.04157821105718613
1789324294688140000,0.09214013671875,0.043944940188527105,0.19580562682524322,0.027980770598351953
1789324294698103000,0.10210302734375,0.3455845387518406,-0.11713760217130184,0.09437895013540983
1789324294708065800,0.112065673828125,0.6162187581986188,-0.33119726308956743,0.21888094359487295
1789324294718027800,0.12202783203125,0.869672710263729,-0.5426015871934592,0.6392255397766828
1789324294727990800,0.13199072265625,1.2308388490289448,-1.2062817692689596,2.2654499002978206
1789324294737953000,0.141953125,1.441513397553563,-0.6149015381202101,1.312365916375816
1789324294747915800,0.151915771484375,1.3780384119868279,-0.03591813946887851,-0.22413608764410017
1789324294757877800,0.161877685546875,1.319909463623166,0.46495910619497294,-1.489912102280557
1789324294767840800,0.1718408203125,0.8882230969548225,0.5034650701999664,-1.35620447358042
1789324294777803800,0.1818037109375,0.6238625509500503,-0.14471841366663574,-1.5462193881750106
1789324294787765800,0.191765869140625,0.6108195295035839,-0.7115278287909924,-1.694009025980532
1789324294797728800,0.201728759765625,0.8066612505555153,-1.0467860577091574,-1.6187208530232309
1789324294807690800,0.211690673828125,0.8461036186277866,-1.1783005602791905,-1.5414116956323385
1789324294817654000,0.221654052734375,0.7904454442918301,-0.5103507380604744,-1.3742077477827668
1789324294827615700,0.23161572265625,0.8851753998219967,0.3442787168502807,-1.2189847451061009
1789324294837578800,0.241578857421875,0.9939397259235382,0.8609954828113316,-1.0328779438659548
1789324294847541800,0.251541748046875,0.9676613753288984,0.6839975784391165,-0.38696079749614
1789324294857504000,0.26150390625,0.7611404393523931,0.5695417626976966,-0.2695508081242442
1789324294867467000,0.271467041015625,0.07868658322393894,-0.13494915319383144,0.825047094334662
1789324294877428700,0.2814287109375,-0.18772855722308157,-0.3899164324313402,1.1925827681317924
1789324294887391700,0.291391845703125,-0.13384966751933097,-0.29211919828504324,1.4261135838478802
1789324294897354000,0.30135400390625,-0.09573591770231724,-0.16498948667049407,1.3213500178202986
1789324294907317000,0.31131689453125,-0.5982172375619411,-0.12686901485174892,1.691160943073034
1789324294917280000,0.321280029296875,-1.7827262970924376,-0.2894315666362643,1.8005688277751206
1789324294927241700,0.33124169921875,-3.258583278274536,-1.1357912058517337,1.3063824580520391
1789324294937204700,0.341204833984375,-3.6376077298134564,-1.461586756028235,0.7829577188849449
1789324294947167000,0.3511669921875,-3.1804063981384036,-1.5215508108645677,0.17511501323506234
1789324294957130000,0.3611298828125,-2.3821283605247734,-1.3123401974126696,0.12834171775281428
1789324294967091700,0.371091796875,-1.941336896380782,-0.9769894679054617,0.595678220603615
1789324294977054700,0.3810546875,-0.08323007187247276,-0.257822084146738,1.5344365959227084
1789324294987018000,0.39101806640625,1.232203707641363,-0.9325883083820342,1.7664922245196997
1789324294996980000,0.40097998046875,0.7823428018569946,-1.544530704435706,2.4519854483440517
1789324295006942700,0.410942626953125,-0.12997370286881924,-1.5021499448239803,2.9411300245076415
1789324295016904700,0.42090478515625,-0.8474562022805213,-1.5132356947228311,2.7033161246448754
1789324295026868000,0.430867919921875,-1.9749007278084754,-1.2840022839397192,1.8274004283383487
1789324295036830000,0.440829833984375,-2.2283330525636673,-0.45272593982666726,-0.8725265653248876
1789324295046792700,0.450792724609375,2.091770034432411,4.19035150244534,-10.2174367865026
1789324295056755700,0.460755615234375,3.6880507998496292,3.038120326185226,-10.22316159389019
1789324295066718000,0.470718017578125,5.846002740719914,-0.1791623889297247,-5.888097669127583
1789324295076681000,0.480680908203125,4.539315162241459,-1.546088455271721,-2.980370732527971
1789324295086642700,0.490642578125,2.853056019735336,-2.0627926540121435,0.93518402396366
1789324295096605700,0.500605712890625,2.674224470195174,-1.599298359672725,2.3386790948987004
1789324295106568000,0.51056787109375,2.0816256570369003,-0.8447244392290711,1.6357776401557027
1789324295116531000,0.520531005859375,1.196619768562913,0.12785802588909864,0.6142008425049483
1789324295126494000,0.530493896484375,-0.6454419300734996,0.05022562789320945,1.0795384266234933
1789324295136455700,0.54045556640625,-1.5027327131479977,0.04509001857042312,1.089428098605573
1789324295146418700,0.550418701171875,-1.0351280608803033,0.49148733989745375,0.453658106110245
1789324295156381000,0.560380859375,-0.43064416413903234,0.5701356369376183,0.3356659329362213
1789324295166344000,0.570343994140625,-0.0713859048217535,0.20935499035865068,1.153269287136197
1789324295176305700,0.5803056640625,0.00395838223695755,-0.020134733273088932,2.038160901580751
1789324295186269000,0.59026904296875,0.18253975640833378,0.09675532387793064,2.528467215000093
1789324295196232000,0.60023193359375,0.09595277532339096,0.1039616019949317,2.608971953561902
1789324295206194000,0.61019384765625,0.008075169906020164,0.29584260272234675,2.125672011773288
1789324295216157000,0.620156982421875,-0.02547171038687229,0.8406655192270874,1.2036677873782813
1789324295226119000,0.630118896484375,-0.06372866806685924,1.0473282017618417,0.21088892192766068
1789324295236082000,0.64008203125,0.0369826999604702,1.0434735721603035,-2.411797522601485
1789324295246044000,0.6500439453125,-0.3436386653810739,0.6198007083386182,-2.728783451117575
1789324295256007000,0.6600068359375,-0.7251379826009273,-0.08945639904141425,-1.0775120353624223
1789324295265969700,0.6699697265625,-0.6677987233102322,-0.4522144831731915,-0.028139176030457017
1789324295275932000,0.679931884765625,-0.4743845216661691,-0.2118468071743846,0.36287455011829733
1789324295285895000,0.68989501953125,-0.3255500509828329,0.1267573711708188,0.8430163201369345
1789324295295857000,0.69985693359375,-0.10900514912009239,0.07857114015072583,1.3883438251629472
1789324295305819600,0.709819580078125,-0.08815642235875129,-0.06693389384895562,1.1842993623025715
1789324295315782000,0.719781982421875,-0.0475701449483633,-0.0027981062859296795,0.7435403391234576
1789324295325745000,0.729744873046875,0.08554010238051414,-0.11011311036199331,0.4356638919971883
1789324295335708000,0.7397080078125,0.171043379881978,-0.37947073400169606,0.16897227269634604
1789324295345669600,0.749669677734375,0.1366279000610113,-0.6394631479248404,0.05601867821142077
1789324295355633000,0.7596328125,-0.04860065703988075,-1.0898697048932313,0.25932138279378414
1789324295365595000,0.769594970703125,-0.38968729985058304,-1.5280743674144148,0.8772134810321033
1789324295375557600,0.7795576171875,-0.7560767262220383,-1.8281427711382507,1.263545186844468
1789324295385519600,0.78951953125,-1.0157546673685312,-1.9330229492828248,1.304224695496261
1789324295395482600,0.799482666015625,-1.1334493189007042,-2.2054662639781832,1.2326689870655536
1789324295405445600,0.809445556640625,-1.1782406467854976,-2.7669533150359986,1.2065364746823906
1789324295415407600,0.81940771484375,-1.3649953905403613,-3.139331168167293,1.1686378289207815
1789324295425370600,0.82937060546875,-1.7687451180130243,-3.2472093590840694,1.1046993174955249
1789324295435332600,0.83933251953125,-2.339560553908348,-3.3489871872991324,1.0470128522023558
1789324295445295600,0.849295654296875,-2.6521470784217116,-3.383879344721138,0.6405497741177678
1789324295455257600,0.859257568359375,-2.518461077031493,-3.3247494026213884,0.2086275528669357
1789324295465220600,0.869220703125,-2.346972291469574,-3.473161263978481,0.03182955498099327
1789324295475183400,0.879183349609375,-1.809684446644783,-3.5638597720354794,-0.2234206328511238
1789324295485145600,0.8891455078125,-1.4116916752636433,-3.82688965395838,-0.9224526988148689
1789324295495108600,0.899108642578125,-1.265631929990649,-4.2809909737914795,-1.674193441659212
1789324295505070600,0.909070556640625,-1.1964432429522276,-4.658152554067969,-2.162905179363489
1789324295515033600,0.91903369140625,-1.3370780405670404,-5.249669417208433,-2.224256596904993
1789324295524995600,0.92899560546875,-1.4547580790519714,-5.6019110757619135,-1.856283116212487
1789324295534958600,0.93895849609375,-1.4067916282624005,-5.271569114327431,-2.1782103005230424
1789324295544921600,0.948921630859375,-0.8850973661497235,-4.068628910571337,-2.7864170171797276
1789324295554883600,0.958883544921875,0.9166919433310627,-2.9302196311756967,-3.294480521085858
1789324295564846600,0.9688466796875,1.8914859470188616,-2.99159092246145,-3.104816611886024
1789324295574808600,0.97880859375,1.3106482988029717,-3.9459973871588705,-2.0753046373218296
1789324295584771600,0.988771484375,2.112451003411412,-4.509705036875605,-1.3581436249494552
1789324295594733600,0.998733642578125,3.3010636988684534,-4.23692883696407,-1.1039403158217669
1789324295604696600,1.008696533203125,4.229748862332105,-3.626872985309362,-0.6526853253304958
1789324295614659600,1.01865966796875,4.514138343147933,-2.804055257461965,0.038167525830864905
1789324295624621600,1.02862158203125,4.194665273991227,-1.424682528131455,0.6301379779577255
1789324295634584600,1.03858447265625,4.193525748567283,-0.40260245713368054,0.9502700955450534
1789324295644546600,1.048546630859375,3.241229407891631,0.3444024893604219,1.3913438837617635
1789324295654509600,1.058509521484375,2.8735370822280646,1.0496643896244466,1.6841957802355287
1789324295664471600,1.068471435546875,2.077102480524033,1.3987389624491333,3.2191093460202214
1789324295674434600,1.0784345703125,0.7426373989343643,0.22848814537376164,4.598793187126517
1789324295684397800,1.088397705078125,0.06554419305622577,0.6182581550717353,4.061798772290349
1789324295694359600,1.098359619140625,0.49450157315209503,1.5976336413308978,4.213230858251452
1789324295704322600,1.108322509765625,0.03385010102316737,1.5031813336983322,4.692431255766749
1789324295714284500,1.118284423828125,-0.8718664209157228,1.4099080067172645,5.611985310530662
1789324295724247800,1.128247802734375,-1.4237797340728342,1.9121113864183426,6.148697985816002
1789324295734210600,1.13821044921875,-2.219689142858982,2.471836103978753,6.422459397372603
1789324295744172500,1.148172607421875,-3.418477195371687,2.5798843907654283,6.510375581234693
1789324295754135600,1.158135498046875,-4.378262430498004,2.5445640710592268,6.716866706594824
1789324295764097800,1.168097900390625,-4.639687215311825,3.171800482356548,7.040734503579139
1789324295774060500,1.178060546875,-4.5336996604472395,3.951027782541513,7.586600791656971
1789324295784022500,1.1880224609375,-4.690719775673747,4.4783635576725,8.104539208367466
1789324295793985500,1.197985595703125,-4.739065581169724,5.1393303891360755,8.198270800510048
1789324295803948500,1.207948486328125,-4.639042779928445,5.801087494194507,8.304617544075846
1789324295813910500,1.21791064453125,-4.766700022548437,6.586521247804164,8.581241943848132
1789324295823873500,1.22787353515625,-4.9546366695642465,7.188701543778181,8.909013762533665
1789324295833835500,1.23783544921875,-4.960272629624605,7.026155358606577,8.199764838460087
1789324295843798500,1.247798583984375,-4.894978027415275,6.629450288948417,6.802322637823224
1789324295853760500,1.257760498046875,-5.466318363967537,5.48626984962821,5.14728573205471
1789324295863723500,1.2677236328125,-5.958452477335929,3.6659535343319174,3.1748715603649615
1789324295873686500,1.2776865234375,-5.4144882234871385,2.228437681981921,1.38624042314291
1789324295883648500,1.2876484375,-4.588687972697615,1.5656769528388976,-0.13193886546194553
1789324295893611800,1.29761181640625,-4.024781001016497,0.6593903759270906,-1.2462889316171406
1789324295903573500,1.307573486328125,-3.1203163788348434,-0.34794308457672596,-1.5835469560503959
1789324295913536500,1.31753662109375,-1.4072960706532,-0.5850730938285589,-1.273499010103941
1789324295923499500,1.32749951171875,0.12257833192050456,-2.038343564671278,-1.2534680294662712
1789324295933461800,1.337461669921875,0.5805751248221844,-3.1894176798507567,-1.285640114274621
1789324295943424800,1.3474248046875,1.763681989404559,-2.6765195953950283,-1.0885562842071055
1789324295953386500,1.357386474609375,4.269845310398936,-1.0179787731587886,-0.9159668439269065
1789324295963349500,1.367349609375,5.099537892451882,-0.1497273278698325,-0.4065279600143432
1789324295973311700,1.377311767578125,3.8803397968560454,-0.4269344959661364,-0.15070786333978176
1789324295983274800,1.387274658203125,2.70494927880466,-0.3192912828490138,-0.26263211477696896
1789324295993237500,1.397237548828125,1.2185340787291525,-0.37834582162499425,-0.888960763579607
1789324296003199500,1.407199462890625,-0.186547238484025,-0.5583505065977573,-2.0403087272644043
1789324296013162500,1.41716259765625,-1.6608242569983005,-0.5102367562919855,-3.071594141241908
1789324296023124700,1.427124755859375,-1.5409446626424788,-0.5783978538483381,-3.8130572356998917
1789324296033087500,1.43708740234375,-0.7702700867474078,-0.11496639561206101,-4.161512945973873
1789324296043050500,1.447050537109375,-1.453347043210268,-0.718277156920731,-3.4955268250435587
1789324296053012700,1.4570126953125,-1.5362264019489287,-2.3527716253980993,-2.56151111420691
1789324296062975700,1.466975830078125,-1.0809423751372844,-4.19320572283268,-1.797820990371704
1789324296072937500,1.4769375,-0.5792846466202288,-4.757241581590473,-1.0452280146121977
1789324296082900500,1.486900390625,0.004578998353332281,-3.480122919684648,0.19395605343580244
1789324296092862700,1.49686279296875,0.23385785571336745,-1.7856120816618204,0.3303600816130638
1789324296102825700,1.50682568359375,-0.10422960528135299,-1.202788812586665,-0.17583587485551833
1789324296112788700,1.516788818359375,-0.4108279952958226,-1.2293050635904073,-0.5603688606828451
1789324296122750500,1.52675048828125,-0.9508382508218288,-1.3257663729578255,0.7519248672395944
1789324296132713500,1.53671337890625,-0.7621379259571432,-1.488789527991414,2.1777157950043677
1789324296142675700,1.54667578125,-0.29910598843246694,-1.3722364477097988,3.3721254863023757
1789324296152638700,1.556638671875,-0.49802229462414976,-0.6466670879542827,3.4183366178572174
1789324296162601700,1.566601806640625,-2.354736203469336,-1.0129945550054311,0.9260171132981777
1789324296172563500,1.5765634765625,-1.7893886775910852,-0.8929103779882193,0.5375193154931068
1789324296182526500,1.5865263671875,-1.3046905594423412,-0.6798977419048547,0.42542087653279304
1789324296192488700,1.59648876953125,-1.0185127339050173,-0.12469196307361126,-0.08573942434489727
1789324296202451700,1.60645166015625,-0.27897929233536123,0.8031763310492038,-0.1854988984748721
1789324296212413400,1.616413330078125,0.33576237904801964,1.3131138121336698,0.015537760871648787
1789324296222376700,1.626376708984375,0.5719698666274547,1.2011936523497104,0.022755437165498733
1789324296232339700,1.636339599609375,1.3562380835890768,0.6548667610228062,0.619079408326745
1789324296242301700,1.6463017578125,1.887066961532831,0.8127554757773876,1.312052758773416
1789324296252264400,1.656264404296875,2.5470377676963807,1.5448779104381798,1.851529491944611
1789324296262226700,1.666226806640625,2.653196295213699,0.5825725091844797,1.5017799424678087
1789324296272189700,1.676189697265625,2.434640638050437,-0.31841070062220095,0.4566211936995387
1789324296282152700,1.686152587890625,2.2531074283361434,-1.0345908852636814,-0.6497327591352164
1789324296292114400,1.696114501953125,0.9810901081573218,-3.1019477784514424,-1.103659014662355
1789324296302077400,1.706077392578125,0.4062514811605215,-4.489175459066033,-1.3214343351028859
1789324296312039700,1.716039794921875,-0.786719117245078,-4.437447609916329,-2.568440036687255
1789324296322002700,1.726002685546875,-1.0257996760427952,-4.390995655342937,-2.7853897199586033
1789324296331964400,1.73596435546875,0.04649228658378124,-3.4523926167160273,-1.9932506234914062
1789324296341927400,1.745927490234375,1.6259312227934597,-2.2851515028506517,-0.9772454884931444
1789324296351890700,1.755890625,2.857712905630469,-1.5054250209718942,-0.021432664129137993
1789324296361852700,1.765852783203125,3.8910803865790364,-0.6893149740695953,0.676504884596169
1789324296371815700,1.775815673828125,4.262304978021979,0.11416180123090744,0.8053530905663967
1789324296381777400,1.78577734375,4.053544738686084,0.397168010994792,0.5680680368833243
1789324296391740700,1.79574072265625,3.4528263319581747,0.13558394396603107,0.9970010131902992
1789324296401703700,1.80570361328125,2.571322898647189,-0.04165478342473507,1.5438152496427298
1789324296411665700,1.815665771484375,1.7246879496216774,-0.4242155923962593,2.205035763606429
1789324296421628400,1.82562841796875,1.2508430877901613,-0.4865449150592088,2.7664854052633046
1789324296431590700,1.835590576171875,1.0922767660349606,-0.44988896283507346,3.1177737086147066
1789324296441553700,1.8455537109375,1.2082714817814528,-0.6179384215980768,3.233258282881975
1789324296451515600,1.855515625,1.2278238851219414,-0.601179009976983,3.4490403836786747
1789324296461478700,1.865478759765625,0.4943763393372297,-0.2761573667824268,3.7694729455173013
1789324296471441400,1.87544140625,-0.6535908958680927,-0.017083821269869803,3.9706808697775005
1789324296481403600,1.885403564453125,-1.5154846426934003,-0.36370354828834534,3.3384958961620925
1789324296491366700,1.89536669921875,-2.4639117407202717,-0.37820086019635196,2.386931669153273
1789324296501328600,1.90532861328125,-3.5117063909500836,0.039105098941922184,1.4569585117056965
1789324296511291400,1.91529150390625,-7.149243978136777,0.6615051761239766,0.9027975657522678
1789324296521253600,1.925253662109375,-7.6924752415359015,0.7662941688537597,0.7811842794716358
1789324296531216600,1.935216552734375,-2.9815041204720734,0.08365794189572334,0.8328661705877631
1789324296541179600,1.9451796875,-0.3143381904862821,-0.11417582975625991,0.6627356677670031
1789324296551141400,1.955141357421875,0.8305687803655862,0.457241663685441,0.4708632156722247
1789324296561104600,1.965104736328125,1.492450388586521,1.3417156372398138,0.4298554979793727
1789324296571066600,1.975066650390625,1.4199077149450778,1.8040823888540267,0.23770254844278096
1789324296581029600,1.985029541015625,1.038470941567421,2.156573638254404,-0.18079788117706774
1789324296590992600,1.99499267578125,0.0564415067333728,2.2985873230069873,-0.8589481948927045
1789324296600954600,2.00495458984375,-1.0704928773153572,2.2175381023049354,-1.3988672650039196
1789324296610917600,2.014917724609375,-1.0031360088139771,2.463009238922596,-1.6416460937976836
1789324296620879600,2.024879638671875,-0.38323359366655346,2.5255653560787437,-1.641796315923333
1789324296630842600,2.034842529296875,0.002556150756217539,2.3604648102492094,-1.9342875623911617
1789324296640804600,2.0448046875,0.12299162542913109,1.8821312586963175,-2.3036267784789204
1789324296650767600,2.054767578125,-0.10385430569555609,0.6457780301600694,-2.4710963915273547
1789324296660730600,2.064730712890625,-0.3393219712257385,-0.17398995472788809,-2.2395397984936833
1789324296670692600,2.074692626953125,-0.04128014142606407,0.6955085680127143,-1.1305439528480172
1789324296680655400,2.0846552734375,0.6080880587130785,0.2070692175090313,0.3040118075873703
1789324296690617600,2.09461767578125,0.841675280791521,-0.8319950137764215,1.2671923111751675
1789324296700580600,2.10458056640625,0.9515385080456733,-1.5688503221780061,1.852853726285696
1789324296710543600,2.114543701171875,1.0341934834439306,-2.143438846871257,2.2661583408281207
1789324296720505600,2.124505615234375,0.8606089677117764,-4.005293041214347,2.7694471776783463
1789324296730468600,2.134468505859375,0.06189385385513305,-5.428851679882407,2.585729609662294
1789324296740430600,2.1444306640625,-1.142593140951544,-6.366923388111591,2.3437233726762234
1789324296750393600,2.1543935546875,-1.5410488536693154,-5.550515235045552,2.560910810226202
1789324296760355600,2.16435546875,-2.701934899419546,-2.4840689780861136,3.140928958752751
1789324296770318600,2.174318603515625,-3.025253830349445,0.2672738031029701,2.5432462664589286
1789324296780281600,2.184281494140625,-2.1652821376278997,1.8164228149890898,1.7014344998061657
1789324296790243600,2.19424365234375,-1.039808035390079,2.4365309818416834,0.8896408547982573
1789324296800206600,2.20420654296875,-0.09558540331572293,1.607099681073427,-0.09131810126006602
1789324296810168600,2.21416845703125,0.27260259691029787,0.30000352179408074,-0.9881139423795043
1789324296820131600,2.224131591796875,-0.44643589977174997,-0.14841653753221035,-2.013455353260785
1789324296830094600,2.234094482421875,-2.144764980908483,1.3569225587218998,-3.636791152733564
1789324296840056600,2.244056640625,-3.184848472239077,0.5922603749841451,-2.416484511373937
1789324296850019600,2.25401953125,-2.310307863678038,-0.15874737741053102,0.23752003148272632
1789324296859981600,2.263981689453125,-1.7363135054856538,0.01507365049123764,1.0291301356397569
1789324296869944600,2.273944580078125,-1.455514158116281,-0.5050047008574009,1.3680663224183023
1789324296879906600,2.283906494140625,2.2496133026100695,0.12084463999569416,1.7503079824380576
1789324296889869600,2.29386962890625,2.537980893276632,0.8393582360208034,0.453841792114079
1789324296899832600,2.30383251953125,1.7219444961324333,0.8172025183141232,-0.6072551150202751
1789324296909794600,2.313794677734375,1.5562034604422748,1.2729255941301583,-0.5669704509049653
1789324296919757600,2.323757568359375,0.6700850806817412,1.7167384519219397,-0.48642684163749217
1789324296929719800,2.3337197265625,-0.30321371601223945,1.5657658001661299,-0.345195831695199
1789324296939682600,2.3436826171875,-0.9069722210884094,1.3079600826323032,-0.1713429473504424
1789324296949644500,2.35364453125,-1.3183151801690458,1.051684643405676,0.00796659496501088
1789324296959607600,2.363607666015625,-1.6838646485850215,1.0005407316237687,0.37720688072293995
1789324296969570600,2.373570556640625,-1.8479281064517794,1.1722352688908577,0.8991708996877074
1789324296979532500,2.383532470703125,-2.0201469598539172,1.7107763286471367,1.4298061547555028
1789324296989495600,2.39349560546875,-1.9944798730254172,2.4320260716378685,2.12109023694098
1789324296999457500,2.40345751953125,-1.5059442225404083,2.2751631927996874,2.7083161248892544
1789324297009420500,2.413420654296875,-0.9578791092440485,1.2864683817923068,3.142807612106204
1789324297019383600,2.423383544921875,-0.5235317066729068,-0.29417057785689826,2.880568880560994
1789324297029345500,2.433345458984375,-0.42824967021793126,-1.2171651284635066,2.194427275830507
1789324297039308500,2.44330859375,-1.0879130178675054,-0.2547679572731256,1.8080187053896486
1789324297049270500,2.4532705078125,-0.4597133144959807,2.1637959907233713,2.1743498257026075
1789324297059233800,2.46323388671875,1.2622644993841647,2.676790521290898,2.244223280134797
1789324297069196800,2.47319677734375,2.104254545213282,2.1888918535351753,1.5872063553407787
1789324297079158500,2.483158447265625,0.9440881920397282,1.0824427697628736,0.9391477399628609
1789324297089121500,2.49312158203125,-1.1057105403646825,-0.2914683331608772,1.2027600248835981
1789324297099083800,2.503083740234375,-2.115347309374809,-1.5035931293696163,1.7741536990582942
1789324297109046800,2.513046875,-2.140073754352331,-1.6823504446297883,2.4552608167529106
1789324297119008500,2.523008544921875,-2.097887640529871,-1.1099281580597162,2.7198960880458354
1789324297128971500,2.532971435546875,-2.1469211360290643,-0.627354484719038,2.414976298768073
1789324297138934500,2.5429345703125,-2.286276269096881,-0.36397067479193207,1.9185545712083576
1789324297148896800,2.552896728515625,-2.473909987643361,-0.15544950490891932,1.6640888117522001
1789324297158859500,2.562859619140625,-2.5279098733782766,-0.5314426259279251,1.693643699799478
1789324297168821500,2.572821533203125,-2.58803145686388,-1.0755056639760732,1.5574632512450217
1789324297178784500,2.582784423828125,-2.730760888670385,0.03679448391199112,0.9039097647778689
1789324297188747500,2.59274755859375,-2.3618365369938314,1.2992623969137669,0.353079643747583
1789324297198709500,2.60270947265625,-1.6060132010109722,1.4285060319423675,-0.04078300555888563
1789324297208672500,2.612672607421875,-1.1692634134732187,0.3399672833919525,-0.6093855511777102
1789324297218634500,2.622634521484375,-1.0371724261894821,-0.9576192892640829,-1.324480424800515
1789324297228597800,2.63259765625,-0.6828732505843043,-1.576838398322463,-2.078132115832716
1789324297238559500,2.6425595703125,-0.2394485153272748,-1.9729986935794352,-2.4814675634160634
1789324297248522500,2.6525224609375,-0.13189999475628136,-2.2171505642920732,-2.465166124695539
1789324297258485500,2.662485595703125,-0.5428372956454753,-2.5041291848182676,-2.1057138041108847
1789324297268447700,2.67244775390625,-1.1996150048561394,-2.7667782507300376,-1.5101210698336363
1789324297278410800,2.68241064453125,-1.668242132039368,-2.9836347027599808,-0.908598214855045
1789324297288372500,2.69237255859375,-1.9156871990785003,-3.0508599807709453,-0.33635669167935844
1789324297298335500,2.70233544921875,-1.698970886171609,-2.6359967386096717,0.4239632250703871
1789324297308297700,2.712297607421875,-0.7264554949402808,-0.9679337625294924,2.12357460110262
1789324297318260700,2.7222607421875,-1.126517766071856,-1.331823188778758,2.1646908937364815
1789324297328223700,2.7322236328125,-0.5007786075949668,-1.8453402819156646,1.4889384349428116
1789324297338185500,2.742185546875,1.302621059691906,-1.0578811599582434,1.2380047951355575
1789324297348148500,2.7521484375,1.9401123230218886,-0.9355191011369228,0.24782734435498713
1789324297358110700,2.76211083984375,2.350213173086941,-0.6131108553111553,0.053068742364645004
1789324297368073700,2.77207373046875,2.520002168993652,-0.12651450232565403,0.34058994533494114
1789324297378035700,2.78203564453125,2.058286282503605,-0.07892214554548263,0.43692331747375424
1789324297387998700,2.791998779296875,1.993781077106297,0.04846738604903221,1.2819102800965307
1789324297397961700,2.801961669921875,2.4609496760442853,0.1289770930469036,1.8886628524221478
1789324297407923700,2.811923828125,3.220303816501796,0.13429448867738247,1.684205570977181
1789324297417886700,2.82188671875,3.0737784995436668,0.2115349647462368,1.9065302252851426
1789324297427848700,2.8318486328125,2.28653389711976,-0.10076806665062904,1.3764464666202663
1789324297437812000,2.84181201171875,1.4267153491333127,-0.5203729503810406,0.22031528724692762
1789324297447775000,2.85177490234375,0.015003800125420092,-0.5361801758438348,-1.0294640437692404
1789324297457736700,2.86173681640625,-1.4501415251672267,-0.33679332953095437,-2.419382863163948
1789324297467699700,2.87169970703125,-2.8230416974827643,0.035918285599350924,-3.4071082446172833
1789324297477662000,2.881661865234375,-3.7644051407337185,0.49030806698501106,-3.751213650727272
1789324297487625000,2.891625,-4.035109210546315,1.002882326313853,-3.7996021263211963
1789324297497586700,2.901586669921875,-3.88748353113085,1.540146205741167,-3.3957238040328024
1789324297507549700,2.9115498046875,-3.0445281474009156,2.2110756282925603,-2.4266131066784262
1789324297517512700,2.9215126953125,-1.8987761040270328,2.7971096761077643,-1.439536544522643
1789324297527475000,2.931474853515625,-0.6989066860184073,2.9827035593897104,-0.7557933792360126
1789324297537438000,2.94143798828125,0.3485100708097219,2.813969625493884,-0.46474181018248195
1789324297547399700,2.951399658203125,1.1456550127401948,2.1563456747174263,-0.3936791459657252
1789324297557362700,2.96136279296875,1.6635881687536835,1.3629583317548035,-0.7253163348425179
1789324297567326000,2.971325927734375,1.8513424449399112,0.19460019655823707,-0.8282774545580148
1789324297577288000,2.981287841796875,2.672234757682681,-0.4477104497522115,-1.1112686128832399
1789324297587250700,2.991250732421875,4.153560233403742,-0.7789964140385389,-1.1602617763720453
1789324297597212700,3.001212646484375,6.083331487414241,-1.3860826022326946,-0.815329637114331
1789324297607176000,3.011176025390625,7.034470767009258,-1.3620926548361778,-1.540007527922839
1789324297617138000,3.021137939453125,7.130783023294806,-0.9410375722974538,-2.601072140222788
1789324297627100700,3.0311005859375,7.086734622731805,-0.41210488336384293,-3.428876424311101
1789324297637063700,3.041063720703125,6.7006602526813746,-0.014129647639393806,-4.00850469673723
1789324297647026000,3.05102587890625,6.1589160129696126,0.2613625332325697,-4.365991854728758
1789324297656989000,3.060989013671875,5.516755588784814,0.5519488228619098,-4.290219405385852
1789324297666950700,3.07095068359375,4.955639709126949,0.6867927621155977,-3.8467829796910284
1789324297676913700,3.08091357421875,4.2105145850300785,0.927995135372877,-2.5284064247235656
1789324297686876700,3.090876708984375,2.730001010213792,1.597446886587143,0.9089842915631831
1789324297696839000,3.1008388671875,1.0425500275745987,1.733582619217038,4.390359987787902
1789324297706802000,3.110802001953125,-0.8913327534079551,0.9943938994318247,5.923747074657678
1789324297716763600,3.120763671875,-2.808721203446388,-0.7357002931475639,6.353321563738584
1789324297726726700,3.1307265625,-4.79453846206665,-2.188849183437228,5.803228597876429
1789324297736689000,3.14068896484375,-6.674173812294006,-2.8500217666059733,5.8461219831854105
1789324297746652000,3.15065185546875,-7.499462606430053,-2.3364959056407213,5.460095543929934
1789324297756614700,3.16061474609375,-6.577890197581052,-1.4045020560204982,4.438452403044701
1789324297766576600,3.17057666015625,-4.940349785536528,-0.9927847106695175,2.6938211510688066
1789324297776540000,3.180539794921875,-3.6301696887671944,-0.8692015856206416,0.9647110010907053
1789324297786502000,3.190501953125,-2.5069126780569553,-0.6181728148758411,-0.21458061605244874
1789324297796465000,3.20046484375,-1.5151510268248616,-0.2215513318479061,-0.7522858095064758
1789324297806427000,3.210427001953125,-0.8485070265077054,0.07154431025385856,-0.787115569216758
1789324297816390000,3.220389892578125,-0.12572335194796322,0.2724105814695358,-0.6354959978595376
1789324297826353000,3.230352783203125,0.5856850882470608,0.27881460329294205,-0.3930037309221923
1789324297836315000,3.24031494140625,0.9646525489017367,0.04668693237304687,0.09492255549281835
1789324297846277600,3.250277587890625,0.8405237726688385,-0.3777466866880655,0.6767028913863002
1789324297856239900,3.260239990234375,0.9549813419759273,-0.6281599558830261,0.9736540398724377
1789324297866203000,3.270202880859375,1.299726507294178,-0.7382453014552592,1.1221972725242375
1789324297876166000,3.280165771484375,1.4708534738063812,-1.2598206133633851,1.5575285715661942
1789324297886127600,3.290127685546875,1.3065981466293335,-1.84665428712368,1.8191867267444728
1789324297896090600,3.300090576171875,1.2005191140890121,-2.37178407664299,2.0668501127094028
1789324297906052900,3.310052978515625,1.4673837518692017,-2.807380310231447,2.224736197115481
1789324297916015900,3.320015869140625,1.8366485875464975,-3.359474094521999,2.2043881133526564
1789324297925979000,3.329978759765625,1.935646575784683,-3.874507437440753,1.893352325412631
1789324297935940900,3.33994091796875,1.927725281266123,-4.430118874463439,1.4200827792510389
1789324297945903900,3.34990380859375,1.9624844599582254,-4.953692666712403,0.7078966326817869
1789324297955865900,3.359865966796875,1.9598587876297533,-5.1897962555259465,0.019280290134530514
1789324297965828900,3.369828857421875,1.9400044787332413,-4.782938040643931,-0.5600517575576901
1789324297975790800,3.379790771484375,1.956833156198263,-3.8251375495940443,-0.8909956304080784
1789324297985753900,3.38975390625,1.950993782520294,-2.548544080606103,-1.04093893911615
1789324297995716900,3.399716796875,1.7483774527668952,-1.3497744405329226,-1.1565338418900966
1789324298005678800,3.409678955078125,1.466542040348053,-0.011525018098950386,-1.2153864283531903
1789324298015641600,3.4196416015625,1.0380004014462232,1.3173089257359505,-1.1849821569349617
1789324298025603800,3.429603759765625,0.6120511171251535,2.3162843077391386,-1.1126964537292718
1789324298035566800,3.43956689453125,0.07140577856600284,3.0983330950856205,-1.3656449404902755
1789324298045529900,3.44952978515625,-1.1292863540023566,3.508509056213498,-1.7327764174006879
1789324298055491600,3.45949169921875,-2.3446990858405825,3.500627363052964,-1.9279593822829424
1789324298065454800,3.469454833984375,-2.9306881254702803,3.1075761397272346,-1.9461006036512551
1789324298075416800,3.479416748046875,-3.0609850689440963,2.1313404127985236,-1.4151726492471992
1789324298085379800,3.4893798828125,-2.4270664034038782,1.306584118103981,-0.639074148607254
1789324298095341600,3.499341552734375,-1.7700000865101813,1.2783745071858168,0.01013381946887821
1789324298105304800,3.509304931640625,-0.7435539292573928,1.0508429318845272,0.3558021275140345
1789324298115267800,3.519267822265625,-0.5387287643481046,0.4715320548444986,0.36194523337893186
1789324298125229800,3.529229736328125,-1.0181477730501443,-0.6222504395782947,0.42787166721839454
1789324298135192800,3.53919287109375,-0.4384014272022992,-1.379571028381586,0.6132168729688972
1789324298145154800,3.54915478515625,-0.5078232654094695,-1.7925719838023184,0.21714217363614588
1789324298155117800,3.559117919921875,-0.2903946395147592,-1.951959997203946,0.02114038948456291
1789324298165080800,3.569080810546875,-0.11505966338608413,-1.8642466424375772,0.14361427008332683
1789324298175042800,3.579042724609375,-0.09687109574470669,-1.3652560873031616,-0.05279115839912556
1789324298185005800,3.589005859375,0.15287936215996742,-0.8038900322765111,0.09776062846295536
1789324298194967800,3.5989677734375,0.11391337942779063,-0.34776071374714373,-0.02381760477060452
1789324298204930800,3.608930908203125,0.09992401704192161,0.09068974022865295,-0.2512719683835283
1789324298214893800,3.618893798828125,0.08993567045833915,0.5385445668876171,-0.17291903756074606
1789324298224855800,3.628855712890625,0.03593640577793121,1.0242664751261472,-0.1404608384205494
1789324298234818800,3.63881884765625,0.15694887662120163,1.3754852203726768,-0.14970302454563789
1789324298244780800,3.64878076171875,0.1022118357181549,1.7502181121975182,-0.18510967996157704
1789324298254743800,3.658743896484375,0.2432324177801609,2.0869746168494223,0.008040089459484442
1789324298264705800,3.668705810546875,0.5758021382667123,2.479122753855586,0.12027150714970193
1789324298274668800,3.678668701171875,0.7725112898029387,2.78296249281168,0.25616626149741933
1789324298284631800,3.6886318359375,0.9120553695715963,3.069533117058873,0.346165882303752
1789324298294593800,3.69859375,0.8801930813647806,3.276623377355933,0.34319983557239175
1789324298304556800,3.708556884765625,0.8571044667221606,3.372205565801263,0.35584114435017106
1789324298314518800,3.718518798828125,0.7629425203382968,3.451926168248057,0.33636418086607006
1789324298324481800,3.728481689453125,0.5562834910653531,3.474657640016079,0.47013146733157335
1789324298334444800,3.73844482421875,0.3332521497927606,3.2927515053361653,0.600143091057986
1789324298344406800,3.74840673828125,0.011513766052573919,2.99643047144711,0.756289784450829
1789324298354369800,3.758369873046875,-0.28510771208778024,2.5248235978007316,0.8336470187671482
1789324298364331800,3.768331787109375,-0.5905027176618576,1.8369161524415014,0.8384626023553311
1789324298374294800,3.778294677734375,-0.9223848942756653,0.9993108975678682,0.6945269365642219
1789324298384257800,3.7882578125,-1.290231533718109,0.12584990093708037,0.581873932461068
1789324298394219500,3.798219482421875,-1.5567394670151173,-0.7027426109194755,0.5418620208725333
1789324298404182800,3.808182861328125,-1.6631680436454712,-1.3482166896969079,0.5111613968562334
1789324298414144800,3.818144775390625,-1.40134680685997,-1.8279554318726061,0.603718319196254
1789324298424107800,3.828107666015625,-1.01141108520627,-1.9899813925623893,0.8590131498876958
1789324298434069800,3.83806982421875,-0.8044985195636749,-1.786886339381337,1.2223934575710445
1789324298444032800,3.84803271484375,-0.9353180256068706,-1.4398001638948916,1.7612655759125946
1789324298453995800,3.857995849609375,-1.6741620236076413,-1.364585640695691,2.6420558925181625
1789324298463957800,3.867957763671875,-2.1949181280873713,-1.3580056777834892,2.912707355360687
1789324298473920500,3.87792041015625,-2.0624922097608445,-1.8105822722673415,2.138931890840828
1789324298483882800,3.8878828125,-1.040373998709768,-2.630890939903259,0.3524239563178271
1789324298493845800,3.897845703125,1.0015116224825382,-2.9489912594020367,-1.1009367500916123
1789324298503808800,3.907808837890625,2.3458194681726394,-3.0559996817469597,-1.6595543831929565
1789324298513770500,3.9177705078125,2.3882827915012834,-3.468919973146915,-1.6988022516064345
1789324298523733500,3.9277333984375,2.0401473992228505,-4.233951574718952,-1.6643009931981563
1789324298533695700,3.93769580078125,0.6160579416137189,-5.240695837157965,-1.184813522369787
1789324298543658800,3.94765869140625,-2.720042218518257,-6.673261958146095,-0.6355560574837028
1789324298553621800,3.957621826171875,-5.032235457551479,-7.41714731131494,-0.27711671333387494
1789324298563583500,3.96758349609375,-3.3246973801732063,-5.623651782926917,-0.23426037209965286
1789324298573546800,3.977546630859375,-1.4920155043005943,-2.710179580673575,-0.45652197110876436
1789324298583508700,3.9875087890625,0.09945289239883422,-0.6898012962818145,-0.9299321678500622
1789324298593471700,3.9974716796875,1.2989572764873505,0.4711515310943126,-0.9771002348035573
1789324298603433700,4.007433837890625,1.8254945947170256,1.197309504392743,-0.8218904569346457
1789324298613396700,4.017396728515625,1.907918026381731,1.802852554798126,-0.5025939499212428
1789324298623359700,4.02735986328125,1.8919266765236853,2.2490017465829846,-0.20599143220968544
1789324298633321700,4.03732177734375,1.8573206425666808,2.528308517307043,0.009928506155125796
1789324298643284500,4.047284423828125,1.877473788279295,2.612134801506996,0.08299103895220905
1789324298653246700,4.057246826171875,1.8479682923316954,2.48922387663126,0.011687917043082415
1789324298663209700,4.067209716796875,1.855914282900095,2.2263754887551066,-0.15822547242827711
1789324298673172700,4.0771728515625,1.9893840111911296,1.7992565761327743,-0.44614210445694624
1789324298683134700,4.087134765625,2.0703215882122517,1.3594360028475523,-0.7141894492156803
1789324298693097500,4.097097412109375,2.118220818984508,0.9284382029652595,-1.0042974538087843
1789324298703059700,4.107059814453125,2.223154188621044,0.5435141719937324,-1.3407035375878213
1789324298713022700,4.117022705078125,2.278644020652771,0.2105932999819517,-1.6169047435119748
1789324298722985700,4.12698583984375,2.2866823656797406,-0.05372399140298366,-1.7724729063645004
1789324298732947700,4.13694775390625,2.2163035920739174,-0.1903542295515537,-1.7955241116061806
1789324298742910700,4.14691064453125,2.0936510258734224,-0.14021920255124568,-1.7729948844119905
1789324298752872700,4.156872802734375,1.9966507873237131,0.074531217110157,-1.7450044692024587
1789324298762835700,4.166835693359375,1.96385092600584,0.3593944529175758,-1.7234698060035705
1789324298772797700,4.176797607421875,2.002144124042988,0.6497738217979669,-1.6713047344803809
1789324298782760700,4.1867607421875,2.0310113220870494,0.873057676526904,-1.614662225282192
1789324298792723700,4.1967236328125,2.059659908944368,1.003490813601017,-1.4204735321342945
1789324298802685700,4.206685791015625,2.003589062154293,1.0925240187942982,-1.210418869073689
1789324298812648700,4.216648681640625,2.0377099429428576,1.1911322770625352,-0.897469794858247
1789324298822610700,4.226610595703125,1.9861235480904578,1.3450567643612623,-0.6189598005350678
1789324298832573700,4.23657373046875,1.8920844974339006,1.4883014522135256,-0.3315041370816529
1789324298842536700,4.24653662109375,1.7678548911750316,1.6630436866134404,0.0061828533533960575
1789324298852498700,4.256498779296875,1.5745464879930018,1.84736331217587,0.3187277306821197
1789324298862461400,4.26646142578125,1.3794997167110443,2.071809196421504,0.6184907947838306
1789324298872423700,4.276423583984375,1.1898784776091575,2.242491926297545,0.8874787083283067
1789324298882386700,4.28638671875,1.036408821405843,2.4197207168161867,1.150863687299192
1789324298892349700,4.296349609375,0.869885476231575,2.551598792001605,1.3997409790985285
1789324298902311700,4.306311767578125,0.7384802792549133,2.4965444287776943,1.7231505109213292
1789324298912274700,4.316274658203125,0.5822936922430991,2.2744950842797755,1.8796834271527825
1789324298922236700,4.326236572265625,0.48572950702309603,1.9407091198712587,2.0195596614852547
1789324298932199700,4.33619970703125,0.42578386462628837,1.5251368526577949,2.19987765019089
1789324298942162700,4.34616259765625,0.35876258475482464,1.002927334499359,2.3998371818251907
1789324298952124700,4.356124755859375,0.30471243013739585,0.33094518802464007,2.625090729191899
1789324298962087700,4.366087646484375,0.30930384958088397,-0.37808863199353215,2.752026964060962
1789324298972049700,4.376049560546875,0.3897907602250576,-1.0082768788337706,2.738542920848727
1789324298982012700,4.3860126953125,0.31012802544534207,-1.4544897835046051,2.6915581745728847
1789324298991974700,4.395974609375,-0.04438216256201267,-1.7581214326679706,2.7081699944168327
1789324299001937700,4.405937744140625,-0.9468471353590487,-1.9186843350678682,2.691076236274838
1789324299011900700,4.415900634765625,-2.841193732506037,-1.7662772665947675,2.590830439932644
1789324299021862700,4.425862548828125,-5.704411080771684,-1.5696049399375915,2.524354226723313
1789324299031825700,4.43582568359375,-6.870457431894541,-1.4532447518795728,2.54667507186383
1789324299041787600,4.44578759765625,-5.379262596327066,-1.5344430256634949,2.7313679146528242
1789324299051750700,4.455750732421875,-4.154844135734439,-1.6567250049859283,2.857883293761313
1789324299061713700,4.465713623046875,-2.755772288069129,-2.4913135423868895,2.824128323675692
1789324299071676000,4.475676025390625,-1.9692022239059208,-3.4905145498394963,3.117111737574637
1789324299081638700,4.485638671875,-1.4523134623788296,-3.889423267021775,3.2960634063631296
1789324299091600600,4.4956005859375,-0.6468991431444883,-3.9882168187290428,3.204158737386763
1789324299101563600,4.505563720703125,-0.014901070403307676,-3.969309289163351,3.0361978336900473
1789324299111526000,4.51552587890625,0.3434708345334977,-3.8409389298379417,2.701063961803913
1789324299121488600,4.525488525390625,0.5680686944704503,-3.438089950597286,2.2475540319927036
1789324299131451600,4.53545166015625,0.7464484816551208,-2.8176959525406358,1.7120590619340539
1789324299141413600,4.54541357421875,0.7769628623843192,-1.9131068271964786,1.2172270877838134
1789324299151376600,4.555376708984375,0.7979846076250076,-0.8843290121257305,0.7032521678768098
1789324299161338600,4.565338623046875,0.914496186852455,-0.05759469535648822,0.239175835865736
1789324299171301600,4.575301513671875,1.003410076515004,0.5129465997725725,-0.14434256609156726
1789324299181264600,4.5852646484375,1.1523924312364309,0.8399941958367824,-0.6334823930148035
1789324299191226600,4.5952265625,1.5196727420330047,0.8510036656290292,-1.354820618006587
1789324299201189600,4.605189697265625,1.9690064090728758,0.6361492010712623,-2.3942343933820722
1789324299211151600,4.615151611328125,2.327534600549936,0.1764525454491377,-3.5012209450319407
1789324299221114600,4.625114501953125,2.5750854660511013,-0.3081879972934723,-4.427144827088713
1789324299231077600,4.63507763671875,2.5199369948029515,-0.7585527609467506,-5.263763409012555
1789324299241040000,4.645039794921875,2.179157225984335,-1.1525450645148754,-5.593346661034226
1789324299251003000,4.6550029296875,1.5548122983448207,-1.3509510830968618,-5.47002598631382
1789324299260964600,4.664964599609375,0.6529881076693534,-1.1917682368785143,-4.561965969988703
1789324299270927600,4.674927734375,-0.2047868056602776,-0.6717828245103359,-3.2159552659034727
1789324299280890600,4.684890625,-0.95725162499547,-0.12581716771125792,-1.9222633625984191
1789324299290852900,4.694852783203125,-1.4605879542492328,0.4102987107247114,-1.0144381779424845
1789324299300815600,4.704815673828125,-1.5578256548166274,0.7882499800741672,-0.8261473837267607
1789324299310777600,4.714777587890625,-1.335180097991228,1.0400479816257953,-0.8230529248427599
1789324299320740600,4.72474072265625,-0.9493226586271076,1.4318512507170438,-0.5107007205419242
1789324299330702800,4.734702880859375,-0.631771205182746,1.7213889080762863,0.13210158174298703
1789324299340665600,4.74466552734375,-0.47434126704633234,2.0583038181602955,0.4550553326223045
1789324299350628600,4.754628662109375,-0.3819634641328826,2.3627730871915817,0.40026290827021
1789324299360590600,4.764590576171875,-0.3571206262340769,2.5528549295425416,0.028794132807850835
1789324299370553900,4.774553955078125,-0.364252414342761,2.81075066344738,-0.4371158443711698
1789324299380515000,4.78451513671875,-0.2803659243881702,3.082517101794481,-0.6484906501196325
1789324299390478000,4.79447802734375,-0.24328856841418892,3.3642245039194822,-0.6659983958899974
1789324299400441000,4.804441162109375,-0.2150198477199301,3.7191269061148167,-0.6326195656403899
1789324299410403000,4.814403076171875,0.013128361642360687,3.9913580393642185,-0.8637889129221439
1789324299420366000,4.824365966796875,0.2317336301010102,4.227992958575487,-1.2919504664652048
1789324299430328000,4.834328125,0.6845299317501485,4.264931234872341,-1.2822832050621509
1789324299440291000,4.844291015625,1.0402993260383606,4.064695662775636,-0.9781799928642809
1789324299450254000,4.854254150390625,1.1705249578416346,3.738213883900642,-0.8017017284519969
1789324299460216000,4.864216064453125,1.2823321587704122,3.2888901537328956,-0.7686651357688009
1789324299470179000,4.874178955078125,1.3972026927925645,2.8634394665837286,-0.4025537956863641
1789324299480141000,4.88414111328125,1.4081927272319792,2.2286434336870906,-0.0838176625020802
1789324299490104000,4.89410400390625,1.2837035932540892,1.5238205093622206,0.3235477712497115
1789324299500067000,4.904067138671875,0.9590696342028677,0.7215840895116329,0.5944543778970838
1789324299510029000,4.914029052734375,0.3461678915977478,-0.09514321250617504,0.7374623343840241
1789324299519992000,4.923991943359375,-0.46487128178104753,-0.7984586548775434,1.3554399189487099
1789324299529954000,4.9339541015625,-1.6544469770513475,-1.6052695430368185,2.184788509869575
1789324299539917000,4.9439169921875,-2.2407656870268284,-2.6193869645923376,2.7417043074890968
1789324299549879000,4.953879150390625,-2.2943758427917955,-3.4055788430929184,3.040000440843403
1789324299559842000,4.963842041015625,-1.8918590181149542,-3.272775469756126,3.3956220972239968
1789324299569805000,4.97380517578125,-1.6388986947856843,-2.4746178436517714,4.082889783374965
1789324299579767000,4.98376708984375,-1.7462671826146543,-1.2782763075083494,4.752303540666401
1789324299589730000,4.99372998046875,-2.1170235720239576,-0.20713526848256586,4.962577399435639
1789324299599692000,5.003692138671875,-2.269353629738092,0.11742109528779983,4.519477073827385
1789324299609655000,5.013655029296875,-1.6667454637408257,-0.9650643445730209,2.6290692774340507
1789324299619618000,5.0236181640625,0.1063387063898146,-2.6815724948704243,-0.16538842286020516
1789324299629580000,5.033580078125,1.775356645107269,-2.92791047745049,-1.614149307323992
1789324299639543000,5.04354296875,2.619309223181009,-2.8713486322730777,-2.1861174203857776
1789324299649505000,5.053505126953125,2.431475452017784,-3.312130744066834,-2.38086637776494
1789324299659468000,5.063468017578125,1.3998935393117367,-4.379150319248438,-2.4058488433301446
1789324299669431000,5.07343115234375,-0.6204512081366031,-5.748292308074236,-2.095347016136348
1789324299679393000,5.08339306640625,-3.2808874645411965,-6.998270741859078,-1.4137356021814047
1789324299689356000,5.09335595703125,-4.384539611071348,-6.848834213629365,-0.3001024521239102
1789324299699318000,5.103318115234375,-3.0528222207546234,-4.628689728218316,0.5449656859762966
1789324299709281000,5.113281005859375,-1.4090683410227298,-2.221682362502813,-0.15240852977782487
1789324299719243000,5.123242919921875,0.16186580169200895,-0.6818605664104223,-1.2244143689393996
1789324299729206000,5.1332060546875,1.370906075888872,0.2740717926800251,-1.8396540529727934
1789324299739169000,5.1431689453125,2.052373259067535,1.0605056632429362,-1.8749021842256188
1789324299749131000,5.153131103515625,2.3366204088032245,1.8347902463287113,-1.8231228971496223
1789324299759094000,5.163093994140625,2.43769359588027,2.252994615611434,-1.7650513780616224
1789324299769056000,5.173055908203125,2.4418308418154715,2.415764672666788,-1.485156432186067
1789324299779019000,5.18301904296875,2.274671609890461,2.2459891207635403,-1.1757383085757493
1789324299788982300,5.192982177734375,2.1463211243093014,1.7638263663113116,-1.100412287826091
1789324299798944000,5.202944091796875,2.053418384206295,1.2184019767820835,-1.1563102622672914
1789324299808907000,5.212906982421875,2.021383077520132,0.7374480135977268,-1.2137336927101015
1789324299818869000,5.222868896484375,2.033352916777134,0.25359423731863495,-1.2847884658813475
1789324299828832300,5.232832275390625,2.1112755298912522,-0.17887655772566793,-1.4812332673929631
1789324299838794000,5.2427939453125,2.18837981235981,-0.599243073478341,-1.7226982371091841
1789324299848757000,5.252757080078125,2.262151735535264,-0.831322813603282,-1.7998928282096982
1789324299858720000,5.262719970703125,2.308689030304551,-0.827822112005949,-1.6583559671886263
1789324299868682200,5.27268212890625,2.19423555265069,-0.5384387684255838,-1.3441056011162698
1789324299878645000,5.28264501953125,2.1008850687801837,-0.10206745881140232,-1.1103816009156404
1789324299888607000,5.29260693359375,2.050038678640127,0.3438765657901764,-0.9724027246370911
1789324299898570000,5.302570068359375,2.092594794818759,0.7658551929146051,-0.8217303710021078
1789324299908533000,5.312532958984375,2.1995091091394423,1.2091975105851889,-0.809317318022251
1789324299918495000,5.322494873046875,2.358520105922222,1.5240724382966755,-0.8291178509049117
1789324299928458000,5.3324580078125,2.4784745190799233,1.832187370353937,-0.6978668215766549
1789324299938420000,5.342419921875,2.5138801789820193,1.9883663585811853,-0.5612691705234348
1789324299948383000,5.352383056640625,2.502084527248144,2.0945628800213334,-0.37073899988308545
1789324299958345000,5.362344970703125,2.3776059146642683,2.222000342410803,-0.136712363474071
1789324299968308000,5.372307861328125,2.1341776820510625,2.432633389881253,0.13017360935509203
1789324299978271000,5.38227099609375,1.751229335066676,2.58579332254827,0.40073023352101445
1789324299988233200,5.392233154296875,1.3212678924947976,2.5093799449533223,0.7214927579663694
1789324299998196200,5.4021962890625,0.8819915090888738,2.5163433542251585,0.9970659681852906
1789324300008158000,5.412157958984375,0.42194359234366563,2.4768589005768296,1.0491950185470282
1789324300018121000,5.422120849609375,0.16423307881262153,2.502449853429198,1.2177236391291022
1789324300028084000,5.432083984375,0.053620494495891034,2.4378122538238762,1.539410146551579
1789324300038046200,5.442046142578125,-0.06255092952437699,2.3978350482225417,1.8809547622628509
1789324300048009200,5.45200927734375,-0.12054602237530052,2.375174888125062,2.151621861065924
1789324300057971000,5.461970947265625,-0.22392390619814395,2.0698773515760895,2.2467266412578524
1789324300067934000,5.471933837890625,-0.31906887226998804,1.532850203514099,2.2104753243118522
1789324300077897000,5.48189697265625,-0.413350499510765,1.0041051461070776,2.440449908851087
1789324300087859200,5.491859130859375,-0.492801637366414,0.4545189607232809,2.9492139622420073
1789324300097822000,5.501822021484375,-0.5539391198962926,-0.16550503497719762,3.2626907135933636
1789324300107784000,5.511783935546875,-0.8000855254270136,-0.8736953899085521,3.14402692476809
1789324300117747000,5.521746826171875,-1.430485807582736,-1.5170967540651559,2.9027523630574343
1789324300127709200,5.531709228515625,-2.7685984518945217,-2.1275644013911483,2.808932215848565
1789324300137672000,5.541671875,-5.2348997180998325,-2.5159967327445742,2.783588808016479
1789324300147635000,5.551635009765625,-8.060875423207879,-2.4286527958124875,2.6341794600546358
1789324300157597200,5.56159716796875,-8.731216816738247,-1.4149024540036916,2.25496883829385
1789324300167560200,5.571560302734375,-4.902860889619588,-1.1620640034884213,2.9614059198170897
1789324300177522000,5.58152197265625,-3.115277800145745,-2.360416879454255,4.028801634834706
1789324300187485000,5.59148486328125,-2.1696721892803907,-3.3241502676844594,4.6560833465784786
1789324300197448000,5.601447998046875,-0.8970347644418477,-3.859589269772172,4.709160564510524
1789324300207410200,5.61141015625,-0.1618465855348855,-4.21047425301969,4.223605537271499
1789324300217373200,5.621373291015625,0.3054442150106653,-4.427289203995466,3.6514451165080066
1789324300227335000,5.6313349609375,0.7365226423811168,-4.4958115360796445,3.071935502025485
1789324300237298000,5.6412978515625,0.9888934753846377,-4.422505476850271,2.6361235798597336
1789324300247261000,5.651260986328125,1.0426788415860384,-4.195927256751061,2.246845445331931
1789324300257223200,5.66122314453125,1.0522557943571358,-3.702800040692091,1.8595421180084346
1789324300267186200,5.671186279296875,0.9511305117666721,-3.0575755527615547,1.5442757067613302
1789324300277148000,5.68114794921875,0.958443465128541,-2.384656417697668,1.1781412780642508
1789324300287111200,5.691111083984375,1.022737365862727,-1.7456079880535602,0.6902306276097894
1789324300297074200,5.70107421875,1.0041886596720666,-1.1168564960181713,0.09251140269786119
1789324300307036200,5.7110361328125,1.0785252309929578,-0.5626157628268003,-0.8356633270256221
1789324300316999000,5.7209990234375,1.2037268971543758,-0.1905079588085413,-1.9950594264790416
1789324300326961200,5.730961181640625,1.3359475752323866,-0.019748656564950944,-3.129180068770051
1789324300336924200,5.740924072265625,1.5203876123040914,-0.07742109333276748,-4.181919189664721
1789324300346887200,5.75088720703125,1.8094642280228435,-0.37257717509567734,-5.384268441790342
1789324300356849000,5.760848876953125,1.9221910280145704,-0.6360644453972578,-6.262364697006344
1789324300366812000,5.77081201171875,1.709451217523217,-0.7859919720143079,-6.69699413138926
1789324300376774400,5.7807744140625,1.1151097984813154,-0.7202016952425241,-6.5247799541622395
1789324300386737400,5.7907373046875,0.06422492715120315,-0.17805588899254798,-5.312886628621817
1789324300396699400,5.800699462890625,-1.1979470716439187,0.7358680509299039,-3.404499231162667
1789324300406662400,5.810662353515625,-2.1410575046926734,1.3281781102746724,-1.937450118075311
1789324300416625400,5.82062548828125,-2.1035661245577035,1.7298013471126554,-1.6660308857306838
1789324300426587400,5.83058740234375,-1.5188783767849205,1.8081132518053054,-2.2566944930426773
1789324300436550400,5.84055029296875,-0.9047967767454683,1.6864800917804241,-2.281462731335312
1789324300446512400,5.850512451171875,-0.6250093828976154,1.7957208032220602,-2.0307550092384217
1789324300456475400,5.860475341796875,-0.4848274436168372,2.0904548601806163,-1.3911609284102915
1789324300466438700,5.870438720703125,-0.5641887112319469,2.25354289714396,-0.9486187481414526
1789324300476400400,5.880400390625,-0.7071831506501883,2.3910686228275297,-0.7776106587685644
1789324300486363400,5.89036328125,-0.8395897066891193,2.562025493469834,-0.744126176187396
1789324300496325400,5.900325439453125,-0.9478039976924657,2.626671276381612,-0.9143832279972731
1789324300506288600,5.91028857421875,-0.9023445612877606,2.7815117094814776,-1.1406325084030629
1789324300516251400,5.92025146484375,-0.7233125207394361,3.2084435750991105,-1.3012138232424855
1789324300526213400,5.93021337890625,-0.44931730042695994,3.6810640097022054,-1.6572177569389341
1789324300536176400,5.94017626953125,-0.13237316522598266,4.183711333778501,-1.8668666156776248
1789324300546138600,5.950138671875,0.2114391031563282,4.714536704590916,-2.0261565755322573
1789324300556101400,5.960101318359375,0.5325147121388465,4.885490068101882,-2.082015533137321
1789324300566064400,5.970064453125,0.8892563855253159,4.865474869555235,-1.6866012339420615
1789324300576026400,5.9800263671875,1.0556430256426335,4.695836095774173,-1.1825444814592598
1789324300585989400,5.9899892578125,1.1626806740820408,4.246408320710063,-0.8544600896932184
1789324300595951400,5.999951416015625,1.2631519497431813,3.6307600558757778,-0.684584876807779
1789324300605914400,6.009914306640625,1.1931344106651842,3.020056261706352,-0.43928120571151374
1789324300615877400,6.01987744140625,1.0804060032382607,2.361356790652871,-0.19551263522803783
1789324300625839400,6.02983935546875,0.826110778043419,1.4984119273394345,0.19598960509002208
1789324300635802600,6.039802734375,0.03924962197914719,0.43992344913780684,0.5681985313951968
1789324300645764400,6.049764404296875,-1.2689895698554814,-0.7347142047196626,1.1111914559938012
1789324300655727400,6.059727294921875,-2.947508035106957,-2.158990636268258,2.0441373456418512
1789324300665690400,6.0696904296875,-4.783915653504431,-4.096189702191949,3.9177126651778815
1789324300675652600,6.079652587890625,-4.7828407177492975,-5.408282354584336,5.081390241342783
1789324300685615600,6.08961572265625,-3.440040792404115,-5.59401009337902,5.093251359528303
1789324300695577300,6.099577392578125,-2.78010768790245,-4.679705629706382,5.213793217185139
1789324300705540400,6.109540283203125,-2.7689900815606117,-2.2674358134180306,5.218928241986036
1789324300715503400,6.11950341796875,-2.7431375551626083,0.14230010047852992,4.574890333491563
1789324300725465600,6.129465576171875,-2.2531132735550403,1.441789291885495,3.6747728006035087
1789324300735428400,6.139428466796875,-0.81873747279644,0.737054045844078,1.8402765687853098
1789324300745390300,6.149390380859375,1.3332979375064373,-1.1177531525969504,-0.3201648508131504
1789324300755353300,6.159353271484375,2.8341213099017737,-1.5362100353360175,-1.36352473346591
1789324300765316600,6.169316650390625,3.0472613717570898,-1.980875126042962,-1.4548060098469255
1789324300775278300,6.1792783203125,2.3760030095122753,-3.114519090732932,-1.3148358136206864
1789324300785241300,6.189241455078125,0.8644026609063148,-4.6116421473056075,-0.9964967169299721
1789324300795203300,6.199203369140625,-2.544737089538574,-6.774499395874142,-0.07132979072034358
1789324300805166600,6.20916650390625,-5.603962163072824,-8.902509787467121,0.7814569589331746
1789324300815129600,6.219129638671875,-4.423050251251459,-8.738145739218592,-0.23648411256372928
1789324300825091300,6.22909130859375,-1.861913815575838,-6.520849628975987,-0.6116317226693034
1789324300835054300,6.239054443359375,0.13487250776104628,-4.257950289943814,-0.4441787684947252
1789324300845016600,6.2490166015625,1.5579273616254328,-2.3705098189234732,-0.644102205902338
1789324300854979600,6.2589794921875,2.081842514657974,-0.6954360872983932,-0.7727182105518877
1789324300864942300,6.2689423828125,2.226580655938387,0.5373603255391121,-0.8838670937024057
1789324300874904300,6.278904296875,2.2742321955598888,1.423963712337613,-0.9761633923448622
1789324300884867300,6.288867431640625,2.149603799241781,2.1553198388010264,-0.9524740353301167
1789324300894829600,6.29882958984375,2.052797621959448,2.650865221917629,-0.8651634161457419
1789324300904792300,6.308792236328125,2.0199439846277234,2.867514168676734,-0.7757669305980205
1789324300914755300,6.31875537109375,1.9205472063302993,2.706548530694842,-0.6049824939131736
1789324300924717300,6.32871728515625,1.9529028310120105,2.228275769418478,-0.3648477498874068
1789324300934680600,6.3386806640625,2.035903770303726,1.6080331625312565,-0.14253668571338057
1789324300944642600,6.348642578125,2.1539783610641954,0.9244669612467289,-0.07820625236108898
1789324300954605300,6.358605224609375,2.395073766815662,0.3255921365588903,-0.1968389153957367
1789324300964568300,6.368568359375,2.773327233982086,-0.22534663247764108,-0.4491273308128118
1789324300974530600,6.378530517578125,3.1357004104495045,-0.6046142451226711,-0.7812647973619401
1789324300984493600,6.38849365234375,3.4620904193878173,-0.734305039396882,-0.9938619845122099
1789324300994455300,6.398455322265625,3.6515503304481505,-0.6788561238974332,-1.1085561390541494
1789324301004418300,6.408418212890625,3.5377076781690118,-0.29966625266373154,-1.0361769854113458
1789324301014380500,6.418380615234375,3.2499440447449683,0.3392272786796093,-0.8695821093708276
1789324301024343600,6.428343505859375,3.0369466062307358,1.0610101056337355,-0.7915773709312081
1789324301034306600,6.438306640625,2.8092835135042664,1.7046961319506166,-0.7638515980072319
1789324301044268300,6.448268310546875,2.6341969957113265,2.1607447864592073,-0.7395875098444521
1789324301054231300,6.458231201171875,2.5511586470186707,2.3041332666963337,-0.5928327680446207
1789324301064194600,6.468194580078125,2.5453812326610086,2.1915958517968654,-0.2850049823656678
1789324301074156500,6.478156494140625,2.500657124793529,1.9697879148393869,-0.011968670213222503
1789324301084119300,6.488119384765625,2.3729390918970106,1.841348581930995,0.28659838903695345
1789324301094081300,6.498081298828125,2.2257716776430607,1.57800042783916,0.48584480396583674
1789324301104044500,6.50804443359375,2.037319482320547,1.3956670076578854,0.8317536062359809
1789324301114007600,6.518007568359375,1.9124340425014494,1.3401158008277416,1.020895683518797
1789324301123969300,6.52796923828125,1.7436615301609037,1.2985446040332316,1.1624652777656912
1789324301133932300,6.537932373046875,1.6064017619371413,1.4117314227521418,1.0892046651132403
1789324301143894500,6.54789453125,1.534403862696886,1.8109756554991006,1.1824075572066008
1789324301153857500,6.557857421875,1.398965464681387,2.32890705794692,1.2679789315082133
1789324301163819300,6.5678193359375,1.0989537595808505,2.576918526697159,1.4236078846372664
1789324301173782300,6.5777822265625,1.0101578702747822,2.574862178689241,1.411300045597553
1789324301183745300,6.587745361328125,0.897452113071084,2.3763094451129434,1.4059675985284148
1789324301193707500,6.59770751953125,0.6693424456208944,2.0587071382641793,1.568062532801181
1789324301203670500,6.60767041015625,0.5161550038924441,1.734373477333784,1.735954170653969
1789324301213632300,6.61763232421875,0.38739542605374006,1.382778884512186,1.8848001856446266
1789324301223595300,6.62759521484375,0.20476503221988676,0.9522937103271484,2.0045779270611703
1789324301233558500,6.63755859375,0.07170614975206553,0.6201818166106939,2.0385607145532965
1789324301243520500,6.6475205078125,-0.20998378978148102,0.2473532971024513,2.11841400346905
1789324301253483500,6.6574833984375,-0.561703470287472,-0.0781476540416479,2.1666487498059865
1789324301263445500,6.667445556640625,-0.8584324273902922,-0.3899158479094505,2.094801949474215
1789324301273408500,6.677408447265625,-1.2765683345466852,-0.7433850024312734,1.9162376725681125
1789324301283371500,6.68737158203125,-2.41555541383028,-1.1544202107369899,1.6029611199639737
1789324301293333500,6.69733349609375,-5.473984368550777,-1.4707149421185255,1.068605383068323
1789324301303296300,6.707296142578125,-13.709614885640143,-1.2993968369483948,-1.1774154480077326
1789324301313258500,6.717258544921875,-12.219599615246057,-2.1504174537122247,-0.9251206028498709
1789324301323221500,6.727221435546875,-4.759131048598885,-2.61070973713994,3.0037814187318084
1789324301333184500,6.7371845703125,-3.03341375592947,-2.841419942477345,3.6459564559638498
1789324301343146200,6.747146240234375,-1.739821221345663,-3.3477672901153563,3.521558215139806
1789324301353109200,6.757109130859375,-0.5496739001998677,-3.5237902119755744,3.323869404916465
1789324301363071500,6.767071533203125,0.17605740865170955,-3.7142087389349934,3.0754110691815613
1789324301373034500,6.777034423828125,0.6906704803317785,-4.107456946137547,3.0889801603287457
1789324301382997200,6.786997314453125,1.0074112019151449,-4.523975554290414,3.1083912555024025
1789324301392959200,6.796959228515625,1.1789105088710785,-4.654483510166406,2.8067192159742116
1789324301402922200,6.806922119140625,1.230146775111556,-4.3143215809851885,2.245223835479468
1789324301412884200,6.81688427734375,1.2013017888993025,-3.4866444304078814,1.6294684570088982
1789324301422847200,6.82684716796875,1.1428612903684376,-2.380827214798331,1.1706719650968909
1789324301432810000,6.83681005859375,1.128541088593006,-1.3399006967723368,0.8668629135400057
1789324301442772200,6.846772216796875,1.1259884815007448,-0.5221498969256878,0.4384858175501227
1789324301452735200,6.8567353515625,1.2163766084343195,0.020797873356938362,-0.1882087419554591
1789324301462697200,6.866697265625,1.3050894956320525,0.3624327977001667,-0.9685206225067376
1789324301472660000,6.876659912109375,1.3716098402440546,0.541055088403821,-1.7500494776323436
1789324301482623000,6.886623046875,1.5312297627054154,0.4720061020970344,-2.614301624152064
1789324301492585200,6.896585205078125,1.6215554919272661,0.1895838297009468,-3.4461405705839394
1789324301502548200,6.90654833984375,1.82451668959558,-0.39733518425524234,-4.417227828708291
1789324301512510000,6.916510009765625,2.0980903234951196,-1.1562485952079296,-5.592200413608551
1789324301522473200,6.92647314453125,1.903466307669878,-1.771677079811692,-6.400187944331765
1789324301532436200,6.936436279296875,1.332744395276904,-2.09895205489099,-6.670481972038745
1789324301542398200,6.946398193359375,0.47885494507849213,-2.016979289603233,-5.9473097365528345
1789324301552361200,6.956361328125,-0.6516689878948032,-1.3880384124755858,-4.2103158475875855
1789324301562323200,6.9663232421875,-1.724405041027069,-0.6935498351603746,-2.5091873449906705
1789324301572286200,6.9762861328125,-2.305301725953817,0.0472217699021101,-1.1898767240434884
1789324301582248200,6.986248291015625,-1.6966631937511265,0.809656925240159,-0.7605417428068816
1789324301592211200,6.996211181640625,-0.7532102308750153,1.2579869681954383,-1.3645159364603459
1789324301602174200,7.00617431640625,0.037343788357824086,1.6169839462280273,-1.9800233315192162
1789324301612136200,7.01613623046875,0.4638422309942543,1.9399054022729396,-1.890143446368724
1789324301622099200,7.02609912109375,0.45017187142968174,2.2812083181828258,-1.5590934827953575
1789324301632061200,7.036061279296875,0.42046003925502295,2.4779899504333733,-1.3237597093105316
1789324301642024200,7.046024169921875,0.07575878614373505,2.5469968511641023,-0.9145847419187426
1789324301651987200,7.0559873046875,-0.4904711120596155,2.6073709481060505,-0.6321671456977724
1789324301661949200,7.06594921875,-0.9687713823974132,2.5977970640748738,-0.5943883269235491
1789324301671912200,7.075912109375,-1.1192840154260397,2.611874104744196,-0.694968469786644
1789324301681874200,7.085874267578125,-0.8914239388227462,2.6227473809361457,-1.1375988397955894
1789324301691837200,7.095837158203125,-0.5196645098507404,2.750240372905135,-1.6770955928415059
1789324301701800200,7.10580029296875,-0.2194868005335331,3.0515982319176196,-2.039624544392526
1789324301711762200,7.11576220703125,0.005595043528079986,3.355345031893253,-2.1522516834020613
1789324301721725200,7.12572509765625,0.27752288298197086,3.5881238601982592,-2.1611720719605683
1789324301731687200,7.135687255859375,0.502666759429127,3.8218589663147924,-1.9847136812925337
1789324301741650200,7.145650146484375,0.7140709374025463,3.9427971298128366,-1.66343648532331
1789324301751613200,7.15561328125,0.8846699345178901,3.754773389035463,-1.2594289836972952
1789324301761575200,7.1655751953125,0.9946319459713995,3.396168040668964,-0.8902861669644713
1789324301771538200,7.1755380859375,1.1212639371968804,2.952427663591504,-0.505949872753024
1789324301781500200,7.185500244140625,1.1256827765524386,2.3771938267320394,-0.01779109275639057
1789324301791463200,7.195463134765625,0.8682675196409225,1.634261828765273,0.5444239803150296
1789324301801426200,7.20542626953125,0.003355447907745838,0.9852829567372798,1.4869211037710308
1789324301811388200,7.21538818359375,-1.4165347313806413,0.24110008192658422,2.8833021049171683
1789324301821351200,7.22535107421875,-2.9167043160423636,-0.9794698865443467,4.241047962720692
1789324301831313200,7.235313232421875,-3.7395018778845666,-2.289064876902103,5.135128845793009
1789324301841276200,7.245276123046875,-3.8998011609122156,-3.0633588123381137,5.181342315435409
1789324301851239200,7.2552392578125,-3.7851255649402735,-2.793982483997941,4.82455629145056
1789324301861201400,7.265201416015625,-3.6346789828851818,-1.8031226039111614,4.178712794838845
1789324301871164200,7.2751640625,-4.06601989711672,-1.0474363383114338,4.044693031449616
1789324301881126100,7.285126220703125,-4.36942066013366,-0.9794085117459297,3.212777220389247
1789324301891089200,7.295089111328125,-3.152020553870499,-1.495223944953084,1.155135957790911
1789324301901052200,7.30505224609375,-1.056453172981739,-2.0957418606728315,-1.0049223077088594
1789324301911014100,7.31501416015625,1.5757225460350512,-2.2469933293700217,-2.0334689443722365
1789324301920977200,7.32497705078125,3.2941143181219696,-2.0157652376383544,-2.4398075192943214
1789324301930939100,7.334939208984375,3.5435143186211584,-2.1894641004651785,-2.4689646401956677
1789324301940902100,7.344902099609375,2.9413913057923313,-3.0504835486739874,-2.3395400956422088
1789324301950865200,7.354865234375,1.6946482006669044,-4.310466659122705,-2.0317086567014453
1789324301960827100,7.3648271484375,-0.18664368459582328,-5.684785173803568,-1.451974293552339
1789324301970790100,7.3747900390625,-2.440306408727169,-6.715231214347481,-0.26102614088505505
1789324301980752100,7.384752197265625,-3.935100730091333,-6.883691591998934,1.1507771780595182
1789324301990715400,7.39471533203125,-3.4838743811726567,-5.681058846756816,1.8362366457447408
1789324302000678100,7.40467822265625,-1.9813924279153345,-3.4102333909004923,0.6943868705064058
1789324302010640100,7.41464013671875,-0.5175215795379132,-1.4747639252483844,-0.9109785341203213
1789324302020603100,7.42460302734375,0.7708663721401244,-0.28843817168474195,-1.570961907504499
1789324302030565400,7.4345654296875,1.5506430498361587,0.6016635786235333,-1.707437247352302
1789324302040528100,7.444528076171875,1.979470519942045,1.3193138358175753,-1.6404881559342146
1789324302050490000,7.454489990234375,2.220481754541397,1.9222680387735365,-1.536781697744131
1789324302060453000,7.464453125,2.2285668613195417,2.3345272359162568,-1.3826286623865365
1789324302070416100,7.474416015625,2.0766087056577205,2.433144262012839,-1.1724553413823247
1789324302080378400,7.48437841796875,1.9725649783372878,2.234551196426153,-0.9302195334240794
1789324302090341000,7.494341064453125,1.9409329917550087,1.69211955897212,-0.7322960376620292
1789324302100303000,7.50430322265625,2.0112381156027315,0.9884224238067865,-0.6917854558363556
1789324302110266000,7.51426611328125,2.2069337061822414,0.3148193981319666,-0.7188982114285231
1789324302120229000,7.52422900390625,2.4228444017946718,-0.20644319456517696,-0.8825818761974573
1789324302130191000,7.534191162109375,2.674702024579048,-0.6189817931711673,-1.163605826102942
1789324302140154000,7.544154052734375,2.9855133561134335,-0.9942781640976667,-1.3346154498457907
1789324302150116000,7.5541162109375,3.2686347166895864,-1.2690291712135076,-1.4289613744944334
1789324302160079400,7.564079345703125,3.4312861158013344,-1.2637433397650717,-1.4015958131849764
1789324302170042400,7.57404248046875,3.326840237420797,-0.9123305332511663,-1.2611737815380095
1789324302180004000,7.584004150390625,2.9751252330899236,-0.38308629415035245,-1.0257669428169727
1789324302189967000,7.593967041015625,2.740646615129709,0.09413491224646568,-0.8240171667650341
1789324302199929300,7.603929443359375,2.6185470066368577,0.5234036963790655,-0.7598233654044568
1789324302209892400,7.613892333984375,2.523932786440849,0.9195330119758843,-0.5219925144068897
1789324302219855000,7.623855224609375,2.2901076639533042,1.2929729413807391,0.4651422076769173
1789324302229817000,7.633817138671875,2.214608478593826,1.32363169901669,1.8968005661703644
1789324302239780000,7.643780029296875,2.455991469115019,1.523611250525713,1.1693835327215492
1789324302249742300,7.653742431640625,2.670046892249584,1.9406120892375707,-0.5278453320883214
1789324302259705000,7.663705078125,2.6101158629000185,2.1201684459209442,-0.666932608000189
1789324302269668000,7.673668212890625,2.430906127697229,2.2900328451514245,-0.33936288775801654
1789324302279630000,7.683630126953125,1.7531366299927233,2.3484628222882744,0.6920454219467937
1789324302289593300,7.69359326171875,1.2318038946688175,2.2530232571840285,1.6243236414663493
1789324302299555000,7.70355517578125,0.9095756815850734,2.45921569185853,1.8892457668766378
1789324302309518000,7.71351806640625,0.9100842156291008,2.8246289666742084,1.9766149843804537
1789324302319481000,7.723481201171875,0.9137865772783755,3.1552976758450266,2.0610100083790717
1789324302329443300,7.733443359375,0.8750193319886922,3.316929668781161,1.8417349509000778
1789324302339406300,7.74340625,0.6634077948749065,3.1395337050020693,1.7719798621505498
1789324302349368000,7.7533681640625,0.6644383069664239,2.7289935867369173,1.7038985518321395
1789324302359331000,7.7633310546875,0.7070709955126047,2.2307103030890225,1.6330255649685859
1789324302369293300,7.773293212890625,0.7228998482853174,1.5762199741631746,1.6219963675625622
1789324302379256600,7.783256591796875,0.803189190530777,0.918034297850728,1.7441725484229624
1789324302389219600,7.793219482421875,0.8284510575592517,0.27857553384006023,1.9009012794874607
1789324302399181600,7.803181640625,0.6681797585170716,-0.28524960477650163,2.0299425238117577
1789324302409144600,7.81314453125,0.3188764915030449,-0.6877203983545302,2.1102057087026536
1789324302419106600,7.8231064453125,-0.14475976859033107,-0.9727502229005098,2.0657344065524637
1789324302429069600,7.833069580078125,-0.7349504246283323,-1.215025193825364,1.8684148680329322
1789324302439032600,7.843032470703125,-2.078733442726731,-1.4389192894071339,1.3830119626156985
1789324302448994600,7.85299462890625,-6.023375908145308,-1.6064409249037503,0.48496582917422054
1789324302458957300,7.862957275390625,-16.123732375621795,-1.7673866891413925,-2.696278481093049
1789324302468919600,7.87291943359375,-14.068682006299495,-3.062493135419488,-2.5907766639187932
1789324302478882600,7.882882568359375,-5.24728690598607,-2.38151870419383,2.561602299621701
1789324302488845600,7.892845458984375,-3.2097301077783107,-2.112527575778961,3.5765678624391555
1789324302498807600,7.9028076171875,-1.5604858139365911,-2.7815561331450938,3.28350173869282
1789324302508770600,7.9127705078125,-0.39142216081917286,-3.1960546336472033,3.284215439920127
1789324302518732500,7.922732666015625,0.14564707281887532,-3.646960664570331,3.199984666572511
1789324302528695600,7.932695556640625,0.5967465804874896,-4.126000318565964,3.062408379745483
1789324302538658600,7.942658447265625,0.9156149617493152,-4.533742330545187,2.9763956914171574
1789324302548620500,7.95262060546875,1.128473868575692,-4.841186815994978,2.921164510321617
1789324302558583600,7.96258349609375,1.2473843256384134,-4.809692776578665,2.72354292011559
1789324302568545500,7.972545654296875,1.2201613876700401,-4.2301176956444975,2.469010232903063
1789324302578508500,7.982508544921875,1.1269301462650299,-3.1956407921493053,2.1372902611136437
1789324302588471600,7.992471435546875,1.051852401188016,-1.9843693978995083,1.778663577698171
1789324302598433500,8.00243359375,1.0671773960918187,-1.0069722259759903,1.3695339107528328
1789324302608396500,8.012396484375,1.120950487333536,-0.2457189738988876,0.7787212503589689
1789324302618358500,8.022358642578125,1.1877180847048758,0.3330734322249889,0.028877719438076016
1789324302628321500,8.032321533203126,1.2778671421855687,0.7177835281848907,-0.7329505560480057
1789324302638284500,8.042284423828125,1.3809820642232895,0.9597890345185994,-1.5960566012725232
1789324302648246500,8.05224658203125,1.5655565413296222,0.9163765937715769,-2.5358026724547145
1789324302658209500,8.06220947265625,1.7995102586328982,0.6385679526507854,-3.5264188069134947
1789324302668171500,8.072171630859375,2.1023452044606206,0.17341127805709838,-4.546083925724029
1789324302678134500,8.082134521484376,2.2343284935861827,-0.4431429957062006,-5.47944204943478
1789324302688097500,8.09209765625,1.9660732782304287,-0.9213882844537497,-5.984056874191761
1789324302698059500,8.1020595703125,1.3922253427714109,-1.1551695677995681,-5.91536853789091
1789324302708022500,8.1120224609375,0.5039700240474194,-1.066378939190507,-5.124090149906277
1789324302717984500,8.121984619140624,-0.9198346252709627,-0.653306087577343,-3.5025440103292462
1789324302727947500,8.131947509765626,-2.3002917888373133,-0.21016542995870113,-1.8088240304231642
1789324302737910500,8.14191064453125,-2.513966688221693,0.11608254016041755,-1.0365579475529492
1789324302747872500,8.15187255859375,-1.6677112400330603,0.37831133483350277,-1.1199226786557583
1789324302757835500,8.16183544921875,-0.6985393140107393,0.6341518897742032,-1.6351714909560977
1789324302767797500,8.171797607421874,-0.05556815796494484,0.8015724029839039,-1.884656539390236
1789324302777760500,8.181760498046875,0.11492343325316905,0.9887854119002818,-1.5120913469932973
1789324302787723500,8.1917236328125,-0.006063318626955151,1.2532581861078738,-1.01853100021407
1789324302797685500,8.201685546875,-0.25686467382404954,1.5577110885262488,-0.6579131429813802
1789324302807648800,8.211648681640625,-0.5916068429788575,1.8431044856876133,-0.6826265823468566
1789324302817610500,8.221610595703124,-0.7671195137619972,2.2553490697830916,-0.8334091183580458
1789324302827573500,8.231573486328125,-0.7249591189026832,2.6378075874239206,-1.184750467070937
1789324302837535700,8.24153564453125,-0.40891982358694073,2.91798880289495,-1.6361016114130615
1789324302847498800,8.251498779296876,-0.13333766287658363,3.153159494772553,-1.6890625094890594
1789324302857461500,8.26146142578125,0.058279170489311215,3.3902912575900555,-1.860838733690232
1789324302867423500,8.271423583984374,0.08346621871590613,3.5533985837757585,-1.9773158261261878
1789324302877386500,8.281386474609375,0.4721861348390579,3.7730630789637565,-2.105112623347342
1789324302887348700,8.2913486328125,0.8811537430904806,3.894802037450671,-2.05879467041716
1789324302897311500,8.3013115234375,1.110707179608196,3.7593361669063565,-1.9314678287953138
1789324302907274500,8.3112744140625,1.2467992192268371,3.5738486666083333,-1.5491981117248534
1789324302917236500,8.321236572265626,1.2430559410452842,3.2766672164976596,-0.9503786704860627
1789324302927199500,8.331199462890625,1.132783110076934,2.898549358409643,-0.3712622931048274
1789324302937161500,8.341161376953124,1.142657292228937,2.409751111465692,0.12351575890108943
1789324302947124500,8.35112451171875,1.1478912473596632,1.8032728260368107,0.44600466874763367
1789324302957087500,8.36108740234375,0.8647811388298868,1.2914035001069306,0.8320148875206709
1789324302967049500,8.371049560546876,0.3901142930909991,0.7716653404980898,1.31419517762959
1789324302977012700,8.3810126953125,-0.41330183806344867,0.21856910116672515,1.9717115763783453
1789324302986974500,8.390974365234374,-1.5474632507562636,-0.41450843737423415,2.9713766942113637
1789324302996937500,8.4009375,-2.7385025888383385,-1.3371265558838843,4.1320881140470505
1789324303006900500,8.410900390625,-2.8264076667845246,-2.4045868605703116,4.679923364110291
1789324303016862700,8.42086279296875,-1.9519570745944976,-2.4997651443898676,3.9260266122758387
1789324303026825700,8.43082568359375,-2.2441841171681878,-1.9248475338727236,3.5943504796281456
1789324303036787500,8.440787353515624,-3.099574619579315,-1.2794897749513388,3.8399139707043766
1789324303046750500,8.45075048828125,-3.881474061582982,-0.8531511990517378,3.8912332390531894
1789324303056713500,8.46071337890625,-4.479635477304458,-0.8206085273653269,3.6891710360512135
1789324303066675700,8.47067578125,-4.103309763330221,-1.46604402769804,2.5513623528972267
1789324303076638500,8.480638427734375,-2.2250144295349714,-2.5850457190513607,0.29427082336097954
1789324303086600400,8.490600341796876,0.7713307017162442,-3.1858985658138987,-1.5331138228863477
1789324303096563500,8.5005634765625,2.9872786122202872,-2.708812968495488,-2.212925055551529
1789324303106526700,8.510526611328125,3.411750225204229,-2.226367305448651,-1.8154162682950497
1789324303116488400,8.520488525390626,3.2553649007499215,-2.607224233111739,-1.4885241550534962
1789324303126451500,8.530451416015625,2.3037654562972483,-3.6034272277921437,-1.2949787282451986
1789324303136413700,8.54041357421875,0.36933249408602714,-4.99890601940155,-0.7905079881340265
1789324303146376700,8.550376708984375,-2.268000899954885,-6.425006159245967,0.16298559950217603
1789324303156339700,8.560339599609375,-3.420640803146362,-6.988179555955528,0.4880452366195619
1789324303166301400,8.570301513671875,-2.4812439837932585,-6.514579462665319,0.46574806461557744
1789324303176264400,8.580264404296875,-1.0324912095706908,-4.7349657446354625,-0.09786299285888671
1789324303186226700,8.590226806640626,0.2144237449903041,-2.7396237018227576,-0.7412165723510086
1789324303196189700,8.600189697265625,1.0455107770763337,-1.1039806478321552,-0.9376255718968808
1789324303206152400,8.61015234375,1.4275252042114734,0.1733721150904894,-0.9241120103292166
1789324303216114400,8.620114501953125,1.7483529028475284,1.0925064831376075,-0.9010004532024264
1789324303226077400,8.630077392578125,1.9756442396521567,1.7127379841089247,-0.8363441488966346
1789324303236039700,8.640039794921876,2.0591221488058564,2.230681661516428,-0.7086386832207441
1789324303246002400,8.65000244140625,1.9965419201217591,2.585711489483714,-0.5967910041511059
1789324303255965400,8.65996533203125,1.9785702101014553,2.678385681527853,-0.4567179320722818
1789324303265927700,8.669927734375,2.014132814130932,2.4568109688043593,-0.3131852210588753
1789324303275890700,8.679890625,2.0497161686874925,2.0082862800598145,-0.20969488983750342
1789324303285852400,8.689852294921875,2.1060439128480852,1.4788234297722578,-0.12330752297788858
1789324303295815400,8.6998154296875,2.179283482712507,0.8825345299243926,-0.04273673344254494
1789324303305778400,8.7097783203125,2.377527442600578,0.33984687188267704,-0.14551920865550635
1789324303315740700,8.71974072265625,2.6220857021570203,-0.025345453658699987,-0.3323918797016144
1789324303325703700,8.72970361328125,2.8401415931046006,-0.2778010423362255,-0.5418959231421351
1789324303335665400,8.73966552734375,3.022164047640562,-0.35604280440211294,-0.7291039636224508
1789324303345628400,8.74962841796875,2.9781822825729845,-0.22984511294066903,-0.7885419487580656
1789324303355591400,8.75959130859375,2.7323826446533204,0.16865560796260834,-0.75724387030527
1789324303365553700,8.7695537109375,2.526995681142807,0.683649787914753,-0.8061033244118094
1789324303375516700,8.7795166015625,2.446829673016071,1.160621403464675,-0.9176261554412544
1789324303385478400,8.789478515625,2.439069560408592,1.5454396359741687,-1.0092395863860846
1789324303395441400,8.79944140625,2.458734045821428,1.6923843473881481,-0.9722814363449811
1789324303405404400,8.809404296875,2.4059821143209934,1.6160609861642121,-0.7560784797877073
1789324303415366400,8.819366455078125,2.2850550567388535,1.4366174422055482,-0.5413201690807938
1789324303425329400,8.829329345703124,2.1088766520559785,1.1074059461057186,-0.23979177580699323
1789324303435291600,8.839291748046875,1.9070424125909804,0.9311082989573478,0.13487696474045513
1789324303445254400,8.84925439453125,1.6928046186268328,1.01678284137249,0.4930342770785093
1789324303455216400,8.85921630859375,1.596103655284643,1.04904728063941,0.6873084565527737
1789324303465179400,8.869179443359375,1.3397300163805483,1.1350924099326134,0.7485644508957863
1789324303475142400,8.879142333984374,1.051982749569416,1.2994324927836656,0.8083568024270236
1789324303485104400,8.8891044921875,0.9381786757349967,1.5324392846256494,0.8702515330649911
1789324303495067400,8.8990673828125,0.7356009244263172,1.8835878872454166,0.9846152866087853
1789324303505029400,8.909029296875,0.581622661113739,2.1431869179368017,1.1139023223876952
1789324303514992400,8.918992431640625,0.4963777422875166,2.2600842816114426,1.281340517384559
1789324303524955400,8.928955322265624,0.47583121334314343,2.2342302939087153,1.4444517890930175
1789324303534917400,8.93891748046875,0.4610860641539097,2.02606802046597,1.5792511585526168
1789324303544880400,8.94888037109375,0.36730595669448374,1.6987100432783364,1.7393233548261224
1789324303554842400,8.95884228515625,0.21255086379051208,1.3318161745160817,1.9718463086739182
1789324303564805600,8.9688056640625,-0.015570494097471237,1.008692473897338,2.2452960239328443
1789324303574768600,8.9787685546875,-0.27446228983495385,0.7636895393133163,2.4062385733000933
1789324303584730400,8.98873046875,-0.4869423899441957,0.542200166785717,2.3760452412188053
1789324303594693400,8.998693359375,-0.7130360413968563,0.2968056025356054,2.04319290439859
1789324303604655600,9.008655517578125,-1.1722914560575037,0.03431435753405094,1.5384787109203635
1789324303614618600,9.01861865234375,-2.2519494904726742,-0.23252280771732328,0.8989522885009645
1789324303624581400,9.028581298828126,-4.991343475192785,-0.3568506136536598,0.06326762642636895
1789324303634543400,9.03854345703125,-9.420096906521916,-1.37465870642066,-1.442156225501746
1789324303644506400,9.04850634765625,-11.460398035001754,-2.6859938184440133,-1.5252154708519576
1789324303654468600,9.058468505859375,-7.1221730158597225,-2.6424311555713413,1.3603173157267272
1789324303664431400,9.068431396484375,-3.2899399550467727,-2.2250568073719736,3.338271147495508
1789324303674394400,9.078394287109376,-1.64484225949049,-2.5077719252347945,3.6641742496997116
1789324303684356400,9.0883564453125,-0.6045077890735119,-3.0018419751018284,3.9291672483891245
1789324303694319400,9.0983193359375,0.05171089801490306,-3.5026942324548958,3.9905134052336213
1789324303704281300,9.10828125,0.49192543905377384,-3.832372761544585,3.8081858302712437
1789324303714244400,9.118244384765624,0.8473217622458934,-4.139952271550894,3.6609383365184067
1789324303724207400,9.128207275390626,1.0868459731578826,-4.4829421176344155,3.638320846518874
1789324303734169600,9.138169677734375,1.2308727512985467,-4.59770480736792,3.494234447145462
1789324303744132600,9.148132568359374,1.2733183928400278,-4.386822169050574,3.1741552287891506
1789324303754094300,9.15809423828125,1.1828589542359114,-3.6071430334448813,2.6258868480056523
1789324303764057300,9.168057373046874,0.9819827461481094,-2.2252719114273787,1.992481100423634
1789324303774020400,9.178020263671876,0.8728957639634609,-0.8826835830062627,1.4541225576274097
1789324303783982600,9.187982666015625,0.8530775492936372,0.16928163090646267,0.9309335269123316
1789324303793945300,9.1979453125,0.9058394176661968,0.9540402617335318,0.36655557671859856
1789324303803907300,9.2079072265625,1.0536030442476272,1.4595418061971663,-0.29155104300826784
1789324303813870300,9.217870361328124,1.2814730577230453,1.6783061376750468,-0.9829381471768021
1789324303823833300,9.227833251953125,1.6341010852456093,1.577363883501291,-1.815503069795668
1789324303833795300,9.23779541015625,1.9877496879875658,1.1740981401532888,-2.602151167631149
1789324303843758300,9.24775830078125,2.328791907134652,0.5298638323038816,-3.4083798719882963
1789324303853720300,9.25772021484375,2.6868559882313012,-0.29915771861970425,-4.423498579540849
1789324303863683600,9.26768359375,2.8222826958090064,-1.1167664796471595,-5.262278723412752
1789324303873646600,9.277646484375,2.4495215424485504,-1.8452642940700053,-5.818485788241029
1789324303883608300,9.2876083984375,1.7900180615358054,-2.295324521818757,-6.033098260736465
1789324303893571300,9.2975712890625,0.6576451396949589,-2.243908222836256,-5.245202500927448
1789324303903533600,9.307533447265625,-0.8423172319568694,-1.7916262273848056,-3.7735979164928195
1789324303913496600,9.31749658203125,-2.2090124121524393,-1.2026496963769198,-2.3985725687168538
1789324303923459600,9.32745947265625,-2.245864033079147,-0.4557721756547689,-1.640926401221007
1789324303933421300,9.33742138671875,-1.2470797897338866,0.3492307862997055,-1.734013411849737
1789324303943384300,9.34738427734375,-0.3279560892112553,1.038562126982212,-1.7908109654791653
1789324303953346600,9.3573466796875,0.12070318569839,1.4845347931563853,-1.6558336091041563
1789324303963309600,9.3673095703125,0.0816027629315853,1.9929934338599442,-1.159982374908775
1789324303973272300,9.377272216796875,-0.08517609137371182,2.3291057953894136,-0.7709544157497584
1789324303983234300,9.387234375,-0.3120253834992647,2.565302907705307,-0.4768604102604091
1789324303993197600,9.397197509765626,-0.4928683459270745,2.5764450639665126,-0.5590421421237289
1789324304003159600,9.40715966796875,-0.6604851854264736,2.465683426567912,-0.7003126072935759
1789324304013122300,9.417122314453126,-0.7375684251070023,2.32381528776586,-1.0741047111369668
1789324304023085300,9.427085205078125,-0.787936603276059,2.311196044689417,-1.3630335889481007
1789324304033047600,9.437047607421874,-0.7579413510501384,2.3932062193781136,-1.7161325949832795
1789324304043010600,9.447010498046875,-0.6760919198811054,2.6344986090064046,-2.084948517849296
1789324304052972300,9.45697216796875,-0.6682400373369455,3.00016089014709,-2.263693704280257
1789324304062935300,9.466935302734376,-0.5557762721955776,3.4685780278414486,-2.297368594866991
1789324304072898300,9.476898193359375,-0.2699099968254566,3.8191064527362584,-2.1696813955001533
1789324304082860500,9.486860595703124,0.12129413732886314,3.909317469537258,-2.1832113236807285
1789324304092823600,9.496823486328125,0.572437484139204,3.839026958736777,-1.9274432494543492
1789324304102785300,9.506785400390624,0.8803612775385379,3.6695506820410486,-1.4983043753117322
1789324304112748300,9.516748291015626,1.1186556543946264,3.1931764478623865,-1.2920083341322839
1789324304122711300,9.526711181640625,1.3480780118785798,2.480646017900109,-1.1365656973555684
1789324304132673500,9.536673583984374,1.3795757045567034,1.6498469359099863,-0.7865721099898219
1789324304142636500,9.546636474609375,1.3115806112170219,0.639993601539731,-0.49776276690512894
1789324304152598300,9.556598388671874,1.0340671536505222,-0.4120382478684187,-0.26582857273072
1789324304162561500,9.5665615234375,0.5201228480774909,-1.2199433610051869,0.08612520879209042
1789324304172524500,9.576524658203125,-0.3652851183913648,-1.8191490250825881,0.6456845066577196
1789324304182486500,9.586486572265626,-1.7528465610049664,-2.223131976789236,1.4544316235765813
1789324304192449300,9.59644921875,-3.226440419560671,-2.4386434439510105,2.5747888211920857
1789324304202411500,9.60641162109375,-3.8064299265146255,-2.6145453697800636,3.517611231079697
1789324304212374500,9.61637451171875,-3.4187995591938494,-2.4689853907227515,4.171727758257091
1789324304222337500,9.626337646484375,-2.6213395599648357,-2.0033055690377948,4.249359279470146
1789324304232299300,9.63629931640625,-2.1433684119835497,-1.1700310368448494,3.8287820435762403
1789324304242262300,9.64626220703125,-2.0069936099007726,-0.18257424319982526,3.7370290580302474
1789324304252224500,9.656224609375,-1.7331988805964589,0.496224013030529,3.735571552698314
1789324304262187500,9.6661875,-0.8416203357338905,-0.38487259304523463,3.1940599526986477
1789324304272150500,9.676150634765625,0.44402854636907574,-1.7539239809781313,1.9923609811753034
1789324304282112300,9.6861123046875,1.1956791267119347,-2.0113392378896475,0.9813333423286675
1789324304292075500,9.696075439453125,1.1914940961122513,-2.3313369154423476,0.4445920254707336
1789324304302037500,9.70603759765625,0.559244898154214,-3.4230233143687245,0.22433979352265596
1789324304312000500,9.71600048828125,-0.6169268334027379,-5.018083013558387,0.10000877271592616
1789324304321963300,9.72596337890625,-1.9138193593800066,-6.651979516142607,-0.13700228633135556
1789324304331925500,9.735925537109376,-2.4858663828969,-7.579786435467004,-0.18653408674150704
1789324304341888500,9.745888427734375,-1.91728206705451,-6.959734382715821,0.5010056943491101
1789324304351850500,9.7558505859375,-0.9412953464508056,-4.830298342233896,0.8285489649757742
1789324304361813500,9.7658134765625,-0.27742815390322356,-2.198741047376394,-0.03433393901735544
1789324304371776300,9.7757763671875,0.42124026637990025,-0.1499485694050789,-0.7608622069329023
1789324304381738800,9.78573876953125,1.1160486867666244,1.1726216378599406,-1.1378276801154017
1789324304391701800,9.79570166015625,1.5813503227889536,2.035174871507287,-1.4680799174398182
1789324304401663500,9.80566357421875,1.8061960200071334,2.600821964854002,-1.7580597656086085
1789324304411626500,9.81562646484375,1.854373483198881,3.1642560583263633,-1.6683894315555692
1789324304421589500,9.825589599609375,1.7765069841861725,3.385933062380552,-1.5132830409958957
1789324304431551700,9.8355517578125,1.7830524603068827,3.278539440110326,-1.2144628837674856
1789324304441514500,9.845514404296875,1.7966612989425659,2.811239323747158,-0.8874865993738174
1789324304451476500,9.8554765625,1.8824632671296595,2.033755652359128,-0.6714867641732096
1789324304461439500,9.865439453125,1.997953102093935,1.1800666931688786,-0.5555614604011178
1789324304471402800,9.87540283203125,2.1831039177834985,0.39306408280730243,-0.5639402894288301
1789324304481364500,9.885364501953125,2.4806793356478214,-0.28142273996472356,-0.7817965661510825
1789324304491327500,9.895327392578125,2.871611082601547,-0.8431798401355743,-1.134425470456481
1789324304501289700,9.905289794921876,3.194615540754795,-1.2742980515271425,-1.228188626781106
1789324304511252700,9.915252685546875,3.5544168209075924,-1.5610931321799755,-1.313536713720858
1789324304521215700,9.9252158203125,3.8100679907560346,-1.6354057381033897,-1.38763918402493
1789324304531177500,9.935177490234375,3.652134852337837,-1.2698930945664644,-1.2992521677806972
1789324304541140500,9.945140380859375,3.235037567514181,-0.4942512516528368,-1.1780801955267786
1789324304551102700,9.955102783203126,2.860793920511007,0.4003267672866583,-1.1277286031663418
1789324304561065700,9.965065673828125,2.6004829421579836,1.0452408740937709,-1.0445245425179601
1789324304571028700,9.97502880859375,2.453624155461788,1.4083493790984154,-0.9225693109318613
1789324304580990500,9.984990478515625,2.442939095318317,1.587075130176544,-0.8988944208338856
1789324304590953500,9.994953369140624,2.406279051440954,1.6299948189705609,-0.7423889771312475
1789324304600915700,10.004915771484375,2.3117928415387867,1.5342366894364357,-0.46980333135575053
1789324304610878700,10.014878662109375,2.1884499549865724,1.4974123949080704,-0.21814926831945775
1789324304620841500,10.024841552734374,1.9901620098263024,1.5524673426538704,0.011346885053068398
1789324304630803700,10.0348037109375,1.6190777036368846,1.4741788188368081,0.380883669539541
1789324304640766700,10.0447666015625,1.2295488092184066,1.5968974360108374,0.5899981291405856
1789324304650728700,10.054728759765625,1.0863298403292894,1.6516817501217125,0.5633145587459206
1789324304660691500,10.06469140625,0.7653431517392396,1.7107599620342253,0.7834399494439364
1789324304670654500,10.074654541015626,0.6252624808758497,1.8918980349510908,1.0115836652942
1789324304680616700,10.08461669921875,0.5074491714000702,2.0536650524437428,1.182082563035935
1789324304690579700,10.094579833984374,0.5625234814334661,2.108232508933544,1.210600801511854
1789324304700541400,10.10454150390625,0.5370780745316297,2.1206576907426116,1.269327715768665
1789324304710504400,10.11450439453125,0.486907830087468,1.912103203111887,1.3342423787496984
1789324304720467500,10.124467529296876,0.3913916195504367,1.5987258204817771,1.5141054632946849
1789324304730429700,10.1344296875,0.14934008211791513,1.2371540235251188,1.7730058441974221
1789324304740392700,10.144392822265624,-0.09615268180966377,0.866207664501667,2.0652520298629997
1789324304750354400,10.1543544921875,-0.50735623241961,0.5282026210933923,2.4109115335471927
1789324304760317400,10.1643173828125,-0.9145826960921287,0.32259003213346005,2.532181559348106
1789324304770280700,10.17428076171875,-1.3962357474565505,0.13010346672832965,2.3991869012229143
1789324304780242700,10.18424267578125,-2.812434671011567,-0.19172434886097908,1.8322355934098362
1789324304790205400,10.194205322265624,-8.769304263070225,-1.1305126809269188,0.0065253101155161855
1789324304800167700,10.204167724609375,-13.089516655659676,-2.8382734611451625,-3.233879045128822
1789324304810130700,10.214130615234374,-6.157369952571392,-2.3523756118178367,-1.5481721296779811
1789324304820093700,10.22409375,-3.2469857794612644,-0.4337082278847694,1.3379080616503953
1789324304830055400,10.234055419921875,-2.4132646725445985,0.3951706996977329,2.266754553155601
1789324304840018400,10.244018310546876,-1.8329887498646973,0.32421383394300934,2.659364462454617
1789324304849980700,10.253980712890625,-1.4102864846408367,-0.059007484763860696,2.9465573102533815
1789324304859943700,10.263943603515624,-0.9818021288841963,-0.7665741548389196,3.3464301962926983
1789324304869906700,10.27390673828125,-0.7279214758396149,-1.5911270359158516,3.7548566834047437
1789324304879868400,10.283868408203125,-0.44999764737393705,-2.4991215857893225,4.129567071136832
1789324304889831400,10.29383154296875,-0.19809214859353377,-3.3363422252595423,4.419007113340497
1789324304899793700,10.303793701171875,0.014465765992272644,-3.938517260536551,4.514604791615903
1789324304909756700,10.313756591796874,0.1939204158668406,-4.280797497045993,4.534804699079692
1789324304919719700,10.3237197265625,0.37202012573480603,-4.370882257118821,4.334371850845217
1789324304929681700,10.333681640625,0.5112666838616132,-4.215170301881432,3.923882878245413
1789324304939644700,10.343644775390626,0.5767290438532829,-3.5103859560012816,3.287652428631484
1789324304949606700,10.353606689453125,0.5481202044844627,-2.3948382044941185,2.601200735038519
1789324304959569700,10.363569580078124,0.6049988605260849,-1.1543629275918006,1.998182234674692
1789324304969532400,10.373532470703125,0.6866074686765671,-0.06838204683065414,1.3879215080976486
1789324304979494700,10.38349462890625,0.769298026844859,0.7746510783106089,0.8116369931414723
1789324304989457700,10.393457763671876,0.9133955321341752,1.359460552766919,0.14441051676124333
1789324304999419600,10.403419677734375,1.0631155534803867,1.7277800704181194,-0.4541460357576608
1789324305009382400,10.41338232421875,1.336353233423829,1.7962708383202552,-1.1452116528868674
1789324305019345400,10.423345458984375,1.700889140883088,1.620423273026943,-1.8840975903332233
1789324305029307600,10.4333076171875,2.0413655428409574,1.1637445039212704,-2.6819834137588736
1789324305039270700,10.443270751953126,2.45516787777245,0.40201895815730093,-3.592499006542563
1789324305049232400,10.453232421875,2.967830399906635,-0.6361439403742551,-4.524083690840006
1789324305059195400,10.4631953125,3.2964415920257566,-1.7477601976513861,-5.428893180936575
1789324305069158700,10.47315869140625,3.04396905221343,-2.7225539090782402,-6.266212604606151
1789324305079120600,10.48312060546875,2.1225889510661364,-3.5159640483945607,-6.55264352812171
1789324305089083600,10.493083740234376,0.19359364986419678,-3.7423885392367837,-5.772866777360439
1789324305099045600,10.503045654296875,-2.3789127594791353,-3.2394325876027343,-3.651312430039048
1789324305109008600,10.513008544921876,-3.211029499939084,-2.328782554784417,-1.6075854187637566
1789324305118971600,10.5229716796875,-1.8791852683722972,-1.3645038076311349,-1.1333872134499252
1789324305128933600,10.53293359375,-0.47990708447992797,-0.45335167050957675,-1.4429922379344702
1789324305138896600,10.542896728515625,0.22012904395982621,0.2882885340809822,-1.360881817741692
1789324305148858600,10.552858642578125,0.44934477295577524,0.9186147280871868,-1.257404638262838
1789324305158821600,10.562821533203126,0.3455002214692533,1.584469916114211,-0.9494850826472043
1789324305168784600,10.57278466796875,-0.11735635948851704,2.164486311075091,-0.6984918216072022
1789324305178746600,10.58274658203125,-0.6027057811528443,2.714154329523444,-0.5646667040072381
1789324305188709400,10.59270947265625,-0.8545786015063523,2.9912761574238536,-0.4847726446896791
1789324305198671600,10.602671630859374,-0.8110268984191119,3.1190204938054085,-0.738899527580291
1789324305208634600,10.612634521484376,-0.6413637208491564,3.251007290062308,-1.0688834693573415
1789324305218597600,10.62259765625,-0.3861182091921568,3.3369331768900152,-1.4498549633108078
1789324305228559600,10.6325595703125,-0.12097791098654269,3.4691426759868857,-1.8237666018806398
1789324305238522600,10.642522705078125,0.17461597767174242,3.622162907922268,-1.9075814879037438
1789324305248485600,10.652485595703125,0.2804202849239111,3.7042309502780437,-1.7968387013360856
1789324305258447600,10.662447509765625,0.3416723337441683,3.6392443911045786,-1.8183606511838732
1789324305268410600,10.67241064453125,0.4906903443008661,3.5414269909530876,-1.8089533558912574
1789324305278372600,10.68237255859375,0.5838321538567542,3.3898470209538933,-1.7486540777511894
1789324305288335600,10.692335693359375,0.6301993527561426,3.2330484395235777,-1.6825022741906344
1789324305298298600,10.702298583984375,0.6812509100794791,2.996881722345948,-1.5986711676850913
1789324305308260600,10.712260498046875,0.8242693879604339,2.6204385194718838,-1.4086251272998749
1789324305318223400,10.722223388671875,0.915865137118101,2.0710335358738896,-1.1557251558557151
1789324305328185600,10.732185546875,0.963523544871807,1.3658750959843395,-1.0764710018768906
1789324305338148600,10.742148681640625,0.9021429012358189,0.6896703633785247,-0.9430942125663161
1789324305348111600,10.752111572265624,0.8056511967301369,0.07148118188977241,-0.8214172133997082
1789324305358073600,10.762073486328125,0.6273568228065968,-0.4842904141306877,-0.7074386597812176
1789324305368036600,10.77203662109375,0.2452875236790627,-1.0311983202159405,-0.5014508077681065
1789324305377998600,10.78199853515625,-0.2504699312856421,-1.4286182601451873,0.10242810881733894
1789324305387961600,10.791961669921875,-0.931015798368305,-1.725773991292715,0.9722902041733265
1789324305397924600,10.801924560546874,-1.6903554719090461,-1.9738801525890826,1.8709835494771598
1789324305407886800,10.811886962890625,-1.9980103852391242,-2.231339248642325,2.2861343764081594
1789324305417849900,10.821849853515625,-2.144195802718401,-2.3134996454566714,2.6834257215216755
1789324305427811600,10.8318115234375,-2.459228551340103,-2.236412898644805,3.2114705217048525
1789324305437774600,10.841774658203125,-3.064368866163492,-1.8130723355174063,3.8821667200222607
1789324305447737600,10.851737548828124,-3.8197964808270335,-1.018468602502346,4.526770737966895
1789324305457699800,10.861699951171875,-4.253208063852787,-0.3326917394310236,4.805631518489122
1789324305467662800,10.871662841796875,-4.008722431141138,-0.41911914604008194,5.02876515109241
1789324305477624600,10.88162451171875,-2.1581071314319966,-1.36220020686388,4.597397933375835
1789324305487587600,10.891587646484375,-0.1863048080302775,-1.095935288542509,2.3870719544067978
1789324305497550800,10.90155078125,0.6120153151594102,-0.3785790458589792,0.30492782645374533
1789324305507512800,10.911512939453125,0.5872446657139807,-0.7553244465500116,-0.4452274007648229
1789324305517475600,10.9214755859375,0.14588855342455206,-1.7109885100930928,-0.5023597393065691
1789324305527438600,10.9314384765625,-0.5600643247783184,-3.012048311817646,-0.13531389485299586
1789324305537400800,10.94140087890625,-1.3257576051294804,-4.540159211850166,0.23420739980340002
1789324305547363800,10.95136376953125,-1.7088158422291277,-5.719117066994309,0.2834571684017777
1789324305557325600,10.96132568359375,-1.2592436902582644,-5.772313235130905,0.1881654873356223
1789324305567288600,10.97128857421875,-0.3101063981354236,-4.812705402398109,-0.2108066504716873
1789324305577251600,10.98125146484375,0.5662018046200276,-3.248303291800618,-0.6316212022528052
1789324305587213800,10.9912138671875,1.2305132703363895,-1.3782774814397096,-0.8313157993406057
1789324305597176800,11.0011767578125,1.559788479322195,0.1778372778058052,-0.8907111143782734
1789324305607138600,11.011138671875,1.7530758397161958,1.3098574406862258,-0.9005702450916171
1789324305617101600,11.0211015625,1.8967700249016284,2.067939076989889,-0.9826149065718054
1789324305627064800,11.03106494140625,1.9634815081715582,2.4178987620860335,-1.0744614156201482
1789324305637026800,11.04102685546875,2.0359014322161673,2.488710666412115,-1.0449290316656232
1789324305646989800,11.05098974609375,2.020750624835491,2.2379881851375103,-0.7977326786905526
1789324305656951600,11.06095166015625,2.1091081227242947,1.701623884898424,-0.3876496565431356
1789324305666914800,11.070914794921874,2.3001742999374866,1.0312965198934079,0.007156301495432853
1789324305676877800,11.0808779296875,2.5387328806877134,0.34048692335188385,0.22207097180783747
1789324305686839800,11.09083984375,2.8715584756314754,-0.2646411165118217,0.303856105569005
1789324305696802600,11.100802490234376,3.3686662857592102,-0.8084235840529203,0.2630260825306177
1789324305706764800,11.110764892578125,3.9019291128516196,-1.278008596482873,0.17528233262598514
1789324305716727800,11.120727783203124,4.309924222809076,-1.4785270771741865,0.1745908432304859
1789324305726690800,11.13069091796875,4.451524066063762,-1.3450363060951231,0.21994711152166127
1789324305736652500,11.140652587890624,4.313188193041086,-0.9056786741465329,0.3233966723412275
1789324305746615600,11.150615478515626,3.7055753506243225,-0.14632394916713237,0.45444531096518037
1789324305756577800,11.160577880859375,3.077904639562964,0.6003314532369375,0.42387656970024107
1789324305766540800,11.170540771484376,2.607140646481514,1.2459218518704176,0.3070142773389816
1789324305776503800,11.18050390625,2.2155349457889795,1.7426123133689164,0.21564795302301645
1789324305786465500,11.190465576171874,1.9409920284658668,2.0222253735631703,0.10432400556653737
1789324305796428800,11.2004287109375,1.6941186238348482,2.194964451447129,0.05638794991523027
1789324305806391800,11.210391845703125,1.4916256282001732,2.301017765024304,0.12380348980128765
1789324305816353800,11.220353759765626,1.3106412845402955,2.3242285447418687,0.21384908690750598
1789324305826316800,11.23031689453125,1.1594335819195956,2.3953327100127932,0.28787995328009125
1789324305836278800,11.24027880859375,0.9790162244927137,2.5646412289261815,0.4777145428717136
1789324305846241800,11.25024169921875,0.6868758372891693,2.8375235195606945,0.9441942827627062
1789324305856204800,11.260204833984375,0.2619119838088751,3.0172143162786957,1.633228394064307
1789324305866166800,11.270166748046876,-0.20048867007493973,3.0715368580967186,2.0360537001684307
1789324305876129500,11.280129638671875,-0.4050672398120165,3.062921589964628,1.8941766474075614
1789324305886091800,11.290091796875,-0.5649222862035036,3.2230560378193855,1.5414054120220244
1789324305896054800,11.3000546875,-0.41846097439229485,3.31059052888751,0.9626980538330971
1789324305906017800,11.310017822265625,-0.24010354516990481,3.2215625843912363,0.6040206631436944
1789324305915979500,11.3199794921875,-0.14485241530984638,2.825584659963846,0.28098259498178957
1789324305925942800,11.32994287109375,-0.23553835614621638,2.062165754285455,0.005027180512249469
1789324305935904800,11.33990478515625,-0.6048638359695673,1.1216092435032128,-0.10114216066002846
1789324305945867800,11.34986767578125,-2.7303192823827267,-0.041211715832352634,-0.8045689544513821
1789324305955830800,11.359830810546875,-8.354469077959656,-2.2040654572695493,-3.2090248821184035
1789324305965792800,11.369792724609376,-8.520340608161687,-3.8303292730182408,-3.683976390017569
1789324305975755800,11.379755859375,-4.932019764086604,-3.4864468620091675,-1.724338843923062
1789324305985717800,11.3897177734375,-2.7689719613820314,-2.005237413883209,-0.11507657798826694
1789324305995680800,11.3996806640625,-1.5823825884461402,-0.5982476327002049,0.47092692855820056
1789324306005643500,11.4096435546875,-1.1946240647010504,0.0026017069309949873,0.7645781587161123
1789324306015605800,11.419605712890625,-1.1914129937000573,0.17197335420846938,1.1584480049483477
1789324306025568800,11.42956884765625,-1.1029524738281964,0.11720774479806423,1.7006155846387148
1789324306035530800,11.43953076171875,-0.9969407343704253,-0.0878027866154909,2.2892383337728677
1789324306045493500,11.449493408203125,-0.9322242243099957,-0.47328269790410993,2.902307834160328
1789324306055456500,11.45945654296875,-0.8223598280120641,-1.0436404531598091,3.4998318287611005
1789324306065418800,11.469418701171875,-0.7053436602633446,-1.7808581651329993,4.03735552816838
1789324306075381800,11.4793818359375,-0.5016518102329224,-2.6340719080269337,4.489757935129106
1789324306085344800,11.4893447265625,-0.13290098849236964,-3.46214127279222,4.6778310680061574
1789324306095306800,11.499306640625,0.25436814430058,-4.187341799235344,4.782674421271682
1789324306105269800,11.509269775390624,0.5773861195225268,-4.794531447803974,4.800651099728047
1789324306115231700,11.519231689453125,0.9122036920011043,-5.244814378392696,4.749918399095535
1789324306125194800,11.52919482421875,1.202684767690301,-5.334138090965151,4.454541368058323
1789324306135157800,11.53915771484375,1.3502742067486047,-4.8900651209324595,3.8702518258228897
1789324306145119700,11.54911962890625,1.351174370458722,-3.750722652339935,2.8880533910974857
1789324306155082800,11.559082763671874,1.2196551917135714,-2.135368353140354,1.6440318198904393
1789324306165044700,11.569044677734375,1.0208154578894375,-0.5662041427075862,0.47979018010199065
1789324306175007700,11.5790078125,0.8280278637111187,0.7705915737867355,-0.36933658573925493
1789324306184970500,11.588970458984376,0.5878770453333855,1.8450526971459387,-0.9720791917711495
1789324306194932700,11.5989326171875,0.6107914724528789,2.4656974550932644,-1.6481515301689504
1789324306204895700,11.608895751953124,0.7327204005539417,2.6573154209703205,-2.296502917948365
1789324306214857700,11.618857666015625,0.8640962253056466,2.6493016258627176,-2.891863889296353
1789324306224820700,11.62882080078125,1.097263322275877,2.377999882417917,-3.5184482664257284
1789324306234783700,11.63878369140625,1.3273007429182528,1.8009283087372778,-4.199512421761453
1789324306244745700,11.648745849609375,1.2679286626257003,0.9440876075178384,-5.137559287810325
1789324306254708700,11.658708740234376,0.850032482509315,-0.0761520963102579,-5.588007638093829
1789324306264670700,11.668670654296875,-0.306295607675612,-1.2367857747346163,-5.3780900454163545
1789324306274633700,11.6786337890625,-1.7229910825759172,-2.420429157346487,-4.49501833987534
1789324306284596700,11.6885966796875,-2.070695682221651,-3.0543881548970937,-2.7175217601299284
1789324306294558700,11.698558837890625,-1.455023451989889,-2.7771061679989097,-1.4106591173455119
1789324306304521700,11.708521728515626,-0.6524975476734339,-1.9028075515002012,-1.0158150192536413
1789324306314483700,11.718483642578125,0.3021732670485973,-1.0229957245379686,-0.8079876768536866
1789324306324446700,11.72844677734375,1.3154353869490325,-0.4451835616230964,-0.6100017833799123
1789324306334409700,11.73840966796875,1.8239175546586512,0.012485387563705444,-0.8105689255185424
1789324306344371700,11.748371826171875,1.860015288478136,0.42485739743113515,-0.8757596289619803
1789324306354334700,11.758334716796876,1.304402097889781,0.9419891739338636,-0.8474817751131951
1789324306364296700,11.768296630859375,0.35647608125284314,1.4401204818904398,-0.6160547998085618
1789324306374259700,11.778259765625,-0.2635843740005046,1.727883530792594,-0.7913933926664293
1789324306384222500,11.788222412109375,-0.5015280377227813,1.895681645143032,-1.2432264753066002
1789324306394184700,11.798184814453125,-0.6285697057276964,2.047714619606733,-1.6151505933210253
1789324306404147700,11.808147705078126,-0.7520340267024934,2.252725735542178,-1.892561467295885
1789324306414109400,11.818109375,-0.8210936805337667,2.5516794560223817,-2.173079075114429
1789324306424072400,11.828072509765626,-0.7546815455365926,2.873241314151883,-2.443879006516933
1789324306434035500,11.838035400390625,-0.6026981093030422,3.146136464267969,-2.562260471269488
1789324306443997700,11.847997802734374,-0.3182463769059628,3.3830957931280135,-2.5907988757506013
1789324306453960700,11.857960693359376,0.07259937226474285,3.4876679282367227,-2.738481838311255
1789324306463922400,11.86792236328125,0.5676432355999946,3.373221464845538,-2.41382113738358
1789324306473885400,11.877885498046876,0.8118477132827043,3.0043571727931497,-1.9214312956884503
1789324306483848400,11.887848388671875,0.7889367932945489,2.5685411589741705,-1.568013286831975
1789324306493810700,11.897810791015624,0.893033712106943,2.0991431935489175,-1.3036875198796392
1789324306503773400,11.9077734375,0.9468962351977824,1.651843078163266,-1.1216676956921816
1789324306513735400,11.9177353515625,0.9247001854807138,1.2341741309314966,-0.9987214072421192
1789324306523698700,11.92769873046875,0.8986340163320302,0.9098159200817346,-1.025141504395008
1789324306533661700,11.93766162109375,0.8165022610902786,0.6738917794883251,-0.997026586022973
1789324306543623400,11.94762353515625,0.8128770563304424,0.41406186265051365,-0.94056907800287
1789324306553586400,11.95758642578125,0.8111597310185432,0.1325455991834402,-0.8919125991225242
1789324306563548700,11.967548583984374,0.8058417508661746,-0.1411900934100151,-0.6854395939409732
1789324306573511700,11.97751171875,0.8291724306363611,-0.37971477189064023,-0.2429191140472889
1789324306583474700,11.987474609375,0.5750140566289424,-0.6247054315149784,0.40127456953078505
1789324306593436400,11.9974365234375,0.11661452814526856,-0.8771125048756598,0.9720271693229675
1789324306603399400,12.0073994140625,-0.5076666135430336,-1.0615811835199593,1.6836334701776503
1789324306613361700,12.017361572265624,-1.3075450720906256,-1.2092460259020328,2.394277940262854
1789324306623324700,12.02732470703125,-1.857554305192083,-1.4666998612582682,2.8733544191375375
1789324306633287700,12.03728759765625,-2.3401253481842574,-1.3088643379956484,3.5882843114569782
1789324306643249400,12.04724951171875,-3.57644745092988,-0.8819459163814782,4.5722468332454556
1789324306653212700,12.057212646484375,-5.267603717827797,-0.5617758048713207,6.15261720508635
1789324306663174700,12.067174560546874,-4.870044661688804,-1.1376076076239348,7.3263207929641005
1789324306673137700,12.0771376953125,-1.7348840572044253,-2.3650895474404097,5.600524005317688
1789324306683100400,12.087100341796875,-0.9023977527797221,-2.73788416467905,3.199619632652402
1789324306693062700,12.097062744140626,-1.634792136249691,-3.0751568021595475,1.114255373609066
1789324306703025700,12.107025634765625,-2.587132462197542,-3.652779579982161,-0.5629752437889576
1789324306712987600,12.116987548828124,-3.056010203140974,-4.081663748711347,-0.509282816568017
1789324306722950400,12.126950439453125,-2.3197874935545024,-4.171971211624145,0.3223717132076621
1789324306732912600,12.13691259765625,-1.115139170706272,-3.9276182653814553,1.0468939019978045
1789324306742875600,12.146875732421876,-0.07999766582250595,-3.554474104052782,1.4426149290546775
1789324306752838700,12.156838623046875,0.5314576773665846,-2.8553847549438474,1.2813421248197554
1789324306762800400,12.16680029296875,0.6945042132757604,-1.6814420976132154,0.6714461399018764
1789324306772763400,12.176763427734375,0.8762077380556613,-0.40066403641700743,0.14331512273997069
1789324306782725600,12.1867255859375,1.2790706727564334,0.5861369236677885,-0.20487784494459627
1789324306792688600,12.196688720703126,1.4924538957178592,1.2388327703922986,-0.5664467192918062
1789324306802651600,12.206651611328125,1.596441508936882,1.692808125758171,-0.8558464294850826
1789324306812613400,12.21661328125,1.6378455324709416,1.965822518339753,-0.9981351317867636
1789324306822576600,12.22657666015625,1.6007646328330039,2.008139565065503,-1.0002128148436547
1789324306832538600,12.23653857421875,1.617450394695997,1.8254449103564023,-0.8588046947687864
1789324306842501600,12.246501708984376,1.6150772358238696,1.480173090815544,-0.591104190686345
1789324306852464400,12.25646435546875,1.5914590443491934,1.0635814174264668,-0.31776801880449057
1789324306862426600,12.266426513671876,1.6688275307118892,0.5820908631473779,-0.1735945256695151
1789324306872389600,12.2763896484375,1.828666210490465,0.1173398467451334,-0.1536401173993945
1789324306882351600,12.2863515625,2.115225728821754,-0.4121341094583273,-0.13482991072833536
1789324306892314400,12.296314453125,2.6239666935980317,-0.8958207124769687,-0.14663140768110752
1789324306902277400,12.30627734375,3.1639655509471893,-1.2928010919451713,-0.23375848699212073
1789324306912239600,12.316239501953126,3.69480027410984,-1.4854174212098121,-0.4090373124867677
1789324306922202600,12.32620263671875,4.19022232310772,-1.384707222226262,-0.5746741571500897
1789324306932164600,12.33616455078125,4.414523245924711,-1.0075444729059935,-0.8122457726895809
1789324306942127400,12.34612744140625,4.330326374846696,-0.38580607450306414,-0.9470347668856381
1789324306952090600,12.356090576171875,3.8932583151400086,0.2641547942996025,-1.0751634264096617
1789324306962052600,12.366052490234376,3.262370980119705,0.8252344336003065,-1.1732643196776509
1789324306972015600,12.376015625,2.6826293104469774,1.3157611117720602,-1.3055170733943582
1789324306981977300,12.385977294921876,2.272909276393056,1.701819699731469,-1.380164318099618
1789324306991940600,12.395940673828125,1.9252970312058924,2.0000041894048453,-1.35157915186733
1789324307001903600,12.405903564453125,1.584842841079831,2.23330674932301,-1.2312108972117304
1789324307011865600,12.415865478515625,1.3183137188643217,2.4112878195136784,-1.1465376407936214
1789324307021828600,12.42582861328125,1.096038895047456,2.5379870307564736,-1.0814669104680419
1789324307031790600,12.43579052734375,0.8638232535831629,2.6426637952834366,-1.0642845972597599
1789324307041753600,12.445753662109375,0.6147153678983449,2.6645272520452736,-0.9808984580427408
1789324307051716600,12.455716552734375,0.36778190364316105,2.626463771110773,-0.8115531142503023
1789324307061678600,12.4656787109375,0.20162848775982856,2.461507017666101,-0.6270686535149812
1789324307071641300,12.475641357421875,-0.005086071092635393,2.2513170377880334,-0.37654403290003535
1789324307081603600,12.485603515625,-0.05120002588331699,1.9948335087686775,-0.21201251913011074
1789324307091566600,12.495566650390625,-0.015318419032543896,1.7315297783404588,0.12062602880895137
1789324307101529600,12.505529541015624,0.008835048362612724,1.372323541471362,0.608920710144937
1789324307111491300,12.5154912109375,-0.03940905032455921,0.9644751465082168,1.279489190429449
1789324307121454600,12.52545458984375,-0.13551219390407204,0.4898801969617605,1.80215522018373
1789324307131416600,12.53541650390625,-0.4982869369097054,0.0173497787296772,2.0882506281346083
1789324307141379600,12.545379638671875,-1.8456190988570451,-0.42587329647541045,1.6715137010559438
1789324307151342600,12.555342529296874,-6.690631026098131,-1.2093921563744545,-0.38280280103385445
1789324307161304600,12.5653046875,-7.81515937191844,-2.206809203019738,-3.0277111603736877
1789324307171267600,12.575267578125,-4.604859939819574,-1.9923890382260083,-1.956514299507439
1789324307181229600,12.5852294921875,-2.7349890277594326,-1.260352528283,0.17976006256192922
1789324307191192600,12.595192626953125,-1.9117473754115402,-0.5077455239981412,1.1963035422205923
1789324307201154600,12.605154541015626,-1.7911247076034544,0.013633388555049895,1.2679814157262443
