time,seconds_elapsed,z,y,x
1789422464396630300,0.07163037109375,1.4978689065039157,1.5372729883924126,0.8393567747160792
1789422464406645200,0.081645263671875,1.2930471756607294,1.3830962798982858,0.8233684935979545
1789422464416659500,0.091659423828125,1.352870068460703,1.1391811405509709,0.7664331389330327
1789422464426674400,0.10167431640625,1.7116431746095417,0.7730249384135007,0.7516529184304177
1789422464436688400,0.1116884765625,2.1444781267911193,0.33577684596478935,0.6948126947030425
1789422464446703400,0.121703369140625,2.4847101985991,-0.01568447586596012,0.6796298116836696
1789422464456717300,0.13171728515625,2.6242840889841315,-0.2653314368635416,0.6656519205398858
1789422464466732300,0.141732177734375,2.5541449693530796,-0.5093363003209233,0.46243758836071935
1789422464476746200,0.151746337890625,2.660779882210493,-0.7566369904533028,0.13144494446516036
1789422464486761200,0.16176123046875,2.506761871409416,-1.0681062013745308,-0.08280570898056029
1789422464496775400,0.171775390625,1.9414052854418753,-1.21423082857728,-0.09029723377972841
1789422464506790400,0.181790283203125,1.3933341807961463,-1.1720476373642683,0.1855123059457168
1789422464516805400,0.191805419921875,0.8559130649805069,-1.1783481988131999,0.43361404679529364
1789422464526819300,0.2018193359375,0.27295886300206185,-1.152761922135949,0.6158281514458358
1789422464536834300,0.211834228515625,-0.26064123322069643,-1.0543281436517835,0.817691836201027
1789422464546848300,0.22184814453125,-0.6874024184465408,-1.052101992034912,0.822403447958082
1789422464556863200,0.23186328125,-0.9822627321332692,-1.1401032238319515,0.6204107299957424
1789422464566877400,0.24187744140625,-1.0680652848422527,-1.2064604868367315,0.3676965269146487
1789422464576892400,0.251892333984375,-1.04563425732553,-1.1795371163368225,0.18692509535308927
1789422464586906400,0.26190625,-1.0080050761550665,-1.1280401533335447,0.05938433698592707
1789422464596921000,0.271921142578125,-1.0373825618088244,-1.1335828821524978,0.016443441007100046
1789422464606935300,0.281935302734375,-1.1979928104817867,-1.1703665524095297,-0.005522782009467482
1789422464616950300,0.2919501953125,-1.460400468853116,-1.136380111655593,0.0033135632610879835
1789422464626965200,0.30196533203125,-1.7102625339061022,-1.0169643354192375,-0.015414262356143444
1789422464636979500,0.3119794921875,-1.8907570482224225,-0.7715694789081812,-0.08223106916407123
1789422464646994400,0.321994384765625,-1.9845342330724,-0.5140288420513272,-0.2801151462311856
1789422464657008400,0.33200830078125,-2.093870806103945,-0.3496601176276803,-0.33450404954999685
1789422464667023400,0.3420234375,-2.270325689640641,-0.273066707290709,-0.21534022051440552
1789422464677037300,0.352037353515625,-2.438474517124891,-0.1700683973699808,-0.08509405737975612
1789422464687052300,0.36205224609375,-2.5740526158720254,-0.05986117898374795,-0.006807707253471016
1789422464697066200,0.372066162109375,-2.696146963667869,0.011082535028457642,0.02239694258403033
1789422464707081200,0.382081298828125,-2.8543191715389487,0.09692629653066397,0.05282881439523771
1789422464717096400,0.392096435546875,-2.9753695632398127,0.1814227350771427,0.13140821091765537
1789422464727110400,0.4021103515625,-2.944818357631564,-0.009970774394273758,0.6470294915258884
1789422464737125400,0.41212548828125,-2.6507804662436247,-0.1283411332309246,1.181676028061658
1789422464747139300,0.422139404296875,-2.431564299345016,0.1804950988382101,0.609367796325311
1789422464757154300,0.432154296875,-2.2451064927101134,0.48374476294666524,0.2566336232808418
1789422464767168300,0.442168212890625,-2.098838657644391,0.5674348535463214,0.3636494800135493
1789422464777183200,0.452183349609375,-1.9433353767216204,0.660139440728724,0.38818854919280854
1789422464787197400,0.462197509765625,-1.8108137429356574,0.8160971874207258,0.3282839329261333
1789422464797212400,0.47221240234375,-1.6664514492303133,0.9458280214443803,0.14276282261945306
1789422464807227400,0.482227294921875,-1.456621534836292,0.9062512133374809,-0.04165810789298266
1789422464817241000,0.492240966796875,-1.0349795923203229,0.8470102120786904,-0.1609756479192525
1789422464827256300,0.50225634765625,-0.5639636703044176,0.9229755536451936,-0.07851513564717025
1789422464837270300,0.512270263671875,-0.2242214278399944,0.9469561486914754,0.14311753607494757
1789422464847285200,0.52228515625,0.08203998530507087,0.9530804767906665,0.33415172898098827
1789422464857299200,0.53229931640625,0.4399842394143343,0.8910703030794859,0.46480767849292604
1789422464867314200,0.542314208984375,0.8327227435290813,0.789695794968307,0.634934345388785
1789422464877328100,0.552328125,1.280641867595911,0.6947869757398962,0.6689446054097264
1789422464887343000,0.562343017578125,1.799628332054615,0.5442462856605649,0.6185362413607537
1789422464897358000,0.572358154296875,2.1809961318492888,0.32528643161058424,0.6507669244885445
1789422464907372300,0.582372314453125,2.2473820364266635,0.38183512504547834,0.5768488343080506
1789422464917387300,0.59238720703125,2.2643945460259913,0.6148992000326514,0.3081267686255276
1789422464927401200,0.602401123046875,2.447806993615627,0.748033412759006,-0.09265563347414135
1789422464937416200,0.612416259765625,2.647817524784803,0.8163225206092,-0.641015638063848
1789422464947430100,0.62243017578125,2.7241642668843267,0.8996604367703199,-1.2352993355691433
1789422464957445000,0.632445068359375,2.9751632270127533,0.8521636493191123,-1.7069431802250443
1789422464967459300,0.642459228515625,3.373227310064435,0.6162444771617651,-1.9382598270229994
1789422464977474300,0.652474365234375,4.0340801597595215,-0.006076105043292045,-2.0743945367395877
1789422464987489300,0.6624892578125,4.822342999315262,-0.48330111083239313,-2.219362687383592
1789422464997503200,0.672503173828125,5.132132002064585,-0.8948720334500074,-2.336328001727909
1789422465007518200,0.682518310546875,4.992982474571466,-1.1731883318319916,-2.320252626848221
1789422465017532200,0.6925322265625,4.8074528886973855,-1.444201029202342,-2.4851012437433004
1789422465027547100,0.702547119140625,4.584429730731249,-2.08613991959095,-2.890979507677257
1789422465037561000,0.71256103515625,4.252199763593078,-2.1370634666204453,-3.073651073771715
1789422465047576000,0.722576171875,3.6834044353485105,-1.8376935665547847,-3.095174923315644
1789422465057590300,0.73259033203125,2.5838006874263284,-1.5669602706477046,-3.2859985239446163
1789422465067605200,0.742605224609375,1.023332409146428,-1.6735162730500102,-3.712980366183817
1789422465077620200,0.7526201171875,-0.4763344866901636,-1.8367197530865669,-4.158669539241492
1789422465087634200,0.76263427734375,-1.3089444174945353,-1.5797747440353036,-4.194960749806463
1789422465097649200,0.772649169921875,-1.533739845830202,-1.4898203323438763,-3.694537531520426
1789422465107663000,0.7826630859375,-1.4735025270104407,-1.3572028369680047,-3.183839002935588
1789422465117678000,0.792677978515625,-1.63477094733119,-1.5643243691861628,-2.6647064080044625
1789422465127692300,0.8026923828125,-1.894618399825692,-1.578660353052616,-2.3142346817329527
1789422465137707300,0.812707275390625,-2.40619312672317,-2.060775468970835,-1.6168801935926078
1789422465147722200,0.82272216796875,-3.5487627406686544,-2.631784381611645,-1.1501648913800715
1789422465157736200,0.832736083984375,-4.626527581748366,-2.8722745149463416,-0.8383148644477129
1789422465167751200,0.842751220703125,-5.543974435099959,-3.1638197127357124,-0.2815302919924259
1789422465177765000,0.85276513671875,-6.426459865185618,-2.8566850238874553,0.00803396111279726
1789422465187780000,0.862780029296875,-7.259839611318707,-2.5250869249120353,-0.036274843952059745
1789422465197794300,0.872794189453125,-7.463896787530183,-2.355770807214081,-0.05746668506264686
1789422465207809300,0.882809326171875,-7.1704562775135035,-2.158150970573723,0.21819924494102597
1789422465217823200,0.8928232421875,-6.48869215721488,-2.0024188493311406,0.5477912647910416
1789422465227838200,0.902838134765625,-5.486405458706617,-1.3342834414124487,0.9879229498520493
1789422465237853200,0.912853271484375,-4.597580888727307,-1.1090069515615701,1.5141411191299556
1789422465247867100,0.9228671875,-1.4216425759136675,-0.16431699423640966,2.93917538330853
1789422465257882000,0.932882080078125,1.9219681790441274,1.4310503095977007,3.9988030946731565
1789422465267896000,0.94289599609375,0.031000118419528006,1.7414640201166272,0.49379419206771996
1789422465277911300,0.952911376953125,-2.5444039120614526,1.5593848669573664,-1.7151479678601025
1789422465287925200,0.96292529296875,-4.004287663564086,1.3655482021175325,-2.713353534534573
1789422465297940200,0.972940185546875,-4.312593149757385,1.2314029126524924,-3.242471516907215
1789422465307954200,0.9829541015625,-3.537265779620409,1.216234715745598,-2.9613033362254497
1789422465317969200,0.99296923828125,-3.4519682538241145,1.1064115282408893,-2.648271406032145
1789422465327984000,1.002984130859375,-4.369162593719363,1.2302281697846948,-1.8607628919750452
1789422465337998000,1.012998046875,-5.285288427600264,1.9019579489335416,-0.5335669976707548
1789422465348013000,1.023012939453125,-5.226321274846792,3.0787624254360795,1.2063361298047006
1789422465358027300,1.03302734375,-3.9176381386369465,4.000006917504966,3.3384505957156416
1789422465368042200,1.043042236328125,-3.955079688280821,3.019662878474593,3.2523119429200884
1789422465378056200,1.05305615234375,-4.049033398741483,0.45230654537081716,1.7744421606108545
1789422465388071400,1.063071533203125,-3.8567362184286114,-2.8263398622453213,-1.2445648843035102
1789422465398086100,1.073086181640625,-3.549512682253122,-5.8254836843043565,-2.4917887586832044
1789422465408100000,1.08310009765625,-5.426435266390443,-8.281099305844306,-0.7278177232041955
1789422465418115000,1.093114990234375,-6.902452991092205,-8.963660714000463,1.2173890003472565
1789422465428129300,1.10312939453125,-5.429958179819583,-8.797303446108103,2.043890092882514
1789422465438144300,1.113144287109375,-4.2220109615564345,-9.449431722077726,2.5359879658937454
1789422465448158200,1.123158203125,-3.949711439245939,-11.433348700034617,2.825063266438246
1789422465458173200,1.133173095703125,-3.063537091514468,-13.459402107453345,3.13557882989645
1789422465468188200,1.143188232421875,-2.401905658662319,-13.875530254983902,2.970980972892046
1789422465478202000,1.1532021484375,-3.2647686889111993,-11.940428453600406,0.23846564176976678
1789422465488217000,1.163217041015625,-5.08147090536356,-10.361686267483234,-4.6916374750405545
1789422465498231300,1.173231201171875,-3.6233529944896694,-9.31499461005926,-10.385904178416729
1789422465508246300,1.183246337890625,0.13205810792744158,-8.976603197681904,-12.087012515008448
1789422465518260200,1.19326025390625,4.10792777851969,-7.856550535970926,-10.845227324551344
1789422465528275200,1.203275146484375,7.323919577041268,-7.703654807198047,-10.570241339635848
1789422465538290200,1.213290283203125,9.33965032788813,-8.108480639469622,-12.535087121897934
1789422465548304100,1.22330419921875,10.63213636253476,-7.05423637470901,-14.693442382872103
1789422465558319000,1.233319091796875,11.1094300496459,-6.1739130910933016,-14.891038838636874
1789422465568333000,1.2433330078125,10.59446626483202,-5.8281859290003775,-13.90033619493842
1789422465578348000,1.25334814453125,9.937843600052595,-5.034985633042455,-12.03934124777317
1789422465588362200,1.2633623046875,8.120664998260139,-4.8750087138369675,-12.3623807772398
1789422465598377200,1.273377197265625,6.130099668329954,-3.957509253515303,-14.85745922511816
1789422465608392200,1.28339208984375,4.952511932495236,-1.741589400061965,-16.50515395143032
1789422465618406400,1.293406494140625,3.7640424449011682,0.7742194088950752,-16.937627669084073
1789422465628421400,1.30342138671875,1.6105395923942327,2.457594520397484,-16.188705490791797
1789422465638435000,1.31343505859375,0.3343547042071819,3.5741730762571096,-15.54142933102846
1789422465648450000,1.323449951171875,0.4241644467309117,4.481382028710842,-14.893276388430595
1789422465658464300,1.33346435546875,0.5090243117623031,5.251600093010068,-13.29023796544671
1789422465668479200,1.343479248046875,-0.16969795662239193,6.30420418934822,-11.25622453893423
1789422465678494200,1.353494140625,-1.0404304050721227,6.8463236921131605,-9.865541749429703
1789422465688508200,1.363508056640625,-2.4842034181207415,6.857009921300411,-9.1085958391577
1789422465698523400,1.3735234375,-3.9619326229155063,7.122995438158512,-8.199361518356204
1789422465708537000,1.383537109375,-4.943745857715607,8.002720171359181,-7.451095173624157
1789422465718552000,1.393552001953125,-5.514169079422951,8.742275386369228,-7.065449258118868
1789422465728566300,1.403566162109375,-5.433734191226959,8.724600613468885,-6.719551415634155
1789422465738581200,1.413581298828125,-5.177426603296399,8.023656576403974,-5.753820131585002
1789422465748595200,1.42359521484375,-4.113244297367334,7.783670593199133,-4.197428308963775
1789422465758610200,1.433610107421875,-3.5888822773501277,7.222018706968426,-2.85823371463418
1789422465768625200,1.443625244140625,-4.254510086362064,6.467358861806988,-1.787707008114457
1789422465778639000,1.45363916015625,-4.705170325830578,6.163519122850895,-0.621895634791255
1789422465788654000,1.463654052734375,-5.042240134215355,5.600765412858128,0.1582481957167387
1789422465798668000,1.47366796875,-5.55958292312026,5.350922052505612,1.7192495579600333
1789422465808683300,1.483683349609375,-5.595920310914516,5.046126620259881,2.376283726149797
1789422465818697500,1.493697509765625,-4.9578164686441415,3.944595119145512,2.071497646254301
1789422465828712400,1.50371240234375,-3.741683605837822,3.273904766047001,1.7504110044211147
1789422465838727400,1.5137275390625,-3.2880238922923803,3.073113313633203,2.0480214935988186
1789422465848741600,1.52374169921875,-3.982876334483921,2.3094991776436564,2.310565345570445
1789422465858756600,1.533756591796875,-4.857548752731084,1.702746751448512,2.8960008429706097
1789422465868770600,1.5437705078125,-6.235650293081998,2.00309046498239,3.4339375070929523
1789422465878785300,1.553785400390625,-7.158260228285193,2.1362322764933106,2.4635914227247238
1789422465888799500,1.563799560546875,-7.072045003122091,1.9867776280850171,1.3008908748984336
1789422465898814500,1.573814453125,-6.3645817934215065,1.6485767698436975,0.44103988594710825
1789422465908829400,1.583829345703125,-5.205068058937788,1.436554313841462,-0.5001794726580381
1789422465918843400,1.593843505859375,-3.9292286231875417,1.806142828515172,-0.7896347124308347
1789422465928858600,1.603858642578125,-4.483255713628232,2.2317244485676286,-1.0125444731503725
1789422465938872600,1.61387255859375,-4.757286005254089,2.1172452519506213,-1.7697858592376112
1789422465948887600,1.623887451171875,-3.871110780739784,1.4763076475590466,-2.8366350462883707
1789422465958902500,1.633902587890625,-2.7105203569352625,0.5759960534036159,-3.5211624938204884
1789422465968916500,1.64391650390625,-1.848972500938177,-0.2451794601947069,-4.415426624505222
1789422465978931500,1.653931396484375,-1.4223743973195553,-0.8784481373935937,-5.237576243832707
1789422465988945400,1.6639453125,-1.349869133079052,-1.9510972428947686,-6.072062489902973
1789422465998960400,1.67396044921875,-1.3560586353689432,-2.8872090492278337,-7.104753094503283
1789422466008974600,1.683974609375,-0.9347416870236396,-2.929709635826945,-8.316798395735026
1789422466018989600,1.693989501953125,0.0939892201654613,-2.7862527665287256,-9.73012556324601
1789422466029004500,1.704004638671875,1.0069429998815058,-2.554077749335766,-11.013749661523104
1789422466039018500,1.7140185546875,1.7509294753372668,-2.6168472169816495,-11.985829437816143
1789422466049033500,1.724033447265625,2.8767145432204004,-2.8950661924690007,-11.81777822548747
1789422466059047400,1.73404736328125,3.997567415398359,-3.4436493382900952,-11.063526376605033
1789422466069062400,1.7440625,5.017864402371645,-3.767667941921949,-10.274138916933536
1789422466079076600,1.75407666015625,5.3534238061934705,-4.357282186311483,-8.93696092312336
1789422466089091600,1.764091552734375,5.5583127570539705,-5.04594132682085,-7.780868395259976
1789422466099106600,1.7741064453125,5.827497946736216,-5.433644759377837,-6.459550818404555
1789422466109120300,1.784120361328125,5.2175569536328315,-5.693257234072685,-4.334975077435374
1789422466119135500,1.794135498046875,4.1698821303904055,-6.373983828017115,-2.1947435021728277
1789422466129149400,1.8041494140625,3.7090544249117374,-7.21891606477797,-0.35544542303085325
1789422466139164400,1.814164306640625,3.575971650111675,-8.070408390706778,0.9854612359136342
1789422466149178600,1.8241787109375,3.330283071351051,-8.945309649273753,2.2276497464746234
1789422466159193600,1.834193603515625,2.9630443346738815,-9.59612450455725,3.965913216984272
1789422466169208600,1.84420849609375,2.5053625260055066,-10.586827732777595,5.530650258624553
1789422466179222500,1.854222412109375,2.1837341785110533,-11.100417891150713,6.507520191803574
1789422466189237500,1.864237548828125,1.8811938317157326,-10.865608433800935,7.308764678007364
1789422466199251500,1.87425146484375,1.603400680425018,-10.500092867654562,7.967650027021765
1789422466209266400,1.884266357421875,1.537162952146679,-10.304876585024594,8.756170640730858
1789422466219280400,1.8942802734375,1.7442879914961755,-10.510739349353313,9.523341592419147
1789422466229295600,1.904295654296875,2.344665914223343,-10.629598368489741,10.269986473429203
1789422466239310600,1.914310546875,2.786515216857195,-10.456355432736872,10.259553926742075
1789422466249324500,1.924324462890625,3.289896115905046,-10.041399836117028,9.50755774783194
1789422466259339500,1.934339599609375,3.5387422819137573,-8.92147927635312,8.52859697985351
1789422466269353500,1.944353515625,3.3996810172259804,-7.386551682043075,7.57889913123846
1789422466279368400,1.954368408203125,2.93889539732337,-6.000661972033977,6.7399290177524085
1789422466289383400,1.964383544921875,2.2846049748837944,-4.679896183842421,5.992794891920686
1789422466299397400,1.9743974609375,1.4918179359018802,-3.3958167430132624,5.508851099270582
1789422466309412400,1.984412353515625,0.6614975773394107,-2.378067102435231,5.124743645378947
1789422466319426600,1.994426513671875,-0.20841361785531043,-1.6031541583180426,4.735285478109121
1789422466329441500,2.004441650390625,-0.9916530762910842,-0.9700599609032273,4.2597628923237325
1789422466339455500,2.01445556640625,-1.4438181673645973,-0.38415012398958204,3.69812094296515
1789422466349470500,2.024470458984375,-1.6614228074133395,0.0748936206817627,3.1666601968586443
1789422466359485400,2.0344853515625,-1.781261485236883,0.4570464333742857,2.6468665076702833
1789422466369499400,2.04449951171875,-1.7592910609692334,0.7451572728008031,2.035670546069741
1789422466379514400,2.054514404296875,-1.7627409091621635,1.128022617676854,1.6278244891941547
1789422466389528600,2.064528564453125,-1.7226555670112371,1.3983189834713936,1.3162620470315216
1789422466399543600,2.07454345703125,-1.5003747518450021,1.5558680910080671,1.0099608863979577
1789422466409557500,2.0845576171875,-1.3121394141435623,1.5718781455665827,0.731155050933361
1789422466419572500,2.094572509765625,-0.9962333898186683,1.5241998640686272,0.32957273062765596
1789422466429587500,2.10458740234375,-0.507041211653687,1.6695499997675418,-0.15737024383842943
1789422466439601400,2.114601318359375,-0.21653730307817456,1.8482558771014213,-0.5396183335989714
1789422466449616400,2.124616455078125,-0.1726870919683948,1.8660978232622145,-0.9598545009702444
1789422466459630600,2.134630615234375,-0.2925456070035696,1.8477479275792836,-1.3361936589479446
1789422466469645600,2.1446455078125,-0.4378215084224939,1.8645535164296625,-1.7584318137913941
1789422466479660500,2.15466064453125,-0.4084773770490661,2.0130834512084723,-2.1991811923593283
1789422466489674500,2.164674560546875,-0.19654080923199652,2.182238240864873,-2.63258605338335
1789422466499689500,2.174689453125,-0.010995952723547815,2.3756004200607537,-2.9779005430221557
1789422466509703400,2.184703369140625,0.24238544556200503,2.467861355128884,-3.7283494924902914
1789422466519718400,2.194718505859375,0.6876222717422992,2.4894109236359596,-4.7814533550441265
1789422466529732400,2.204732421875,0.7445201439410447,2.8561849654108284,-5.615013133919239
1789422466539747600,2.21474755859375,0.3829308113276958,3.1363819629728793,-6.279560746479034
1789422466549762600,2.224762451171875,0.24300861896164713,3.171047618162632,-6.766868462604284
1789422466559776500,2.234776611328125,0.2903822914898395,3.155744835090637,-7.068214046657085
1789422466569791500,2.24479150390625,0.4655617847958579,3.0064573599427935,-7.3354603772312394
1789422466579805400,2.254805419921875,0.9581827683657407,2.8573820662409064,-7.685464485991001
1789422466589820400,2.2648203125,1.36356155834496,2.9710271501213312,-8.231991283804177
1789422466599835400,2.27483544921875,1.6589286525100468,3.220117061758041,-8.91851516585052
1789422466609849300,2.284849365234375,1.9553619146019219,3.35490254882276,-9.549386134257912
1789422466619864600,2.294864501953125,2.240441423508525,3.3435160624116658,-9.731759301927685
1789422466629878500,2.30487841796875,2.3861416878193618,3.454721936446428,-9.805222013023496
1789422466639893500,2.3148935546875,2.2144325375050307,3.5914649873197075,-9.828370833420752
1789422466649907700,2.32490771484375,1.8731302061170338,3.591660217630863,-9.829785376393794
1789422466659922700,2.334922607421875,1.5021306556016205,3.4981004749238487,-9.823832605469226
1789422466669937400,2.3449375,0.8941308596938848,3.4606478193640706,-9.707497551852464
1789422466679951400,2.354951416015625,0.1881500705707818,3.3878999785393473,-9.418179090201853
1789422466689966300,2.36496630859375,-0.3898316036920994,3.171642076924443,-9.058162121471762
1789422466699980500,2.37498046875,-0.8841389694463461,2.970709754735231,-8.650804724895954
1789422466709995500,2.38499560546875,-0.9810679693907499,2.627218973392248,-8.25125244911313
1789422466720009500,2.395009521484375,-0.9878958426494151,1.8420131833195685,-7.823167321807146
1789422466730024700,2.405024658203125,-0.3029536037713289,1.354499715489149,-7.327609663730859
1789422466740039700,2.415039794921875,0.5337333672136068,1.4131091408461331,-6.753875125518441
1789422466750053400,2.425053466796875,0.8328485618658363,0.41748657640218734,-6.38124826606214
1789422466760068400,2.435068359375,1.5626586279310286,-0.3309171309739351,-6.0260863361477846
1789422466770082600,2.44508251953125,1.742952505108714,-1.115710248592496,-5.496343499875068
1789422466780097500,2.45509765625,1.6033645861983299,-1.8209984523415566,-4.942910575935244
1789422466790111500,2.465111572265625,1.3116272268377245,-2.332404252412915,-4.350677088958025
1789422466800126500,2.47512646484375,1.0924478848181665,-2.700168474268913,-3.6786861746549606
1789422466810141400,2.485141357421875,0.9731301621288061,-2.7576898121282456,-3.1864176212519406
1789422466820156000,2.495156005859375,0.9377654187589883,-2.431724750603735,-2.5223171679377554
1789422466830171000,2.5051708984375,1.0227490563005208,-2.2190654580026865,-1.9672516743600368
1789422466840184800,2.515184814453125,1.2315519657343625,-2.094011968140304,-1.504215060660243
1789422466850200000,2.525199951171875,1.4692385859556496,-1.9688474191188812,-1.063232457858324
1789422466860215000,2.535215087890625,1.6283331693686545,-1.9727619622141122,-0.5719616833209991
1789422466870228700,2.545228759765625,1.5373621279805898,-2.154927916873991,-0.1643821684271097
1789422466880243700,2.55524365234375,1.4896505287349224,-2.3108938468724487,0.27878245458900924
1789422466890258000,2.5652578125,1.4875946191184222,-2.452714054879546,0.6724217069357633
1789422466900273000,2.57527294921875,1.5037826605923472,-2.6625977452874183,0.9098959995806216
1789422466910286800,2.585286865234375,1.478379193136096,-2.844462378913164,1.2528314851284026
1789422466920301800,2.5953017578125,1.2675738578386604,-3.1080197918415067,1.596692853349447
1789422466930316800,2.60531689453125,1.1092658947587013,-3.4529105031102896,2.0530372759342193
1789422466940330800,2.615330810546875,0.9788367032073437,-3.810334240476787,2.3584704215615986
1789422466950345700,2.625345703125,0.8202266884408891,-4.131682455855608,2.6730513347625733
1789422466960360000,2.63535986328125,0.798141770948097,-4.588831472821534,2.90248962046802
1789422466970375000,2.645375,0.9599714053481817,-5.089323372429609,3.067603025779128
1789422466980390000,2.655389892578125,1.0855139939017593,-5.3078071334004395,3.453345387396216
1789422466990403800,2.66540380859375,1.1584575034290552,-5.435903351959586,3.7899738817542787
1789422467000418800,2.675418701171875,1.280745912492275,-5.582878458511829,4.069266039431095
1789422467010433000,2.68543310546875,1.6839292382538318,-5.4923570605874055,4.347404350897669
1789422467020448000,2.695447998046875,2.30352477940917,-5.226669649893045,4.19684261803031
1789422467030461700,2.705461669921875,1.6520675345689058,-6.127860364970564,4.3871641143560405
1789422467040476700,2.7154765625,1.5923732365846632,-6.730811645317077,4.373240218421817
1789422467050492000,2.725491943359375,1.9644868858218192,-6.302452961766719,4.479408098289371
1789422467060505900,2.735505859375,1.9825310765564441,-6.004484160670637,4.8789901846885675
1789422467070520800,2.745520751953125,1.9051422780580818,-6.1467129494786255,4.904679337218403
1789422467080535000,2.75553515625,1.4250081068240106,-6.570906914564967,5.000329330202937
1789422467090550000,2.765550048828125,0.9961638317137956,-7.0919877209544175,4.886761403211951
1789422467100563700,2.775563720703125,1.0635850706882775,-7.153332124233246,4.621342288064956
1789422467110578700,2.78557861328125,1.190548924216628,-7.090095623597502,4.443929373151064
1789422467120593700,2.79559375,1.3041050146393478,-7.3527557954251765,4.079817828583717
1789422467130607900,2.80560791015625,1.4707780704826117,-7.617045029759407,3.6804064225763082
1789422467140622800,2.815622802734375,1.6697591124735771,-7.6276476723164315,3.400187797704339
1789422467150636800,2.82563671875,1.8649374011807143,-7.557163100248575,3.0318472372651097
1789422467160652000,2.835652099609375,1.9886925217956304,-7.624393054434656,2.4707868871867653
1789422467170667000,2.8456669921875,2.061676509463787,-7.596909419703483,1.8634172058761118
1789422467180680700,2.8556806640625,2.029806037950516,-7.531951502102613,1.29957336255908
1789422467190695700,2.86569580078125,1.8002970250964163,-7.434042332014441,0.8551584472209215
1789422467200710000,2.8757099609375,1.3805943800799547,-7.34433634212613,0.37865444918274876
1789422467210724900,2.885724853515625,0.955735375213623,-7.227694999039173,0.11129472136199474
1789422467220738800,2.89573876953125,0.5649655408233404,-7.0295046690344805,0.4555488882929086
1789422467230753800,2.90575390625,0.2972666441760957,-6.719567782247066,0.923688962611556
1789422467240769000,2.91576904296875,0.14223098076507448,-6.422753411883115,1.1556091282606125
1789422467250783000,2.925782958984375,0.17469123486503957,-6.16729513425827,0.7923883950531482
1789422467260797700,2.935797607421875,0.5367107755891979,-5.93594137032032,0.09778466692566871
1789422467270812000,2.94581201171875,0.9542975974954664,-5.820619293138384,-0.9356693232625722
1789422467280827000,2.955826904296875,1.4879155216358602,-5.9113978806942695,-2.066599937340617
1789422467290841900,2.965841796875,1.841740649988502,-5.830215973523258,-3.15296017280817
1789422467300855800,2.975855712890625,2.027985982916504,-5.494033469367027,-4.104330923071504
1789422467310870800,2.985870849609375,2.1042834790468214,-4.974937114793062,-4.69552454560697
1789422467320885000,2.995885009765625,1.9700852903507649,-4.318019266459346,-4.811061142322421
1789422467330900000,3.00589990234375,1.7162579749286173,-3.588739069487154,-4.568771558350324
1789422467340913700,3.01591357421875,1.438165840691328,-2.803006625191867,-4.113086476457119
1789422467350929000,3.025928955078125,1.0784890637010336,-1.878655691540241,-3.7589755169004198
1789422467360943900,3.03594384765625,0.6813420954942703,-0.7903636112272739,-3.447448730573058
1789422467370957800,3.045957763671875,0.27433658109605313,0.19775398441404102,-3.1021102755367753
1789422467380972800,3.055972900390625,-0.19308277773261068,1.0249462740838526,-2.775747739127278
1789422467390987000,3.065987060546875,-0.6670505352914333,1.7889198910355566,-2.425177813178301
1789422467401002000,3.076001953125,-1.1443804627597332,2.4543992314875123,-2.0072955154567955
1789422467411017000,3.086016845703125,-1.5954630192935466,2.991355652400851,-1.6552134313791989
1789422467421030700,3.09603076171875,-1.9390503928788005,3.3719594820857046,-1.463453426682949
1789422467431046000,3.1060458984375,-2.222821887926757,3.7218688982993364,-1.3786129970043897
1789422467441059800,3.116059814453125,-2.3826569144435226,4.045452617645264,-1.241737844184041
1789422467451074800,3.12607470703125,-2.43506383189857,4.234432636234164,-1.0822452013641595
1789422467461088800,3.1360888671875,-2.454112815761566,4.307092214253545,-0.9162690417438745
1789422467471104000,3.14610400390625,-2.3522435098707675,4.297724081927537,-0.723536392623186
1789422467481119000,3.156118896484375,-2.221087903741002,4.198125059056282,-0.5647153654545545
1789422467491133000,3.1661328125,-2.0217893202334642,4.030339219665527,-0.45315702472031116
1789422467501147600,3.176147705078125,-1.763094544905424,3.7420588688910006,-0.39905309408903117
1789422467511161900,3.186161865234375,-1.4786992188706993,3.4018706362247464,-0.43798342098593707
1789422467521176800,3.1961767578125,-1.0616058795697987,2.999106412658095,-0.5604115307807922
1789422467531191800,3.20619189453125,-0.6443981201089918,2.6878245410025117,-0.6523451335906982
1789422467541205800,3.216205810546875,-0.21834201441258191,2.372960719206929,-0.8227490465253591
1789422467551221000,3.226220947265625,0.25943755651935935,2.1397937683671713,-1.0128162758290766
1789422467561235000,3.23623486328125,0.7223352001398802,2.0269944876611232,-1.1552718591302633
1789422467571250000,3.24625,1.2334380717419087,1.9627356582403181,-1.3774807781040668
1789422467581264000,3.256263916015625,1.7183973250448703,2.078333045232296,-1.6202718818575144
1789422467591278800,3.26627880859375,2.061334125766903,2.321855970391631,-1.744448296624422
1789422467601293800,3.2762939453125,2.3451193570792674,2.6228403199166057,-1.811771189790964
1789422467611307800,3.286307861328125,2.6694348978310822,2.9801965450048447,-1.9434119490891695
1789422467621322800,3.29632275390625,3.039965661790967,3.2741596175909042,-2.208053065600991
1789422467631337000,3.3063369140625,3.3069495420366524,3.545193065488338,-2.7253450011014935
1789422467641352000,3.31635205078125,3.448998882624507,3.8390766430974006,-3.3384950193792577
1789422467651367000,3.326366943359375,3.501297225138545,3.969159651559591,-3.969551281225681
1789422467661380900,3.336380859375,3.37444837629199,3.995835477039218,-4.582658044883608
1789422467671395800,3.346395751953125,3.221990454414487,3.9541234104692933,-5.1238136710524556
1789422467681409800,3.356409912109375,2.9958833589583636,3.9137516525924205,-5.702865020373463
1789422467691424800,3.3664248046875,2.7784897313117978,4.005907958242297,-6.322935193303227
1789422467701439700,3.376439697265625,2.6042151144236323,4.1588861046016214,-6.912855727162957
1789422467711454000,3.386453857421875,2.416641455501318,4.273258333712816,-7.421601368114352
1789422467721469000,3.396468994140625,2.212415936985612,4.417943283501267,-7.721251838687062
1789422467731482600,3.406482666015625,1.983202692207694,4.6248704621911045,-7.885885936048626
1789422467741497900,3.416497802734375,1.7843905770428479,4.8211166723906995,-8.14836022991538
1789422467751511800,3.42651171875,1.5752729025714098,4.876830960828066,-8.512027537846565
1789422467761526800,3.43652685546875,1.3501971959896384,4.7781718491554255,-8.796257151925563
1789422467771541800,3.446541748046875,1.1033920342892407,4.528941652265191,-9.05751330217421
1789422467781556000,3.456555908203125,0.8661215936534106,4.061131248292327,-9.265198021233081
1789422467791571000,3.466571044921875,0.648405602184683,3.5229058303564784,-9.391374085384607
1789422467801585000,3.4765849609375,0.43612814850807186,2.995484715029597,-9.367226901599764
1789422467811600000,3.486599853515625,0.33755379250943657,2.523030284643173,-9.273212985384463
1789422467821615000,3.496614990234375,0.34960239609107374,2.257182714951038,-8.793702206745744
1789422467831629000,3.506629150390625,0.5467727353982627,2.1762147427916525,-7.992236771267652
1789422467841644000,3.51664404296875,0.8494096744358539,2.027409498202801,-7.215194413906335
1789422467851658000,3.526657958984375,1.08706063882187,1.7792834631621837,-6.50521600651443
1789422467861673000,3.5366728515625,1.333254829017073,1.4682920988857746,-5.969848900619149
1789422467871688000,3.54668798828125,1.5472143905617295,0.9948317063271999,-5.52963026792705
1789422467881702000,3.556701904296875,1.749905392986536,0.45115094559490676,-5.147501420632004
1789422467891716900,3.566716796875,1.8506699525058268,-0.13668167607486248,-4.8125797301918265
1789422467901731000,3.57673095703125,1.8393202909737825,-0.7236293316036463,-4.471228883486986
1789422467911746000,3.58674609375,1.7783656176649032,-1.2667331692308186,-4.08404625993371
1789422467921761000,3.596760986328125,1.632203142669797,-1.634383117057383,-3.6936844218224283
1789422467931775000,3.60677490234375,1.3383371007174252,-1.9686255930617451,-3.203416686847806
1789422467941790000,3.6167900390625,1.118697009318322,-2.399671615999937,-2.7110598706394433
1789422467951804000,3.626803955078125,0.9649174834482371,-2.78004309823364,-2.149294587162137
1789422467961819000,3.63681884765625,0.8268627654545009,-2.968139904247224,-1.5077560942679642
1789422467971833000,3.6468330078125,0.7804751082889735,-3.12298092186898,-0.924237244144082
1789422467981848000,3.65684814453125,0.8278164129175245,-3.4068320580244063,-0.45252866368889805
1789422467991863000,3.666863037109375,0.9331102864295243,-3.638734688016772,-0.1469721839427948
1789422468001877000,3.676876953125,1.019399161350727,-3.8485824303284284,0.133821610468626
1789422468011892000,3.68689208984375,1.0762992985717952,-4.1394764707326885,0.42746144244968887
1789422468021906000,3.696906005859375,1.0938483992658554,-4.462415462434292,0.7628337992668152
1789422468031921000,3.7069208984375,1.0991437291949986,-4.8720729526460165,1.116291847872734
1789422468041936000,3.716935791015625,1.116286002653837,-5.39147150503695,1.3973095141679048
1789422468051950000,3.7269501953125,1.090378385067731,-5.76102202578783,1.6544330946564674
1789422468061965000,3.736965087890625,1.0512877530425786,-6.002514906424284,1.9488526788383722
1789422468071979000,3.74697900390625,0.9352320278238505,-6.264736102312803,2.2570722403138874
1789422468081994000,3.756993896484375,0.7490842369861901,-6.462731202006339,2.6621529241293667
1789422468092009000,3.767009033203125,0.6044220835514367,-6.54251551733911,3.1183062080562114
1789422468102023000,3.77702294921875,0.4758505025655031,-6.619111850285529,3.5158600034981964
1789422468112038000,3.787037841796875,0.3612134850382805,-6.683098292505741,3.878285786935687
1789422468122051800,3.7970517578125,0.3306323957484215,-6.668961046081781,4.273392773747444
1789422468132067000,3.807067138671875,0.3569095772992819,-6.640989335572719,4.594301136404276
1789422468142082000,3.81708203125,0.498441031492874,-6.641942106252908,4.723654077026247
1789422468152096000,3.827095947265625,0.7486316709131002,-6.64262891947329,4.915957102558017
1789422468162111000,3.837111083984375,0.9316174175232649,-6.466635223707557,5.141550987794995
1789422468172125000,3.847125,1.021723220384121,-6.3022705909371375,5.322517795798182
1789422468182140000,3.857139892578125,1.0857156539537012,-6.23059300969243,5.347471035268902
1789422468192155000,3.86715478515625,1.0917034961916505,-6.290802271461486,5.169678181126714
1789422468202168800,3.8771689453125,1.024899950724095,-6.504014814031124,4.8451755933701985
1789422468212184000,3.88718408203125,0.9035007455855607,-6.874265007483959,4.507184578487276
1789422468222198000,3.897197998046875,0.7931114486306905,-7.294316465938091,4.299271311369538
1789422468232213000,3.907212890625,0.6905681159358471,-7.775333557486534,4.11569636669457
1789422468242228000,3.91722802734375,0.7731674156241118,-8.237902553674578,3.7836990392684933
1789422468252242200,3.9272421875,0.9136223266273736,-8.564902803465724,3.5812200721591707
1789422468262257200,3.937257080078125,1.0303460873007775,-8.898610441941022,3.307794760689139
1789422468272270800,3.947270751953125,1.0543208371281623,-9.20117650769949,2.7828771526157854
1789422468282285800,3.957285888671875,1.0714917521595955,-9.405183415028452,2.458790159922838
1789422468292301000,3.967301025390625,1.179176466330886,-9.596863924747705,2.229264195933938
1789422468302315000,3.97731494140625,1.1954232522547243,-9.589296704363822,1.6831296123087405
1789422468312330000,3.987330078125,1.107982869210839,-9.258284880843759,1.237253976768255
1789422468322344200,3.99734423828125,1.1372504647493362,-8.797431456401943,0.910531374874711
1789422468332359200,4.007359130859375,1.232650720756501,-8.156781436780095,0.7753402296185493
1789422468342374100,4.0173740234375,1.3950789786368607,-7.497730083549023,0.564953265863657
1789422468352387800,4.027387939453125,1.59237966632545,-6.949470762854814,0.07177928805351257
1789422468362402800,4.03740283203125,1.8728509507842361,-6.676212624645233,-0.785641258880496
1789422468372417000,4.0474169921875,2.0842541058443484,-6.517821221065521,-1.6862380997180937
1789422468382432000,4.057431884765625,2.092885886719823,-6.314506387653947,-2.5221605160713194
1789422468392447000,4.067447021484375,2.0586557003378867,-6.035008478271961,-3.291393660986423
1789422468402461000,4.0774609375,1.982378516343236,-5.7592795660346745,-3.869042157772183
1789422468412476200,4.08747607421875,1.8030654668964445,-5.384892711168527,-4.335003134486079
1789422468422489900,4.09748974609375,1.5938563147492706,-4.802037001128494,-4.6457291258245705
1789422468432504800,4.1075048828125,1.3223439972937105,-4.006527551445365,-4.608911845558882
1789422468442519800,4.117519775390625,1.0198422289431095,-3.0270830916032194,-4.399682819667459
1789422468452534000,4.127533935546875,0.6746177556753158,-1.9434964125022292,-4.104989094719291
1789422468462549000,4.137549072265625,0.22715397416055202,-0.8768366105437279,-3.728956810733676
1789422468472563000,4.14756298828125,-0.19371289232969283,0.07533055079430341,-3.391240521138906
1789422468482578000,4.157577880859375,-0.5722767406195401,0.8037737124204635,-3.223306213188171
1789422468492593200,4.16759326171875,-0.9186433696597814,1.4165975674837827,-3.119966834744811
1789422468502606800,4.17760693359375,-1.218336656460911,1.9679273816645144,-2.9490041188836096
1789422468512621800,4.187621826171875,-1.4993570992350578,2.4260715471476315,-2.7375772906869646
1789422468522636000,4.197635986328125,-1.7434835432454943,2.754641238212585,-2.404863923946023
1789422468532651000,4.207651123046875,-1.896808018824458,3.0096371590226885,-2.145467137828469
1789422468542665000,4.2176650390625,-1.9349089091598985,3.282923354282975,-1.9931366417229175
1789422468552680000,4.227679931640625,-1.9208710314571857,3.5020880832552908,-1.7030197231709956
1789422468562695000,4.23769482421875,-1.7833537813410163,3.5411066729575396,-1.4671972893863916
1789422468572709000,4.247709228515625,-1.6179162586420774,3.537662085461616,-1.340840607970953
1789422468582724000,4.25772412109375,-1.466728502830863,3.5052988619953394,-1.2504530655592678
1789422468592737800,4.26773779296875,-1.2085815706439316,3.4349078134298323,-1.1021563550144433
1789422468602753000,4.2777529296875,-0.8876467583715916,3.3576252517849206,-0.8869710510671138
1789422468612768000,4.28776806640625,-0.5724820539332925,3.298485080552101,-0.6630149961650371
1789422468622782000,4.297781982421875,-0.284442233916372,3.2285908755928276,-0.47019174615144727
1789422468632797000,4.307796875,0.08845102139115334,3.152841514864564,-0.46583179737627506
1789422468642811100,4.31781103515625,0.5079178118251264,3.034278848326206,-0.7092027468442916
1789422468652826000,4.327826171875,0.9380949429742992,2.913571570974588,-0.8637970962285995
1789422468662841000,4.337841064453125,1.3602395743153988,2.9196067594856023,-1.035925348737836
1789422468672854800,4.347854736328125,1.6853344288766383,3.074874478086829,-1.1671645414978264
1789422468682870000,4.3578701171875,1.9392239958800375,3.2514714004427194,-1.2250415609270333
1789422468692884000,4.367884033203125,2.13315652230978,3.394780970224738,-1.3183493746995925
1789422468702899000,4.37789892578125,2.2751310440957546,3.5313112551301717,-1.5214894360661506
1789422468712914000,4.387913818359375,2.410076105636358,3.5305227351009845,-1.959967947092652
1789422468722928000,4.39792822265625,2.5302251645833254,3.452393201237917,-2.6253368129074572
1789422468732943000,4.407943115234375,2.602729259780049,3.390719127613306,-3.227069949635863
1789422468742956800,4.417956787109375,2.6597610605567694,3.3987580571621656,-3.774526137253642
1789422468752971800,4.4279716796875,2.707887670344114,3.44207405179739,-4.313649380812048
1789422468762987000,4.437987060546875,2.757687181779742,3.4963439866453405,-4.727704813721775
1789422468773001000,4.4480009765625,2.7923808940201997,3.576587151661515,-5.095825009408593
1789422468783016000,4.458015869140625,2.865081973093748,3.6820167803823947,-5.562900084844231
1789422468793030100,4.468030029296875,2.996864771211147,3.8169022206902503,-6.103862818789482
1789422468803045000,4.478045166015625,3.179012897953391,3.9521120706468817,-6.649668316590786
1789422468813060000,4.48806005859375,3.383167104798555,4.080519254851341,-7.223238604152202
1789422468823073500,4.498073486328125,3.512359886422753,4.252279843091965,-7.725874822312593
1789422468833088500,4.508088623046875,3.528606087824702,4.533573988240957,-7.9238424494773145
1789422468843102700,4.518102783203125,3.3716035082548856,4.7414691351801155,-8.038142782396077
1789422468853117700,4.52811767578125,3.127113783890009,4.702645775789022,-8.281320839640498
1789422468863131600,4.538131591796875,2.811528662082553,4.57109152573049,-8.507583417919278
1789422468873146600,4.548146728515625,2.362610590106249,4.335235189676284,-8.551046127548814
1789422468883161600,4.55816162109375,1.8213100025087594,4.028457643702626,-8.506566349831223
1789422468893175600,4.568175537109375,1.3603602780856192,3.6974908283680676,-8.400058278223872
1789422468903190500,4.5781904296875,1.0326309833675622,3.411528106886148,-8.106234906369448
1789422468913205500,4.58820556640625,0.7073609183698892,3.2068542600810526,-7.635859035822748
1789422468923219700,4.5982197265625,0.5592278739541768,3.013965543615818,-7.05819066529274
1789422468933234700,4.608234619140625,0.49986967605650423,2.8239053285747766,-6.486007448175549
1789422468943248400,4.618248291015625,0.5516004478156566,2.590528534376621,-6.0407549129694695
1789422468953263600,4.628263671875,0.6572017798416316,2.2214146514773367,-5.895607021844387
1789422468963277600,4.638277587890625,0.6505353076897561,1.6408710177719592,-5.866828671127557
1789422468973292500,4.64829248046875,0.5583950763918459,0.9283324045032262,-5.776248821014166
1789422468983307500,4.6583076171875,0.4762574759311974,0.2372457445859909,-5.523614953160286
1789422468993321700,4.66832177734375,0.3817689279414713,-0.4405138162463903,-5.162866163024306
1789422469003336700,4.678336669921875,0.37958325446546076,-1.037394836768508,-4.7027433909446
1789422469013350700,4.6883505859375,0.38687750312685965,-1.543219621837139,-4.191277385118603
1789422469023365400,4.698365478515625,0.5226898490212858,-1.9947458304852246,-3.6452410011708736
1789422469033380600,4.708380615234375,0.7290441962592303,-2.300967788402736,-3.057958414599299
1789422469043394600,4.71839453125,0.9130401428252458,-2.439334056563675,-2.5472160468727347
1789422469053409500,4.728409423828125,1.1578605604492127,-2.4432810406237837,-2.0480723470032216
1789422469063423700,4.738423828125,1.3345388774782418,-2.3286600974485276,-1.6338386349171399
1789422469073438700,4.748438720703125,1.405516786020994,-2.2474787747994065,-1.335635440543294
1789422469083453700,4.75845361328125,1.3967360981941221,-2.2592668277487156,-1.0588064581096173
1789422469093467600,4.768467529296875,1.2653063512980938,-2.2866367729723454,-0.7402192318767309
1789422469103482600,4.778482666015625,1.159092440331727,-2.4081261406123637,-0.45846799061000343
1789422469113496600,4.78849658203125,1.040526120531559,-2.6345143910974262,-0.22716683364212512
1789422469123511600,4.798511474609375,0.9838912101179361,-2.9305951864898203,0.0045019875943660735
1789422469133526500,4.808526611328125,0.9777147134400903,-3.2702327995359894,0.31489421693384645
1789422469143540700,4.818540771484375,0.9363660733550786,-3.727355805277824,0.6564174975961447
1789422469153555700,4.8285556640625,0.8900755929537117,-4.227438831824064,0.9690513683825731
1789422469163569700,4.838569580078125,0.8603975169181823,-4.734576453056931,1.2682552642315625
1789422469173584600,4.848584716796875,0.8073755363047123,-5.231209046888351,1.6546575510621069
1789422469183598600,4.8585986328125,0.8212953405857085,-5.61736115835011,2.129917101997137
1789422469193613600,4.868613525390625,0.774654585441947,-5.918545998883247,2.6810066776812076
1789422469203628500,4.878628662109375,0.732985627361387,-6.120593004316091,3.241947200772166
1789422469213642500,4.888642578125,0.7050894663065671,-6.291212605828046,3.716072779241204
1789422469223657700,4.89865771484375,0.7100970653355121,-6.398017614555359,4.1413866882681845
1789422469233671700,4.908671630859375,0.6870997822381556,-6.380307185819745,4.5653100197196
1789422469243686700,4.918686767578125,0.6515197886824607,-6.379630893993378,4.842781391710043
1789422469253701600,4.92870166015625,0.5935603516668081,-6.454670060625672,5.035715700882673
1789422469263715600,4.938715576171875,0.5215891943030059,-6.5027089921295635,5.204991486570239
1789422469273730600,4.94873046875,0.5152285732299089,-6.487179414564371,5.242943323823809
1789422469283744500,4.95874462890625,0.435896677839756,-6.559521012675762,5.197308530852198
1789422469293759500,4.968759521484375,0.3176933461330831,-6.7462973837405436,5.050221780619025
1789422469303774700,4.978774658203125,0.2015389097802341,-7.027838781648874,4.796356909665465
1789422469313788700,4.98878857421875,0.18786285112723708,-7.396987735861539,4.611743269592523
1789422469323803600,4.9988037109375,0.30366219043210146,-7.665490788498521,4.544472983396053
1789422469333817600,5.008817626953125,0.4885908878035843,-7.765964840638637,4.467504310005903
1789422469343832600,5.01883251953125,0.668948623997718,-7.844186728960275,4.288043814912438
1789422469353847600,5.02884765625,0.8408404374025762,-7.9432099977701895,3.8677299061298367
1789422469363861500,5.038861572265625,0.923037074574083,-8.139100818660856,3.270888633096218
1789422469373876500,5.04887646484375,1.0278472562223673,-8.450888886272907,2.5212112525224684
1789422469383890700,5.058890625,1.1311515633523463,-8.625534090039134,2.041159791135788
1789422469393905700,5.06890576171875,1.3188058862954377,-8.587087162744998,1.8693343209654092
1789422469403920600,5.078920654296875,1.5533875262387096,-8.497873340287804,1.5053390962541102
1789422469413934600,5.0889345703125,1.677310843027383,-8.389479016542435,0.9589210195124149
1789422469423949800,5.09894970703125,1.73316395541355,-8.219259812524914,0.47251989683806894
1789422469433963500,5.108963623046875,1.6591022555112838,-7.966193398472666,0.13835633128881453
1789422469443978500,5.118978515625,1.7126679876126347,-7.7131059416323895,-0.21052198831140995
1789422469453993500,5.128993408203125,1.830551878106594,-7.5349588672250505,-0.5345230562865734
1789422469464007700,5.139007568359375,1.8960569081962106,-7.3362103188157075,-0.8673620952337979
1789422469474022700,5.149022705078125,1.8968835682787,-7.000388464665413,-1.2725310418546198
1789422469484036600,5.15903662109375,1.8493425032943487,-6.563804389083385,-1.731421057268977
1789422469494051600,5.169051513671875,1.7248485470108688,-6.1101961134642355,-2.303662142053246
1789422469504065500,5.1790654296875,1.5588151042453944,-5.637262959650158,-2.9265158082216978
1789422469514080500,5.18908056640625,1.3896720050267874,-5.081806420928239,-3.5031273631751536
1789422469524095500,5.199095458984375,1.1487912649393082,-4.357690474851429,-3.9664527306884523
1789422469534109700,5.209109619140625,0.904068170209974,-3.5158798772424458,-4.226968291702867
1789422469544124700,5.219124755859375,0.5537690240263938,-2.6181445633158087,-4.261074559444189
1789422469554138600,5.229138671875,0.09333294821381569,-1.610600674931705,-4.08178825187385
1789422469564153600,5.239153564453125,-0.3795815008997917,-0.7229848962202667,-3.7442970032066105
1789422469574168600,5.24916845703125,-0.8664404503442347,0.15039602091163395,-3.26200740750432
1789422469584182500,5.2591826171875,-1.3165402794510126,0.8964192628920078,-2.7811294321656224
1789422469594197500,5.269197509765625,-1.7262836943805218,1.4737541636839508,-2.32691266925931
1789422469604211500,5.27921142578125,-2.1808251591965555,1.9445286781594155,-1.8562369389832019
1789422469614226700,5.289226806640625,-2.5534622477859257,2.2995102830708025,-1.39405431176424
1789422469624241700,5.29924169921875,-2.813618620099127,2.4864473976552484,-1.014428971722722
1789422469634255600,5.309255615234375,-2.9488869222447276,2.5393501358032227,-0.7439391291826963
1789422469644270600,5.3192705078125,-3.0582895462498065,2.553297412613034,-0.5695487769603729
1789422469654284800,5.329284912109375,-3.1478467753171917,2.4896008932501075,-0.46378304815292354
1789422469664299500,5.339299560546875,-3.0812276465058326,2.5443220789968968,-0.4734837734341621
1789422469674314500,5.349314453125,-2.931116287754476,2.6677187415629624,-0.4010439756453037
1789422469684328400,5.359328369140625,-2.7802845057740804,2.6970886284321547,-0.2749117506355047
1789422469694343700,5.36934375,-2.5945333861038087,2.6356016018122435,-0.16572306164205072
1789422469704357600,5.379357666015625,-2.3492525113612412,2.588197461080551,-0.036278351083397865
1789422469714372600,5.38937255859375,-2.058586726754904,2.4360797309428452,0.0035018706411123275
1789422469724386800,5.39938671875,-1.6544871629312634,2.2002713256835937,-0.04712707735598087
1789422469734401800,5.40940185546875,-1.2259221431538463,1.997389622992277,-0.1723778433561325
1789422469744416800,5.419416748046875,-0.8176455859065055,1.89516317422688,-0.25663667375445365
1789422469754430500,5.429430419921875,-0.3840343886554241,1.8567951573878525,-0.2833528312444687
1789422469764445400,5.439445556640625,0.03170724377557635,1.8469231671929358,-0.32267069615423677
1789422469774459600,5.449459716796875,0.45685178758502004,1.9164497078835963,-0.4031903400242328
1789422469784474600,5.459474609375,0.9004384354054927,2.0195973631471396,-0.5352653990864753
1789422469794489600,5.469489501953125,1.384507900261879,2.1452841824769973,-0.8016729407489299
1789422469804503600,5.479503662109375,1.8752208947859703,2.2540753965854643,-1.1101976226508616
1789422469814518800,5.489518798828125,2.295772265586257,2.434825346967578,-1.4389584523737429
1789422469824532000,5.499531982421875,2.6458564538449045,2.6262784776717423,-1.804509089833498
1789422469834547000,5.509546875,2.8993969151496883,2.762355173590779,-2.28054839296937
1789422469844562200,5.519562255859375,3.04355930236876,2.8377620044916867,-2.8154046267330646
1789422469854576000,5.529576171875,3.074122782936692,2.8366099118471144,-3.3922990902811287
1789422469864591000,5.539591064453125,3.03220087300837,2.8604011218011376,-3.9907781936496494
1789422469874605000,5.54960498046875,2.9976731649845836,2.905375405037403,-4.5506718380361795
1789422469884620000,5.5596201171875,2.977558013194799,3.0330735641896722,-5.067172915419936
1789422469894635000,5.569635009765625,2.991622778904438,3.2035628173202273,-5.534378339236975
1789422469904649000,5.57964892578125,3.0248072556257246,3.3156197552263733,-6.052794310331344
1789422469914664000,5.589663818359375,3.068163582271337,3.386362101447582,-6.6426610681772225
1789422469924678100,5.59967822265625,3.1359429870337245,3.4322330412626263,-7.237484571647643
1789422469934693000,5.609693115234375,3.2025428266227243,3.5074411347210406,-7.707160769492387
1789422469944708000,5.6197080078125,3.19341259470582,3.4982302387833593,-8.2144544580698
1789422469954722000,5.62972216796875,3.1022850475817916,3.32524975335896,-8.733346229982375
1789422469964737300,5.6397373046875,2.9387708941608666,3.1810762602239846,-9.053740797898174
1789422469974751000,5.6497509765625,2.602963068535924,3.0454964079111813,-9.176476366207003
1789422469984766000,5.659765869140625,2.1429532553113995,2.947293223312497,-9.184775992518663
1789422469994780200,5.6697802734375,1.7107849503450094,2.900752421411872,-9.165335378989576
1789422470004795100,5.679795166015625,1.337578391304612,2.9504706843048334,-9.044474372380972
1789422470014810000,5.68981005859375,0.9694413906134665,3.1328812613755463,-8.829256919729708
1789422470024824000,5.699823974609375,0.6432477810300886,3.401478422036767,-8.415326574504375
1789422470034839000,5.709839111328125,0.4326676327906549,3.7042847262918945,-7.877804920923709
1789422470044853000,5.71985302734375,0.27470994445309044,3.8761248095095153,-7.311168816539645
1789422470054868000,5.729867919921875,0.18853636647462843,3.8148178156316277,-6.74359981521964
1789422470064883000,5.739883056640625,0.19666531239449977,3.559033959314227,-6.345169236943125
1789422470074897200,5.749897216796875,0.22711700315102934,3.1203982118993996,-6.034882806065678
1789422470084912000,5.759912109375,0.20767726640477777,2.536152801066637,-5.7104246419727795
1789422470094926000,5.769926025390625,0.2324444817841053,1.8578338527858256,-5.387536503675579
1789422470104941000,5.779941162109375,0.2938305322475731,1.1140852777391672,-5.0659670467615125
1789422470114956000,5.7899560546875,0.36062472536489365,0.3764683373153209,-4.657893026348948
1789422470124970000,5.799969970703125,0.4886285894654691,-0.20691490373015403,-4.1935932608455415
1789422470134985000,5.80998486328125,0.6176996444061398,-0.6910235315531492,-3.6590263654172417
1789422470144999000,5.8199990234375,0.8426409109532833,-1.1447674162507055,-3.0430384933650494
1789422470155014100,5.83001416015625,1.017254258276522,-1.4792752651929855,-2.4097435126811266
1789422470165029000,5.840029052734375,1.0908794664576649,-1.7120467869743703,-1.7334668838828802
1789422470175043000,5.85004296875,1.1065845467202364,-1.8761241272360085,-1.057706387913227
1789422470185058000,5.86005810546875,1.0373895760715006,-2.041090233030915,-0.4449970991402864
1789422470195072300,5.870072265625,0.9241191707223654,-2.264611403647065,0.07296469844579696
1789422470205087000,5.8800869140625,0.7881079412549734,-2.472563249209523,0.5631038386046886
1789422470215102000,5.89010205078125,0.6522409425638616,-2.707302271671593,0.9891571678221225
1789422470225116000,5.900115966796875,0.49064592063724993,-3.056908613285422,1.3431886324018238
1789422470235131100,5.910131103515625,0.3451560842067003,-3.414426458676159,1.7180904510527848
1789422470245145000,5.92014501953125,0.17384879269152878,-3.7467496570557355,2.095263137245178
1789422470255160000,5.93016015625,0.032949791182577605,-4.07553299087137,2.4636855307489633
1789422470265175000,5.940175048828125,-0.17627894244790077,-4.30653253454417,2.7603666301220655
1789422470275189200,5.950189208984375,-0.4212386224120855,-4.502370748464763,3.0499761836737393
1789422470285204200,5.960204345703125,-0.6351487918570637,-4.6447512207031245,3.3694016142964363
1789422470295218000,5.970218017578125,-0.8575953189790249,-4.756903143416345,3.664341422960162
1789422470305233000,5.98023291015625,-1.0710250114306807,-4.854681672862172,3.9549750588625665
1789422470315247000,5.9902470703125,-1.2145692667514085,-4.916090958070755,4.222122605237365
1789422470325262000,6.000261962890625,-1.255044485002756,-4.91227695274055,4.444699188479781
1789422470335277000,6.010277099609375,-1.2262474295854568,-4.8849274657830595,4.604184232515096
1789422470345291300,6.020291259765625,-1.0782114158034324,-4.786707037788629,4.718998944696784
1789422470355306200,6.03030615234375,-0.8748083195865154,-4.635780563262105,4.7948926823318
1789422470365321200,6.0403212890625,-0.6556810000151395,-4.547881038273871,4.822193361711502
1789422470375335000,6.0503349609375,-0.41833997836112974,-4.508575740584731,4.763291090887785
1789422470385350000,6.060349853515625,-0.20141893666237592,-4.551421487359702,4.595085564780235
1789422470395364000,6.070364013671875,-0.02962883006632328,-4.643112805846333,4.403495655953884
1789422470405379000,6.080379150390625,0.1182633913308382,-4.775764203491807,4.1182244238674635
1789422470415393000,6.09039306640625,0.16665537405610084,-5.040950094404816,3.7030391101449727
1789422470425408000,6.100407958984375,0.1529968510597944,-5.426518268498778,3.2382851711332794
1789422470435423200,6.11042333984375,0.08134966495335101,-5.885358015030622,2.7853707229971882
1789422470445437000,6.12043701171875,-0.0065511752091348165,-6.34262364411354,2.625673497515917
1789422470455452000,6.130451904296875,0.05511690706610679,-6.788991447085142,2.4728601863294837
1789422470465466000,6.140466064453125,0.3515951773434877,-7.252070730882883,2.268669739127159
1789422470475481000,6.150481201171875,0.6716558371298015,-7.662085363969206,1.9729425794780253
1789422470485496000,6.16049609375,0.9339372387729584,-7.8957672785937785,1.5818284616947174
1789422470495510000,6.170510009765625,1.101397207210213,-8.009065740993618,1.3070453058749436
1789422470505525000,6.18052490234375,1.3148153553545474,-8.102553002986312,0.9153554340302944
1789422470515539200,6.190539306640625,1.3362829446665943,-8.152509166288375,0.4954395846545696
1789422470525554200,6.20055419921875,1.156596385732293,-8.16991915077269,0.25236264969706534
1789422470535569000,6.21056884765625,1.1254250023990868,-8.050086902689934,0.31616204491257666
1789422470545583000,6.2205830078125,1.1339454318545759,-7.603620315518975,0.7340349902838468
1789422470555598000,6.23059814453125,1.1122621539652346,-7.112279982876777,0.9487018233150243
1789422470565612000,6.240612060546875,1.1400479865133761,-6.868529094180464,0.5811456912517547
1789422470575627000,6.250626953125,1.1669826090596616,-6.7132672207981345,-0.1110258412927389
1789422470585642000,6.26064208984375,1.1366221037179232,-6.464637912410497,-0.8877098867356776
1789422470595656200,6.27065625,1.0522732569485902,-6.228245569783449,-1.6381138280183076
1789422470605671200,6.280671142578125,0.9817704185716807,-5.883077795138955,-2.1768226455569266
1789422470615684900,6.290684814453125,0.9896218627244233,-5.453378218373656,-2.6223276942193507
1789422470625700000,6.3007001953125,0.9802866097547114,-4.905234633013606,-2.9449884535014625
1789422470635715000,6.310715087890625,0.8682523220717906,-4.187750672297179,-3.0191210266828534
1789422470645729000,6.32072900390625,0.8306393613837659,-3.331149917313456,-2.7728455879449845
1789422470655744000,6.330743896484375,0.8264746429197489,-2.379009059460461,-2.3596324510782956
1789422470665758200,6.34075830078125,0.7937770729325712,-1.457028069810569,-1.9197189388126135
1789422470675773200,6.350773193359375,0.7269115681447088,-0.651302931061387,-1.5614286477446555
1789422470685788200,6.3607880859375,0.6076631112992763,0.08344751401543617,-1.3282155196756125
1789422470695801900,6.3708017578125,0.4128263295061886,0.6848012960374354,-1.2244897722631691
1789422470705817000,6.380817138671875,0.06777063693404198,1.1291448997050524,-1.1328858397990464
1789422470715831000,6.3908310546875,-0.30648879216015334,1.4468068277865647,-1.037407696250081
1789422470725846000,6.400845947265625,-0.7476080269537866,1.7797049034446477,-0.9578045827031135
1789422470735860200,6.410860107421875,-1.1690480171568691,2.138330125555396,-0.872595319712162
1789422470745875200,6.420875244140625,-1.4545441440403462,2.4837100816458464,-0.708127811089158
1789422470755890200,6.43089013671875,-1.6182766163870692,2.8047289189398286,-0.5072422506511212
1789422470765904000,6.44090380859375,-1.6647960832387207,3.033027386960387,-0.3281079187721014
1789422470775918800,6.4509189453125,-1.6184709699153899,3.2198645483016968,-0.2325087791919708
1789422470785933000,6.46093310546875,-1.5463510517306625,3.3527140988677737,-0.22030805378854273
1789422470795948000,6.470947998046875,-1.4893245116509497,3.4238749627619978,-0.2286053420126438
1789422470805963000,6.480962890625,-1.4472139472827314,3.4636446630924937,-0.27168226719498634
1789422470815977200,6.490977294921875,-1.4702876566171645,3.452301431301236,-0.24133038355112074
1789422470825992700,6.50099267578125,-1.5045976302370427,3.4127579409420488,-0.20789690050482748
1789422470836007000,6.5110068359375,-1.5099756700135767,3.3534605333209035,-0.18395254581570625
1789422470846022000,6.52102197265625,-1.4717811100453138,3.2722184203952547,-0.14839432570040226
1789422470856036900,6.531036865234375,-1.371299020729214,3.2111458197951315,-0.23901976852118967
1789422470866051000,6.541051025390625,-1.2019530924148858,3.1812463560938835,-0.41175533927381036
1789422470876066000,6.551066162109375,-1.0179086305320262,3.1363743641883133,-0.6294201850771903
1789422470886080000,6.561080078125,-0.7801464608564972,3.172646870052814,-0.8769675434470177
1789422470896095000,6.571094970703125,-0.5162929875910282,3.214982621479034,-1.0570803649693727
1789422470906110000,6.58110986328125,-0.24980478190779684,3.193630621370673,-1.233451661875844
1789422470916124000,6.5911240234375,0.03561141160726547,3.1693805617332456,-1.5213129104554652
1789422470926139000,6.601138916015625,0.3133645231485367,3.130410487347841,-2.0420885964185
1789422470936152800,6.61115283203125,0.5481804102391005,3.087112612891197,-2.7311300142437216
1789422470946168000,6.62116796875,0.7644120083689689,3.118357061460614,-3.331717488068342
1789422470956183000,6.63118310546875,0.920728213109821,3.07854644459784,-3.8997733961224554
1789422470966197000,6.641197021484375,1.100094161787629,3.0208716697424647,-4.368543000516295
1789422470976212000,6.6512119140625,1.2933059727273881,2.9514579417765137,-4.825733226275443
1789422470986226000,6.661225830078125,1.4921077126286924,2.845840097007155,-5.299297663730383
1789422470996241000,6.671240966796875,1.7560614313982426,2.7773171804010865,-5.7900072972536085
1789422471006254800,6.6812548828125,2.0208232516802846,2.719872122648358,-6.303394042009115
1789422471016269800,6.691269775390625,2.342925061905384,2.681567234173417,-6.873138633802533
1789422471026285000,6.70128515625,2.66595173189044,2.668498493763804,-7.386603704491257
1789422471036299000,6.711299072265625,2.9122978977769614,2.776688234847784,-7.7106240616887805
1789422471046314000,6.72131396484375,3.009200521171093,3.0147897194802757,-7.9133672326922415
1789422471056328000,6.731327880859375,2.9793145014733073,3.1523978627502918,-8.286581536647677
1789422471066343000,6.741343017578125,2.795117625507712,3.2298902677536008,-8.695877207809685
1789422471076358000,6.75135791015625,2.5152181495875117,3.3746927064418792,-9.004517625045775
1789422471086371800,6.761371826171875,2.138440746323019,3.351021907997131,-9.245209126171469
1789422471096386800,6.77138671875,1.6433252790562807,3.265638457483053,-9.3254207270056
1789422471106401000,6.781401123046875,1.0704461886294185,3.2429970020860432,-9.158637342655657
1789422471116416000,6.791416015625,0.5393306026987731,3.1395033098638057,-8.793475412252544
1789422471126431000,6.801430908203125,0.1462147897042334,3.0123399882405995,-8.292305174991489
1789422471136445000,6.81144482421875,-0.0787375827588141,2.9499720871329305,-7.707897267073393
1789422471146460200,6.821460205078125,-0.09041033876538276,2.7769536077857015,-7.262160747742652
1789422471156473900,6.831473876953125,-0.09242620863243937,2.3956477673113343,-6.882255421715975
1789422471166488800,6.84148876953125,-0.02516542091667652,1.9251801268279551,-6.506784863266349
1789422471176503800,6.85150390625,0.13383812321200966,1.311018885681033,-6.141971307909488
1789422471186518000,6.86151806640625,0.28651407175436616,0.6208563548713922,-5.722914121189713
1789422471196533000,6.871532958984375,0.5023436649546027,-0.09295242446362972,-5.272988917997479
1789422471206547000,6.881546875,0.7959579241029918,-0.7377227388858795,-4.754537875589728
1789422471216562000,6.89156201171875,1.0199030192196368,-1.2469704841405151,-4.226695319980383
1789422471226577200,6.9015771484375,1.1796189494013785,-1.5659908410936594,-3.688409111768007
1789422471236590800,6.9115908203125,1.3392816880911589,-1.7860405362069607,-3.112372726354003
1789422471246605800,6.921605712890625,1.3899939304575324,-1.8539087882965801,-2.5298423027455805
1789422471256620000,6.9316201171875,1.4406898062109947,-1.8843688084900378,-1.9560417135596275
1789422471266635000,6.941635009765625,1.4962544570446012,-1.8734779966413975,-1.446131120482087
1789422471276650000,6.95164990234375,1.5275824922442436,-1.877059362259507,-0.972492448747158
1789422471286664000,6.961663818359375,1.5218891029082238,-1.9548422746419905,-0.5481599519729614
1789422471296679000,6.971678955078125,1.4988612785421311,-2.080949949732423,-0.1383925716459751
1789422471306692900,6.98169287109375,1.4513058927714824,-2.2704218434914947,0.25238018535375595
1789422471316707800,6.991707763671875,1.3799210108630358,-2.5798028499618173,0.572536268338561
1789422471326722800,7.001722900390625,1.299551150727272,-2.876673042166233,0.8893652527272701
1789422471336737000,7.011737060546875,1.2451304092317819,-3.158061295339465,1.224744039285183
1789422471346752000,7.021751953125,1.0828032736383377,-3.480438853766024,1.511758900168538
1789422471356766000,7.031765869140625,0.8847050058312713,-3.8296976971164343,1.7131120781183242
1789422471366781000,7.041781005859375,0.7313754156857728,-4.170224075695872,2.007581931182742
1789422471376796000,7.0517958984375,0.5908341415733098,-4.4462166073054075,2.3322902706444264
1789422471386809900,7.061809814453125,0.4490266469173133,-4.716702358192205,2.705386501178145
1789422471396824800,7.071824951171875,0.39807065892294047,-4.899381815332174,3.091402419039607
1789422471406838800,7.0818388671875,0.31832083038166165,-5.170858330821991,3.4157927785933015
1789422471416854000,7.09185400390625,0.16175985709950327,-5.387428367125987,3.8102936162054535
1789422471426869000,7.101868896484375,0.06336918710470199,-5.495705786493421,4.272673227301239
1789422471436883000,7.111883056640625,0.11223887034431099,-5.500785866236686,4.716899926590919
1789422471446898000,7.12189794921875,0.09522694526687264,-5.497691991874575,4.999658883595466
1789422471456912100,7.131912109375,0.15015373658835887,-5.512601391714811,5.236930931666493
1789422471466927000,7.141927001953125,0.1428219323955476,-5.614834854742885,5.3431268685847515
1789422471476941800,7.15194189453125,0.06544482433497906,-5.786754432937503,5.368224484962225
1789422471486955800,7.161955810546875,-0.006138064363598823,-5.983153203350305,5.193191158661246
1789422471496971000,7.171970947265625,-0.12633987641111016,-6.202913560128212,4.944979198902845
1789422471506985000,7.18198486328125,-0.2039174754798412,-6.471006278398632,4.719102989593148
1789422471517000000,7.192,-0.10010229621827602,-6.761017398488521,4.545366132843494
1789422471527015000,7.202014892578125,-0.04983735922798514,-7.0662465459764,4.378932292583585
1789422471537029000,7.212029052734375,0.04717091649770736,-7.268586396875977,4.330715081903338
1789422471547044000,7.222044189453125,0.20537337337657807,-7.443639596921205,4.172175794285535
1789422471557057800,7.232057861328125,0.48190892582163214,-7.6190125304400915,3.7705204087436197
1789422471567072800,7.24207275390625,0.6606114421546458,-7.860200290650129,3.103376934471726
1789422471577088000,7.252087890625,0.611635375931114,-8.138374842473864,2.4460768088221547
1789422471587102000,7.26210205078125,0.46528570780083534,-8.391618951180577,2.015719060409069
1789422471597117000,7.272116943359375,0.4785737900495529,-8.5935934758991,1.636072677579522
1789422471607132000,7.2821318359375,0.4781598024211824,-8.766064842757583,1.3329659290730953
1789422471617146000,7.29214599609375,0.5957609304510056,-8.813583549779652,1.2531360210329294
1789422471627161000,7.3021611328125,0.8763438585907221,-8.512870418411493,1.1414110915601252
1789422471637174800,7.3121748046875,1.3907359809964894,-7.8059309403240675,0.9818173264533281
1789422471647189800,7.322189697265625,1.7623199072711169,-7.045442242878675,0.5477823508322238
1789422471657205000,7.332205078125,1.9374128548048435,-6.378472956129908,-0.10380465786755085
1789422471667219000,7.342218994140625,1.9289865333735943,-5.723042716005444,-0.9340437678873539
1789422471677234000,7.35223388671875,1.8114651925817131,-5.2696197338253254,-1.9758008915185927
1789422471687248000,7.362247802734375,1.6759125205367802,-4.860490066879987,-2.986327595105767
1789422471697263000,7.37226318359375,1.3706751897424458,-4.457408740188181,-3.6882407694637775
1789422471707278000,7.382278076171875,1.0631511362504213,-4.140850097173452,-4.110705718800426
1789422471717291800,7.392291748046875,0.8071989376287907,-3.8375244452193376,-4.229003596922755
1789422471727306800,7.402306640625,0.5654483559042215,-3.4757828446537253,-4.0812785487860435
1789422471737321700,7.41232177734375,0.3457311806809157,-3.0842601460695267,-3.842064718997478
1789422471747336000,7.4223359375,0.09781272397637367,-2.678637025940418,-3.5832249822407958
1789422471757351000,7.432350830078125,-0.1494504106245935,-2.158490870052576,-3.264123961266875
1789422471767364900,7.44236474609375,-0.3964109090171754,-1.574641472800076,-2.8761943187385794
1789422471777380000,7.452380126953125,-0.6254829186934977,-1.0073106641501188,-2.488762688860297
1789422471787395000,7.46239501953125,-0.861241639592126,-0.46596419158428903,-2.1190730518996714
1789422471797409000,7.472408935546875,-1.1031009423881768,0.027763620716333388,-1.724201627409458
1789422471807423700,7.482423828125,-1.3997738584548234,0.48281975705623625,-1.3420885622054337
1789422471817438700,7.492438720703125,-1.598932010578364,0.8044388983309269,-0.9611433717370033
1789422471827453200,7.502453125,-1.835490503552556,1.0586024599701165,-0.5874088432997465
1789422471837468200,7.51246826171875,-1.9513509253948926,1.3041603980883956,-0.2108019742965698
1789422471847481900,7.52248193359375,-1.9652989328570662,1.5263216785281897,0.07848375412821769
1789422471857497000,7.5324970703125,-1.9637598867215216,1.7601771961539983,0.30443244415223597
1789422471867512000,7.542511962890625,-1.8969963810034096,1.9854840811431407,0.5067728795737028
1789422471877526000,7.552526123046875,-1.8416472726166246,2.1955238388955594,0.6943482920616865
1789422471887541000,7.562541015625,-1.7835598253071308,2.3599124370634557,0.9043079703152179
1789422471897555200,7.57255517578125,-1.71134799105525,2.492656189167499,1.161029399743676
1789422471907570200,7.582570068359375,-1.6332811471648514,2.5749562867134808,1.3277987555682658
1789422471917585200,7.592585205078125,-1.5830026200406253,2.6409680972814558,1.279052552577853
1789422471927598800,7.602598876953125,-1.5567717618495225,2.696865925592184,1.1822948906123638
1789422471937614000,7.612614013671875,-1.5003921413712202,2.69375802270472,1.1232628559291362
1789422471947629000,7.622629150390625,-1.430053261384368,2.652052970397472,1.0526555342644452
1789422471957643000,7.63264306640625,-1.3105531678654252,2.603041394469142,0.9524263967961072
1789422471967658000,7.642657958984375,-1.0863076284974813,2.4843624080747366,0.8773837230324745
1789422471977672200,7.652672119140625,-0.7809830578111112,2.384395136412978,0.9009808717191219
1789422471987687200,7.662687255859375,-0.4628549735225737,2.3332851269006727,0.8743798650413751
1789422471997702100,7.6727021484375,-0.1239982817210257,2.273494382804632,0.7098737779736518
1789422472007716000,7.682716064453125,0.2171018050931394,2.1781617852061985,0.41278877397477626
1789422472017731000,7.69273095703125,0.6323024625152349,2.021898041304946,0.03547287991940975
1789422472027745000,7.7027451171875,1.0513116453748195,1.8712188195377588,-0.41104982135295864
1789422472037760000,7.712760009765625,1.4270201772987843,1.7883640107184648,-1.0057482371389865
1789422472047775000,7.72277490234375,1.76593649033308,1.7524895642608402,-1.7096283276557922
1789422472057789200,7.7327890625,1.982934396660328,1.708207354941964,-2.3687767115205527
1789422472067804200,7.74280419921875,2.1472996139526366,1.7532950354248285,-2.897835657182336
1789422472077819100,7.752819091796875,2.31137607743144,1.7895412378042934,-3.480411088976264
1789422472087833000,7.7628330078125,2.4729858585357665,1.8439532114714383,-4.125568941411376
1789422472097848000,7.77284814453125,2.677559752097726,1.933392074856162,-4.677393845632672
1789422472107862000,7.782862060546875,2.9759605148702857,2.0929425853431223,-5.143710211655497
1789422472117877000,7.792876953125,3.1929046451836824,2.3265602025598286,-5.597514302107691
1789422472127892000,7.80289208984375,3.405965212062001,2.5120319207668302,-6.260798762863874
1789422472137906200,7.81290625,3.550823764851689,2.672324189531803,-6.956932769298553
1789422472147921200,7.822921142578125,3.6007775900661945,2.920117631617188,-7.4685548424690955
1789422472157936000,7.83293603515625,3.4797195995807644,3.2078970471322537,-7.893095429036021
1789422472167950000,7.8429501953125,3.261405349957943,3.4155893649756908,-8.332916586843133
1789422472177965000,7.852965087890625,2.945671175068617,3.4686885024785994,-8.82716666945219
1789422472187979000,7.86297900390625,2.6858254761397835,3.4569442886710164,-9.17476547063589
1789422472197994000,7.872993896484375,2.240159099435806,3.4130256519675255,-9.312514483681321
1789422472208009000,7.883009033203125,1.8203396961718796,3.319290552693605,-9.304996947658061
1789422472218023200,7.893023193359375,1.3440005333065985,3.269008810698986,-9.102210522034763
1789422472228038100,7.9030380859375,0.8736690864235163,3.2883342734158036,-8.572971543630958
1789422472238053000,7.91305322265625,0.47361287970654664,3.351292541632056,-7.879476069006324
1789422472248067000,7.923067138671875,0.1437034644704312,3.405692824861407,-7.084667168807983
1789422472258082000,7.93308203125,-0.0507248095870018,3.3172511558204887,-6.325695890188217
1789422472268096000,7.943095947265625,-0.08105565044283866,3.0564193684637546,-5.755471990445256
1789422472278111000,7.953111083984375,0.03978723598718643,2.6150398752987383,-5.385448591485619
1789422472288126000,7.9631259765625,0.24241525617837906,2.083655701559782,-5.124277781432867
1789422472298140200,7.97314013671875,0.4400466371260583,1.4514882636010646,-4.870200729033351
1789422472308155100,7.983155029296875,0.6251409003227949,0.7889677729547023,-4.543725964421034
1789422472318170000,7.993170166015625,0.785152598580718,0.15523147824406622,-4.191035393056273
1789422472328184000,8.00318408203125,0.7782406272351742,-0.39275837785899637,-3.729450147208571
1789422472338199000,8.013198974609375,0.6872831759810447,-0.8973533288717269,-3.3060166451007125
1789422472348213000,8.023212890625,0.6420335829347371,-1.353591368472576,-2.8574978015750645
1789422472358228000,8.03322802734375,0.5274532640308142,-1.7093033334851264,-2.2787720309466124
1789422472368243000,8.043242919921875,0.5625578951597213,-1.8870330592632292,-1.586963486495614
1789422472378257200,8.053257080078126,0.597713964214921,-1.9422966813236473,-0.9204472042113542
1789422472388272000,8.063272216796875,0.6180933198988438,-1.9125272737428545,-0.37124388066530223
1789422472398287000,8.073287109375,0.6772953773867338,-1.9223916651532054,0.07449322318732739
1789422472408301000,8.083301025390625,0.7573415585260838,-1.9223054481744766,0.43210313077569007
1789422472418316000,8.09331591796875,0.8404735037863255,-1.9908926621884107,0.7181909399420022
1789422472428330200,8.103330322265625,0.924481574293971,-2.1173685860693454,0.9798410579442978
1789422472438345000,8.113344970703125,1.0168593406748025,-2.280008294743299,1.2246142754256724
1789422472448360000,8.12335986328125,1.0623609357208013,-2.503793376992643,1.4405454293042421
1789422472458374100,8.1333740234375,1.0609219889588652,-2.766625982777774,1.675806722074747
1789422472468389000,8.14338916015625,1.0158915916211904,-3.033253304670751,1.9137363572716712
1789422472478404000,8.153404052734375,0.9144885150026529,-3.288606368355453,2.207745607087016
1789422472488418000,8.16341796875,0.8358692248612641,-3.4330069482445715,2.5584961502999066
1789422472498433000,8.17343310546875,0.7476609261848032,-3.4932799228996037,2.9257980153411625
1789422472508447200,8.183447265625,0.6640320642530918,-3.5419527683928607,3.244804928290844
1789422472518462200,8.193462158203126,0.6146118344586342,-3.6069781982719897,3.520644315165281
1789422472528477000,8.203476806640625,0.5811755018681287,-3.636360360100865,3.768550569975376
1789422472538491100,8.2134912109375,0.5971307574994862,-3.670646660584211,3.907829276806116
1789422472548506000,8.223506103515625,0.6722166858829558,-3.727581430727243,3.9824341436743733
1789422472558521000,8.23352099609375,0.7423148889817297,-3.81533570202589,4.00888609727025
1789422472568535000,8.24353515625,0.7946318631310015,-3.9406279690802095,3.983177070996165
1789422472578550000,8.253550048828124,0.8108861017089337,-4.122184559670091,3.9484237375229596
1789422472588564200,8.263564208984375,0.8570446262937038,-4.344831577800214,3.9902597227334975
1789422472598579200,8.2735791015625,0.8936660917263477,-4.577951182366907,3.9548984864950176
1789422472608594200,8.28359423828125,0.9499882829289883,-4.769905832852423,3.944929465666413
1789422472618607900,8.29360791015625,0.9455629407674073,-5.037514859259129,3.9428099892944095
1789422472628623000,8.303623046875,0.9572352583825587,-5.202537663677335,3.9909114646404977
1789422472638638000,8.31363818359375,1.0575439638931303,-5.3113090040415525,3.985118268191814
1789422472648652000,8.323652099609374,1.0575994204074144,-5.5099353873759505,3.737198569378257
1789422472658667000,8.3336669921875,1.1311107198853045,-5.693114610731602,3.370226374682784
1789422472668681200,8.34368115234375,1.1224006130766122,-5.778189433687925,3.0167437761574982
1789422472678696200,8.3536962890625,1.179939267396927,-5.843624321150779,2.724859263411164
1789422472688711200,8.363711181640625,1.3665747686862946,-5.869668862989545,2.4585259560286996
1789422472698724900,8.373724853515625,1.5916571972697973,-5.798520858576893,2.2267273709326982
1789422472708740000,8.383739990234375,1.7527946846872566,-5.904197740057111,1.8293623760610818
1789422472718754000,8.393754150390626,1.8712270028442144,-5.990607611009478,1.3599030358374118
1789422472728769000,8.40376904296875,1.962525230360031,-5.916248243334889,0.9974287370830773
1789422472738784000,8.413783935546874,2.0540648654162883,-5.788385249009728,0.7565203783363104
1789422472748798200,8.423798095703125,2.147487245479226,-5.695900442057848,0.5602279909074306
1789422472758813200,8.433813232421874,2.221227604472637,-5.683132145899534,0.33778175604641436
1789422472768828200,8.443828125,2.308105092936754,-5.712975495499372,0.07829846068918704
1789422472778841900,8.453841796875,2.2036206361114976,-5.818336735159158,-0.2449754620552063
1789422472788857000,8.463857177734376,1.8533879792928694,-5.621852040028572,-0.0088099139213562
1789422472798872000,8.4738720703125,1.7269927194327115,-5.166303736257553,0.14983224954903124
1789422472808886000,8.483885986328126,1.6598697327524423,-4.759418341107666,0.16358604961335657
1789422472818901000,8.49390087890625,1.4183493795871733,-4.302478582978249,0.1532464419066906
1789422472828915000,8.5039150390625,1.1438614073216915,-3.7480548944354055,-0.0785135647445917
1789422472838930000,8.513929931640625,0.7907190005362034,-3.204257813847065,-0.4489285933703184
1789422472848945000,8.52394482421875,0.45990584139339624,-2.6762884169876573,-0.8554320034652948
1789422472858958800,8.533958740234375,0.1526624314736575,-2.2058312978982926,-1.4102788858562707
1789422472868973800,8.543973876953125,-0.17681027284562587,-1.7128060809090733,-1.9550889428794382
1789422472878988800,8.55398876953125,-0.42065015499964353,-1.208505144406855,-2.4072943659633395
1789422472889002800,8.564002685546875,-0.6037427229851484,-0.7532499783635139,-2.7338088780641554
1789422472899017700,8.574017822265626,-0.7878010672628879,-0.22371727771013974,-2.886055787539482
1789422472909032000,8.584031982421875,-0.9103981038838624,0.32076281670629975,-2.8703514379292723
1789422472919047000,8.594046875,-1.0622639050871132,0.813207895720005,-2.7970605762690304
1789422472929062000,8.604061767578125,-1.238387949234247,1.2717787621825933,-2.6639491598963736
1789422472939075600,8.61407568359375,-1.4161246892750263,1.6693343111902474,-2.4747727419525383
1789422472949090800,8.6240908203125,-1.5856407134592532,1.9586445895344018,-2.266072123849392
1789422472959105800,8.634105712890625,-1.7544219936281442,2.178399101093411,-2.0329747311145066
1789422472969119700,8.64411962890625,-1.9493541986197231,2.3228473195165393,-1.836842502683401
1789422472979134700,8.654134765625,-2.1663630647324026,2.3826135136932134,-1.6810446227282285
1789422472989149000,8.66414892578125,-2.3326712327860295,2.408377485024929,-1.3857640378028153
1789422472999164000,8.674163818359375,-2.387372106397152,2.389282908454537,-1.0823445700854062
1789422473009179000,8.684178955078124,-2.342238833206892,2.2504864321827887,-0.8682809636443853
1789422473019192800,8.69419287109375,-2.2032997335940596,2.1141782655954358,-0.6123357792854309
1789422473029207800,8.704207763671874,-2.0106559318006036,2.004062524884939,-0.3662134852826595
1789422473039222800,8.714222900390626,-1.8533453091949224,1.8927625428259371,-0.15628829382061957
1789422473049236700,8.72423681640625,-1.7027416368819772,1.8117086459487675,0.02592529937326908
1789422473059251700,8.734251708984376,-1.547244639569521,1.7833108189821243,0.21492811431586742
1789422473069266000,8.744265869140625,-1.370998576477915,1.7729887469321488,0.2767033102273941
1789422473079281000,8.754281005859376,-1.2012747547619045,1.779965600207448,0.1817974136084318
1789422473089296000,8.7642958984375,-1.0494513313956557,1.809255407577753,0.050908349460363385
1789422473099309800,8.774309814453124,-0.8311803363926709,1.8536849164128302,-0.07092413252890109
1789422473109325000,8.784324951171875,-0.6143132168382406,1.921566027984023,-0.22298750213086604
1789422473119339800,8.79433984375,-0.35943726914599533,1.9761311463862656,-0.3650724985539913
1789422473129353700,8.804353759765625,-0.11781564756333827,2.0316087034583092,-0.44373628542423244
1789422473139368700,8.81436865234375,0.10247662413418292,2.0834651474237442,-0.5789502270340919
1789422473149383000,8.8243828125,0.2938337471179664,2.1443436867564913,-0.7490308993637561
1789422473159398000,8.83439794921875,0.44501755740642546,2.2506121043890714,-0.8697726635068654
1789422473169412900,8.844412841796874,0.5518940239347517,2.3252888674497605,-1.0533470236599445
1789422473179426800,8.8544267578125,0.611818039021641,2.348205048134923,-1.2412106054395438
1789422473189441800,8.86444189453125,0.6139607501387596,2.4279122065782546,-1.4094231458097695
1789422473199457000,8.87445703125,0.5040145207762717,2.586440388280153,-1.5427695399820804
1789422473209470700,8.884470703125,0.34737770577892657,2.8127807079702616,-1.5617156479924916
1789422473219485700,8.894485595703125,0.19289616911932825,3.005781068116426,-1.610201154220104
1789422473229500000,8.9045,-0.03156827369630336,3.031485418215394,-1.7689847719877958
1789422473239515000,8.914514892578126,-0.290944601547718,2.891802222236991,-1.991997993081808
1789422473249529900,8.92452978515625,-0.504872014388442,2.6357354573249814,-2.245564173349738
1789422473259543800,8.934543701171876,-0.6525451862074434,2.334978486815095,-2.4918612393975255
1789422473269558800,8.944558837890625,-0.7543496101684868,2.009750507393479,-2.7317671431034802
1789422473279574000,8.954573974609374,-0.7737269492030143,1.7863742982059716,-2.8613176521241663
1789422473289587700,8.964587646484375,-0.6876169379800557,1.6488082405120132,-2.884752303725481
1789422473299602700,8.974602783203125,-0.5237643463850021,1.5311691185593603,-2.922666147056222
1789422473309617000,8.984616943359375,-0.31300927997007966,1.4662158771336078,-3.042313101699948
1789422473319632000,8.9946318359375,-0.043495588985830544,1.48135557859838,-3.3439363336503503
1789422473329646800,9.004646728515626,0.2816436892390251,1.4749965649604797,-3.8169302777409553
1789422473339660800,9.014660888671875,0.5110064254902303,1.5268512553602456,-4.2614375475376844
1789422473349675800,9.02467578125,0.626170243370533,1.642851962456107,-4.642164711341262
1789422473359691000,9.03469091796875,0.6803861099436879,1.7649866422623395,-4.986397835484147
1789422473369704700,9.04470458984375,0.6668091277509928,1.8687188194155693,-5.23397149733901
1789422473379719700,9.0547197265625,0.546430790092796,2.0388029988765717,-5.401092735341191
1789422473389734700,9.064734619140625,0.37921719763204453,2.3614994139939545,-5.440564914029836
1789422473399748900,9.074748779296876,0.2570114984162152,2.7411434587359427,-5.391763765981793
1789422473409763800,9.084763916015625,0.057986325022578236,3.0532039135485887,-5.418647096732259
1789422473419777800,9.09477783203125,-0.15078209761977196,3.2229800499737262,-5.543549487686157
1789422473429792800,9.104792724609375,-0.03741363872364163,3.437082819381356,-5.59393585909903
1789422473439808000,9.11480810546875,-0.259209739112854,3.532782496726513,-5.740048211342096
1789422473449821700,9.12482177734375,-0.41565994549691676,3.4469507179230447,-5.8262172592759125
1789422473459836700,9.134836669921874,-0.5030028595156968,3.262448721531033,-5.726859059423208
1789422473469851600,9.1448515625,-0.6146610073626041,2.9041753815978764,-5.5552247279107565
1789422473479865900,9.154865966796875,-0.6992097606182098,2.291709838452935,-5.38720040358901
1789422473489880800,9.164880859375,-0.6007074469424784,1.574598510441184,-5.1218514310687775
1789422473499894800,9.174894775390625,-0.40863457690477367,0.8559113114148378,-4.787684942910075
1789422473509909800,9.18490966796875,-0.12440890834853052,0.2190980934768915,-4.2920010281056165
1789422473519925000,9.194925048828125,0.1022159273713827,-0.23526421537995337,-3.690031744533777
1789422473529938700,9.204938720703124,0.357012526217103,-0.5314864650696516,-3.0254882236272094
1789422473539953700,9.21495361328125,0.5080510828159749,-0.6349743120729923,-2.412920389151573
1789422473549968600,9.22496875,0.5934666820339858,-0.603788315692544,-1.8699965842664241
1789422473559982800,9.23498291015625,0.65376391434744,-0.4664209954410791,-1.381469555479288
1789422473569997800,9.244997802734375,0.7363337687455117,-0.3306552651673555,-0.934224385151267
1789422473580011800,9.25501171875,0.7699519607089459,-0.2462932666555047,-0.5775567268490791
1789422473590026800,9.26502685546875,0.7495635449357331,-0.24695669900029896,-0.24805998406708238
1789422473600042000,9.2750419921875,0.7926656045593321,-0.2883049006938934,0.07928279555141925
1789422473610056000,9.285055908203125,0.8000726659454405,-0.42184097221940753,0.3207692464470863
1789422473620071000,9.29507080078125,0.8161566625230013,-0.6689598760440946,0.5833563530385494
1789422473630085600,9.305085693359375,0.8058867590516805,-0.9411535998925566,0.8603507551670074
1789422473640099800,9.315099853515624,0.818546480268985,-1.2537450928419829,1.1010405027270316
1789422473650114800,9.32511474609375,0.8316706041276455,-1.6780580081328749,1.3068044828563927
1789422473660128800,9.335128662109375,0.7905113491348922,-2.1224358063310382,1.5763520761102436
1789422473670143700,9.345143798828126,0.7162148175634443,-2.5162033612325785,1.8709078538924455
1789422473680159000,9.355158935546875,0.6473457178682088,-2.8995886383295058,2.1320400855004786
1789422473690173000,9.3651728515625,0.5483941991202533,-3.244412714102864,2.3589894769996405
1789422473700188000,9.37518798828125,0.48806394132003184,-3.545163839393854,2.604077751779556
1789422473710203000,9.385202880859374,0.42493981501758094,-3.7790421533733602,2.8604057979762554
1789422473720216800,9.395216796875,0.3603969079583883,-3.961634516751766,3.0644255647867915
1789422473730231800,9.405231689453124,0.35507469002231956,-4.102847114254534,3.2797429706811903
1789422473740246800,9.415246826171876,0.40969197700321675,-4.21073494978249,3.537038400605321
1789422473750260700,9.4252607421875,0.506289479970932,-4.276436963748932,3.752719963636994
1789422473760276000,9.43527587890625,0.5862929910123348,-4.329186557161807,3.990599914473295
1789422473770290000,9.4452900390625,0.6615506227008998,-4.345475428661704,4.1891438802212475
1789422473780305000,9.455304931640624,0.7299924368947744,-4.386828891052305,4.269375354799628
1789422473790319900,9.46531982421875,0.7377928815126419,-4.483360343046486,4.228013416841626
1789422473800333800,9.475333740234374,0.7081788106240332,-4.629304645246267,4.187476823791862
1789422473810348800,9.485348876953125,0.6261164673566818,-4.797972528168558,4.087741607320308
1789422473820363800,9.49536376953125,0.4345446787089109,-4.983000594261289,3.9076767165929076
1789422473830378000,9.5053779296875,0.3237983850099146,-5.209618561848997,3.746476685333252
1789422473840393000,9.51539306640625,0.17955094985589384,-5.44617164799571,3.6010809569269417
1789422473850407200,9.5254072265625,0.014884411529451608,-5.673713744691014,3.512590772569179
1789422473860422100,9.535422119140625,-0.08713526261746883,-5.905997482955455,3.373157751959562
1789422473870437000,9.54543701171875,-0.07988236887976527,-6.040842591252923,3.2535487912386656
1789422473880451000,9.555451171875,-0.008982347878813744,-6.126251176208258,3.096878220102191
1789422473890466000,9.565466064453124,0.1626991837762296,-6.2206988076657055,2.7883248966276644
1789422473900481000,9.57548095703125,0.28750936640202995,-6.346721727082133,2.4288065250694753
1789422473910495000,9.585494873046875,0.39477424772605296,-6.405659653741121,2.193101580184698
1789422473920510000,9.595510009765626,0.44075902317911386,-6.398933560356498,1.8947732981264591
1789422473930525200,9.605525146484375,0.44758696950301524,-6.452505576068162,1.4010305805176495
1789422473940539100,9.6155390625,0.38316812721490856,-6.471904688543081,0.9635434186160564
1789422473950554000,9.62555419921875,0.40353871507048605,-6.372545319646597,0.6468488742619752
1789422473960568000,9.635568115234374,0.4388346309877932,-6.164248021647333,0.2968845129907131
1789422473970583000,9.6455830078125,0.520739445605874,-5.868421493276953,0.008419453299045563
1789422473980598000,9.655597900390624,0.6485394576974213,-5.461884765434265,-0.2954331451386213
1789422473990612000,9.665612060546875,0.8127800256967544,-4.9595431463062765,-0.737524001443386
1789422474000627000,9.675626953125,1.0016495696485042,-4.5807545493498445,-1.3926461985319851
1789422474010642200,9.68564208984375,1.0129195900730787,-4.238114831878245,-2.094800780430436
1789422474020656000,9.69565625,0.8370376841187477,-3.806372643369436,-2.781704601705074
1789422474030671000,9.705671142578124,0.6032955637395382,-3.3413150452360507,-3.521536295568943
1789422474040685000,9.71568505859375,0.2940915943365544,-2.840172572764754,-4.1734272556513545
1789422474050700000,9.725699951171874,-0.028991189749911425,-2.1850512524589893,-4.590252737796306
1789422474060715000,9.735715087890625,-0.322407734369114,-1.3941302996098994,-4.786123100420832
1789422474070729000,9.74572900390625,-0.6464554910302162,-0.5133043271690607,-4.664959895995259
1789422474080744000,9.755743896484375,-0.9389923302054405,0.40722412558495996,-4.332143068879843
1789422474090759000,9.765759033203125,-1.197343406662345,1.2665952220648526,-3.8293221418023107
1789422474100773000,9.775773193359376,-1.3889036510027943,1.9479349794715641,-3.4167005410879847
1789422474110788000,9.7857880859375,-1.6028135281868279,2.4814175867944956,-3.067857877323031
1789422474120803000,9.795802978515624,-1.8296048065148294,2.8642139580875634,-2.630947054004669
1789422474130817300,9.8058173828125,-2.085765241059661,3.1080127775788307,-2.18349320936203
1789422474140832000,9.81583203125,-2.353023408202082,3.2931127398639917,-1.7034879252046347
1789422474150846000,9.825845947265625,-2.546285488024354,3.4280250681787727,-1.213245909193158
1789422474160861000,9.83586083984375,-2.6660826647937297,3.4688018997251984,-0.8329197274059057
1789422474170876000,9.8458759765625,-2.740603945031762,3.4559675525933504,-0.38262744446694846
1789422474180890000,9.85589013671875,-2.686833776399493,3.407954924574494,0.09781915371716023
1789422474190905000,9.865905029296876,-2.5837562637627123,3.320469533345103,0.47761225154101844
1789422474200920000,9.875920166015625,-2.4101633455283937,3.197106773048639,0.8164327029854058
1789422474210934300,9.885934326171874,-2.3194449637271464,3.064163698980212,1.0350228469401597
1789422474220949200,9.89594921875,-2.277668599749356,2.9005981076329945,1.274625383785367
1789422474230964200,9.905964111328124,-2.1214175691992043,2.762754402041435,1.5325748937040566
1789422474240978000,9.91597802734375,-1.8539153641678392,2.6236165649861096,1.7775637997627258
1789422474250993000,9.925992919921875,-1.5609483168818055,2.497901104083657,2.0008038153499363
1789422474261007000,9.936007080078125,-1.2501603662230074,2.4405711971431967,2.135482334908843
1789422474271022000,9.94602197265625,-0.9431754611089825,2.358359946924448,2.1192449013352395
1789422474281037000,9.956037109375,-0.6553088057018817,2.268020919829607,2.0253432133227585
1789422474291051300,9.96605126953125,-0.37542145861089227,2.206449137535691,1.8729934279948472
1789422474301066200,9.976066162109374,-0.13050327970087527,2.2140432459264994,1.7074977453678846
1789422474311081200,9.986081298828125,0.1388886845998466,2.174174176874757,1.565752940684557
1789422474321095000,9.996094970703124,0.3721037123650312,2.1436726556271313,1.4217495434194802
1789422474331110000,10.00610986328125,0.5834434468001127,2.0859967117279767,1.1615227362185716
1789422474341124000,10.0161240234375,0.798720520684123,2.015513308703899,0.8414052316784858
1789422474351139000,10.02613916015625,1.0210673137586563,1.892143534144759,0.5794856490850449
1789422474361154000,10.036154052734375,1.204937515053153,1.697690637102723,0.17812135544419289
1789422474371168300,10.046168212890626,1.3672276796370744,1.515947584030032,-0.40320729115903375
1789422474381183200,10.056183349609375,1.4884616112112998,1.3129600828766823,-1.0505074163198471
1789422474391198200,10.0661982421875,1.5357944402724504,1.1046966871470212,-1.5740923144847154
1789422474401212000,10.0762119140625,1.6258108112841843,0.87819387037158,-2.0911317365288733
1789422474411227000,10.086226806640624,1.6636141799777746,0.6230950737088918,-2.7493010462284087
1789422474421241000,10.096240966796875,1.7053601488173007,0.46726153791844843,-3.454526121613383
1789422474431256000,10.106256103515625,1.7934031739294527,0.5671504836469888,-4.009972723463178
1789422474441271000,10.11627099609375,1.9066969601541757,0.7929775931179524,-4.587701299747825
1789422474451285200,10.12628515625,1.9816238985836505,1.1352028845697641,-5.234769954240321
1789422474461300200,10.13630029296875,1.9894459705114362,1.6265823801785706,-5.747917045021056
1789422474471315200,10.146315185546875,1.8671534697949885,2.2145313217043876,-6.091057113230228
1789422474481329000,10.156328857421874,1.6408008751451968,2.7995103075087067,-6.398028135949373
1789422474491344000,10.16634375,1.5042306966207921,3.2360604808211324,-6.693512134492397
1789422474501359000,10.176359130859375,1.5354676925361155,3.5738095036417246,-7.029439787104725
1789422474511373000,10.186373046875,1.2516677020460367,3.7055490471392867,-7.35713094176948
1789422474521388000,10.196387939453125,0.9850748669445514,3.63972720618546,-7.629764810600876
1789422474531402000,10.206402099609376,0.6798626705914735,3.4746786828041074,-7.871494422602653
1789422474541417200,10.216417236328125,0.4274192838083952,3.1885996414661406,-8.11982504030466
1789422474551432200,10.22643212890625,0.13507482540011406,2.9191029016166925,-8.220772555175422
1789422474561446000,10.23644580078125,-0.1422007317572832,2.7242250571608544,-8.162603859323262
1789422474571460900,10.2464609375,-0.34951267198100683,2.500751817339659,-7.851777330219745
1789422474581476000,10.25647607421875,-0.4681665239341557,2.2210639383435247,-7.324449738395214
1789422474591490000,10.266489990234374,-0.46283970288820564,1.838179888767004,-6.735718706580996
1789422474601505000,10.276505126953126,-0.23702830244302747,1.2971008349657058,-6.251902339702844
1789422474611519000,10.28651904296875,0.051233928152918815,0.7199678864866494,-5.81546147198379
1789422474621534200,10.2965341796875,0.3460795557271689,0.13610183036029339,-5.40814499194026
1789422474631549200,10.306549072265625,0.6644558426231145,-0.39427521216273304,-4.861649173787236
1789422474641563100,10.316563232421874,0.9473262971781193,-0.7873591687142848,-4.219257278934121
1789422474651577900,10.326577880859375,1.1221931078057736,-1.0321084207981823,-3.5544688433557745
1789422474661593000,10.336593017578124,1.2594494419634341,-1.1254688415408134,-2.907624060747027
1789422474671607000,10.34660693359375,1.3315759360194206,-1.0586807859033345,-2.218660968855023
1789422474681622000,10.3566220703125,1.3228398179866372,-0.9033464318066835,-1.5953051983833313
1789422474691637000,10.366636962890626,1.2406282755069433,-0.7602455363392829,-1.0846452482432127
1789422474701651200,10.376651123046875,1.1005570300590246,-0.6364975761175156,-0.5775491280645132
1789422474711666200,10.386666259765626,1.0186380407851188,-0.5417673283264041,-0.10814064124524593
1789422474721680100,10.39668017578125,0.9385625604860484,-0.512473721563816,0.29387188717126844
1789422474731695000,10.406695068359374,0.821191880211234,-0.5518836486712098,0.6542699641734361
1789422474741709800,10.416709716796875,0.7021762092083692,-0.6959662486523389,0.9287409853041172
1789422474751724000,10.42672412109375,0.565407950828597,-0.9665703652217984,1.18233931427598
1789422474761739000,10.436739013671875,0.44030353449657555,-1.314808633352816,1.4491554367393253
1789422474771754000,10.44675390625,0.32371772098913787,-1.7528695034891366,1.7352683803468942
1789422474781768200,10.456768310546876,0.21359650038592515,-2.2158929654464123,2.0908464898467063
1789422474791783200,10.466783203125,0.12461181050948798,-2.6663290407702327,2.4060680390387774
1789422474801798100,10.476798095703124,0.06748261377289891,-3.1010859009250997,2.729835882779956
1789422474811812000,10.48681201171875,0.02940276622548699,-3.4695980185389517,3.1283973939597605
1789422474821827000,10.4968271484375,0.0249877262622118,-3.7022795239493247,3.578310322192311
1789422474831841000,10.506841064453125,-0.0080517890304327,-3.8482209035396573,3.9572769060641524
1789422474841856000,10.51685595703125,-0.03383804525919258,-4.030414622989297,4.2704725023865695
1789422474851871000,10.52687109375,-0.08045870746299624,-4.168122719502449,4.573938731855153
1789422474861885000,10.536885009765625,-0.13201353813335298,-4.224816374365985,4.896377372819185
1789422474871900000,10.54689990234375,-0.12120938165485859,-4.2087145498707885,5.171274510407447
1789422474881915000,10.556914794921875,-0.10869776367135345,-4.21155503399372,5.331707648947835
1789422474891928800,10.5669287109375,-0.05127900940366089,-4.263322338370979,5.334130492180585
1789422474901943800,10.57694384765625,0.05688859291374683,-4.412804751569032,5.273641828948259
1789422474911958000,10.5869580078125,0.1666922720003873,-4.650213577762246,5.0020016473293305
1789422474921973000,10.596972900390625,0.2542992437828332,-5.02951041650176,4.566012030509114
1789422474931988000,10.606988037109375,0.32220066748969256,-5.593858117687702,4.090364941561222
1789422474942002200,10.617002197265625,0.312147475508973,-6.094169692292809,3.9437814646750686
1789422474952017000,10.627016845703125,0.38471184952557086,-6.380993414518237,3.919446649363637
1789422474962031900,10.637031982421876,0.5576718036185949,-6.49590866446495,3.979104122468829
1789422474972045800,10.6470458984375,0.7596849798470735,-6.515719280350208,3.9218081177979704
1789422474982060800,10.657060791015626,1.007407110261917,-6.56610798985064,3.5899423077970742
1789422474992075000,10.667074951171875,1.2749486243903636,-6.780352213555574,2.9316631079822777
1789422475002090000,10.677090087890624,1.5010311699271202,-7.006728189080953,2.0413234572649
1789422475012105000,10.68710498046875,1.7428262483805417,-6.976506069296598,1.3195704409271478
1789422475022119200,10.697119140625,1.9837182405143976,-6.814499397829175,0.8438193070828914
1789422475032134100,10.707134033203126,2.2195628861308094,-6.754439773663878,0.2960819644361734
1789422475042148900,10.71714892578125,2.2671979130089284,-6.658114073374867,-0.20518471893668175
1789422475052162800,10.727162841796876,2.399427285850048,-6.2551066887021065,-0.23637714505791663
1789422475062177800,10.737177734375,2.318411382895708,-5.813640101775527,-0.2721884631514549
1789422475072193000,10.747193115234374,2.2526608536124226,-5.595077430349588,-0.6336977162659168
1789422475082207000,10.75720703125,2.1698662505477664,-5.477022713333368,-1.186719721317291
1789422475092222000,10.767221923828124,2.010595726045966,-5.280214193075895,-1.6553987248182296
1789422475102236200,10.777236083984375,1.9609141419015823,-5.035861246833205,-2.108018573921919
1789422475112251100,10.787251220703125,1.936247464287281,-4.805611352483928,-2.4997096148103473
1789422475122266000,10.79726611328125,1.8996832819998264,-4.435918500652909,-2.7684266024589537
1789422475132279800,10.80727978515625,1.7035773570537567,-3.9176471987262365,-2.9787469307184216
1789422475142294800,10.817294677734376,1.4392425300121308,-3.2583634980440137,-2.9889596971750256
1789422475152310000,10.82731005859375,1.0879460433542727,-2.442968029151857,-2.8333722451001404
1789422475162324000,10.837323974609374,0.6691560562033206,-1.563432681043446,-2.4691788674682376
1789422475172339000,10.8473388671875,0.2906272061616182,-0.6563076074808836,-2.062761382091045
1789422475182353000,10.857352783203124,-0.21664500123634933,0.10312076725661753,-1.7415175038695334
1789422475192368000,10.8673681640625,-0.6529464604847133,0.7344421097800136,-1.3876082043647766
1789422475202383000,10.877383056640625,-1.1260293980330227,1.244244274047017,-1.0589321303158998
1789422475212396800,10.887396728515625,-1.5571505320340393,1.6060025334864854,-0.7343377726227045
1789422475222411800,10.897411865234375,-1.931144588190317,1.9107909514695405,-0.42075463828742504
1789422475232427000,10.907427001953126,-2.237148519442975,2.136148105341196,-0.05995031857192516
1789422475242441000,10.91744091796875,-2.468182257646322,2.305935932204127,0.3754682203620672
1789422475252456000,10.9274560546875,-2.6502503048896786,2.4649983669131994,0.7882663466870784
1789422475262470000,10.937469970703125,-2.7299206384539603,2.5431653101772067,1.0347235717326402
1789422475272485000,10.947485107421874,-2.7536323534309863,2.604995451146364,1.358837452432513
1789422475282500000,10.9575,-2.6580975112587213,2.681026551425457,1.7022002234816551
1789422475292513800,10.967513671875,-2.5279642339140174,2.7295810312360524,1.8721014475911855
1789422475302528800,10.97752880859375,-2.3370476943045855,2.759050871348381,1.9282681559711694
1789422475312543700,10.987543701171875,-2.160741863849759,2.825426839053631,1.9430214884668588
1789422475322558000,10.997557861328126,-1.968060652655363,2.867299064621329,1.902233551004529
1789422475332573000,11.007572998046875,-1.7644231631606817,2.873287491381168,1.7800287285715342
1789422475342587000,11.0175869140625,-1.539699484886974,2.83939749673903,1.6081173336833714
1789422475352602000,11.02760205078125,-1.3109857140637933,2.7678730602294204,1.4294810144543646
1789422475362617000,11.0376171875,-1.0955888131923972,2.6042501857370137,1.1509405519276856
1789422475372630800,11.047630859375,-0.8994733897656202,2.353774372699857,0.8746183499723672
1789422475382645800,11.057645751953125,-0.7115634846262633,2.0152859296888113,0.682653762614727
1789422475392660700,11.06766064453125,-0.4168091155320406,1.988504890269041,0.8992933570235967
1789422475402675000,11.077675048828125,-0.15633753978982567,2.1196540666580197,0.9264443987995385
1789422475412690000,11.08768994140625,-0.19611586181819438,2.1250264073461294,0.6414923156648874
1789422475422705000,11.097704833984375,0.1896140787087381,2.3009458688318727,0.36906127592921256
1789422475432719000,11.107718994140624,0.25448256446048617,2.345646011301875,-0.21986147906482217
1789422475442734000,11.117734130859375,0.4248934916578233,2.131076793426275,-1.0224649786621332
1789422475452747800,11.127747802734374,0.6510895805716514,1.8440759610682724,-1.7870950136959551
1789422475462762800,11.1377626953125,0.8298555175296962,1.5375830772548913,-2.4912404771506784
1789422475472777700,11.14777783203125,1.054148841562122,1.1951976268053055,-3.094209293153882
1789422475482792000,11.1577919921875,1.2514157731115818,0.9455676169425249,-3.6175270648151634
1789422475492807000,11.167806884765625,1.294531422869116,0.8141951531916857,-4.198596768221259
1789422475502822000,11.17782177734375,1.4499018711924552,0.8177513843685388,-4.829945875534415
1789422475512836000,11.187836181640625,1.5685476859696208,0.9677063835144042,-5.639575328245758
1789422475522851000,11.19785107421875,1.6136726297229527,1.158120234298706,-6.4835542098045345
1789422475532865000,11.207864990234375,1.7932957680322228,1.398368083310127,-7.1340820648401975
1789422475542880000,11.2178798828125,1.7515975838571787,1.6826777768880128,-7.748116464737057
1789422475552894700,11.227894775390626,1.842335693272203,2.086001387903094,-8.175147699075938
1789422475562909000,11.237908935546875,1.942032477429509,2.4640689771085977,-8.611250128620862
1789422475572924000,11.247923828125,1.8589001668430865,2.5716309416830536,-9.2066394492805
1789422475582939000,11.25793896484375,1.820271891632676,2.7161288444668052,-9.603296003621816
1789422475592953000,11.267953125,1.620911933326721,2.958693738248944,-9.864190334820746
1789422475602968000,11.277968017578125,1.3046271388173103,3.100747755011916,-10.10596612405181
1789422475612983000,11.287983154296874,1.0503193464018403,3.168933402487635,-10.133949524998664
1789422475622997000,11.2979970703125,0.6701701286166906,3.1567601496130226,-9.968801048374175
1789422475633012000,11.308011962890625,0.2887590742021799,3.0875550959616898,-9.507036938828229
1789422475643026000,11.31802587890625,-0.004469838890433312,3.019491613560915,-8.807312214425206
1789422475653041000,11.328041015625,-0.07122472291067242,2.81444250370264,-8.048405233213305
1789422475663056000,11.338055908203126,0.016578794357180595,2.3658523485064507,-7.365918643859028
1789422475673070000,11.348070068359375,0.14466273795664308,1.7422370503157376,-6.724573627710342
1789422475683085000,11.3580849609375,0.38953108637556433,0.9926350730657577,-6.122414374524355
1789422475693100000,11.36810009765625,0.6504841620244085,0.2051736130207777,-5.518042705985904
1789422475703114000,11.378114013671874,0.8908253884077072,-0.5052081144750118,-4.8468666151970625
1789422475713129000,11.38812890625,1.1027794553488492,-1.08907007894814,-4.0244747115463015
1789422475723144000,11.39814404296875,1.2544266453653574,-1.433691325625777,-3.092607118654251
1789422475733158000,11.408157958984376,1.3573792164482175,-1.7263918309301136,-2.2559832760334015
1789422475743172900,11.4181728515625,1.39877315697968,-1.9490595995873212,-1.406831960272789
1789422475753186800,11.428186767578126,1.3834956544794141,-1.9756331337362527,-0.589144288790226
1789422475763202000,11.4382021484375,1.3719862723410128,-1.8328613240927456,0.22726503331959247
1789422475773217000,11.448217041015624,1.3424183786816895,-1.6643571072995662,0.8718868791818618
1789422475783231000,11.45823095703125,1.242310675635934,-1.5418129699096084,1.2681769382983445
1789422475793246000,11.468245849609374,1.1099257469069213,-1.464033564658463,1.6291390789240598
1789422475803261000,11.478260986328126,0.8934078061163425,-1.4150707963079214,1.8853093042105435
1789422475813275000,11.48827490234375,0.6749949184246361,-1.4775141007393597,2.03216633734107
1789422475823289900,11.498289794921876,0.591072626504302,-1.6713579259723423,2.195558325687051
1789422475833305000,11.50830517578125,0.5704379808850586,-1.9491572147428988,2.437161680960655
1789422475843319300,11.5183193359375,0.5902566339462996,-2.2711907820373773,2.8570184936255214
1789422475853334000,11.528333984375,0.5609305862188338,-2.6074960357904433,3.2577485810160636
1789422475863348000,11.538347900390624,0.5063913329102099,-3.0303482308790084,3.5440041479647157
1789422475873363000,11.548363037109375,0.3800384508870542,-3.4865772103905677,3.7960026405245064
1789422475883378000,11.5583779296875,0.17592589122653007,-3.9332705920547246,4.043196363151073
1789422475893392100,11.56839208984375,0.03547346444129944,-4.376317141649126,4.31183736295402
1789422475903407000,11.578406982421875,-0.09256021027565002,-4.752895953601598,4.630815049809217
1789422475913422000,11.588422119140626,-0.14944997223317621,-5.058557647287845,4.991816353401542
1789422475923436300,11.598436279296875,-0.0913226313047111,-5.50549711266756,5.315271477931738
1789422475933451300,11.608451171875,0.22216581048443912,-5.945986378994584,5.659327491942047
1789422475943466000,11.618466064453125,0.572529692467302,-5.796209074503183,6.326322497653961
1789422475953480000,11.62847998046875,1.0219675505340098,-5.348627219566702,6.811027337804436
1789422475963495000,11.638494873046875,1.3953168790459631,-4.914772861209512,7.159691137871146
1789422475973509000,11.648509033203124,1.6421330005317925,-4.7094197999686,7.19905401096642
1789422475983524000,11.658524169921876,1.852255614262074,-4.683716618913412,6.524234595239162
1789422475993539000,11.6685390625,1.8108271869391201,-4.488370572423935,5.101874810966849
1789422476003553300,11.67855322265625,1.9925262547396123,-4.9732121906965965,4.826124855941534
1789422476013568300,11.688568359375,1.8927426690816878,-5.321499558666348,4.479794467258453
1789422476023583200,11.698583251953124,1.6677140165120363,-5.296201451280713,3.6563930943042036
1789422476033597000,11.708596923828125,1.63122757563591,-5.749262614411116,3.154412709704041
1789422476043612000,11.71861181640625,1.370133191820234,-6.481385633593797,2.8431133023917674
1789422476053627100,11.728627197265626,0.7922188837051392,-6.5588330304116,2.870046317502856
1789422476063641000,11.73864111328125,0.41228776565007863,-6.7966562826246015,2.8670114798516035
1789422476073656000,11.748656005859376,0.19755437018871305,-7.243954059922695,2.5626363188445564
1789422476083670000,11.758669921875,0.157171506395936,-7.541807710206508,1.836995647418499
1789422476093685200,11.768685302734376,0.1877805796712637,-7.4529095295697445,1.0310323159992694
1789422476103700200,11.7787001953125,0.31214111883342266,-7.180671382057667,0.3711281453311443
1789422476113714000,11.7887138671875,0.5228044883769005,-6.849434517610073,-0.43448447295427317
1789422476123729000,11.79872900390625,0.7064934148203581,-6.499737867364287,-1.4701970557242632
1789422476133744000,11.808744140625,0.8884878123056144,-6.138732472118735,-2.2659306695520876
1789422476143758000,11.818758056640625,1.0546749843280763,-5.703995485708117,-2.6722517088174818
1789422476153773000,11.82877294921875,1.195145531291887,-5.16334371740818,-2.841118329182267
1789422476163788000,11.8387880859375,1.3045236784428358,-4.588343981565535,-2.8463410322666167
1789422476173802200,11.84880224609375,1.4129431366294622,-4.130949173144996,-2.9005548530131575
1789422476183817200,11.858817138671874,1.386546128091216,-3.7521500547945497,-3.0296734003573653
1789422476193831000,11.868830810546875,1.3478501944720744,-3.294707900100946,-3.2661277023047206
1789422476203846000,11.878845947265624,1.1540062961738555,-2.8465590589314695,-3.533486845603585
1789422476213860900,11.88886083984375,0.9519335717778652,-2.3495927031010386,-3.779259595516324
1789422476223875000,11.898875,0.6116887135535478,-1.7074825477987527,-3.8681379024088383
1789422476233890000,11.90889013671875,0.17437120913043616,-1.0469114376544952,-3.8250685760110614
1789422476243905000,11.918905029296875,-0.2620283036649227,-0.3251835557579994,-3.702432376423478
1789422476253919200,11.928919189453126,-0.8701401816450058,0.40034605650901794,-3.3734348153352736
1789422476263934200,11.938934326171875,-1.3089537698447704,1.1383178017199038,-2.957644521456957
1789422476273949200,11.94894921875,-1.7922458205878733,1.7510002024859188,-2.586759537231922
1789422476283963000,11.958962890625,-2.2234810824878513,2.2260756290256976,-2.2920488611489533
1789422476293977900,11.968977783203124,-2.6112691245883703,2.6595669992893933,-1.9615420645415782
1789422476303992000,11.978991943359375,-3.0412866812616586,2.958393878519535,-1.6324094788968562
1789422476314007000,11.989007080078125,-3.4291748227357863,3.1943998521775003,-1.241961716067791
1789422476324022000,11.99902197265625,-3.76716349953115,3.3464316575974222,-0.8679507087767123
1789422476334036200,12.0090361328125,-4.024019368994236,3.388201591834426,-0.5145628027975558
1789422476344051200,12.01905126953125,-4.103304502633214,3.3877439111948013,-0.1664654044419527
1789422476354066200,12.029066162109375,-3.9417958438158034,3.3914918655514716,0.17323124531507492
1789422476364079900,12.039079833984376,-3.5758632213011383,3.381691771548986,0.44187166059613225
1789422476374094800,12.0490947265625,-3.0338971555322405,3.330992096403241,0.6139315240442752
1789422476384109000,12.059109130859374,-2.4256816710472107,3.2024475495547056,0.6674363197386265
1789422476394124000,12.0691240234375,-1.8126164084434508,3.1088164951771495,0.6741273418098688
1789422476404139000,12.079138916015625,-1.256631461933255,3.053013359412551,0.7043260807186364
1789422476414153200,12.0891533203125,-0.7983446731090545,2.964298134127259,0.6991676750421524
1789422476424168200,12.099168212890625,-0.3716771575160324,2.877732780352235,0.6977794355541467
1789422476434183200,12.10918310546875,-0.013227291972190141,2.8365187264323235,0.7113736611425876
1789422476444197000,12.119197021484375,0.2544694127179682,2.8067531182438135,0.6038198798745871
1789422476454211800,12.1292119140625,0.44083588780760763,2.818505515357852,0.46839726395010944
1789422476464227000,12.13922705078125,0.5723872152566909,2.826234063783288,0.29039398192763327
1789422476474241000,12.149240966796874,0.6042404433742166,2.8307109169363973,0.2475672321140766
1789422476484256000,12.159256103515625,0.5699929405312985,2.9112136096715924,0.2957476179152727
1789422476494270200,12.169270263671875,0.5429173751443624,3.032583734846115,0.3103565735042095
1789422476504285200,12.17928515625,0.4876272304031998,3.1628567129224536,0.22429683116376398
1789422476514300200,12.189300048828125,0.4377887751966715,3.263290433052182,-0.029206220740079877
1789422476524314000,12.199314208984376,0.48900151443108913,3.325504020380974,-0.3368587959825992
1789422476534329000,12.2093291015625,0.6115624568253755,3.376529858741164,-0.6259820273220539
1789422476544344000,12.219343994140624,0.6821919903218746,3.2703409360855815,-1.0290963795006274
1789422476554358000,12.22935791015625,0.7101368128240108,3.00497267434299,-1.496937763133645
1789422476564373000,12.239373046875,0.7204558891993016,2.702160524868965,-1.914413818141818
1789422476574388000,12.249387939453126,0.7409230692971497,2.3876930089145896,-2.340105328309536
1789422476584402200,12.259402099609375,0.7524006680577993,2.075727246648073,-2.9371856707960364
1789422476594417200,12.269417236328126,0.7807961569368839,1.8412094657212494,-3.49153337149322
1789422476604431000,12.27943115234375,0.9129600633263587,1.7366648031413554,-3.9430730241447685
1789422476614446000,12.289446044921876,1.051658997507766,1.7741987072438001,-4.32825132213831
1789422476624461000,12.2994609375,1.1681752529103309,1.8264941271483897,-4.79299123262465
1789422476634475000,12.30947509765625,1.2714648739278316,1.905720808598399,-5.2718315646558995
1789422476644490000,12.319489990234375,1.3608528839081524,2.039562877333164,-5.672877293866873
1789422476654505000,12.3295048828125,1.4270850592285393,2.249768639302254,-6.062293375560641
1789422476664519200,12.339519287109376,1.3942764300823212,2.561265615013242,-6.511273406857252
1789422476674534100,12.3495341796875,1.3759189356148243,2.843950922259688,-6.9647560102701185
1789422476684549000,12.359549072265626,1.2350082436680794,2.9065602309077976,-7.455462136662006
1789422476694563000,12.36956298828125,0.9913076969195157,2.8995763633698224,-7.996060713469982
1789422476704578000,12.379578125,0.6800117236733436,2.8037089282423255,-8.30945972341001
1789422476714592000,12.389592041015625,0.3212666015099734,2.625732534226775,-8.42667331342697
1789422476724607000,12.39960693359375,-0.018984686455130576,2.4358161115705967,-8.450165248173475
1789422476734622000,12.4096220703125,-0.4091659073024988,2.2210341277271506,-8.27536514610648
1789422476744636200,12.41963623046875,-0.7485767989207058,1.9911264709442853,-7.867999566224217
1789422476754651100,12.429651123046876,-0.9631155485928058,1.6961989372402428,-7.318015905955433
1789422476764666000,12.439666015625,-0.9282428265236318,1.2721183694005012,-6.764322285252809
1789422476774680000,12.44968017578125,-0.7009827616401016,0.7486334244787692,-6.185315359595418
1789422476784695000,12.459695068359375,-0.42919294241741296,0.11827858889997005,-5.6465814076155425
1789422476794709000,12.469708984375,-0.12646321052983403,-0.6045236442297697,-5.2198044402986765
1789422476804724000,12.479723876953125,0.1434684866707772,-1.251708034056425,-4.725740235650539
1789422476814739000,12.489739013671874,0.3864139772683382,-1.7851824580729008,-4.127006865260005
1789422476824753200,12.499753173828125,0.5156406611621379,-2.234610817658901,-3.4537048683583733
1789422476834768000,12.509767822265625,0.5790069256573915,-2.514850193057954,-2.658370482981205
1789422476844782800,12.519782958984376,0.6109649293236434,-2.652405729357898,-1.8429378969490526
1789422476854796500,12.529796630859375,0.5877934587031602,-2.677516205216944,-1.013576738807559
1789422476864811800,12.539811767578126,0.5795154597014188,-2.591852768717706,-0.2675438522160053
1789422476874826800,12.54982666015625,0.5646105899058282,-2.47591635902971,0.32307284721434115
1789422476884840700,12.5598408203125,0.5687940130703151,-2.3565371154114603,0.7871364658743143
1789422476894855700,12.569855712890625,0.5708030148051679,-2.2882611593037843,1.1475415571391583
1789422476904870000,12.579869873046874,0.5813005895525216,-2.3091063789337873,1.4019558786690234
1789422476914884900,12.589884765625,0.5434913756400347,-2.418475977452099,1.6136586011976002
1789422476924899800,12.59989990234375,0.45781054961457845,-2.6527295544847846,1.7412001084834337
1789422476934913500,12.60991357421875,0.3917966932199895,-2.9546199129387736,1.9330887079954147
1789422476944928800,12.6199287109375,0.2550071728564799,-3.278303877788782,2.1903508201718327
1789422476954943700,12.62994384765625,0.10490297449827193,-3.700543493936956,2.474717796894908
1789422476964957700,12.639957763671875,-0.017341449292749167,-4.109838580577075,2.8207839816838503
1789422476974972700,12.64997265625,-0.0879195448629558,-4.394157334244251,3.2029251039385795
1789422476984987600,12.659987548828125,-0.1443697463594377,-4.6528819201886655,3.5715970882892605
1789422476995001900,12.670001953125,-0.17922434825003147,-4.897487672148644,3.8914726007670164
1789422477005016800,12.680016845703125,-0.28043796671107407,-5.100083835896849,4.228423751208186
1789422477015030500,12.690030517578125,-0.4199012363284826,-5.209751832839847,4.611549792847037
1789422477025045800,12.700045654296876,-0.5337191925577819,-5.243748210465908,4.923554718080163
1789422477035060700,12.710060791015625,-0.6480196716070175,-5.252503763851523,5.143415028101206
1789422477045074700,12.72007470703125,-0.7343443484939635,-5.2614060322314495,5.328927662840485
1789422477055089700,12.730089599609375,-0.8039959768690168,-5.2582186343669886,5.486115535849333
1789422477065104600,12.740104736328124,-0.7893276923082768,-5.265394225084782,5.511841513258219
1789422477075118800,12.750118896484375,-0.8285638702839613,-5.396634586888552,5.420149317988753
1789422477085133800,12.7601337890625,-0.8872925381064415,-5.644127000200748,5.275445078977942
