time,seconds_elapsed,z,y,x
1789324249044786200,0.0627861328125,-0.5928109946042299,-0.5023480488687754,4.361952516210079
1789324249054748400,0.07274853515625,-0.7435439923852681,-1.1035995395600795,2.8633786763072013
1789324249064710400,0.08271044921875,-1.2184651051461697,-2.4429689059346913,2.949238512161374
1789324249074673200,0.092673095703125,-1.7207967874020338,-2.198734033113718,2.769813380642235
1789324249084635100,0.10263525390625,-2.0214473749279973,-1.7912696690320968,2.667758781312406
1789324249094598400,0.112598388671875,-1.7991046004414557,-2.166045815476775,1.960167853578925
1789324249104560400,0.122560302734375,-1.2692542121410368,-2.16756615691185,1.3668152994439005
1789324249114522000,0.132522216796875,-0.8795809408158063,-1.7956179273694752,1.0940725634105504
1789324249124485400,0.1424853515625,-0.3563900104045868,-1.5940408775359391,1.0502203430067747
1789324249134447400,0.152447265625,0.3531710483580828,-1.8295441623687743,1.0168173281639814
1789324249144410400,0.162410400390625,1.2771405814766883,-1.902783586102724,0.51771176834777
1789324249154372000,0.1723720703125,1.3294891928732395,-1.8671996470242738,0.9192788910843431
1789324249164334300,0.182334228515625,1.1747720938920974,-1.9052642970025537,1.5196373784586785
1789324249174297300,0.19229736328125,-1.5949813732564448,0.16892565707564353,-3.8129306867107746
1789324249184259000,0.202259033203125,-4.63388671233952,4.008199868571758,-10.537080243790149
1789324249194222300,0.212222412109375,-1.3871967009544373,6.388079573386907,-10.16786348503828
1789324249204184300,0.222184326171875,-3.187794754824042,2.3703806395858527,-4.807968144743144
1789324249214146300,0.232146240234375,-3.116231155347824,-0.11861001281142235,0.6394353831350803
1789324249224109000,0.242109130859375,0.5805144076108932,0.09160130211561918,0.5669327492430806
1789324249234071300,0.2520712890625,3.9524107613325117,0.915508871026337,2.1124355135813353
1789324249244034300,0.262034423828125,2.6724574605226517,1.585443145060539,2.7052982383728024
1789324249253996300,0.271996337890625,2.3390613722145557,1.0256371789574623,2.7890818524748084
1789324249263958300,0.281958251953125,0.6669622724860906,0.1610565311357379,1.2494698997408151
1789324249273921300,0.29192138671875,-0.37912498930394645,-0.18115443952977656,0.3424190604582429
1789324249283883300,0.30188330078125,-0.4610001394361257,0.0637175621509552,1.3023723456278442
1789324249293846300,0.31184619140625,-0.3431605264753103,0.013460954597592353,3.93773692381382
1789324249303808300,0.321808349609375,0.048045361244678494,0.12747194918096064,3.5435964439466594
1789324249313770200,0.331770263671875,-0.30437223839759825,0.5635989286452532,2.607576407550275
1789324249323733200,0.341733154296875,-0.25187866557240485,-0.5417310879692435,1.7951880115196108
1789324249333695200,0.3516953125,-0.39572541097104547,-2.139695276428759,1.5569439035460353
1789324249343658200,0.361658203125,-1.524601430606842,-2.031484492556751,1.1581463916532695
1789324249353620200,0.3716201171875,-1.6318085903942583,-0.43451925200670954,-0.023863471472635865
1789324249363582500,0.38158251953125,-2.153582055222988,1.385610016284883,-1.5589013212241232
1789324249373545200,0.391545166015625,-1.7517881379932163,2.8415935454785823,-5.687791369882226
1789324249383507200,0.401507080078125,-1.1923434064179659,2.484232936476171,-6.673411011227965
1789324249393470200,0.41147021484375,-2.4411703320801257,0.202752231092751,-1.4502742116361855
1789324249403432400,0.421432373046875,-1.759454142576456,-0.6906982451215385,0.007924838182516396
1789324249413394200,0.431394287109375,-1.1511410429358482,-1.6442705970823763,0.8819523461222648
1789324249423357200,0.441357177734375,-0.03810089033544063,-1.4151406466737388,1.0552447470400481
1789324249433319400,0.4513193359375,5.398289952880144,-0.26847762593477964,2.131751916208863
1789324249443282400,0.461282470703125,4.852964347550273,-0.5375697305060922,2.7855247445151208
1789324249453244200,0.471244140625,1.5057050069570541,-1.9452796426571906,2.1281626595452425
1789324249463206400,0.481206298828125,3.7317549170196056,-2.077762551867962,0.4512171426989138
1789324249473169400,0.49116943359375,4.862397946327924,-2.463893036019802,1.1412968175306915
1789324249483131100,0.501131103515625,3.8900118805646895,-2.208091205654293,0.4300860918648541
1789324249493094100,0.51109423828125,3.3200977774232623,-1.2879438611723482,-1.6573470824070273
1789324249503056400,0.521056396484375,3.020173166084289,-0.6983136885613203,-2.0147873325169083
1789324249513018400,0.531018310546875,2.7899919530570507,-0.26270927166640756,-1.7114257324665785
1789324249522981000,0.540981201171875,3.031917379891872,0.11764949721619486,-1.448855430879444
1789324249532943400,0.550943359375,3.0318045671671627,0.8629507085323334,-1.0128827651940286
1789324249542906400,0.56090625,1.9681629439860582,1.0536804933980106,-0.31984803994894023
1789324249552868400,0.570868408203125,0.4727425996780395,0.4806652093708515,0.01664762180969119
1789324249562830300,0.580830322265625,-0.19111001635491848,0.20518603411093353,-0.5189829573273659
1789324249572793300,0.59079345703125,-0.014052490749955177,-0.05155819167122244,-1.02833620878309
1789324249582755300,0.60075537109375,0.191008309546113,-0.5684412541098892,-0.44197015253454447
1789324249592718300,0.61071826171875,0.42462943389415736,-1.314811409831792,0.8354217733547091
1789324249602680300,0.620680419921875,1.2889789033085106,-1.0254521777793764,-0.06408464189767837
1789324249612642300,0.630642333984375,1.209724749329686,-1.3129974922776222,0.3835013046920299
1789324249622605300,0.640605224609375,0.9081424339115619,-1.7491110277384518,0.5728691535547376
1789324249632567000,0.650567138671875,0.7530775444060563,-1.7327207416906951,-0.04336334090828895
1789324249642530300,0.6605302734375,0.2018751559972763,-1.692492776198685,-0.29515725080668925
1789324249652492300,0.6704921875,-0.28275369630753994,-1.937681588743627,-0.37477263931334015
1789324249662454300,0.680454345703125,-0.7438578806400299,-2.4188757904246447,-0.3446253383308649
1789324249672417300,0.690417236328125,-0.9274386705338954,-2.7458719485625624,0.09322744201272726
1789324249682379300,0.700379150390625,-0.9162930071413516,-2.5965327432274816,0.5811091586336493
1789324249692342300,0.71034228515625,-0.8963935439288616,-2.225011506925523,0.9414186805695295
1789324249702304300,0.72030419921875,-1.084926403272152,-2.267768698634207,1.1141279478371142
1789324249712266200,0.730266357421875,-1.318902332407236,-2.622325063870847,0.9997703317731619
1789324249722229200,0.740229248046875,-1.5848095233321189,-3.3369796463802457,0.7953928375661372
1789324249732191200,0.750191162109375,-1.7539333333283662,-3.8662335300922392,0.5330670122593641
1789324249742154200,0.760154296875,-2.3027327522486445,-3.9210678208246823,0.5556278036355972
1789324249752116200,0.7701162109375,-3.30020299038589,-4.077370435431599,0.7919079180598259
1789324249762078200,0.780078125,-3.5113130077183246,-3.9101235252231357,-0.24349603715240953
1789324249772041200,0.790041259765625,-3.1140029579043387,-3.1953383020713924,-1.1267056898593901
1789324249782003200,0.800003173828125,-2.3613012610733506,-2.336652849768102,-0.7097083582788706
1789324249791966200,0.80996630859375,-0.43779140554517504,-2.2225334263741967,-0.9560147766768932
1789324249801928200,0.81992822265625,0.13848551062643527,-3.3315555755048987,-0.6189706872552633
1789324249811890400,0.829890380859375,-0.24848785409033297,-4.529414822734892,-0.016628478717803954
1789324249821853200,0.839853271484375,-0.5412240152299403,-5.194892701882123,-0.3484451888799667
1789324249831815200,0.849815185546875,-0.9061842855811119,-4.961687757119536,-0.940142084762454
1789324249841777400,0.85977734375,-1.7901736904889345,-4.605836383636295,-1.3755413344740868
1789324249851740400,0.869740478515625,-1.8544582388728856,-4.189776332905888,-1.6266735655933617
1789324249861702100,0.8797021484375,0.07934533939361572,-3.0155344003677365,-2.017613495853543
1789324249871665200,0.8896650390625,0.12491349686980247,-2.3500267106041313,-1.962131847128272
1789324249881627400,0.89962744140625,1.6417828719198704,-2.0458657768696544,-2.228555755403638
1789324249891589000,0.909589111328125,3.309408625626564,-2.3092060399159786,-2.2019424737662074
1789324249901552000,0.91955224609375,2.965963436990976,-3.2727225705251097,-1.2562743190586567
1789324249911514400,0.929514404296875,1.7463234428465366,-4.2322862718552345,0.006609773528575897
1789324249921477400,0.939477294921875,0.7003133379459381,-4.093817127841711,1.4674644158899783
1789324249931439000,0.949439208984375,0.5119844402095303,-3.3977538485556837,2.2713743219107387
1789324249941401300,0.9594013671875,0.817291877098009,-2.6691841379404067,2.6567110253363846
1789324249951364400,0.9693642578125,0.9207949216704815,-1.7379973669193685,2.8267537037432193
1789324249961326300,0.979326416015625,1.0783515549264848,-0.6456438823863864,2.856491839402914
1789324249971288300,0.989288330078125,1.971291743531078,0.5116133053421974,3.2007945216506717
1789324249981251300,0.999251220703125,0.7810333266936242,1.03049952429682,5.011561502835154
1789324249991213300,1.00921337890625,-0.16858546533584592,0.9824819278419017,5.329603954666853
1789324250001176300,1.01917626953125,-0.3389318028643727,1.4088210882633925,5.11395863199234
1789324250011138300,1.02913818359375,-0.6137909465298056,1.8844167392849922,5.187433618047833
1789324250021100300,1.039100341796875,-1.1031050340414046,2.0286708964407443,5.285089690157771
1789324250031063300,1.049063232421875,-1.9758213497847317,2.1894804670780896,5.732255950030684
1789324250041025300,1.059025390625,-2.7762922212675214,3.197709415116906,6.368112890157104
1789324250050987300,1.0689873046875,-3.4439413069739935,4.253659314751625,6.637396279516816
1789324250060950300,1.0789501953125,-4.3121702481701965,4.496125424334407,6.79265113863647
1789324250070912300,1.088912353515625,-4.6162850046753885,4.443645295512676,6.888858180981874
1789324250080875300,1.098875244140625,-4.183513180857896,4.639828961870074,6.710588356977701
1789324250090837200,1.108837158203125,-3.969745634754002,4.442218477579951,6.372248382526636
1789324250100799200,1.11879931640625,-3.8796182045832275,4.265501728236675,6.0778217840820545
1789324250110762200,1.12876220703125,-3.896762231607735,4.66870785035193,6.028871582952141
1789324250120724200,1.13872412109375,-4.138274109205604,4.912720020332932,5.668292888686061
1789324250130686200,1.148686279296875,-4.182253536185622,4.925298931398988,5.169685195389389
1789324250140649200,1.158649169921875,-4.081008207412064,4.581590123391151,4.371826259970665
1789324250150611200,1.168611083984375,-3.6537343964889644,4.097807658782601,3.1058851179003715
1789324250160574200,1.17857421875,-3.335494376258552,4.009681047040224,1.7520143479645252
1789324250170536200,1.1885361328125,-3.3840403805017467,4.1850650864750145,0.7593307595819234
1789324250180498400,1.19849853515625,-3.406840241330862,4.105411704045534,-0.07174012508690357
1789324250190461200,1.208461181640625,-4.110417841769754,3.6450767505198716,-0.39384792666137214
1789324250200423200,1.218423095703125,-4.2369884581968185,2.1765993581950664,-0.5995791735649109
1789324250210385400,1.228385498046875,-3.690927232068777,0.7442655846580862,-1.0606851114630698
1789324250220348400,1.238348388671875,-3.1121698972582816,0.581710339397192,-1.7292232549637554
1789324250230310100,1.24831005859375,-2.882389081725478,0.8952224543228745,-1.8097504976183174
1789324250240273200,1.258273193359375,-2.835061513361335,0.9073933691099285,-0.7149883445084094
1789324250250235400,1.2682353515625,-2.462104399037361,0.786849757887423,0.5007581493288278
1789324250260197000,1.278197021484375,-1.066482984086871,0.39586628074645996,1.3111398817121982
1789324250270160100,1.28816015625,1.2223976953547446,0.0788821057960391,1.9374808054745196
1789324250280122400,1.298122314453125,2.731907428357005,-0.7376873753115535,2.129083573782444
1789324250290084400,1.30808447265625,3.7103199148029087,-1.8690373838454484,1.6921522921979426
1789324250300047000,1.318047119140625,3.9490409926384684,-2.4825644187420606,1.4278022675871849
1789324250310009300,1.32800927734375,3.56337403434515,-1.9230381463631987,1.2589151889562606
1789324250319972400,1.337972412109375,2.332867193749547,-1.6245006054684519,0.7898942401498555
1789324250329934300,1.347934326171875,0.7592839978307485,-1.218324235370755,0.45573651981949803
1789324250339896800,1.357896728515625,-0.5122766646217555,-0.4615785238459706,0.7272989600270986
1789324250349859800,1.36785986328125,-0.5222427628409118,0.7799009616628289,0.8940233076661824
1789324250359821800,1.37782177734375,-3.1979058144718406,1.0403215378701687,1.390656486019492
1789324250369783800,1.38778369140625,0.6668482907176018,2.2841376496329904,-1.971846600934863
1789324250379746800,1.397746826171875,3.025573563823104,2.90227539319545,-1.8589041123658419
1789324250389708800,1.407708740234375,1.3312211312323807,0.42108840028643607,0.17358546558022497
1789324250399671800,1.417671875,2.8373183523774146,-2.9400992201551794,0.737111913511157
1789324250409633800,1.4276337890625,3.41825770740211,-4.740037641072273,2.2001672807872295
1789324250419595800,1.437595703125,2.6686691741555926,-5.381427665406465,1.4692454540878535
1789324250429558800,1.447558837890625,1.2034849781572818,-3.9486829729810355,0.3508960891634226
1789324250439520800,1.457520751953125,-0.9262152662187814,-2.2770707799866794,-0.39709845288991924
1789324250449483000,1.46748291015625,-2.6512720491528508,-0.9300888927817345,-0.8180857308894396
1789324250459445800,1.47744580078125,-3.036949528840184,-0.19610534042418,-0.7607336121171713
1789324250469407700,1.48740771484375,-2.625820212510228,0.15140256760567425,-0.8397574644714594
1789324250479370800,1.497370849609375,-2.2333301301985977,-0.7833855889081954,-0.5944827272087335
1789324250489333000,1.5073330078125,-0.8662205239832401,-3.440081416675448,0.34881694480180736
1789324250499294700,1.517294677734375,1.222265739538148,-5.26049125547409,1.1123077466726303
1789324250509257700,1.5272578125,3.120332160925865,-4.827127603243291,1.55479958499372
1789324250519220000,1.537219970703125,3.6224843949615955,-5.021888251060247,1.824792583927512
1789324250529181700,1.547181640625,2.159572235548496,-5.01906734842062,1.6910358553886413
1789324250539144700,1.557144775390625,0.15058507721032946,-3.186295456176996,1.8581851504415272
1789324250549107000,1.56710693359375,-1.0101970332413912,-0.6647483958289027,0.9969009138166904
1789324250559070000,1.577070068359375,-1.2909276992887257,0.2576195473119616,-0.16052257038950918
1789324250569031700,1.58703173828125,-1.61662446526587,0.6085191436067223,-0.44152387007176874
1789324250578994000,1.596993896484375,-1.9975410141617058,0.8843778197035193,-0.7887754652529955
1789324250588957000,1.60695703125,-2.1130518919140098,1.1796247946202754,-1.0399866068273782
1789324250598919000,1.6169189453125,-2.203961412373185,1.4043603094622492,-1.119216210886836
1789324250608880600,1.626880615234375,-2.4353543392777444,1.1510305682986974,-0.8351660450279712
1789324250618844000,1.636843994140625,-2.3027374284237623,0.5079693958818913,-0.03279693870842457
1789324250628806000,1.646805908203125,-1.7258517327040432,0.17089578810483216,0.08557108204066753
1789324250638769000,1.656768798828125,-0.7786983078747988,0.006844751328229904,-0.11152443846464156
1789324250648731000,1.66673095703125,-0.3202852623224258,0.020937574088573455,0.4355471337497234
1789324250658692900,1.67669287109375,-1.3310609722346067,0.5098807824611663,0.31078035187423225
1789324250668655900,1.68665576171875,-1.701570108884573,0.5532312638878822,-0.39589083066582675
1789324250678617600,1.69661767578125,-0.4672364034771919,1.0304951403826474,-0.24048165776729583
1789324250688579800,1.706579833984375,0.8894728047549724,1.8520266278117894,-0.40660687046945093
1789324250698542800,1.71654296875,2.629029822206497,1.7306056492328643,-0.7127052020072937
1789324250708504800,1.7265048828125,0.979350059556961,2.4245219796180724,-0.2135305224776268
1789324250718467800,1.7364677734375,0.6010450813990086,2.9123171869993207,0.434302102124691
1789324250728429800,1.746429931640625,1.241239100881666,2.4301316361933947,0.8911673337131738
1789324250738391800,1.756391845703125,1.179749736174196,2.005433813238144,0.8892524400025605
1789324250748354800,1.766354736328125,1.4396318215906618,1.6466209596008061,0.7135615265756845
1789324250758316800,1.77631689453125,0.8320937979757785,1.0261854604899883,0.18409166202545166
1789324250768278800,1.78627880859375,1.0616884432867169,0.13018120813965797,-0.04814794483631849
1789324250778241800,1.79624169921875,2.805133408087492,1.3866355599403382,1.442576642870903
1789324250788203800,1.806203857421875,4.201285861174762,4.068773871999979,3.05938318670541
1789324250798166800,1.816166748046875,4.818410628302395,3.380465444624424,1.5144915400028227
1789324250808128800,1.826128662109375,5.294141011619567,3.774125155237317,0.4124528200186789
1789324250818091000,1.836091064453125,4.602933355671167,4.346978234440088,0.045113253315538164
1789324250828053800,1.8460537109375,2.590221075862646,3.3710353529781103,-0.5877148405089974
1789324250838015700,1.856015625,1.2458652993775903,2.421447979000211,-0.8180071126952767
1789324250847978800,1.865978759765625,2.930086652445793,4.597852691406011,-0.3895192498072982
1789324250857941000,1.87594091796875,2.2429951996445654,3.513098722091317,-1.424154997126013
1789324250867902700,1.88590283203125,2.151325800728798,1.2255389890551567,-2.939122191816568
1789324250877865700,1.89586572265625,2.1855215003192425,-1.0277280137568712,-3.8663030881971117
1789324250887828000,1.905827880859375,2.8859488200336694,-3.654100599452853,-4.150113015559316
1789324250897789700,1.915789794921875,4.193212152573466,-5.087402633500099,-3.3390055992498993
1789324250907752700,1.925752685546875,3.2802205250650642,-7.887707890778779,-2.5709286386325956
1789324250917715000,1.93571484375,1.8309160352438687,-11.772315281951427,-1.736655304660648
1789324250927678000,1.945677978515625,1.9359686473459004,-9.290607187777757,-0.8584211022786795
1789324250937639700,1.9556396484375,0.7648805026635527,-7.5850909716159105,0.033921851085126395
1789324250947602000,1.965601806640625,1.0478811594694852,-5.473410368055105,0.7778136339947581
1789324250957565000,1.97556494140625,1.9126435935989021,-2.6781606406003235,1.7030471956998108
1789324250967527000,1.98552685546875,2.1485236027896404,-0.660105830720067,2.4305796722218393
1789324250977489700,1.99548974609375,1.6535826153069733,0.3694324473291635,2.560817286723852
1789324250987452000,2.005451904296875,1.2279166779719293,1.0708452709496021,2.740720849409699
1789324250997414000,2.015413818359375,0.828121898670122,1.408838623920083,2.6489360074207187
1789324251007377000,2.025376953125,0.23692016589343545,1.3852923286378382,2.3934270225219425
1789324251017339000,2.0353388671875,-0.21701778007149694,0.9539818095445632,2.1350322530537844
1789324251027302000,2.045302001953125,-0.7200386136353015,0.07804185557961464,1.5558527473084627
1789324251037264000,2.055263916015625,-1.4184142615169286,-0.846214677786827,1.0231985536336898
1789324251047225600,2.0652255859375,-2.0610393806040284,-1.6123995410472154,0.5549461780469864
1789324251057188900,2.07518896484375,-2.227583695501089,-1.9426193374067544,0.350057884773612
1789324251067150800,2.08515087890625,-2.0875895338773724,-1.6895663673579693,0.4730076072897762
1789324251077113900,2.09511376953125,-2.7120108877539635,-0.9015589638680219,0.4881671094335615
1789324251087075600,2.10507568359375,-0.3960543506644666,0.536398202508688,0.44012901817988603
1789324251097037800,2.115037841796875,-0.11841828963160514,1.4282915124088524,0.05904416351243853
1789324251107000800,2.125000732421875,-2.3223593898691237,1.509272928571701,-0.444234151943773
1789324251116962800,2.134962890625,-2.718200974565744,1.4771785851746797,-0.6192926857512444
1789324251126924800,2.1449248046875,-2.0101532429754734,1.4957196195155382,-0.5069885681509971
1789324251136887800,2.1548876953125,-1.4281550265476106,1.2836580005466938,-0.11516571757644414
1789324251146849800,2.164849853515625,-1.0521112713199108,1.0662029981017112,0.05013035082519054
1789324251156812800,2.174812744140625,-0.7523438963692635,0.3453653430432081,0.39528175885677336
1789324251166774800,2.18477490234375,-0.29151377973780035,-0.5294815549880266,0.3968124755553901
1789324251176736800,2.19473681640625,-0.09286408859305083,-0.9584194997310638,0.1801649901010096
1789324251186699800,2.20469970703125,0.37459092607088385,-1.0839642802417278,0.3347919265806675
1789324251196661800,2.214661865234375,0.6471078905243426,-0.7508020006895065,1.13123325028643
1789324251206624800,2.224624755859375,0.5580303347326815,0.30997955688536166,1.347616824107617
1789324251216586800,2.234586669921875,-0.10135507275834679,1.629683268803358,1.2564436842761932
1789324251226549000,2.244549072265625,0.13245719024762512,1.3272481359481811,1.2947694694086909
1789324251236511700,2.25451171875,1.4677040698647499,1.0371423233121633,0.8068024125918746
1789324251246473700,2.2644736328125,1.2379891591750085,0.6133551854610443,1.18464262278229
1789324251256436700,2.274436767578125,1.1045474879346788,0.3424474097698927,2.3633605316907165
1789324251266399000,2.28439892578125,1.3976713332176207,0.3292471519351005,2.552345226454735
1789324251276360700,2.294360595703125,1.0143920737784355,-0.340089448466897,2.46837281178236
1789324251286323700,2.30432373046875,0.2021756002485752,-1.4855775802075861,1.863963149321079
1789324251296286000,2.314285888671875,-0.45003275521993635,-2.6688427771568297,0.7314820909306406
1789324251306249000,2.3242490234375,-0.7781669774770736,-3.2821132069438694,-0.8250798275604844
1789324251316210700,2.334210693359375,-1.2814292185813188,-3.3794740954995155,-1.4829694435358047
1789324251326173000,2.3441728515625,-1.4259101702302694,-2.7383611345410346,-1.7066665552407503
1789324251336136000,2.354135986328125,-2.7982015629976984,-1.4183721759408712,-2.523974579755962
1789324251346098000,2.364097900390625,-3.6665380562216043,0.5041781869053841,-5.0276013680100435
1789324251356061000,2.37406103515625,-1.6047253531575203,1.1601742442190646,-5.663612037393451
1789324251366023000,2.38402294921875,-0.17471717302389442,1.0269763186067342,-3.9837209686145183
1789324251375986000,2.39398583984375,0.5865658896695822,0.6205225928723812,-1.8695093852713702
1789324251385948000,2.403947998046875,1.1106062034517525,0.6280395443737506,-0.45306320895701646
1789324251395910100,2.41391015625,2.0820582032352686,1.2366823143601418,-0.2872746808633208
1789324251405873000,2.423872802734375,3.1958149796724316,1.8295494230657814,-0.6495178012102842
1789324251415835000,2.4338349609375,3.7804911831378933,2.2872060972929,-1.1684198022559285
1789324251425798000,2.4437978515625,2.443821723371744,3.7289959737002847,-1.0733861876040696
1789324251435760000,2.453760009765625,-2.743278132677078,3.159213387984037,-1.1996031682878732
1789324251445721900,2.463721923828125,-3.562532322824001,2.1412410445660353,-0.8355603050425648
1789324251455684900,2.473684814453125,-1.81112587762475,1.8270155206739902,0.23661270737946033
1789324251465647000,2.483647216796875,-0.5184196243561804,0.8992378274440764,0.9853995688542723
1789324251475610000,2.493610107421875,-0.003886997501179576,0.4730500581920147,1.4516115977197885
1789324251485571800,2.50357177734375,-0.12316694546341896,-0.18997487484514713,2.041348007184267
1789324251495533800,2.513533935546875,-0.4276397216260433,-0.8369967675864696,2.675125510688126
1789324251505497000,2.5234970703125,-0.5631681360125541,-1.0927321085870265,2.845340915313363
1789324251515458800,2.533458740234375,-0.6880057181019336,-1.0338199008911848,2.2447402897462245
1789324251525421800,2.543421875,-0.8423042263448238,-1.223427111467719,1.113261394135654
1789324251535384000,2.553384033203125,-1.5228174697995185,-1.168043662419915,0.4277762074872851
1789324251545346000,2.563345947265625,-2.127962460798025,-0.6908890915185213,0.1954962686151266
1789324251555308800,2.573308837890625,-2.231843691033125,-0.4108902468770742,0.32622605054825543
1789324251565270800,2.583270751953125,-1.9827987875819204,-0.36224633521735666,0.4276189710989594
1789324251575234000,2.593234130859375,-1.5733622466444968,-0.4705909746021032,0.40608839955329895
1789324251585196000,2.603196044921875,-1.1519313165307044,-0.5358586888045073,0.5441875412106514
1789324251595159000,2.613158935546875,-0.7291209878224879,-0.6371943262100219,0.7675406617835163
1789324251605121000,2.62312109375,-0.3811935392063111,-0.717637397712469,1.0370166511058807
1789324251615083000,2.6330830078125,-0.152753068899177,-0.6080319446116685,1.1190636506736278
1789324251625046000,2.6430458984375,-0.127478305856511,-0.5192115053862333,1.1742048153981566
1789324251635007700,2.6530078125,-0.33752982711195945,-0.37094752806723114,1.2776438548237086
1789324251644971000,2.662970947265625,-0.5875006132364273,-0.13994097013175485,1.5290601635813712
1789324251654933000,2.67293310546875,-0.7811714199900627,0.14663491481244564,1.6838403909265993
1789324251664896000,2.68289599609375,-0.9451813210386782,0.39332711765766143,1.702610557848215
1789324251674857700,2.692857666015625,-1.024063646030426,0.5491425332695246,1.6534586966663598
1789324251684820000,2.702820068359375,-1.0749894580822437,0.6168330907046794,1.6387372206136583
1789324251694783000,2.712782958984375,-1.1086743586063383,0.616604542645812,1.4945888619199394
1789324251704745000,2.722744873046875,-1.1776865200340747,0.578793575167656,1.3698454609200357
1789324251714708000,2.7327080078125,-1.2725590989053248,0.578198531883955,1.1895765720531344
1789324251724670000,2.742669921875,-1.3633376864612101,0.6436573847442865,0.9507964575067162
1789324251734632000,2.7526318359375,-1.4745815544188021,0.6873901434868573,0.9435378646805882
1789324251744595000,2.762594970703125,-1.5982348220944405,0.5922317334115504,0.9083364951789379
1789324251754557000,2.772556884765625,-1.6996236509919165,0.4334902012199163,0.9376385775089263
1789324251764520000,2.78252001953125,-1.7801789506971835,0.2958031474947929,1.017122156329453
1789324251774482000,2.79248193359375,-1.8299170873343944,0.14175941773056983,1.0030798947125672
1789324251784445000,2.80244482421875,-1.8556255290865897,-0.015217442876100539,0.9564446925267577
1789324251794407000,2.812406982421875,-1.8416928653240203,-0.14682196181714535,0.9373200130790471
1789324251804369000,2.822368896484375,-1.7996961365938187,-0.33089725722968577,0.9305573870763182
1789324251814332000,2.832331787109375,-1.8387983129262924,-0.48085342541933057,0.9554451600953936
1789324251824294000,2.8422939453125,-1.974485717266798,-0.5810550903588533,0.915909853042662
1789324251834257000,2.8522568359375,-2.2077111202955244,-0.5760656115084887,0.9113511668249964
1789324251844219000,2.862218994140625,-2.3831413369596004,-0.48488428837060926,0.8278975153297186
1789324251854181000,2.87218115234375,-2.453853288042545,-0.3013894231945276,0.7778533814832568
1789324251864144000,2.882143798828125,-2.4530676906228064,0.0737298375993967,0.6401844479367137
1789324251874105900,2.89210595703125,-2.297525246733427,0.3831032452851534,0.47392830233126876
1789324251884068900,2.90206884765625,-2.035611509358883,0.5651543413937091,0.31073709725439547
1789324251894031000,2.912031005859375,-1.670741255378723,0.5711211408436297,0.02715045725405216
1789324251903993900,2.921993896484375,-1.2758067025244235,0.43047523731291293,-0.2986208352640271
1789324251913955800,2.931955810546875,-0.8995243162352591,0.07983224612772465,-0.6726967244848608
1789324251923918000,2.94191796875,-0.6164952370524406,-0.5469488226175307,-1.1104296778410672
1789324251933881000,2.951881103515625,-0.4973041364174336,-1.4035820185661314,-1.583429174889624
1789324251943842800,2.9618427734375,-0.5977952127575874,-2.229933473497629,-2.0246382799237965
1789324251953805800,2.971805908203125,-0.7214157472074031,-2.8451977074503896,-2.2294366298913952
1789324251963768000,2.98176806640625,-0.7420832721829413,-3.3157577023923395,-2.4529031477108596
1789324251973731000,2.99173095703125,-0.6052572192013264,-3.728699036580324,-2.857093312427401
1789324251983692800,3.00169287109375,-0.7358312260508537,-3.90373762357831,-2.8658786764293906
1789324251993655000,3.011655029296875,-0.8058978649675845,-3.5270144347190855,-2.228311425253749
1789324252003618000,3.0216181640625,-0.5580886407911777,-2.591330498409271,-1.4800824899226426
1789324252013579800,3.031579833984375,-0.09859013808965682,-1.7217027963310478,-1.1784776704117654
1789324252023542800,3.041542724609375,0.2774655267715454,-0.949485667169094,-1.0131535449594258
1789324252033505000,3.051505126953125,0.5706184154858812,-0.2881061632514,-0.8710954365432262
1789324252043467000,3.061467041015625,0.7811527152895927,0.2519149059295654,-0.8344877073749899
1789324252053429800,3.0714296875,0.9177274238586425,0.6797445971697569,-0.592777092334628
1789324252063392000,3.08139208984375,0.8753449106812476,1.078413660377264,-0.26023820537775755
1789324252073355000,3.09135498046875,0.7040496018648147,1.4774866282105446,0.07513415143936872
1789324252083317000,3.10131689453125,0.5713152021110057,1.8208382933437823,0.5924132274582982
1789324252093279700,3.11127978515625,0.6229506968021392,2.0215128413796424,0.9692223410353064
1789324252103242000,3.121241943359375,0.7467220378994941,2.11726687926054,0.9952265508636832
1789324252113204000,3.131203857421875,0.7561234879732132,2.12825121461153,0.9943275561973453
1789324252123167000,3.1411669921875,0.9809737883012741,2.0689643283843995,0.8460255849555134
1789324252133129000,3.15112890625,1.2250385652523488,1.8725316557019949,0.7750175735354423
1789324252143092000,3.161092041015625,1.5034078359305858,1.4203653955847024,0.5666480870828032
1789324252153054000,3.171053955078125,1.8731332748569547,0.8174474329859018,0.28815906248241663
1789324252163017000,3.181016845703125,2.392514729982614,0.22718670738637445,-0.05138210445195436
1789324252172979000,3.19097900390625,2.902095068192482,-0.27541970015764233,-0.3146341046929359
1789324252182942000,3.20094189453125,3.1057506778657435,-0.7013608011722564,-0.44987230396121736
1789324252192904000,3.210904052734375,3.203599642199278,-0.9596879122316837,-0.4457940947368741
1789324252202866000,3.220865966796875,3.1231285136461255,-1.0214233606547116,-0.20854659658521413
1789324252212829000,3.230828857421875,2.8596517647385595,-0.8686743468761443,0.07437807237505913
1789324252222791000,3.240791015625,2.5726199527204034,-0.4911544546812772,0.32952801470309495
1789324252232754000,3.25075390625,2.137567324489355,-0.23033260419666765,0.6800622848168015
1789324252242716000,3.2607158203125,2.003452284032106,0.06384498792290687,0.8307274780586361
1789324252252678000,3.270677978515625,1.7858546582460402,0.2921750201255083,1.040173361571133
1789324252262641000,3.280640869140625,1.5977239499628544,0.4672042547732591,1.186106265594065
1789324252272603100,3.29060302734375,1.4116776467382908,0.5989239245265722,1.321347387471795
1789324252282566000,3.30056591796875,1.2585586306035519,0.7684650831520558,1.411402921450138
1789324252292527900,3.31052783203125,1.0340168117027728,0.9261831175148486,1.5148448834851382
1789324252302491000,3.320490966796875,0.8204734297435731,1.0947142223149537,1.6624878062963484
1789324252312453000,3.330453125,0.6109422791004181,1.2616963441073894,1.7240902759894727
1789324252322414800,3.340414794921875,0.46004912232160566,1.378778416699171,1.8076359896823764
1789324252332377900,3.3503779296875,0.2510136462409049,1.4454302787363529,1.9494506447315214
1789324252342339300,3.36033935546875,0.0032020109117031096,1.4569021053433417,2.173505483832955
1789324252352302300,3.37030224609375,-0.20191143288705496,1.4151485377192496,2.3042846578657628
1789324252362264300,3.380264404296875,-0.44789808127880093,1.2142600546717643,2.5410531403288243
1789324252372227300,3.390227294921875,-0.9311538916647434,0.8577490482360124,2.8191005586415527
1789324252382189600,3.400189453125,-1.5791905144065617,0.6903647753834724,2.890136334851384
1789324252392151300,3.4101513671875,-2.344571660068631,0.7872516166865825,2.7086756058514116
1789324252402114300,3.4201142578125,-2.9015976400643586,0.7607067241102456,2.1519196749687195
1789324252412076500,3.43007666015625,-3.2661656962275503,0.30694238114655015,1.9014134667932987
1789324252422039600,3.44003955078125,-3.3994290882915257,-0.15239303994774817,1.6048814205020665
1789324252432001300,3.450001220703125,-3.282251738631725,-0.4541875368118286,1.0929267543762922
1789324252441964300,3.45996435546875,-3.063880790385604,-0.6912129166454076,0.43368703896626826
1789324252451926500,3.469926513671875,-2.886417022067308,-0.9149000914782285,-0.3336098771892488
1789324252461889500,3.4798896484375,-2.8069559473395347,-1.0297738403707741,-0.8978381897792219
1789324252471851300,3.489851318359375,-2.725039880675077,-1.0497089594185351,-1.127249002955854
1789324252481813500,3.4998134765625,-2.568223179066181,-1.0240081164509058,-0.5435241088658571
1789324252491776500,3.509776611328125,-2.391623334100842,-0.9113321698635816,0.8671972600609064
1789324252501738200,3.51973828125,-2.1263275530725716,-0.8007564104259014,1.8755346369102597
1789324252511701200,3.529701171875,-1.7718541899442672,-0.8774865988850593,2.210095677344501
1789324252521663500,3.53966357421875,-1.3581594070404768,-1.221135201138258,2.20637724134326
1789324252531625500,3.54962548828125,-1.0217501814562826,-1.8069599901169537,2.1237559490188955
1789324252541588200,3.559588134765625,-0.7745570433516055,-2.4952315926134583,2.0804266565106806
1789324252551550500,3.569550537109375,-0.5109171397715807,-3.2207822476685046,1.9197865972213446
1789324252561513500,3.579513427734375,-0.33138014537580307,-3.9856735639870164,1.8570250206209717
1789324252571475500,3.589475341796875,-0.1344413132695481,-4.698662843632698,1.7450019849844276
1789324252581438200,3.599438232421875,0.12655366529226303,-5.222033806785941,1.508298092190176
1789324252591400400,3.609400390625,0.3908352643093094,-5.449356123250722,1.07671956981048
1789324252601362400,3.619362548828125,0.6977057857960463,-5.307321980232,0.458956504779309
1789324252611325400,3.629325439453125,0.9417647175282239,-4.889582890373468,-0.07630246456637978
1789324252621287400,3.639287353515625,1.0957090785712003,-4.069147966009378,-0.2635243874415755
1789324252631250400,3.64925048828125,1.1439449939519166,-2.858901238632202,-0.07849778265357017
1789324252641212400,3.65921240234375,1.1747171488344668,-1.676536205393076,0.19018281850740312
1789324252651175400,3.669175537109375,1.1965420271515845,-0.6687462332934141,0.3572043955273926
1789324252661137400,3.679137451171875,1.3036813823997975,0.18284370779097078,0.3248480401933193
1789324252671100400,3.689100341796875,1.4753881946265697,0.8751759838551283,0.11154928064495324
1789324252681062400,3.6990625,1.7912006954491138,1.452849030560255,-0.27939737161695954
1789324252691024400,3.7090244140625,2.180835388329625,1.8986480937331913,-0.7356757432281971
1789324252700987400,3.7189873046875,2.475509824055433,2.2423773600071666,-1.2835270676434039
1789324252710949400,3.728949462890625,2.7167460995823145,2.409022797191143,-2.0046289265960455
1789324252720912400,3.738912353515625,2.690750657582283,2.4077198978990313,-2.7065909085318443
1789324252730874400,3.748874267578125,2.3564859697461125,2.383324876832962,-3.1365789468497036
1789324252740837400,3.75883740234375,1.5737680509664118,2.429028643387556,-3.1236507839545604
1789324252750799400,3.76879931640625,0.3569283550649881,2.638955588415265,-2.636922621282935
1789324252760761600,3.77876171875,-0.6591559826493263,2.879897264909744,-2.136334129432589
1789324252770724400,3.788724365234375,-1.1689280440390108,3.045587593325972,-1.931716396728903
1789324252780686300,3.798686279296875,-1.1148077467948199,3.0057389825403686,-1.998028067026287
1789324252790649300,3.8086494140625,-1.0287047498345374,2.8519419210135935,-2.115104002138227
1789324252800611600,3.818611572265625,-0.7947745595373212,2.5744834085047246,-2.1887346171468494
1789324252810574300,3.82857421875,-0.7778257628239691,1.7822136713951826,-1.8319604297302663
1789324252820536300,3.838536376953125,-1.1937485970407724,0.17896248244345186,-0.5320094660304486
1789324252830499300,3.848499267578125,-1.1837258001983164,-1.288245328336954,0.2054746417939663
1789324252840461600,3.858461669921875,-1.021576651520282,-2.0801783808380363,0.03631488370150327
1789324252850423300,3.86842333984375,-1.2850181829839944,-2.4053537532895803,-0.2784897552527487
1789324252860386300,3.87838623046875,-1.468212603908777,-2.1645003396004436,-0.4648283194221556
1789324252870348500,3.8883486328125,-1.450230372494459,-1.6192536447256802,-0.25287498313337564
1789324252880311600,3.8983115234375,-1.0651292313903569,-0.6775023712009192,-0.14888634700104594
1789324252890273300,3.908273193359375,-0.5154501070261002,0.5466022011369467,-0.05043196412026882
1789324252900236300,3.918236328125,0.017182605469226835,1.9121885433077812,0.005295476059615611
1789324252910198500,3.928198486328125,0.43488662401437755,3.142171067768335,0.1942474375978112
1789324252920160300,3.93816015625,0.6886136208672076,4.053157785195112,0.5572613961867988
1789324252930123300,3.948123291015625,0.8355356089927256,4.7224873713344335,0.8160086323544382
1789324252940085500,3.95808544921875,1.0330091690301895,5.089169058650731,0.8814562331683933
1789324252950048500,3.968048583984375,1.0852208561740815,5.131198520606756,1.038751658204943
1789324252960010200,3.97801025390625,1.1283693852879106,4.901229489025473,1.3768617694228886
1789324252969973200,3.98797314453125,1.168209958897531,4.486127177411317,1.7182576243132353
1789324252979935500,3.997935546875,1.0226745297595858,3.862377439185977,2.054395120283961
1789324252989898500,4.0078984375,0.5407403233662247,3.0094138716608283,2.5065982052803037
1789324252999860200,4.017860107421875,-0.37691052812486886,2.1365163541316985,2.823589102232456
1789324253009822500,4.027822509765625,-1.6035542635515332,1.1018179168403148,2.691917947795987
1789324253019785500,4.037785400390625,-2.8247207366108893,-0.2540788059651852,1.739852785527706
1789324253029747500,4.04774755859375,-3.726452134436369,-1.8064584703356026,0.5613008808359503
1789324253039710200,4.057710205078125,-4.349598061549663,-3.252090993645787,0.0035248861905187367
1789324253049672400,4.06767236328125,-4.769434415948391,-4.341159319028258,-0.010360431298986077
1789324253059635500,4.077635498046875,-4.971399588316679,-4.720048161488771,0.19047507945224643
1789324253069597400,4.087597412109375,-4.438656985706091,-4.204309885171056,0.31797398970536883
1789324253079560200,4.097560302734375,-3.0762568723559376,-3.060547262048721,0.4272431965891272
1789324253089522400,4.1075224609375,-1.781111701502651,-1.7537094614446163,0.7633616955984384
1789324253099484400,4.117484375,-0.7092040620185435,-0.6012889000922441,0.5922303451720625
1789324253109447400,4.127447509765625,0.21054113140329717,-0.14056465498805046,0.08023213216550648
1789324253119409400,4.137409423828125,1.1767606373608113,-0.6461123766809701,-0.9001126375172287
1789324253129372400,4.147372314453125,2.1510545825719833,-1.660905505540967,-1.7512011318854988
1789324253139334400,4.15733447265625,2.759348977512121,-2.5692022532314063,-2.3092367273151875
1789324253149297400,4.16729736328125,2.887698294049501,-3.4264088651537894,-2.477491353261471
1789324253159259400,4.17725927734375,2.4278996393576264,-4.4300072307825085,-2.530186001616716
1789324253169222400,4.187222412109375,1.5883388665020466,-5.3711880109429355,-2.6517332369238136
1789324253179184400,4.197184326171875,0.15074235013127327,-5.371660304629803,-2.989720160153508
1789324253189146400,4.207146484375,-2.5239058984339238,-4.791429974657297,-3.404255193273723
1789324253199109400,4.217109375,-4.4345361063838,-3.4701059680610893,-2.426615444765985
1789324253209071400,4.2270712890625,-3.358821768093109,-1.7061983532071112,-0.4738067217782139
1789324253219034400,4.237034423828125,-1.1348328822135925,-0.36339199812114237,-0.1616243941515684
1789324253228996400,4.246996337890625,0.8614017255246639,0.37034313243329525,-0.5136632236093283
1789324253238959400,4.25695947265625,1.8908852046467364,0.9078817371487617,-0.3793298642262816
1789324253248921300,4.26692138671875,2.12209254585132,1.382799342778325,0.04258841101303697
1789324253258884400,4.27688427734375,2.2141490443885323,1.8104799809366463,0.6165219789288938
1789324253268846600,4.2868466796875,2.2576142382360995,2.0509826814919707,0.8166084979437291
1789324253278809300,4.296809326171875,2.240433824723959,2.082045928275585,0.875418852700293
1789324253288771300,4.306771240234375,2.229949693980068,1.9345067580997943,0.9816574597164988
1789324253298733600,4.316733642578125,2.2805272040508684,1.5799240893781183,0.8812371835902333
1789324253308696600,4.326696533203125,2.3265127101562917,1.0905337217599154,0.8125679903812706
1789324253318658300,4.336658203125,2.586421683579683,0.6179542036890984,0.7626276091702282
1789324253328621300,4.346621337890625,2.7959225121498106,0.2654676304638386,0.6630930298373102
1789324253338583800,4.356583740234375,2.915716766309738,0.055116322544217104,0.579390079756081
1789324253348546800,4.366546875,2.9022762699782847,-0.15207915169298647,0.6685910427317023
1789324253358508500,4.376508544921875,3.0407810698270796,-0.2723509602367878,0.6900688611768185
1789324253368471600,4.386471435546875,3.165252668148279,-0.33116613729894157,0.7877233258515596
1789324253378433800,4.396433837890625,3.0531834552824497,-0.213625215023756,0.9208845727153122
1789324253388396800,4.406396728515625,2.768571563887596,0.06926935105919838,0.9281605550676584
1789324253398358500,4.416358642578125,2.558693134176731,0.37451661872565745,0.7123977434933185
1789324253408320800,4.42632080078125,2.332775277682394,0.7232844636887311,0.5553910722702742
1789324253418283800,4.43628369140625,2.136870428266376,1.0143816254496574,0.4930673025652766
1789324253428245800,4.446245849609375,1.9594272643446922,1.2454168249577282,0.5352135227687657
1789324253438208500,4.45620849609375,1.8006302025735377,1.397609373897314,0.7068257885798811
1789324253448170800,4.466170654296875,1.6556781262814997,1.4690379488170147,0.8253017997480928
1789324253458133800,4.4761337890625,1.5029156684994696,1.5132389095932244,0.9584295827336609
1789324253468095700,4.486095703125,1.3416495862662792,1.5936498323917387,1.1598390209153293
1789324253478058500,4.49605859375,1.1431612231630832,1.5831529882967472,1.263090867205709
1789324253488020700,4.506020751953125,0.8985995295405388,1.5890063905000686,1.3314026252791284
1789324253497983700,4.515983642578125,0.6380969010729343,1.5907079337209462,1.3851196024194359
1789324253507945700,4.52594580078125,0.38270752396583557,1.587075130176544,1.4960598112553358
1789324253517907700,4.53590771484375,0.13698734449055044,1.502814546212554,1.623351435433328
1789324253527870700,4.54587060546875,-0.028310769737698135,1.2866215265274048,1.9402109610907732
1789324253537832700,4.555832763671875,-0.22562660019649192,0.8178729649215937,2.596111010684073
1789324253547795700,4.565795654296875,-0.8587585175395012,0.39460722059607506,3.0909128819569944
1789324253557757700,4.5757578125,-1.7346406038373707,0.20767127505540847,3.3014941992402074
1789324253567720700,4.585720703125,-2.7881664911955593,0.27720541453063485,3.3175220817163584
1789324253577682700,4.5956826171875,-3.6869168273836372,0.07450725171267986,3.0800784764707085
1789324253587645700,4.605645751953125,-4.260779960411787,-0.5086819280654191,2.628491477546096
1789324253597607700,4.615607666015625,-4.638258936074376,-0.9730319624513387,1.7806513905145227
1789324253607570700,4.62557080078125,-5.053726573869586,-1.0943851364910602,0.5623372381463646
1789324253617532700,4.63553271484375,-5.4837371162801976,-1.0469406637489795,-0.4474764948658645
1789324253627495700,4.64549560546875,-5.802309144943952,-1.1009177531301975,-1.1302608981229365
1789324253637457700,4.655457763671875,-5.419866409394145,-1.2044412559688091,-1.004382209482789
1789324253647419600,4.665419677734375,-4.163925267812609,-1.5420757124990223,-0.015562895312905311
1789324253657382700,4.675382568359375,-2.9190093781143425,-2.2038398318201304,1.1378393705531955
1789324253667344600,4.6853447265625,-2.0094436334013936,-2.922175148668885,1.7904339488603174
1789324253677307600,4.6953076171875,-1.4168138405829667,-3.683263565573096,2.056577725020051
1789324253687269600,4.70526953125,-1.0386007054269313,-4.294672877663373,2.065187732455134
1789324253697232600,4.715232666015625,-0.695136227568984,-4.821719898980856,2.0167688617229462
1789324253707195000,4.72519482421875,-0.27347324226498604,-5.248035678526759,1.8335031291276216
1789324253717157600,4.73515771484375,0.183635698418878,-5.4781824047625065,1.5645543785497544
1789324253727119600,4.74511962890625,0.6137555829554796,-5.4240211909860365,1.1962865910857916
1789324253737082600,4.75508251953125,1.0329869571983814,-4.875976389825344,0.6781424226701259
1789324253747044900,4.765044921875,1.5256407105267047,-3.726239368468523,0.26912659136280415
1789324253757007600,4.775007568359375,1.9524024802744386,-2.24404967713356,0.1475609436161816
1789324253766969600,4.784969482421875,2.2376924170613286,-0.9819102654337882,0.18460457998365162
1789324253776932600,4.7949326171875,2.638608966934681,-0.05928863979279995,0.1697233833245933
1789324253786894800,4.804894775390625,3.0583599811375137,0.597712210649252,-0.010388707545399665
1789324253796856600,4.814856689453125,3.501968840789795,1.0883949561655522,-0.2975204728066921
1789324253806819600,4.824819580078125,3.9444998420774935,1.3801841918438673,-0.6965482863239943
1789324253816781800,4.83478173828125,4.41443089146614,1.5101999802887438,-1.2514229335047304
1789324253826744800,4.844744873046875,4.752207386815548,1.543726986837387,-1.8065161918722092
1789324253836706600,4.85470654296875,4.96600795840621,1.4384300445854663,-2.5019097552031275
1789324253846669600,4.864669677734375,4.734516831824183,1.2985796753466128,-2.9285569586604834
1789324253856631800,4.8746318359375,4.060802162468433,1.2343781290709972,-3.0422678012534976
1789324253866594800,4.8845947265625,2.6904291705429553,1.3528326590597628,-2.7706258660688996
1789324253876556500,4.894556640625,1.016065121557191,1.6699229247331617,-2.410526333621889
1789324253886519600,4.90451953125,-0.3251660201013088,2.0904016686886546,-2.2196952803388235
1789324253896481800,4.914481689453125,-1.1225747275345026,2.51546423330307,-2.30943239601776
1789324253906444800,4.92444482421875,-1.4537367731802164,2.6142075161278244,-2.528036130106449
1789324253916406500,4.934406494140625,-2.228191598266363,2.12894153496325,-2.7782255274176597
1789324253926368800,4.94436865234375,-4.515687618416547,1.0118132362663745,-2.7049253134071827
1789324253936331800,4.954331787109375,-4.581881215292215,0.10055296259522438,-0.7573172278024256
1789324253946293500,4.96429345703125,-3.0609868225097654,-0.30889059260487556,0.6094323129288852
1789324253956256500,4.974256591796875,-1.9768629677921532,-0.42361470389366146,0.8316093754597008
1789324253966218800,4.98421875,-1.5708166538149118,-0.3564227436304092,0.5204385629631578
1789324253976181800,4.994181640625,-1.034554060384631,-0.1457300749272108,0.07140037173852325
1789324253986143500,5.0041435546875,-0.3211123607963323,0.3204758164584636,-0.26735183677524327
1789324253996106800,5.014106689453125,0.23052841902971266,0.7737772180855274,-0.5409865532122552
1789324254006068700,5.02406884765625,0.7522246539037675,1.3047779454648494,-0.2758407020486891
1789324254016031700,5.03403173828125,1.0339068485222755,1.9306383922338484,-0.036473143003135915
1789324254025993500,5.043993408203125,1.1367303863979876,2.4830811360925433,0.0864559020511806
1789324254035956700,5.053956787109375,1.4506794314362108,2.8404630801439286,0.12776026460304857
1789324254045918700,5.063918701171875,1.9230328856661916,2.9561808786451813,0.270809137622267
1789324254055881700,5.0738818359375,2.3696705916203555,2.9225474891126155,0.8184531028971076
1789324254065843500,5.083843505859375,2.6617688932478427,2.8740228199183937,1.5307181599214672
1789324254075805700,5.0938056640625,2.8766192661523817,2.649789701640606,1.7931750642620026
1789324254085768700,5.103768798828125,2.955305264854431,2.4098797062814232,1.767517183653265
1789324254095730700,5.113730712890625,2.973170299629867,2.3318068710416555,1.7417527739301324
1789324254105693700,5.123693603515625,3.163764475417137,2.262636304181814,1.6956896725438535
1789324254115655700,5.13365576171875,2.3672514016494155,2.3657126477748154,1.8617102558277547
1789324254125618700,5.14361865234375,0.9466635954856872,2.2182594023168085,2.1840241013683377
1789324254135580700,5.15358056640625,-1.7411410717725753,1.4712684843480586,2.5753482086405155
1789324254145543700,5.163543701171875,-6.556606586533785,0.1762111379086971,2.9659023544535037
1789324254155505700,5.173505615234375,-8.902856408947706,-2.208736371690035,2.3806366606622933
1789324254165468700,5.18346875,-7.748157965791225,-4.465522196277976,1.5783305365763605
1789324254175430700,5.1934306640625,-6.873500452852249,-5.383512070465088,1.5235910845205187
1789324254185393700,5.2033935546875,-5.713264249312878,-4.749123449325562,0.8861752245143055
1789324254195355600,5.213355712890625,-3.774120479062199,-3.4536171900749206,0.23876287115067243
1789324254205318700,5.223318603515625,-1.8625506521746515,-2.365799157014489,-0.5654587311677635
1789324254215281000,5.233281005859375,-0.242859200553596,-1.676368447610736,-1.6587316686332225
1789324254225242600,5.24324267578125,1.44794401512295,-1.5172165810525415,-2.766603770945966
1789324254235205600,5.25320556640625,3.1738582916691898,-1.70549225076437,-3.576620469409227
1789324254245167600,5.263167724609375,3.946294908800721,-1.9379624515116214,-3.6289421927988528
1789324254255131000,5.273130859375,3.886900470545888,-2.5555302862316367,-3.3330741633743046
1789324254265092600,5.283092529296875,3.425109765253961,-3.284166047820449,-2.869272410520911
1789324254275055600,5.2930556640625,2.570168467915058,-4.011365054604411,-2.4163721370406446
1789324254285017900,5.303017822265625,1.1883420618221163,-4.574869290703535,-2.2230272012405097
1789324254294980900,5.31298095703125,-1.441392401522398,-4.672294476667046,-2.427606647760421
1789324254304942600,5.322942626953125,-4.208970278197527,-3.5759295645356177,-2.304609505905956
1789324254314905600,5.332905517578125,-4.167364010089636,-1.8612860390663146,-1.2466659482359885
1789324254324867800,5.342867919921875,-2.0462543377958236,-0.7551555197238922,-0.7404305365398526
1789324254334830000,5.352830078125,0.02265855266228318,-0.44898763008117676,-0.7531995633505284
1789324254344792000,5.3627919921875,1.161240119884908,-0.3863526024699211,-0.6786719995021819
1789324254354755000,5.372755126953125,1.7064613880574702,-0.08362111701667309,-0.2568605456382036
1789324254364717300,5.38271728515625,1.9670564440488814,0.4357201522290706,0.2332566749498248
1789324254374679000,5.392678955078125,2.128296515057981,0.9677800332725047,0.5281621429525315
1789324254384642000,5.40264208984375,2.3012441211260852,1.3681038779497146,0.9076831458367407
1789324254394604300,5.412604248046875,2.351059414652735,1.5178876121819018,1.1752126772664486
1789324254404567300,5.4225673828125,2.3367035570420325,1.4321721532344818,1.2188247322387993
1789324254414529000,5.432529052734375,2.331046408063173,1.2475970916062593,1.2609561932645736
1789324254424492000,5.442491943359375,2.336891919220984,0.9908680633932352,1.2977037692949176
1789324254434454300,5.452454345703125,2.3688734498932957,0.6059183134585618,1.2296446708083153
1789324254444417300,5.462417236328125,2.3973721068859097,0.28223054921627044,1.080969920731336
1789324254454379000,5.47237890625,2.466886080355942,-0.011005378139019011,0.9420634082138538
1789324254464342000,5.482342041015625,2.639947522062063,-0.2598287477940321,0.7806586481623351
1789324254474304300,5.49230419921875,2.785768197882175,-0.33677111769914625,0.8619463537953793
1789324254484267300,5.502267333984375,2.76535669349432,-0.27950317007899284,1.0716675471179187
1789324254494229000,5.51222900390625,2.734831791371107,-0.16914368374049663,1.1322940113857387
1789324254504192000,5.52219189453125,2.6860686372458935,-0.0706318715840578,1.0134431755557656
1789324254514154200,5.532154296875,2.555153269612789,0.15465572418272494,0.9849250832103192
1789324254524117200,5.5421171875,2.298038456952572,0.41926761460006234,1.0655018640950322
1789324254534079000,5.552078857421875,2.0933516045354303,0.6982546518504619,1.0736458614535629
1789324254544041200,5.562041259765625,1.8807248990297316,0.9863654912769794,1.1109743061117827
1789324254554004200,5.572004150390625,1.7723804057754575,1.2501122892975807,1.1223666377417743
1789324254563966000,5.581966064453125,1.6988837924100457,1.4761211850762366,1.2772400963284074
1789324254573929000,5.591928955078125,1.5540075578331947,1.692104945924878,1.4621838451385498
1789324254583891200,5.60189111328125,1.4205670556366443,1.8685808722496031,1.6219690411642194
1789324254593854200,5.611854248046875,1.178281709448248,1.926226421010494,1.7564849175073205
1789324254603816000,5.62181591796875,1.0031773637376724,1.8970500108867883,1.8176181622534988
1789324254613779000,5.631779052734375,0.8470424338478595,1.8254776435822246,1.823620471408218
1789324254623741200,5.6417412109375,0.6320984643757342,1.7030588861376046,1.876616733058542
1789324254633704200,5.6517041015625,0.43159803079776465,1.589167718541622,1.8926811481527983
1789324254643666000,5.661666015625,0.18374445602297781,1.413553377482295,1.8770397807762025
1789324254653629200,5.671629150390625,-0.016683423775434494,1.2246359027355909,1.8099103643551469
1789324254663591200,5.681591064453125,-0.18591295916847883,1.1455489220172166,1.8972031556218862
1789324254673554200,5.69155419921875,-0.10092822564840316,0.8937520895093679,1.9087062541499733
1789324254683516000,5.701515869140625,0.4130910083243623,0.30800971811711786,1.9581487688414752
1789324254693479200,5.711479248046875,-0.028888240832090375,0.0027262100934982297,1.7974018881767988
1789324254703441200,5.721441162109375,-0.9933131184577941,-0.02016308258473873,1.5423096673853693
1789324254713404200,5.731404052734375,-1.8205717513620852,-0.33093174402117725,1.3928611564569175
1789324254723366100,5.7413662109375,-2.505398181840777,-0.6624965252488851,0.7991112735673784
1789324254733328100,5.751328125,-3.037768444007635,-1.0939239487200976,0.3748591485530138
1789324254743291100,5.761291015625,-3.479105267074704,-1.4111334568589924,0.019493074368685484
1789324254753253000,5.771253173828125,-3.8711324080497023,-1.5932114409744738,-0.29589725551903245
1789324254763216400,5.78121630859375,-4.2616935681253665,-1.6154671119242905,-0.2671170051060617
1789324254773178000,5.79117822265625,-4.794194763195514,-1.3770815496534108,-0.010933043555170297
1789324254783141000,5.80114111328125,-5.1804684552103275,-1.1541384711861609,0.7900014999166131
1789324254793103000,5.81110302734375,-4.663132096046209,-1.759946310007572,1.9007267997033892
1789324254803066400,5.82106640625,-3.5608173355996606,-3.1507775680720806,2.6883108632147312
1789324254813028000,5.831028076171875,-2.555446115079522,-4.356304281190037,2.6404841131567953
1789324254822991000,5.8409912109375,-1.799594429785013,-5.010679459303617,2.2113449467532336
1789324254832953000,5.850953125,-1.083622334936261,-5.135139367187023,1.673923100285232
1789324254842916400,5.860916259765625,-0.48007893391549583,-5.170434552451968,1.3477198460906743
1789324254852878000,5.870878173828125,0.05325110406107269,-4.905265028151869,1.0481706439353524
1789324254862841000,5.880841064453125,0.5832037928253412,-4.114461271941662,0.68604705831483
1789324254872803300,5.89080322265625,1.0393757814526556,-2.911642064216733,0.5543396635212003
1789324254882766300,5.900766357421875,1.2982429907381534,-1.689504992559552,0.6118656775556505
1789324254892728000,5.91072802734375,1.6203402709186077,-0.6557464664667845,0.49053252339065073
1789324254902690000,5.92068994140625,2.030242091280222,0.11546002434790134,0.25984409149363635
1789324254912653300,5.9306533203125,2.4074609547019,0.7275140640825033,0.03750745448693633
1789324254922615000,5.940614990234375,2.817570864856243,1.1830191132336854,-0.29855960659608244
1789324254932578000,5.950578125,3.3578993925511833,1.50561908223927,-0.6610916268870234
1789324254942540300,5.960540283203125,3.953341320180893,1.6916969496458767,-1.1321951541211455
1789324254952503300,5.97050341796875,4.491498933577537,1.7052759776651858,-1.68685155544132
1789324254962465000,5.980465087890625,4.7926633158445355,1.5960007794320583,-2.225627592997253
1789324254972428000,5.990427978515625,4.837255906286836,1.3492074542999266,-2.739150823614001
1789324254982390300,6.000390380859375,4.431621095719933,1.1554992381453513,-3.0861265244632956
1789324254992353300,6.010353271484375,3.429067270708084,1.0849462770164011,-3.1431606633275746
1789324255002315000,6.02031494140625,2.0591408535063267,1.1533785927295683,-2.975372778110206
1789324255012278000,6.030278076171875,0.6284662453532218,1.3086685231626034,-2.668364930512011
1789324255022240300,6.040240234375,-0.3979472517389804,1.4381652561694382,-2.653905320265889
1789324255032203300,6.050203369140625,-0.9083774117112159,1.4751140538603067,-2.9659640215128658
1789324255042165000,6.0601650390625,-1.171089605987072,1.4316227026581763,-3.1759342211604116
1789324255052128000,6.0701279296875,-1.8167286660678683,1.2225760475963354,-3.3261814812511203
1789324255062090200,6.08009033203125,-2.2665001400031146,1.1267220564723015,-3.055123775695264
1789324255072053200,6.09005322265625,-2.1483137594312427,0.6389782870173454,-1.295155253855884
1789324255082015000,6.100014892578125,-1.754440698328614,0.13943828130662442,0.8396110417380929
1789324255091978000,6.10997802734375,-1.3537696476489305,-0.022530980759859084,1.6664811137162148
1789324255101940200,6.119940185546875,-1.177933772793412,-0.05198153164982795,1.6152065612919628
1789324255111902200,6.129902099609375,-0.8644868320584297,0.02791208927631378,1.2267764218956232
1789324255121865000,6.139864990234375,-0.592599982202053,0.4533890799105167,0.7467851662635803
1789324255131827200,6.1498271484375,-0.2709457330813631,1.0478916808634995,0.19613164390921592
1789324255141790200,6.159790283203125,0.04422967541404068,1.8005746729940175,-0.517900313189812
1789324255151752200,6.169752197265625,0.25739304507970806,2.6979075435996056,-0.9073867932386696
1789324255161715000,6.17971484375,0.5006991126179695,3.5542210060745476,-0.6950562211353332
1789324255171677200,6.18967724609375,0.9173298028431832,4.080491197800636,-0.4423168836129829
1789324255181640200,6.19964013671875,1.4409458267986774,4.269775752294064,-0.12797821820266544
1789324255191602200,6.209602294921875,1.849861850993335,4.158883766514062,0.24728403125852344
1789324255201565000,6.21956494140625,2.2186907794713973,3.711885848945379,0.7214697424169629
1789324255211527200,6.229527099609375,2.6749279422894117,3.1045529925137756,1.0588407257054
1789324255221490200,6.239490234375,3.635980128611624,2.2909967217475176,1.640069346000254
1789324255231452200,6.2494521484375,3.2801173569515347,1.447981132262945,2.078182238584757
1789324255241415200,6.259415283203125,0.8657333249881863,1.5183026227235794,2.712843246924877
1789324255251377200,6.269377197265625,-2.2986524971976876,1.460156138703227,3.612421850630641
1789324255261340200,6.279340087890625,-5.024172562605142,0.7012883204579353,4.049241488534212
1789324255271302100,6.28930224609375,-5.903962177735567,-1.0635726495981215,3.335374549271166
1789324255281265200,6.29926513671875,-5.7225335974395275,-3.0945132445365187,2.087731718827039
1789324255291227100,6.30922705078125,-5.279493477585912,-4.357034349030256,1.5799039233729242
1789324255301190100,6.319190185546875,-4.768742634291947,-4.426829185268283,1.612176253685355
1789324255311152000,6.329152099609375,-4.422715027947723,-3.2594401873648167,1.830777503556013
1789324255321115100,6.339115234375,-3.8092879462942477,-1.9150380875200033,1.8642602325715123
1789324255331077000,6.3490771484375,-2.4227768895164132,-0.9517389990538359,1.3785033991500735
1789324255341041000,6.359041015625,-0.793474144463241,-0.39591947223842144,0.4419106043670326
1789324255351002600,6.369002685546875,0.7241501406073569,-0.6107189917385578,-0.6442442447215319
1789324255360964900,6.37896484375,2.1297090122044087,-1.5255518631994724,-1.860634297159314
1789324255370927900,6.388927978515625,3.1148420390769838,-2.2460411432117224,-2.5173209670856593
1789324255380889900,6.398889892578125,3.0296970734938977,-2.867016156026721,-2.457195584207773
1789324255390852900,6.408852783203125,2.699612886212766,-3.651282034900784,-1.9754368805117903
1789324255400814800,6.41881494140625,2.4398190636016426,-4.495794000422954,-2.1102502784967423
1789324255410777900,6.42877783203125,1.9886182875156402,-5.223206942218542,-2.699497443139553
1789324255420739800,6.43873974609375,1.4020692759156226,-5.727592049872875,-3.5147499964296816
1789324255430702800,6.448702880859375,0.3281529269576072,-5.826134841689467,-4.227767040865123
1789324255440664800,6.458664794921875,-2.332411851197481,-4.862058923631906,-4.027786612573266
1789324255450627800,6.4686279296875,-4.4755040765881535,-2.4829449424922463,-1.738709460711479
1789324255460589800,6.47858984375,-2.44100768886432,-0.2013952635258436,-0.15422018230967222
1789324255470552800,6.488552734375,-0.588184649977833,1.0899304951697588,-0.29248657029271125
1789324255480514800,6.498514892578125,0.3930348567128181,1.9201345338761806,-0.35066388784274455
1789324255490477800,6.508477783203125,1.5567444354511797,2.308328964820504,-0.3941762818329036
1789324255500439800,6.518439697265625,2.14781516225934,2.4183827462106944,-0.16504253203198313
1789324255510402800,6.52840283203125,2.566108378869295,2.258307335066795,0.056414253400266165
1789324255520364800,6.53836474609375,2.8570202471911905,1.8407091149836778,0.24513313683494925
1789324255530327800,6.548327880859375,3.0709470755100248,1.2319400882691145,0.3073094608932733
1789324255540289800,6.558289794921875,3.0839877588689326,0.6947323229432105,0.32235520046427846
1789324255550252800,6.568252685546875,3.0568799717128274,0.2503261754333973,0.36202070976793765
1789324255560214800,6.57821484375,2.920876925551891,-0.06392857455313206,0.3350688438259065
1789324255570177800,6.588177734375,2.8761130701959132,-0.2450970426082611,0.3377436159931123
1789324255580139800,6.598139892578125,2.872773112118244,-0.3037047143995762,0.2637513280652463
1789324255590102800,6.608102783203125,2.8687527705609797,-0.1375701493471861,0.34832053958699105
1789324255600064800,6.618064697265625,2.6725018841862678,0.10130231965780258,0.5818395187348127
1789324255610026800,6.62802685546875,2.403854454642534,0.33289924470186233,0.7648151823423802
1789324255619989800,6.63798974609375,2.152168681293726,0.4457482097685337,0.7814031829193234
1789324255629951700,6.64795166015625,2.018988875859976,0.5140507616221904,0.6506677018977701
1789324255639914800,6.657914794921875,1.9400901111900806,0.6389841322362423,0.43183775783777234
1789324255649876700,6.667876708984375,1.9238802962757646,0.714053109484911,0.19599910357072947
1789324255659839700,6.67783984375,1.9786777621291576,0.7490081030100584,-0.005444236880540848
1789324255669801700,6.6878017578125,2.032192056304216,0.864258868521452,0.007641893055289983
1789324255679764700,6.6977646484375,2.0090404594279825,1.1394412527918816,0.33246158393695946
1789324255689726700,6.707726806640625,1.824996728197485,1.3730693914026022,0.7175475274719297
1789324255699690000,6.71768994140625,1.5504804066203535,1.4787012646973132,1.068002741000056
1789324255709651700,6.727651611328125,1.2821779911220073,1.5695371353983878,1.3313291216515004
1789324255719614700,6.73761474609375,0.9843968946177512,1.672197883927822,1.5143907099768519
1789324255729576700,6.74757666015625,0.6657634911555796,1.7553724262207746,1.6479636063814163
1789324255739540000,6.7575400390625,0.2982851005036384,1.8501310233235357,1.9358251472219823
1789324255749501700,6.767501708984375,-0.03818213887810707,1.8166735748797653,2.239777845033258
1789324255759464700,6.777464599609375,0.0540833992999047,1.656791055959463,2.462772507557273
1789324255769427000,6.787427001953125,0.3239456114608794,1.340620243218541,2.7714719615042207
1789324255779390000,6.797389892578125,-0.20033315071966498,1.1255009902447461,3.024463849015534
1789324255789351700,6.8073515625,-0.9202490512907504,1.1752712755858898,3.253195740017295
1789324255799314700,6.817314697265625,-1.5330466028690337,1.0545727660626172,3.2499490131810305
1789324255809277000,6.82727685546875,-2.163902373707294,0.5676823985666036,3.223510211327672
1789324255819240000,6.837239990234375,-2.6043454628050324,0.15215513953864573,3.1140505964383483
1789324255829201700,6.84720166015625,-2.8847411978095767,-0.1288163495272398,2.6245979772388934
1789324255839164700,6.85716455078125,-2.9104204134672877,-0.28274083682596685,1.786867926941812
1789324255849127000,6.867126953125,-2.8854858786970374,-0.31998890972435473,0.9222567378513514
1789324255859090000,6.87708984375,-2.9171020831882952,-0.38068507822751996,0.3500470711186528
1789324255869051600,6.8870517578125,-3.1340859609901903,-0.578601267465949,-0.07686506688520311
1789324255879014700,6.8970146484375,-3.3964211386471983,-0.7514858913004397,-0.39200609818696974
1789324255888977000,6.906976806640625,-3.6243308996111154,-0.8429191433727741,-0.3593599661260843
1789324255898940000,6.91693994140625,-3.6616064450383186,-1.1937123566836119,0.4890699034921825
1789324255908902000,6.92690185546875,-3.127697136735916,-1.9832552991777657,1.6062923102132975
1789324255918864600,6.93686474609375,-2.4939240171462296,-3.052618807137012,2.1941227399259806
1789324255928827000,6.946826904296875,-1.999648215574026,-4.017362249192595,2.345748594893515
1789324255938790000,6.956789794921875,-1.5505390049397945,-4.642965506330132,2.3197679120711983
1789324255948752000,6.966751953125,-1.0992173789530992,-4.903945762246847,2.114940774400532
1789324255958714600,6.976714599609375,-0.6631482671558857,-4.872815879967808,1.7221105003491044
1789324255968676900,6.9866767578125,-0.30015842009484767,-4.8031665896803135,1.399380329092592
1789324255978640000,6.996639892578125,0.09951953702741302,-4.676647411179542,1.0328795513011515
1789324255988601900,7.006601806640625,0.5143897843182087,-4.239615007308125,0.6523731906414032
1789324255998564600,7.016564697265625,0.9839420635223388,-3.3208792831897735,0.42955593051090835
1789324256008526800,7.02652685546875,1.4787655621051787,-2.264680961751938,0.35134558649659153
1789324256018488800,7.03648876953125,1.9095429972350597,-1.4304384613096712,0.2796814492553472
1789324256028451800,7.046451904296875,2.339305702364445,-0.7502525501132011,0.17533472040034828
1789324256038413800,7.056413818359375,2.8665292492926118,-0.2127156989634037,-0.10103059004433453
1789324256048376800,7.066376953125,3.3760628257513043,0.21751462367773056,-0.4651308825653046
1789324256058338800,7.0763388671875,3.99806893517971,0.6005044717162847,-0.9504724862493574
1789324256068301800,7.0863017578125,4.588378760617971,0.8647381764709949,-1.5944260774612427
1789324256078263800,7.096263916015625,4.996286192291975,0.9496732986956834,-2.3315854833759366
1789324256088226800,7.106226806640625,5.163630133134126,0.8915057718873024,-3.0903657694682476
1789324256098188800,7.116188720703125,4.803735329478979,0.6892530147492886,-3.7166537939995523
1789324256108151800,7.12615185546875,4.028233771818876,0.44490006850659847,-4.06444431836307
1789324256118113800,7.13611376953125,2.602998139849305,0.25928221982717514,-4.090423978272081
1789324256128076800,7.146076904296875,0.8689935688931495,0.42957273551523684,-3.554126898050308
1789324256138038800,7.156038818359375,-0.6630033057272434,0.9281704919397831,-3.0818969240695235
1789324256148001800,7.166001708984375,-1.7657016586638985,1.5963561687409877,-2.914748213538527
1789324256157963800,7.1759638671875,-2.116482597015053,2.1941975587278604,-2.7196485430255533
1789324256167926800,7.1859267578125,-2.792348745316267,2.2783628656238317,-2.466270871067047
1789324256177888800,7.195888671875,-3.8501562555164095,1.9248755909234285,-2.4171827227711677
1789324256187852000,7.20585205078125,-3.2202994325876233,1.8655267453759907,-1.6616560316473246
1789324256197813800,7.215813720703125,-2.140775180619955,1.668652758666873,-0.746593735344708
1789324256207776800,7.22577685546875,-0.9552542406331748,1.2954594974994658,0.8555805450905114
1789324256217738800,7.23573876953125,-0.24163842658698556,0.949299204686284,1.3070819846235215
1789324256227702000,7.245701904296875,0.15271215236689895,0.7392635385870933,1.223325916115567
1789324256237663700,7.255663818359375,0.30740356891751286,0.6904933701992034,1.0365125740412622
1789324256247626800,7.265626708984375,0.45082185977101324,0.8085545169562101,0.5137915992293507
1789324256257588700,7.275588623046875,0.6324129371523857,1.1546709706276654,-0.26813144284561274
1789324256267552000,7.285552001953125,0.5318249032437801,1.7089608036577701,-1.0701311313308774
1789324256277513700,7.295513671875,0.11847425760254263,2.484479312452674,-1.2373061453469096
1789324256287476700,7.305476806640625,-0.0888261383138597,3.261856016334891,-0.7178287555661053
1789324256297439000,7.31543896484375,-0.030182372295856474,3.782737500759959,-0.17422610157132148
1789324256307402000,7.325402099609375,0.3786754919707775,3.8468624746680256,0.3055188511494547
1789324256317363700,7.33536376953125,0.9069780663073063,3.631199616336822,0.8042736978318542
1789324256327326700,7.34532666015625,1.4266788165152071,3.204295807769894,1.0294534493099898
1789324256337288400,7.355288330078125,1.8313669938817618,2.617155260017514,0.9719449709322303
1789324256347251200,7.365251220703125,2.635061795847118,1.9478835415452718,1.1404895928010343
1789324256357213200,7.375213134765625,2.246858889335394,1.5757067639440296,1.270662033112347
1789324256367176200,7.38517626953125,0.47009354647397994,1.7856079900085926,1.5387421841621398
1789324256377138400,7.395138427734375,-1.4999661710441112,1.7009119372367858,1.7362132599815725
1789324256387101200,7.40510107421875,-3.436053476333618,0.9716203420877456,1.794381955833733
1789324256397063200,7.415063232421875,-4.669990875899791,0.08712181861400604,1.4975975422166288
1789324256407026200,7.425026123046875,-4.836154374785721,-1.2072381932109593,0.9241790842160582
1789324256416988400,7.434988525390625,-4.637625898867845,-2.599512051299214,0.7265711572092026
1789324256426951200,7.444951171875,-4.492220233589411,-3.6786546104729174,0.9915284269981086
1789324256436913200,7.4549130859375,-4.539328021723032,-3.9277573815912006,1.4268093110270796
1789324256446876200,7.464876220703125,-4.478702580368519,-3.228795458254218,1.466176129645109
1789324256456838400,7.47483837890625,-4.055467815703153,-2.229319725513458,1.2151473589003086
1789324256466801200,7.48480126953125,-3.1424703429758547,-1.463169933566451,0.8330252336069941
1789324256476763100,7.49476318359375,-1.843369127973169,-1.103630519220233,-0.27792740866225213
1789324256486726400,7.504726318359375,-0.41154812626391646,-1.5635738430798052,-1.6202140141904353
1789324256496688400,7.5146884765625,1.3675703555949033,-2.45235165130794,-2.7961042984575033
1789324256506651100,7.524651123046875,2.9345991614341735,-2.850312858507037,-3.4502851230427622
1789324256516613000,7.534613037109375,3.5145632416859267,-2.969100565972924,-3.4157539078876376
1789324256526576400,7.544576416015625,3.335826384691894,-3.183727651515603,-3.2273940670236945
1789324256536538400,7.554538330078125,3.0073040399000046,-3.487898814383149,-3.11200506208539
1789324256546501000,7.564501220703125,2.3684862041413783,-3.8344963295698165,-3.085135759860277
1789324256556463400,7.57446337890625,0.8504828566253185,-4.359287096393108,-2.8743571664392946
1789324256566426400,7.58442626953125,-1.7125509371042251,-4.290023006030917,-2.0232155536442993
1789324256576388400,7.594388427734375,-4.074970973074436,-3.197390266165137,-0.22646716094017028
1789324256586351000,7.60435107421875,-2.7570389470040797,-1.5556950725287197,0.09298596140705048
1789324256596313300,7.614313232421875,-0.5164027315758168,-0.44818157439529893,-0.7233758682992308
1789324256606276400,7.6242763671875,0.7089772675253451,0.039305589950084686,-0.9524592761524021
1789324256616238300,7.63423828125,1.3188837738372385,0.3391390158742666,-0.8754394570969045
1789324256626201000,7.644201171875,1.471168092713505,0.6219587631553412,-0.5854542751658708
1789324256636164000,7.6541640625,1.5730467509545385,0.8879659073233603,-0.24270912455841898
1789324256646126300,7.664126220703125,1.6431060833476483,1.148711185440421,0.21774697112888097
1789324256656089300,7.67408935546875,1.7158369730375707,1.1819891856640576,0.6888258753784
1789324256666051300,7.68405126953125,1.8095383161723613,1.1117384223520754,0.9379510044589638
1789324256676014000,7.69401416015625,1.887413144621998,0.9166530726253986,1.1007914964020251
1789324256685976300,7.703976318359375,2.017745890061557,0.7636310871243477,1.040793685426563
1789324256695939300,7.713939208984375,2.1887669119812547,0.7045300788581371,0.9584439035199582
1789324256705901300,7.7239013671875,2.4379694902122018,0.5516331810414791,0.8847507446691394
1789324256715864000,7.733864013671875,2.7690716223642227,0.3311959479153156,0.7401645790800452
1789324256725826300,7.743826416015625,3.0395746166467665,0.14750468338429926,0.6111842711627483
1789324256735789300,7.753789306640625,3.2807752363383766,-0.015796704068779945,0.4811559154972434
1789324256745751300,7.763751220703125,3.457547515261173,-0.165750534170866,0.5244558357805014
1789324256755714300,7.77371435546875,3.649192953667044,-0.22065993596613406,0.5823064055941999
1789324256765676300,7.78367626953125,3.6345302220642566,-0.10063654922544955,0.5777661318160593
1789324256775639300,7.793639404296875,3.3319045350730416,0.09640051909089088,0.5769799498744309
1789324256785601300,7.803601318359375,3.0554420478641986,0.40857437115013595,0.7256362875118851
1789324256795564300,7.813564208984375,2.9524045749768613,0.6368593951672316,0.8868510779492557
1789324256805526300,7.8235263671875,2.7946201973795888,0.8617617910087109,1.1230937829725445
1789324256815489300,7.8334892578125,2.3397606065250933,1.11892862611711,1.3983224906027316
1789324256825451300,7.843451171875,1.940845459602028,1.334917063140869,1.6815613400787115
1789324256835414300,7.853414306640625,1.7943467383898795,1.49314246250391,1.78759434152022
1789324256845377300,7.863377197265625,1.7457915279269218,1.605143870830536,1.7953445172555744
1789324256855339300,7.87333935546875,1.5989010309182106,1.7960633330494165,1.9055822769105433
1789324256865302300,7.88330224609375,1.399066002446413,1.9300801738291977,1.9361077635556458
1789324256875264300,7.89326416015625,1.178261543443054,2.0018460178792474,2.0129510570004583
1789324256885227300,7.903227294921875,0.8616891641639173,2.1933283746778964,2.2646312773913144
1789324256895189200,7.913189208984375,0.7068180436648428,2.1270991219669577,2.2815789050608872
1789324256905152300,7.92315234375,0.6093570557355881,1.9759984599173068,2.2540325803570447
1789324256915114200,7.9331142578125,0.40823016082234675,1.8809470173478124,2.468195117127895
1789324256925077200,7.9430771484375,0.25126243337020276,1.5887953780978916,2.56982886069715
1789324256935039200,7.953039306640625,0.14382855215482412,1.1702023017585277,2.5326766493886708
1789324256945002200,7.963002197265625,0.10206921237707138,0.739745184624195,2.5337305423557757
1789324256954964200,7.972964111328125,0.5626034148018807,0.10739888296723366,2.6756442738652226
1789324256964927200,7.98292724609375,1.5339923592865465,-1.1031447815299034,3.21299466253221
1789324256974889200,7.99288916015625,0.5198200657386333,-1.127511745545268,2.6704391064375637
1789324256984852200,8.002852294921874,-1.2054442955315112,-0.6720365070104598,1.971862529156357
1789324256994815200,8.012815185546875,-2.200723745626211,-1.12586690094769,1.9166458149775862
1789324257004777200,8.022777099609375,-2.8142881899237633,-1.4794155504465103,1.4125769336655736
1789324257014740200,8.032740234375,-3.170754772695899,-1.878529434812069,0.715255763272941
1789324257024702200,8.0427021484375,-3.6142706933677196,-2.155590472435951,-0.003847615338861942
1789324257034665500,8.05266552734375,-4.151853721746802,-2.010351980417967,-0.5479271661303937
1789324257044627200,8.062627197265625,-4.740997426015138,-1.7662591464161872,-0.8182641561962664
1789324257054590200,8.072590087890624,-5.7620390938758845,-1.631249787467718,-0.8254528986565768
1789324257064552200,8.08255224609375,-6.657140259906649,-1.566465472868085,-0.1051964044868946
1789324257074515500,8.092515380859375,-5.937177634117007,-2.4159300923615694,1.5567298224039374
1789324257084477200,8.102477294921876,-4.165558421972394,-3.4786984398394822,2.093972074521333
1789324257094440200,8.112440185546875,-2.7722318399608135,-4.32011770004332,1.7087145738117395
1789324257104402200,8.122402099609374,-1.7917676816821098,-4.70606172171235,1.4034975551530717
1789324257114365400,8.132365478515625,-1.0576157870203255,-4.653545937055349,1.127878386900574
1789324257124328400,8.142328369140625,-0.47336398297939447,-4.607960828444361,0.9225735487155615
1789324257134290200,8.152290283203126,0.004552238210570067,-4.4237750583946704,0.8252515308655798
1789324257144253200,8.162253173828125,0.4749404019832611,-3.833842249575257,0.7094106905065477
1789324257154215400,8.17221533203125,0.9244272137582301,-2.887152350604534,0.5634903537042438
1789324257164178400,8.182178466796875,1.3162182078897953,-1.8311475059121847,0.4706555642709136
1789324257174140200,8.19214013671875,1.7415911536276338,-0.8880518320411444,0.33384806985929605
1789324257184103200,8.202103271484376,2.166853040206432,-0.10785831717252731,0.16321385530009866
1789324257194065400,8.2120654296875,2.7006267394304273,0.4321089759945869,-0.21932065018638966
1789324257204028400,8.2220283203125,3.2670681980252265,0.7577040351629257,-0.623416414617747
1789324257213990100,8.231990234375,3.853367034256458,0.9561106382668018,-1.0733198443695902
1789324257223953200,8.241953125,4.319795628482103,1.0481751739799976,-1.566020213318616
1789324257233916200,8.251916259765625,4.6354807035326955,1.0265180534452198,-2.032790460588783
1789324257243878400,8.26187841796875,4.8660979698896405,0.8865899427950382,-2.553257080602646
1789324257253841200,8.271841064453126,4.916384388059377,0.6759931356817483,-3.1518624406993387
1789324257263803100,8.28180322265625,4.480963511037826,0.5680278510034084,-3.494627245855331
1789324257273766400,8.291766357421874,3.5165859796851873,0.5376373889148235,-3.683744334827363
1789324257283728400,8.301728271484375,1.9249059860616922,0.7600146501928567,-3.4500773255109785
1789324257293691100,8.311691162109375,0.24040566992163656,1.2382792281627655,-3.0535841450378296
1789324257303653000,8.321653076171875,-0.897158244691044,1.6769763503760098,-2.9247914686471224
1789324257313616400,8.331616455078125,-1.467532220429182,2.087682472857833,-2.799988154153526
1789324257323579400,8.341579345703124,-1.4933056902416049,2.3593881209284064,-2.592947578217089
1789324257333541000,8.351541015625,-1.9440397255986928,2.441954760456085,-2.6225059733957052
1789324257343504100,8.361504150390624,-2.093105082428455,2.332685991963744,-2.0356275837108493
1789324257353466000,8.371466064453125,-2.0719518197625875,1.646050466236472,-0.38300519173815845
1789324257363429000,8.38142919921875,-1.6677596092194318,0.931184286803007,1.0405250245530158
1789324257373391000,8.39139111328125,-1.2842156344294546,0.546965189230442,1.2939441245004535
1789324257383354000,8.40135400390625,-0.8100638255406171,0.34896599788367744,1.3287959499120712
1789324257393316000,8.411316162109374,-0.3878232595443725,0.2430927170485258,0.8539530169539153
1789324257403279000,8.421279052734375,-0.2773597465758212,0.3793231422245502,0.2983721942652017
1789324257413242000,8.4312421875,-0.25631869384646416,0.7873568306267261,-0.24339498793072997
1789324257423204000,8.4412041015625,-0.2776759911844507,1.3799030368149279,-0.7845130585681647
1789324257433167000,8.4511669921875,-0.2935713698547333,2.1518723286956547,-0.9116388977251947
1789324257443129000,8.461129150390626,-0.03766542152762413,2.866665442892909,-0.6898622326888144
1789324257453092000,8.471092041015625,0.13374094644784926,3.4481109938740726,-0.24869930488392708
1789324257463054000,8.48105419921875,0.4419355196125805,3.8654771587669847,-0.08055456905290484
1789324257473017000,8.49101708984375,0.945078664381802,3.9574546007186173,0.027015067371353504
1789324257482979000,8.50097900390625,1.4977461569070816,3.816335234457254,0.46108065732643005
1789324257492942000,8.510942138671876,2.046338655078411,3.494496897473931,0.8067091813504695
1789324257502905000,8.520905029296875,2.377737139828503,2.973531826418638,1.0303453566484153
1789324257512867300,8.530867431640624,2.469746730484068,2.303219074460864,1.158422432115674
1789324257522830300,8.540830322265625,2.6232661441132423,1.572854881644249,1.2567293693497776
1789324257532792000,8.5507919921875,2.6732041872367263,0.7843354369789362,1.3266761812791228
1789324257542755000,8.560755126953126,2.9257734654217957,-0.024364041405916213,1.0874038262363523
1789324257552717300,8.57071728515625,2.38109024964869,-0.5417015696138143,1.1326654750466345
1789324257562680300,8.580680419921874,0.503012650257349,-0.904279913264513,1.6343525757886468
1789324257572643000,8.59064306640625,-3.6067166247263547,-1.2510504469305277,2.845394983588159
1789324257582605000,8.60060498046875,-10.041925905817747,-2.024504424411058,4.935050510084629
1789324257592568000,8.610568115234376,-11.196069053179025,-3.7699727117329833,5.079300575587153
1789324257602530300,8.6205302734375,-9.020533524823188,-5.0618946827560665,3.2453470723435283
1789324257612493000,8.6304931640625,-7.83086313700676,-4.622805930876732,2.0442161099664866
1789324257622455000,8.640455078125,-5.837675057357549,-2.784392233353853,1.5593946576990185
1789324257632418000,8.65041796875,-3.5546240339174866,-0.9358569547891616,1.0099570870056749
1789324257642380300,8.66038037109375,-1.4339108135953544,0.11683598887622355,0.3090483404498547
1789324257652343000,8.670343017578125,0.732766577783227,0.2536982822149992,-0.6004285204032436
1789324257662306000,8.68030615234375,2.3564546978250145,-0.44500411340296264,-1.8024423665620386
1789324257672268000,8.69026806640625,3.10137377795577,-1.3558902930647134,-2.184719097895175
1789324257682231300,8.700231201171874,3.1981635886251922,-2.2313059308946133,-1.9565154685512185
1789324257692193000,8.710193115234375,3.233671832118928,-3.0700860747665164,-1.9150956629261373
1789324257702156000,8.720156005859375,3.0620752022683617,-3.7970699774950742,-2.1924457466244696
1789324257712118300,8.7301181640625,2.722933263784647,-4.497047215354442,-2.7507448152959344
1789324257722081300,8.740081298828125,2.2480697264298795,-5.129705067178607,-3.260186621817946
1789324257732044300,8.750044189453124,1.3378688986837863,-5.462278148666024,-3.6140871534943577
1789324257742006000,8.760006103515625,-0.9017989101037382,-5.004723765769601,-3.4603403608500956
1789324257751969000,8.769968994140624,-2.8842636434257027,-3.201238758286834,-1.9642431401938198
1789324257761931300,8.77993115234375,-3.203880212706327,-1.151105971622467,-0.6394418128758669
1789324257771894300,8.789894287109375,-1.8307870020367205,0.144327222391963,-0.5022759334806353
1789324257781856000,8.79985595703125,-0.07926379859000444,0.6692606125563383,-0.7837034957509488
1789324257791819000,8.809819091796875,0.7709364417016505,1.0923083302170038,-0.7809642069801688
1789324257801782000,8.819781982421874,1.3425073721393943,1.47617086943686,-0.4102752567838877
1789324257811744300,8.829744140625,1.7771838605344294,1.6887100427895783,-0.03583557575196027
1789324257821707300,8.839707275390625,2.1231807794794437,1.642261010825634,0.23306034866012632
1789324257831669000,8.8496689453125,2.3364263475358484,1.4278385079443454,0.3226949538126588
1789324257841632000,8.859632080078125,2.4821312880218027,1.049192826589942,0.39604339087903495
1789324257851594200,8.86959423828125,2.5590976233243943,0.6292389832913875,0.45944969512373207
1789324257861557200,8.87955712890625,2.5386168530926105,0.3307517112791538,0.4855798694193363
1789324257871520000,8.88952001953125,2.597468855033815,0.2056575971454382,0.3902425956457853
1789324257881482200,8.899482177734376,2.6712191508993506,0.10429974790811539,0.2756095236413181
1789324257891445200,8.9094453125,2.841078873954713,-0.060711366072297095,0.07389072724953294
1789324257901407200,8.9194072265625,2.9317452333077787,-0.2302700603544712,-0.01570581091493368
1789324257911370000,8.929369873046875,2.9957772682353854,-0.2756447410851717,0.13122194936424492
1789324257921332200,8.939332275390624,2.988794862002134,-0.1855143883049488,0.20209639753252268
1789324257931295200,8.949295166015625,2.943716533869505,-0.06601473317742347,0.29274375992417334
1789324257941258200,8.95925830078125,2.9256819877460596,0.059959670922160146,0.34218408265858885
1789324257951220000,8.969219970703126,2.8220030020847915,0.3658049044817686,0.3422441422827542
1789324257961183000,8.979182861328125,2.644486919057369,0.754316730812192,0.3665393562361598
1789324257971145200,8.989145263671874,2.403086392879486,1.001112978553772,0.4276376757994294
1789324257981108200,8.999108154296875,2.2166766631700097,1.1400076545029878,0.6110616676963866
1789324257991071200,9.0090712890625,2.008752728527784,1.298665015542507,0.8216510221555828
1789324258001033000,9.019032958984376,1.803369272148609,1.456534441074729,1.0438218010760842
1789324258010996200,9.028996337890625,1.550095937347412,1.621799822077155,1.224107056555897
1789324258020958200,9.038958251953124,1.3285386141501365,1.7391881841391323,1.3830973028115927
1789324258030921200,9.048921142578125,1.1049616216935216,1.8363327995955943,1.5709239135816693
1789324258040883000,9.058883056640624,0.8718577992178499,1.9573235700637102,1.8074138713642953
1789324258050846200,9.06884619140625,0.5776853216648101,2.0339087970942256,2.123065482536703
1789324258060809200,9.078809326171875,0.30024083768129345,1.921694622799754,2.3110604356110094
1789324258070771200,9.088771240234376,-0.022203502371162174,1.6711100886911152,2.3178061104789376
1789324258080734200,9.098734130859375,-0.3145757986344397,1.4078718247145414,2.4231750950537623
1789324258090696200,9.1086962890625,-0.3222948485791683,1.0102081391572952,2.4361067650802433
1789324258100659200,9.1186591796875,0.4517629400134086,0.44483109492361544,2.603675600719452
1789324258110622200,9.128622314453125,1.011629696393013,-0.5002145439714193,3.0509456132277846
1789324258120584200,9.138584228515626,0.33344986432194706,-0.7804793460726738,2.986545329509675
1789324258130547000,9.148546875,-0.9935200392067431,-0.4353571641355753,2.8559073175132275
1789324258140509200,9.15850927734375,-1.851788727402687,-0.5698065511137247,2.834816014167666
1789324258150472200,9.16847216796875,-2.4427871196269986,-0.8257949900925159,2.7351363272756335
1789324258160434200,9.17843408203125,-2.7929683385193345,-1.068877770268917,2.2842950321517885
1789324258170397000,9.18839697265625,-2.8901415955483913,-1.1749673242032528,1.6729614156462251
1789324258180360200,9.198360107421875,-2.921708700200915,-1.1311971560597418,1.0371784175388514
1789324258190322200,9.208322265625,-3.142275697186589,-1.119990117868781,0.608591478190571
1789324258200285200,9.21828515625,-3.5155437771558757,-1.181138121792674,0.3629587212704122
1789324258210247000,9.228246826171874,-3.8573908829450607,-1.26730892329216,0.3405105964884162
1789324258220210200,9.238210205078126,-4.029619088697433,-1.6606529920846222,0.7403916658341885
1789324258230173200,9.248173095703125,-3.754575820636749,-2.541708681628108,1.495340410939604
1789324258240135200,9.25813525390625,-3.0494010141342875,-3.448697853851318,1.963046477755159
1789324258250098200,9.26809814453125,-2.3991484689086673,-4.157050121346116,2.0618113878898323
1789324258260060200,9.27806005859375,-1.8471119677633046,-4.592881917256117,1.8628892364792524
1789324258270023200,9.288023193359376,-1.3295698568940162,-4.79015630145967,1.4919697654627262
1789324258279986200,9.297986083984375,-0.9056967943251133,-4.727948559349775,0.9656580726824701
1789324258289948200,9.3079482421875,-0.47963411275744433,-4.343820062670112,0.35044220791608094
1789324258299911200,9.3179111328125,-0.02238133402294479,-3.715777011165023,-0.07570420641228556
1789324258309873200,9.327873046875,0.4142845654904842,-2.899489269608259,-0.09829437001347541
1789324258319836200,9.337836181640625,0.7917629566311836,-2.0712486399292946,0.0685721625752747
1789324258329798100,9.347798095703125,1.172421146851778,-1.2257312967568634,0.26952552755251524
1789324258339761200,9.35776123046875,1.5902163508117197,-0.4334253192901611,0.26354104631543157
1789324258349724400,9.367724365234375,2.0440730482339857,0.30254677653610706,0.09715352941527962
1789324258359686400,9.377686279296874,2.5253777245521545,0.9948340444147586,-0.14947832154482601
1789324258369649200,9.387649169921875,3.0184266146779057,1.536164442628622,-0.558249530441314
1789324258379611100,9.397611083984375,3.491303654390573,1.8228876270890235,-1.2227050808034836
1789324258389574400,9.407574462890626,3.8098049559056757,1.9225842651158571,-1.8876336555048823
1789324258399537400,9.417537353515625,3.998403281700611,1.8655834439992904,-2.489872695928812
1789324258409499100,9.4274990234375,4.17878790590167,1.625373004388809,-3.163000213046372
1789324258419462100,9.437462158203125,4.158046731168032,1.2266115867227316,-3.857265210738778
1789324258429424400,9.44742431640625,3.659466510400176,0.8040028450012207,-4.3859021315962075
1789324258439387400,9.457387451171876,2.5678712968885895,0.5195125341594219,-4.467339767093956
1789324258449350400,9.467350341796875,1.3230373863853513,0.4856920976221561,-4.187883066505194
1789324258459312000,9.47731201171875,0.14971476064920425,0.7636182276427745,-4.0064220452442765
1789324258469275100,9.487275146484375,-0.4650282259084284,1.083217845788598,-3.985439170709252
1789324258479237400,9.4972373046875,-0.709780254471302,1.3870102384716272,-3.807062671460211
1789324258489200400,9.507200439453126,-0.6811727302767336,1.714147266384959,-3.4590853923529385
1789324258499163100,9.5171630859375,-1.5104752900987863,1.535192967247963,-2.5292490130275485
1789324258509125000,9.527125,-2.853352956855297,0.7323065590560436,-0.13450506268814205
1789324258519088400,9.53708837890625,-2.5321102476775645,0.10209668490588665,0.9745384214915335
1789324258529050400,9.54705029296875,-1.6599143025465308,-0.32314240531921384,0.36528964843600986
1789324258539013400,9.557013427734375,-1.1970781067896634,-0.4420651373416185,-0.1365292619921267
1789324258548976000,9.56697607421875,-0.8510247084170579,-0.24892975263893602,-0.3308279183205217
1789324258558938400,9.5769384765625,-0.5441355187624692,0.31108605682253837,-0.5627939689379186
1789324258568901400,9.5869013671875,-0.4169640868980437,1.1809773782730102,-0.8562044491425156
1789324258578864400,9.596864501953124,-0.39743981367349623,2.1307757646530865,-0.8547158910851925
1789324258588826000,9.606826171875,-0.30059505794644353,3.1598201217055317,-0.8703187530823051
1789324258598789000,9.6167890625,-0.185784437417984,4.131964779928326,-0.8192159039631486
1789324258608751400,9.62675146484375,-0.05092237798571586,4.980567814156413,-0.6542462179716676
1789324258618714400,9.63671435546875,0.24048867202997207,5.4248284157156945,-0.24229418708197772
1789324258628677400,9.646677490234374,0.6335856341935694,5.520756641119719,0.13384170340858398
1789324258638639000,9.65663916015625,0.9423428096771239,5.258068996763229,0.5638102333083749
1789324258648602400,9.666602294921875,1.2418832440041006,4.749761747229099,0.864926392519474
1789324258658564400,9.676564453125,1.5485750113904475,4.115589399188757,1.0287808838106691
1789324258668527400,9.68652734375,1.6882665368057785,3.379918332135677,1.1684329539984464
1789324258678490000,9.696489990234374,1.6106421759858727,2.5080454814791677,1.1796356082752346
1789324258688452400,9.706452392578125,1.4407310150042176,1.5642629943877457,1.1872314702317117
1789324258698415400,9.716415283203125,1.193691606156528,0.5717085853427648,1.1649691503453998
1789324258708378400,9.72637841796875,0.9396344275012611,-0.3725876964896917,1.1541485541887582
1789324258718340000,9.736340087890625,0.4861205521672964,-1.3200018180817366,1.5962541696712373
1789324258728303000,9.74630322265625,-2.435554976416379,-2.332193240010738,3.2927252018511295
1789324258738265300,9.756265380859375,-7.674258032321929,-3.4684961947768924,5.308173044103384
1789324258748228400,9.766228271484374,-10.089930350530146,-4.927925772771239,5.012434194016456
1789324258758191400,9.77619140625,-9.143847769802809,-5.6385869017302985,3.541041791027784
1789324258768153000,9.786153076171875,-7.434511703091859,-4.744280685469508,2.5736475422024725
1789324258778116400,9.796116455078124,-5.441929188120365,-3.066325260928273,1.8245185892917215
1789324258788079400,9.806079345703125,-3.3640053082108494,-1.7356489040970802,0.8647272166855633
1789324258798041300,9.816041259765624,-1.0634045995548367,-1.565862830799818,-0.43656884148027747
1789324258808004400,9.82600439453125,1.3239958561539649,-1.7955542144834995,-1.785041880558431
1789324258817966300,9.83596630859375,3.0237746977075934,-1.7513205204814672,-2.398620499511808
1789324258827929300,9.845929443359376,3.5073464421749114,-1.9159277298361062,-2.5734552345007655
1789324258837892400,9.855892333984375,3.577558334781229,-2.3336826017856596,-2.712042744196951
1789324258847854300,9.865854248046874,3.4788077454328534,-2.847052395406365,-3.0811995894551276
1789324258857817000,9.875817138671875,3.1361539994359013,-3.4680677402317523,-3.333825274002552
1789324258867780000,9.885780029296875,2.234915061302483,-4.254409840857982,-3.4342511030867695
1789324258877742300,9.895742431640626,0.22387173761948942,-5.306550411337613,-3.36225174254179
1789324258887705300,9.905705322265625,-2.1549344927452503,-5.352572157800197,-2.627617617321014
1789324258897668400,9.91566845703125,-3.702173433226347,-3.957029653304815,-1.3500266617283225
1789324258907630000,9.925630126953125,-3.221607592576742,-2.181005484199524,-1.0044725911799817
1789324258917593300,9.93559326171875,-1.34470663574934,-0.9224754951685666,-1.2419418423235415
1789324258927555300,9.945555419921876,0.02763502590060234,-0.321278949534893,-1.5144443398602305
1789324258937518300,9.955518310546875,0.47813086858764287,0.258976514878869,-1.128112707113102
1789324258947481000,9.965481201171874,0.837997469061613,0.8920756807297467,-0.4467884395364672
1789324258957443300,9.975443359375,1.2949775592014192,1.3498773163855076,0.05962620118409395
1789324258967406300,9.98540625,1.678694990862161,1.685665268266201,0.32589944894239303
1789324258977369300,9.995369384765626,1.8096514211580157,1.8308751187115906,0.5396676526334137
1789324258987331000,10.0053310546875,1.9325709677316247,1.7697481575757263,0.7054414946146309
1789324258997294000,10.015294189453124,2.0230724919117984,1.5737603060513734,0.8692021701425313
1789324259007257300,10.02525732421875,2.077768543217331,1.3803811757206916,0.9090940355479716
1789324259017219300,10.03521923828125,2.1510916997119782,1.1705015769660472,0.9453456447549163
1789324259027182300,10.045182373046876,2.4114707748651503,0.7800017916887998,0.8663732303269207
1789324259037144000,10.05514404296875,2.662894682407379,0.4635422251343727,0.6311717049196363
1789324259047107300,10.065107421875,2.9203415035009384,0.2344131515085697,0.4773141453772783
1789324259057070300,10.0750703125,3.232674930036068,0.1340624334871769,0.395325305737555
1789324259067032300,10.0850322265625,3.460997655715048,-0.10689327153265475,0.31115400749221445
1789324259076995300,10.094995361328126,3.5911294717550275,-0.23071780412197113,0.34340997119173405
1789324259086958000,10.1049580078125,3.7156855334892867,-0.06184124688506126,0.4117915796309709
1789324259096920300,10.11492041015625,3.7888542300745844,0.002336918514966965,0.35066388784274455
1789324259106883300,10.12488330078125,3.629508594509959,-0.06048340253531932,0.3149367409013212
1789324259116846300,10.134846435546875,3.313440657621622,0.08421265316903591,0.38418241882398724
1789324259126808000,10.14480810546875,2.7869816653251647,0.31253742467463014,0.6215135036058723
1789324259136771300,10.154771240234375,2.173017408055067,0.49781157448291774,1.0092829871363937
1789324259146733300,10.1647333984375,1.9178624972909688,0.8524030110329389,1.4454197573423384
1789324259156696300,10.1746962890625,1.3821115066446363,1.1404057139098644,1.7990894028723239
1789324259166659300,10.184659423828125,1.1626619693815707,1.3320312785714863,2.141974035015702
1789324259176621300,10.194621337890625,1.4951272065803407,1.4997235944598912,2.045265034497529
1789324259186584300,10.204584228515625,1.725815200085938,1.6032698936522005,1.963502550959587
1789324259196547300,10.21454736328125,1.7013196412548421,1.711622131821513,2.012857095106691
1789324259206509300,10.22450927734375,1.5224150264784693,1.8662801940917968,2.152215881436318
1789324259216472300,10.234472412109374,1.3918027334451675,1.8860826266705988,2.2865904496125875
1789324259226435000,10.24443505859375,1.3331274032451212,1.8479367281496524,2.450560383976996
1789324259236397300,10.254397216796875,1.1549893889270721,1.7216069347411393,2.603904733300209
1789324259246360300,10.2643603515625,1.0919359897732734,1.4734399831682443,2.62087457280159
1789324259256323300,10.2743232421875,0.8843592611335217,1.1588292593508958,2.5339567523270845
1789324259266285000,10.28428515625,0.6625545390464365,0.6858452521324158,2.302816046617925
1789324259276248300,10.294248291015625,0.45301732398867606,0.275341958746314,2.0821369675599035
1789324259286210300,10.304210205078125,0.2773731723129749,-0.0465419709444046,2.022276957619935
1789324259296173300,10.31417333984375,0.25294001119360326,-0.35294951456189155,1.9793658905237912
1789324259306136300,10.32413623046875,1.0489021730802952,-0.7552642407953739,1.898890524186939
1789324259316098300,10.334098388671874,1.3147370294213294,-0.9694862526684999,1.5639149116024373
1789324259326061300,10.344061279296875,0.006351487918570637,-0.3849064953148365,0.8059867122948169
1789324259336024300,10.3540244140625,-1.2175146725535393,-0.14988076486587523,0.295957753534615
1789324259345986300,10.363986328125,-1.9668460161685943,-0.6821972510188817,0.30468276565149427
1789324259355949300,10.37394921875,-2.630508662587404,-1.4556377844959496,0.44050840941891073
1789324259365912300,10.383912353515624,-3.180254422447085,-2.2490122679769993,0.42965939088538285
1789324259375874300,10.393874267578125,-3.911777137649059,-2.887226584884524,0.41665903953686356
1789324259385837300,10.40383740234375,-4.652278693598508,-3.090757691395283,0.6623097705051303
1789324259395799300,10.41379931640625,-5.513752315315604,-2.999057897341251,1.2089619482636451
1789324259405762600,10.423762451171875,-7.0660594989717005,-3.1381887201339005,1.7021907250009476
1789324259415725600,10.4337255859375,-8.421310325089097,-3.5843303131341933,1.9473123175285756
1789324259425687300,10.443687255859375,-6.167174722748994,-4.264847063720226,2.168898720689863
1789324259435650300,10.453650390625,-3.5636803238153454,-4.872456983527541,2.34151461058557
1789324259445613300,10.46361328125,-2.410936521857977,-5.314434442585706,2.271801461281627
1789324259455575600,10.473575439453125,-1.4841338111400604,-5.683948722979426,1.9975769622579216
1789324259465538600,10.48353857421875,-0.7803215251624583,-5.510003776437044,1.379977271094918
1789324259475501300,10.493501220703125,-0.18989954458661376,-4.616725149658322,0.5820196976073085
1789324259485463300,10.50346337890625,0.29934425416775046,-3.3439696513980626,0.10225421355515718
1789324259495426300,10.51342626953125,0.8189829719901084,-2.1384897000312804,-0.1043822385597974
1789324259505389600,10.5233896484375,1.4616004922926424,-0.9656102880179881,-0.2573304281722754
1789324259515351300,10.533351318359376,2.0494658471882343,0.19756430706083775,-0.34007227813638746
1789324259525314300,10.543314208984375,2.411995675522089,1.2423241196393966,-0.31991694046668706
1789324259535276300,10.5532763671875,2.5576725589573384,2.0915005698412656,-0.3430368270304054
1789324259545239600,10.563239501953126,2.7517197978079317,2.663560452839732,-0.5546960026782005
1789324259555202600,10.57320263671875,3.195195386469364,2.849624876242876,-1.1349578237675129
1789324259565164300,10.583164306640626,3.737962539488077,2.8313778564125296,-1.9037562305271625
1789324259575127300,10.593127197265625,4.315519266337156,2.632560334420204,-2.8297987705275416
1789324259585090300,10.60309033203125,4.818683015502989,2.3744705392479895,-3.5890441899135705
1789324259595052500,10.613052490234375,4.701280624915659,2.0759259840905666,-4.048237572188675
1789324259605015300,10.623015380859375,4.342388568562269,1.6825164488464592,-4.238452977791428
1789324259614978300,10.632978271484374,3.773860366821289,1.283262279227376,-4.251042994773388
1789324259624940300,10.642940185546875,2.4720845257818698,1.0487520970851183,-3.756492467913031
1789324259634903600,10.652903564453124,1.0798907471925019,1.075187099546194,-3.037171062636375
1789324259644866600,10.662866455078126,0.10401800835728645,1.2099252403378487,-2.667113761407137
1789324259654828300,10.672828369140625,-0.18049338180515914,1.2678998749226331,-2.8974077871590853
1789324259664791300,10.682791259765626,-0.424715943133831,1.1082377207547425,-3.6267315310120583
1789324259674753500,10.69275341796875,-2.181032956728339,0.5958832416564226,-3.3850501420661807
1789324259684716500,10.702716552734374,-4.541471463492512,-0.4255956485778093,-1.0996334854733198
1789324259694679600,10.712679443359375,-2.6572055308550593,-0.8517617905199527,-0.24513584024868904
1789324259704641300,10.722641357421875,-0.6781804165929556,-0.8582757024586201,-0.739083213584125
1789324259714604300,10.732604248046876,-0.07570906525049358,-0.5183937592625618,-0.48702765707485374
1789324259724567300,10.7425673828125,0.5534942987382412,0.02246200717687607,-0.14419241703115404
1789324259734529500,10.752529541015624,0.9345604852378367,0.7204998014062642,-0.73180971544981
1789324259744492300,10.7624921875,0.8058183699905872,1.5267173998475074,-1.2212561971694231
1789324259754455300,10.772455322265625,0.5410206381449476,2.3385686202615497,-0.9458609008006751
1789324259764417500,10.78241748046875,0.4577298125285655,3.0767800194472072,-0.7505603008881211
1789324259774380500,10.792380615234375,0.5839535882793366,3.5789480355739594,-0.6288320099256932
1789324259784343600,10.802343505859374,0.8184826212525367,3.6746798616230487,-0.6042581982266158
1789324259794305300,10.81230517578125,1.0679976264335214,3.522914598184824,-0.5116846170127392
1789324259804268300,10.822268310546875,1.269476330459118,3.141110745060444,-0.08485906131379306
1789324259814230500,10.83223046875,1.4125953461050986,2.6249083583623167,0.27061514942012727
1789324259824193500,10.842193603515625,1.552055400852114,1.9995862562537192,0.5536804689601064
1789324259834156500,10.852156494140624,1.6985118903577328,1.4114245487600565,0.6929382060680538
1789324259844118300,10.8621181640625,1.7109002472877501,0.8684364464670419,0.7342074973065406
1789324259854081300,10.872081298828125,1.6391680132463573,0.4529974502444267,0.745679177783057
1789324259864044500,10.88204443359375,1.4397767830193042,0.15236732098460196,0.6616545945320278
1789324259874006500,10.892006591796875,1.1849430670335888,-0.0008329436928033829,0.5631575415533036
1789324259883969300,10.90196923828125,0.7917138567924499,-0.04109188884496689,0.6191276313826442
1789324259893932300,10.911932373046875,0.19502660527676344,0.07660276268720627,1.119774502356723
1789324259903894500,10.92189453125,-1.6622025596141814,0.3747223704308271,2.7277731050312517
1789324259913857500,10.931857421875,-6.49770022405684,0.38808512535095213,5.618728939571977
1789324259923820500,10.941820556640625,-10.3432855183959,-0.641772886171937,7.278128716725111
1789324259933782300,10.9517822265625,-9.186934047335386,-2.5669261249929667,3.8215292959690093
1789324259943745300,10.961745361328125,-6.8816931116580955,-3.2581817117363214,0.6768081783916801
1789324259953708300,10.971708251953125,-4.967890118891001,-2.3588012609511613,0.7723722466584294
1789324259963670500,10.98167041015625,-3.440790733988583,-0.9917553676217794,1.1638789439558983
1789324259973633300,10.99163330078125,-2.221055608906597,-0.2288099246740341,1.2567027736037968
1789324259983595300,11.00159521484375,-1.0263666622757912,-0.2677478503555059,0.9352359002813696
1789324259993558500,11.01155859375,0.055929684753715986,-0.8808417545318603,0.18386479446701703
1789324260003521500,11.021521484375,1.1734136650204658,-1.6036340507894753,-0.43402401583567257
1789324260013483300,11.031483154296875,1.9144030044868587,-2.004599700501561,-0.7902453916750848
1789324260023446300,11.0414462890625,2.069330531348288,-2.336678860992193,-1.173638340621814
1789324260033409300,11.0514091796875,1.8126003340914845,-3.0166227801263332,-1.641713752206415
1789324260043371500,11.06137158203125,1.082294885724783,-3.9784669936090706,-2.32965349240005
1789324260053334500,11.07133447265625,0.23099399071484802,-4.7686032258212565,-2.776010773977637
1789324260063297500,11.081297607421876,-0.46049116700068116,-5.259365466314554,-2.949044450893998
1789324260073259300,11.09125927734375,-1.133989855518192,-5.284166145572066,-2.987585193951428
1789324260083222300,11.10122216796875,-1.7776269281268118,-4.266268036434054,-2.6440631406873463
1789324260093185500,11.111185546875,-1.6731206978611648,-2.236144018575549,-1.6609164653263986
1789324260103147500,11.1211474609375,-0.8016988058425486,-0.38985798024237156,-0.7358717772569507
1789324260113110300,11.1311103515625,0.2907669068932533,0.8988748393505811,-0.2115687939506024
1789324260123073300,11.1410732421875,1.0008674793601036,1.6022674386113882,-0.1441530348688364
1789324260133035500,11.151035400390626,1.198306260345131,2.048459300494194,-0.12233750890195369
1789324260142998500,11.16099853515625,1.5299863385155796,2.2888912739008664,0.035898411855101585
1789324260152960300,11.170960205078124,1.8240462956048547,2.2860288702070712,0.1736713902980089
1789324260162923300,11.18092333984375,2.1018742259480057,1.9848036976635455,0.23842077971473336
1789324260172886300,11.19088623046875,2.2852796592749653,1.463755624499917,0.20416823537051676
1789324260182848500,11.2008486328125,2.3075746393218637,0.9087877460777759,0.18393252594098447
1789324260192811500,11.2108115234375,2.2796236793398856,0.4070020072668791,0.22094927430152891
1789324260202774300,11.220774169921874,2.3021882701084015,0.02165712053477764,0.288080882679671
1789324260212736300,11.230736328125,2.335373915873468,-0.14735679934620857,0.3079289079658687
1789324260222699500,11.240699462890625,2.4173659703835844,-0.26804244938790794,0.19960560363009572
1789324260232662500,11.25066259765625,2.629743815694749,-0.47849429507255553,-0.08069587721973658
1789324260242624300,11.260624267578125,2.8554262559980153,-0.6634370209693908,-0.3720852999255061
1789324260252587300,11.270587158203124,3.0092963827610015,-0.7474976984471082,-0.5517680594675243
1789324260262550300,11.28055029296875,2.982134819591045,-0.7465536955952644,-0.49446796314343805
1789324260272512500,11.290512451171875,2.8016730385005473,-0.6037649348169565,-0.2163051017574966
1789324260282475500,11.3004755859375,2.623342716480791,-0.28106968874335286,-0.0497128560654819
1789324260292437200,11.310437255859375,2.460088383039832,0.20364625732302666,-0.01647109619900584
1789324260302400300,11.320400146484374,2.353005726414919,0.6660889967828989,0.08396423136591911
1789324260312363300,11.33036328125,2.2314006234407424,1.0249760847002267,0.22939751530364155
1789324260322325500,11.340325439453125,1.98591428925395,1.1706558907449245,0.4018088225379586
1789324260332288500,11.35028857421875,1.774353605544567,1.3034399748593568,0.6233285902038216
1789324260342251500,11.36025146484375,1.6409550427936017,1.4378835166186092,0.7594925260148943
1789324260352213500,11.370213623046874,1.4485923960290847,1.5835884571045635,0.9421946333780884
1789324260362176500,11.380176513671875,1.2391152405954897,1.8190157540917395,1.0431623142540454
1789324260372139500,11.390139404296875,1.0964824010312557,2.1258967604398724,1.1957638823859393
1789324260382101500,11.4001015625,0.9831050281763076,2.4420079519480464,1.3244039985634386
1789324260392064500,11.410064453125,0.8233725852511823,2.625214063310623,1.4103499052658677
1789324260402027500,11.420027587890624,0.5890823294699191,2.6933389205098153,1.5552981821656227
1789324260411989500,11.429989501953125,0.309086918894574,2.5884476364493367,1.6371765471681952
1789324260421952500,11.439952392578125,-0.07241174073815346,2.2119693622618914,1.8306335650406778
1789324260431915500,11.44991552734375,0.10311667560338973,1.70607034291327,2.018624718722701
1789324260441877500,11.45987744140625,0.8401660452723503,0.9697644850879907,2.2454345556207
1789324260451840500,11.469840576171874,0.341719716549851,0.38670331560373306,2.3555466430693865
1789324260461802500,11.479802490234375,-0.6821078191697597,0.1433370423108339,2.2468892844736574
1789324260471765500,11.489765625,-1.6637421902716159,-0.19509820920825002,2.185160704182833
1789324260481728500,11.499728515625,-2.2935288705736396,-0.6527601441323757,2.1395574753932656
1789324260491690800,11.509690673828125,-2.597930919587612,-0.9371920027852058,1.8336299703776835
1789324260501653500,11.519653564453124,-2.6367852586388585,-0.9764631059437989,1.2919517816394566
1789324260511616500,11.529616455078125,-2.652555074700713,-0.8795511301994323,0.7148593113012611
1789324260521578500,11.53957861328125,-2.738311450180411,-0.749126176431775,0.33807723186165095
1789324260531541500,11.54954150390625,-2.9393121614307165,-0.7934042940974235,0.10768062251806258
1789324260541504500,11.55950439453125,-3.288126768144965,-0.9431611403226852,-0.020000877760350703
1789324260551466500,11.569466552734376,-3.6726065624803303,-1.1333049419939518,-0.16050006629675626
1789324260561429500,11.579429443359375,-3.9635020641893144,-1.4847680173903703,0.03731909230798482
1789324260571392500,11.589392578125,-3.948230845299363,-2.5026316397368906,1.032864499862492
1789324260581354500,11.5993544921875,-3.4260657508045433,-3.907652166673541,2.2014994061738253
1789324260591317500,11.6093173828125,-2.791958284693956,-4.930459090641141,2.505270463807881
1789324260601280500,11.619280517578124,-2.2199416563153265,-5.491521194285154,2.382785216998309
1789324260611242500,11.629242431640625,-1.792839694827795,-5.839667692479491,2.2399624078199265
1789324260621205500,11.63920556640625,-1.367735629159212,-6.062066581067443,2.0093287748500703
1789324260631168500,11.64916845703125,-0.9128875826120376,-6.024388300058245,1.5223980753436683
1789324260641130500,11.659130615234375,-0.4537818786203861,-5.357178774812818,0.7322169810764491
1789324260651093500,11.669093505859376,0.030866299439407885,-4.242288610431552,0.15624211659133433
1789324260661055500,11.679055419921875,0.5498808574814349,-3.004374123927951,-0.044924160484224554
1789324260671018500,11.6890185546875,1.080991474976018,-1.8778063812345265,-0.02294073060452938
1789324260680981800,11.698981689453126,1.5947113241434097,-0.8217530212253331,0.035490123315155504
1789324260690943500,11.708943603515625,2.09113758174777,0.09166822987198829,0.0008034253373742104
1789324260700906500,11.718906494140626,2.612983527290821,0.8314408870249986,-0.26951106063574554
1789324260710869500,11.728869384765625,3.145871091330051,1.3860282416969536,-0.6363095061995089
1789324260720831700,11.738831787109374,3.717082248544693,1.7686399040728806,-1.1117835766680537
1789324260730794500,11.74879443359375,4.295442108470201,1.9456325477480887,-1.642038161855191
1789324260740757500,11.758757568359375,4.684269576621055,1.9751731150090692,-2.227400594019145
1789324260750719500,11.768719482421876,4.8569700760602945,1.946789901089668,-2.8359911954268813
1789324260760682500,11.7786826171875,4.634151500755548,1.830425036856532,-3.34071035734117
1789324260770645500,11.7886455078125,3.863742297798395,1.7360259207159279,-3.5451387049525973
1789324260780607500,11.798607421875,2.634503869703412,1.7137217344492672,-3.2253707445025444
1789324260790570500,11.808570556640625,1.1279232489556072,1.8706062405973671,-2.4923329485625025
1789324260800532500,11.818532470703126,-0.21849011764638124,2.1071382839560506,-1.8668004185736178
1789324260810495500,11.82849560546875,-0.9900000483870506,2.306660154825449,-1.6686366843149065
1789324260820458500,11.83845849609375,-1.2956703637711704,2.2617753034383057,-2.1988635047122833
1789324260830420500,11.84842041015625,-1.6996435247361659,2.0001953280627727,-2.315159541492909
1789324260840383500,11.858383544921875,-3.6947377302676436,1.3121487664937972,-1.666524806727469
1789324260850346500,11.868346435546876,-4.372138394659757,0.22175708355307577,-0.7078390572756529
1789324260860308500,11.87830859375,-2.9844039335668087,-0.5058838217794895,-0.06523666147701442
1789324260870271500,11.888271484375,-1.934386346590519,-0.6730050597816706,-0.03417553358525038
1789324260880234500,11.898234375,-1.2299953839421272,-0.37251638481914995,0.024951120578870174
1789324260890196500,11.908196533203125,-0.5006856686145067,0.2614846983075142,0.46297823457606135
1789324260900159500,11.918159423828126,0.0077484039033763105,0.8388444412797689,0.8593331756222993
1789324260910122800,11.928122802734375,0.19243158381488173,1.401544375258684,0.3158868081677705
1789324260920084500,11.93808447265625,0.34427747474126513,2.1126240218907593,-0.2887174270175397
1789324260930047500,11.948047607421875,0.47905901628322894,2.8613661674410102,-0.6796346339892596
1789324260940009500,11.958009521484374,0.8574246385872364,3.3626083008944985,-0.854150804548338
1789324260949972700,11.96797265625,1.3644422867022454,3.488340712931752,-0.9453675643257796
1789324260959935500,11.977935546875,1.6829659461796282,3.2783506395399566,-0.5809367246761917
1789324260969897500,11.9878974609375,1.7712307973489165,2.8596663777858016,0.1975640878651291
1789324260979860500,11.997860595703125,1.8537500906035302,2.3879355854988096,0.9608123862169683
1789324260989823500,12.007823486328125,1.963558372800052,1.845910190758109,1.3974712806008756
1789324260999785500,12.017785400390625,2.0447771048501133,1.1428741498500108,1.3850716716244815
1789324261009748500,12.02774853515625,2.120515944184363,0.4507195684403181,1.1505432231731711
1789324261019711500,12.03771142578125,2.125185689561069,0.10712181959152221,0.8341774723820388
1789324261029673500,12.047673583984375,2.080300253652036,0.032520459854602814,0.5167367858357728
1789324261039636700,12.05763671875,1.8503633707746863,0.16121347526311874,0.3543899226285517
1789324261049599500,12.067599609375,1.4662962488934397,0.3377577906489372,0.5225576009437441
1789324261059561500,12.0775615234375,1.2656897976577282,0.37644203383028507,0.753234415468201
1789324261069524500,12.0875244140625,0.559057778084278,0.31371289819478987,1.369745069285482
1789324261079486700,12.09748681640625,-4.638349244706332,0.4847025020629167,3.036235243090987
1789324261089449500,12.107449462890624,-12.72754446120858,-0.05758943465948105,6.027350656995177
1789324261099412500,12.11741259765625,-11.495696142876147,-2.0258844805926084,3.9805601664960384
1789324261109374500,12.12737451171875,-7.494016031461953,-3.3468729716241357,-0.0061416445601731534
1789324261119337500,12.13733740234375,-5.886821657842398,-2.881342787542939,0.5169993092294782
1789324261129300500,12.147300537109375,-3.874949335989356,-1.4387895255476235,1.0459448576446622
1789324261139262500,12.157262451171874,-1.5968714247867464,-0.316504574739933,0.6353484060823917
1789324261149225500,12.1672255859375,0.5435641486153007,-0.020165420672297478,-0.13079875551611184
1789324261159188500,12.1771884765625,2.0524705819621683,-0.44459553260207174,-0.9644247314952313
1789324261169150500,12.187150390625,2.5412039469763634,-1.1711895592302084,-1.303264326031506
1789324261179113700,12.19711376953125,2.6551450911939143,-1.884344258570671,-1.4262360411837696
1789324261189076500,12.207076416015624,2.5244860364094377,-2.617500712454319,-1.728085629235953
1789324261199038500,12.21703857421875,2.152866746560484,-3.5242233426958323,-2.3160296023257074
1789324261209001500,12.22700146484375,1.434897340414673,-4.736885314521193,-2.924567889024317
1789324261218963700,12.236963623046876,-0.03933364700078964,-6.272283448952436,-3.5542259745106097
1789324261228926500,12.246926513671875,-2.1075404350161553,-7.197147300562262,-3.9457974806725975
1789324261238889500,12.256889404296874,-3.763147541888058,-6.589324030265212,-3.2597143281310794
1789324261248851500,12.2668515625,-3.7746401190221306,-4.308227940285206,-2.277278285257518
1789324261258814500,12.276814453125,-2.2722926057994366,-1.8953975675046444,-1.6472355843678115
1789324261268777700,12.28677783203125,-0.6137411160387098,-0.3043003422051668,-1.1886281852871179
1789324261278739500,12.296739501953125,0.5095885215163231,0.5227367569029331,-0.7424361772738397
1789324261288702500,12.306702392578124,1.078666319964081,1.092404776328802,-0.4506938494771719
1789324261298665500,12.31666552734375,1.4881823558785021,1.6040385399371384,-0.1484742590688169
1789324261308627700,12.326627685546875,1.968266550491005,1.9392215116620062,0.16811156421378254
1789324261318590500,12.336590576171876,2.2618084750555454,2.0324159281879663,0.3301847250461578
1789324261328553500,12.346553466796875,2.378203296035528,1.8664409376114606,0.27261151086911556
1789324261338515500,12.356515380859374,2.4817668386235834,1.4984399843901395,0.11919044304788112
1789324261348478500,12.366478515625,2.5298037243008613,1.0588473746418952,0.041054187183082104
1789324261358441500,12.37644140625,2.4660367700502275,0.644866760534048,0.05659428614228963
1789324261368403500,12.386403564453126,2.482386139565706,0.2833329575002193,0.020946341916918753
1789324261378366500,12.396366455078125,2.6499156661078334,0.06457505576312542,-0.04411269797086716
1789324261388329500,12.40632958984375,2.851938413882255,-0.10879939741492271,-0.13682882946059108
1789324261398291700,12.416291748046875,3.0662907741367813,-0.21684359254837035,-0.20151085272952912
1789324261408254700,12.426254638671875,3.18873174341321,-0.21356793187856674,-0.3175970461517572
1789324261418216400,12.436216552734376,3.141316789026558,-0.1395464178562164,-0.36838527636379004
1789324261428179500,12.446179443359375,3.002795330303907,0.02293722347319126,-0.14626958863139153
1789324261438142500,12.456142578125,2.826515218812227,0.2336117719978094,0.12631167322993278
1789324261448104700,12.466104736328125,2.697731310249865,0.579332504349947,0.4118136453323066
1789324261458067500,12.4760673828125,2.6302058802485466,0.8647142110735178,0.6669207714319229
1789324261468030500,12.486030517578126,2.547706460738182,0.986666520050168,0.7518785438798368
1789324261477992400,12.495992431640625,2.5309870888665316,0.9660036712497472,0.7774151361964643
1789324261487955500,12.50595556640625,2.507815764376521,0.9055068247109651,0.8025900555938482
1789324261497918700,12.515918701171875,2.425366321487725,0.9456272381752728,0.8724947819471359
1789324261507880400,12.52588037109375,2.3100793156191703,1.1282254467725754,1.0531691828750074
1789324261517843500,12.535843505859376,2.2345367295093834,1.3803566258013247,1.206865122114867
1789324261527806500,12.545806396484375,2.084383139051497,1.7085417014628648,1.4221113624691963
1789324261537768700,12.555768798828124,1.7694566272832453,2.0611200446248055,1.7799895656049252
1789324261547731700,12.565731689453125,1.3541362890042363,2.327675470325351,2.015369516319036
1789324261557694500,12.575694580078125,1.0589726084567606,2.364557047998905,2.002098823596537
1789324261567656400,12.585656494140625,1.0165371960483491,2.353676757544279,2.139599268708378
1789324261577619500,12.595619384765625,0.8709972368657588,2.1154630447089673,2.175148136473447
1789324261587581700,12.605581787109376,0.6359504636287688,1.749377569720149,2.217703083608299
1789324261597544400,12.61554443359375,0.37092458558306096,1.3724556434184312,2.271051373566687
1789324261607507500,12.625507568359374,0.18513328003287313,0.8732464770972728,2.16117338713482
