time,seconds_elapsed,z,y,x
1789877646271223000,0.08822314453125,-1.1919582064926624,-0.3231193167045712,-0.36217933439575134
1789877646281175000,0.098175048828125,-1.1132821446627377,-0.446143054305017,-0.43700062049366534
1789877646291127800,0.1081279296875,-0.9563736731171607,-0.5338295210644602,-0.6377887849718332
1789877646301080000,0.118080078125,-0.46538113099932665,-0.6795736245170235,-0.8981759703662245
1789877646311033000,0.128033203125,0.14705986222624778,-0.9380880748420953,-1.0256064184930176
1789877646320985000,0.137985107421875,0.7944955964654684,-0.9410174062922596,-1.2571196838416159
1789877646330938000,0.147938232421875,1.5191507639855146,-0.3485132856801152,-1.696831828316301
1789877646340889900,0.157889892578125,1.1102221725702286,-0.30421091035604475,-1.81860483520329
1789877646350843000,0.1678427734375,-0.08057166631817818,-0.0788686617925763,-1.7409169076278805
1789877646360795100,0.177795166015625,-0.13581073845922947,0.5553986710548401,-1.0465823518306017
1789877646370748200,0.187748046875,-0.2218570367962122,0.65620239354074,-0.9427572356969117
1789877646380700200,0.1977001953125,-0.7646271124243735,0.2883776736691594,-0.8833690079871565
1789877646390653200,0.207653076171875,-1.4118752151370049,0.01277180328965187,-0.8884010108049959
1789877646400605000,0.21760498046875,-1.849964434584975,-0.4088619559198618,-1.2891393545672296
1789877646410558000,0.227557861328125,-2.08571029600203,-0.5734571825757623,-0.9191619867064058
1789877646420510000,0.237510009765625,-2.920802691271901,-0.42179771759957074,-0.19919190826267003
1789877646430463000,0.247462890625,-3.125317548123002,0.12166618551164865,0.7022212904591113
1789877646440415200,0.257415283203125,-2.354018118327856,0.8355147123351693,1.1751463340319692
1789877646450368000,0.267367919921875,-2.390579962527752,1.2780705558031797,0.7290278296463191
1789877646460320000,0.277320068359375,-0.601785159176588,1.5002867813006042,0.7164169160068035
1789877646470273000,0.28727294921875,0.12469254759550094,2.072905759486556,0.9091025111153721
1789877646480225000,0.29722509765625,0.1318611240506172,2.661992180609703,0.6374243355736136
1789877646490178000,0.307177978515625,0.6050801090687513,2.6706033570885657,0.3879591608837247
1789877646500130000,0.317130126953125,2.0953812106668948,2.6495415720984337,0.5759145856652409
1789877646510083000,0.3270830078125,2.7180700416624544,2.4006389997273683,0.7911953858762979
1789877646520035300,0.337035400390625,1.9808663582146167,1.997156398758292,1.0451843216009438
1789877646529988000,0.346988037109375,0.7035188559889793,0.8596411455929279,0.5146783920012414
1789877646539940000,0.356940185546875,-0.5849041670024394,-0.18885989934056996,-0.4528327612020075
1789877646549893000,0.36689306640625,-1.2905612040638923,-1.2703197955459355,-1.5457158225670455
1789877646559845000,0.37684521484375,-1.0565560488343237,-1.8344968163400888,-2.7915228158861396
1789877646569798100,0.386798095703125,0.11066051511168479,-1.8398142119705676,-3.7044063068449495
1789877646579750100,0.396750244140625,1.0609539915323256,-2.37336871548593,-3.3944682510137554
1789877646589703200,0.406703125,1.279011636045575,-3.031878509186208,-2.628402922479808
1789877646599655200,0.4166552734375,0.8025245891422033,-3.1989675984844563,-1.7646587254822252
1789877646609608200,0.426608154296875,-0.2303998242139816,-2.983302402065694,-0.8871469921559095
1789877646619560200,0.436560302734375,-1.011506362274289,-2.399960369813442,0.024437837294489145
1789877646629513200,0.44651318359375,-1.2817501210987567,-1.2682917968496679,1.1560166861481964
1789877646639465200,0.45646533203125,-0.9530307924300432,0.15899872182309627,2.232888670041412
1789877646649418200,0.466418212890625,-0.5870575456440449,1.342386376108229,3.041929363079369
1789877646659370200,0.476370361328125,-0.30582302172780035,2.0879592439725996,3.4290772075802085
1789877646669323300,0.4863232421875,-0.33105098648667336,2.287437860222161,3.3171073634356256
1789877646679275300,0.496275146484375,-0.7939847243338822,2.316796348914504,2.9447783178821205
1789877646689228000,0.50622802734375,-1.0239835665315389,0.9039712857067584,1.5289378523759543
1789877646699180000,0.516179931640625,-0.9125134886026381,-1.4809151413545012,-0.26348551673591136
1789877646709133000,0.526133056640625,-1.1997446225851773,-2.785751539008319,-1.239820612385869
1789877646719085300,0.536085205078125,-1.4450953476935624,-2.9497517223805185,-1.5732988260194658
1789877646729038300,0.546038330078125,-1.5131769502729178,-2.1973028312668204,-1.015285004030168
1789877646738990000,0.555989990234375,-1.8905045347660778,-1.4663061857655644,-0.8157415058508515
1789877646748943000,0.565943115234375,-1.2216577637076378,-1.3765510960385203,-0.5336968345955014
1789877646758895000,0.57589501953125,-1.1362369037926197,-1.802683043450117,-0.4613179732136428
1789877646768848100,0.58584814453125,-0.5608066675782203,-1.2300443376503885,0.24790026346072552
1789877646778800000,0.595800048828125,0.8598562496483325,-0.06389058063030242,0.714727940006554
1789877646788753200,0.605753173828125,0.6014525662213563,0.5455510846488177,1.1919734040617942
1789877646798705200,0.615705078125,0.3673690850585699,0.7108892386265099,1.257129766844213
1789877646808658200,0.625658203125,0.5355757802098989,0.680340078844875,0.9390998822331428
1789877646818610200,0.635610107421875,0.7465759074270725,0.5364531475663185,0.5405500614911317
1789877646828563200,0.645563232421875,0.5442261196553707,0.4070974304653704,0.6347536550596355
1789877646838515000,0.655514892578125,0.9143050481945276,0.5245373765841126,0.9018716830790042
1789877646848468000,0.665468017578125,1.4364578677296638,0.8945862022459506,1.0057426841810344
1789877646858420200,0.675420166015625,2.273708902338147,1.1475929950654506,0.9522606848403811
1789877646868373200,0.685373291015625,1.7511691293120384,1.256308075197786,0.5308499207317828
1789877646878325200,0.6953251953125,0.9596271219551563,1.1419725248351693,0.5312137856081128
1789877646888278300,0.7052783203125,1.0582482397049664,1.057704634347558,0.5779457261666655
1789877646898230000,0.71522998046875,0.5257786088168621,0.9885857976749539,0.47895752867013214
1789877646908183000,0.72518310546875,0.04449906693994999,0.9874399886406957,0.6470084487378597
1789877646918135000,0.735135009765625,-0.29547756880223747,1.0196911300346254,0.8171662779569625
1789877646928088000,0.745088134765625,-0.5532844553798437,1.0442010096520185,1.094965274466574
1789877646938040300,0.755040283203125,-0.7426555191129446,1.115841619887203,1.2552315320074559
1789877646947993000,0.7649931640625,-0.9149772483676671,1.2318890887342393,1.210051204805076
1789877646957945000,0.774945068359375,-0.9998328756153583,0.6401221963554621,0.7266083474144339
1789877646967898000,0.784898193359375,-1.258569736519456,-0.33450536472424863,0.22341157276183365
1789877646977850000,0.79485009765625,-1.5367483799964188,-0.31945056506395336,-0.04576689491868019
1789877646987803100,0.80480322265625,-1.6092805322438477,-0.19964915051087737,-0.05905804590731859
1789877646997755100,0.814755126953125,-1.8828554813176392,-0.15934095938950776,-0.10960954475402832
1789877647007708200,0.824708251953125,-2.2481933528095484,-0.0903134542621672,0.008515607149899006
1789877647017660200,0.83466015625,-2.8508272377699613,-0.14649872121214866,0.10663666642308235
1789877647027613200,0.84461328125,-3.5871757656931873,-0.3764763744913041,0.02902355764955282
1789877647037565200,0.854565185546875,-4.3914007290124895,-0.8153004840850829,-0.07547726578861474
1789877647047518200,0.864518310546875,-5.138279418778419,-1.3862958065919577,-0.10320727649629115
1789877647057470200,0.87447021484375,-5.765726842477918,-1.73215682419762,0.05786211412101984
1789877647067423200,0.88442333984375,-5.990027180773019,-1.7797446509331463,0.6916147754445672
1789877647077375200,0.894375244140625,-5.788521442610025,-1.5583774434804916,1.7399045157149433
1789877647087328300,0.904328369140625,-5.045239900553226,-1.7933992284066973,2.097355141088366
1789877647097280300,0.9142802734375,-4.168675092688202,-3.2443647833079097,1.3438649242281913
1789877647107233000,0.92423291015625,-4.009025213479996,-4.7851831892222165,0.8965554564923047
1789877647117185000,0.93418505859375,-4.302054220086336,-5.735524011915921,1.055000636085868
1789877647127138000,0.944137939453125,-4.541496597933769,-6.205328804576396,1.5042214904010296
1789877647137090300,0.95409033203125,-3.844221604770422,-6.669058076715469,2.051238117557764
1789877647147043300,0.964043212890625,-2.3452684101611374,-7.28439596042633,1.9462930574834345
1789877647156995000,0.9739951171875,-1.694797838270664,-7.776837532308697,1.2465052047163248
1789877647166948000,0.983947998046875,-1.6332500213742256,-8.068807969772815,0.3447644545406103
1789877647176900000,0.993900146484375,-1.2056658293277025,-8.280300848942995,-0.23903964226543903
1789877647186853000,1.00385302734375,-0.2797165205687284,-8.339487197405099,-0.8662678702563047
1789877647196805000,1.01380517578125,0.6906663886785507,-7.902864543378353,-1.3632774807065724
1789877647206758100,1.023758056640625,1.4519664025068282,-6.912655236154794,-1.6991414204329252
1789877647216710100,1.033710205078125,2.524692080375552,-5.859154483237862,-2.412129531034827
1789877647226663200,1.0436630859375,3.8592093305438753,-4.957590843194723,-3.430411671054363
1789877647236615200,1.053615234375,4.786944353675842,-4.144802049669623,-4.341705846995115
1789877647246568200,1.063568115234375,5.425463791009784,-3.3947587583929297,-4.936410692521929
1789877647256520200,1.073520263671875,5.744733738809824,-2.551447985354066,-5.089653042775392
1789877647266473000,1.083472900390625,5.5404784096777435,-1.4956962386399506,-5.1557396721452475
1789877647276425200,1.09342529296875,5.099146847307682,-0.6315870077222585,-5.406094489151239
1789877647286378200,1.103378173828125,5.188593893998861,-0.32858956480920315,-6.097247784563899
1789877647296330200,1.113330322265625,5.374668838796019,0.02883797194957733,-7.009564289289712
1789877647306283300,1.123283203125,5.244418072551489,0.6822405056387185,-7.5775523928046224
1789877647316235000,1.133235107421875,4.946470898765325,1.3050316279649734,-7.779284925460815
1789877647326188000,1.14318798828125,4.612944462075829,1.7077724706560373,-8.163900913396477
1789877647336140000,1.15314013671875,4.395529791641235,1.9737807838678358,-8.637788591456413
1789877647346093000,1.163093017578125,4.207694266912341,2.4335265393286942,-8.909514113271236
1789877647356045300,1.17304541015625,4.064518552643061,3.082607118165493,-9.14315277327597
1789877647365998300,1.182998291015625,3.876417070454359,3.488358833110332,-9.28526758031547
1789877647375950000,1.1929501953125,3.5759684352412817,3.8403093997627495,-8.943496462371945
1789877647385903000,1.202903076171875,3.0256562736704944,4.169124590021371,-8.164860698339343
1789877647395855000,1.212855224609375,2.415577917923033,4.292619452264905,-7.3220625509977335
1789877647405808000,1.22280810546875,1.5547601297661662,4.217122604992985,-6.215699976465106
1789877647415760100,1.232760009765625,0.8061381034642457,3.9398160681754346,-5.314507507821917
1789877647425713200,1.242713134765625,0.3372688380882144,3.6966923714667557,-4.382977184060215
1789877647435665200,1.2526650390625,0.11266659423708915,3.792642808702588,-3.2926462913960215
1789877647445618200,1.2626181640625,0.06323328576534987,3.9711353355467316,-2.250961648479104
1789877647455570200,1.272570068359375,-0.08986877923458814,4.224510961678624,-1.4302479071736336
1789877647465523200,1.282523193359375,-0.09824380887001752,4.363260676199197,-1.0495289266765118
1789877647475475200,1.29247509765625,-0.5279188357159496,4.129707940912247,-0.8100748583912849
1789877647485428000,1.302427978515625,-0.9101727706953883,3.5168402467072006,-0.6033750587165355
1789877647495380200,1.312380126953125,-0.8412073710188269,2.7216408858865497,-0.5232932217419147
1789877647505333200,1.322333251953125,-0.5611158796578646,2.2477467780858276,-0.5028285258620977
1789877647515285000,1.332284912109375,-0.23427783469110727,2.0730910529255864,-0.2851987513720989
1789877647525238000,1.342238037109375,-0.10946984402239322,1.9169898061096666,0.2008949127882719
1789877647535190000,1.35218994140625,-0.7390954885438085,1.6647352929621935,0.691449063488841
1789877647545143000,1.36214306640625,-2.5383523569375277,1.393334765318036,1.184741114720702
1789877647555095000,1.372094970703125,-3.5692870577812195,1.451411106711626,1.3870079003840685
1789877647565048000,1.382048095703125,-5.277423685574531,1.1547680012613535,1.6981874807089565
1789877647575000000,1.392,-7.099554356816411,0.7318290046721696,2.304878532105684
1789877647584953000,1.401953125,-6.18079642086625,1.0925164200097321,2.343120876738429
1789877647594905000,1.411905029296875,-2.980168195693195,1.1043453894913196,1.403392633473873
1789877647604858000,1.421858154296875,-0.9138695793867111,0.4538818318635225,0.4783575169503689
1789877647614810000,1.43181005859375,-0.02123743381798267,-0.4475812704145908,-0.3320528570055961
1789877647624763100,1.44176318359375,0.34558673070892687,-1.164468726542592,-0.6582534808516503
1789877647634715100,1.451715087890625,0.7537076590031385,-1.4476228203445671,-0.76209730168581
1789877647644668200,1.461668212890625,1.5551011982887983,-1.1624211463630199,-1.2269944485604762
1789877647654620200,1.4716201171875,2.0353397066801784,-0.6186883631825447,-1.7175708110928534
1789877647664573200,1.4815732421875,2.3112930753231047,-0.3553869708418846,-1.9960592511713504
1789877647674525000,1.49152490234375,1.9962877992302177,-0.9361649978250265,-2.2726339665830135
1789877647684478000,1.50147802734375,0.6923042190134525,-1.3559949224829673,-1.9488088396966456
1789877647694430200,1.51143017578125,-2.089410319563746,-1.4505243870049713,-1.2094219669908284
1789877647704383200,1.52138330078125,-3.3437609770834444,-1.618252358728647,-1.1471399906009434
1789877647714335000,1.5313349609375,-2.5345629015266895,-1.6532839246213435,-2.2104770778775213
1789877647724288000,1.5412880859375,-1.1708651495814322,-1.5059201110124587,-3.369968600529432
1789877647734240000,1.551239990234375,0.28027711359355595,-1.690018202778697,-3.9985219396442173
1789877647744193000,1.561193115234375,0.7237561728537082,-2.1344722810834647,-3.668455872541666
1789877647754145000,1.57114501953125,-0.23986911535952238,-2.6857974190890785,-2.761484820497036
1789877647764098000,1.58109814453125,-1.3179109832823275,-3.3029800538837906,-2.1936568759799004
1789877647774050000,1.591050048828125,-1.6634522674143313,-3.7589685026377437,-1.8609698127239942
1789877647784003000,1.601003173828125,-1.3773732260763645,-3.1105817512840033,-0.1395394035935402
1789877647793955000,1.610955078125,-0.2915443210065365,-0.6110813953101635,2.4629314975112675
1789877647803908000,1.620908203125,-0.47639578842334446,-1.5730258542969822,0.432746689376235
1789877647813860000,1.630860107421875,-0.04543247533254325,-2.4891011270344254,-0.030651743373274802
1789877647823812900,1.640812744140625,1.0497253260314463,-2.3231766976013777,0.2541115391910076
1789877647833765000,1.65076513671875,1.0182372048992663,-1.5668015729546545,0.9443640863716601
1789877647843718100,1.66071826171875,1.5429834749937057,-0.8669514686062931,1.8695085084885357
1789877647853670100,1.670670166015625,2.937376809453964,-0.3324760508537292,2.8834710317432877
1789877647863623200,1.680623046875,3.672880703246593,-1.0711559443339704,3.5001597455412146
1789877647873575000,1.690574951171875,3.3773195478141305,-1.8096441146343945,4.349686324355006
1789877647883528000,1.70052783203125,2.661788766992092,-1.5111200177431106,5.377793692818284
1789877647893480000,1.71047998046875,1.6384195329666136,-1.0786997838422656,5.744563642939925
1789877647903433000,1.720432861328125,1.6540087317645549,-0.984456442785263,5.140151642391086
1789877647913385200,1.73038525390625,2.0302128651857374,-1.1625222686499357,3.584297579908371
1789877647923338200,1.740338134765625,3.0800398980259893,-1.6077388557597994,1.4779367100656031
1789877647933290000,1.7502900390625,3.3391280565857886,-2.0259008472055196,-0.08691489786505699
1789877647943243000,1.760242919921875,1.9842355423867701,-1.278931556546688,-0.9635399114847183
1789877647953195000,1.770195068359375,0.3903302739292383,-0.07160510053038596,-1.4634317993730306
1789877647963148000,1.78014794921875,0.38437571290638295,0.39866263346672054,-0.17290625114440916
1789877647973100300,1.790100341796875,0.462974654379487,1.0066168366670607,1.0810025078266858
1789877647983053000,1.800052978515625,0.311243293210864,1.273677873802185,1.7145616924047469
1789877647993005000,1.810005126953125,1.0440233149975537,0.9677271340414881,1.4241051666349172
1789877648002958000,1.8199580078125,1.790903758329153,0.8146130863428115,0.24011925419569013
1789877648012910000,1.82991015625,0.5568681590855121,0.5552075323969126,-0.9362550141960382
1789877648022863000,1.839863037109375,-1.2694418436676262,0.28362141905277966,-0.805744135710597
1789877648032815000,1.849815185546875,-1.9295102649867533,0.10466390504539012,0.45161388693153853
1789877648042768100,1.85976806640625,-1.9750632248938083,-0.0536155625924468,1.7416612962543963
1789877648052720000,1.86972021484375,-1.2973334746778011,-0.2920414568737149,2.3628888225257394
1789877648062673200,1.879673095703125,-0.1637397606040351,-0.3531424067854881,2.514190560105443
1789877648072625200,1.889625244140625,0.35912440380454064,-0.28785160396844145,1.9103367779612541
1789877648082578200,1.899578125,0.13149408083651215,-0.3108259445816278,0.8694073373258113
1789877648092530000,1.909530029296875,-0.19459902751445768,-0.8468968148320912,0.15528116260468958
1789877648102483000,1.91948291015625,-0.25308975839521736,-1.2136121121570467,-0.30472879675030706
1789877648112435200,1.929435302734375,0.5999895444640889,0.021340601931512354,0.20129355671703814
1789877648122388200,1.93938818359375,1.5444985557317732,1.3891718004196882,1.7252637036830185
1789877648132340200,1.94934033203125,1.5530863513350486,1.191684650248289,1.8295710503757
1789877648142293000,1.95929296875,1.442179167985916,0.8659764860942959,1.2319365811377763
1789877648152245000,1.969244873046875,0.23211488450355827,0.7965621736064553,1.3716332211196423
1789877648162198000,1.979197998046875,-1.1303565405171363,0.4453919436767697,1.3196879298269748
1789877648172150000,1.98914990234375,-1.656427483344078,-0.12019523617625236,0.924158918210864
1789877648182103000,1.99910302734375,-1.731511512031406,-0.6148743578523397,0.5220125342816114
1789877648192055000,2.009054931640625,-1.3837351623237133,-0.9083432171806692,0.27270985667705533
1789877648202008000,2.019008056640625,-0.6022818566523492,-0.8105462752953171,0.12278349910378455
1789877648211960000,2.0289599609375,0.19618644283637404,-0.13784049072116614,0.4429816676646471
1789877648221913000,2.0389130859375,0.6205541570544243,0.180306882789731,0.557120088019967
1789877648231865000,2.048864990234375,1.6270903297007082,0.2241132912904024,0.7776718874365091
1789877648241818000,2.058818115234375,0.3143745769739151,0.44837797375023364,0.8449310677170753
1789877648251770000,2.06877001953125,-0.6036287412166595,0.1328641636133194,0.463804675462842
1789877648261723100,2.07872314453125,-0.6389559290550649,-0.5471428838849067,-0.2754033335447311
1789877648271675100,2.088675048828125,-1.0541688614368439,-0.595185030259192,-0.9414987600684165
1789877648281628200,2.098628173828125,-0.9529353692315519,-0.7328714994624257,-0.9541098198384046
1789877648291580000,2.108579833984375,-0.6469405711334199,-0.8410212007969617,-1.0939625271648168
1789877648301533000,2.118532958984375,-0.5921931549668312,-0.7317156074255704,-0.9390765013575554
1789877648311485000,2.12848486328125,-0.7497580445945262,-0.6149217041254044,-0.5658879163652658
1789877648321438000,2.13843798828125,-1.0621849215667694,-0.45458092004358763,-0.22454233035743235
1789877648331390200,2.14839013671875,-1.2623790656745433,-0.6961867595352232,-0.37902503606081006
1789877648341343200,2.15834326171875,-1.5554875672578812,-0.88012425391227,-1.041976903861761
1789877648351295000,2.168294921875,-1.2270353650927543,-0.46245194567963477,-1.5607774903595446
1789877648361248000,2.178248046875,0.2832897394130006,0.602695917345956,-0.9924211380541325
1789877648371200000,2.188199951171875,0.3537082239747047,2.222317153275013,0.22461773368120191
1789877648381153000,2.198153076171875,-0.8100269275963305,3.44975759203732,0.3754185360014438
1789877648391105300,2.208105224609375,-1.7025719794034957,4.37712232055217,-0.33596038583815097
1789877648401058000,2.21805810546875,-1.937632781165838,6.325792920821905,-0.14112404243648052
1789877648411010000,2.228010009765625,-0.48398178657293317,7.337142046707868,-0.4346814568310976
1789877648420963000,2.237963134765625,1.0556477018177508,6.160995741853117,-2.01670573335886
1789877648430915000,2.2479150390625,1.1669184577822684,2.9309640198022127,-4.328424925139546
1789877648440868000,2.2578681640625,1.5717758542358875,0.7179259323302656,-4.9557355707168576
1789877648450820000,2.267820068359375,0.9962778134822845,-0.002726575419679284,-4.707520688349009
1789877648460772900,2.27777294921875,1.30046885009408,0.3230946937199682,-3.7050802605837583
1789877648470725000,2.28772509765625,2.1220225493550298,0.794370362650603,-2.4330577527731654
1789877648480678100,2.29767822265625,0.9051569152947515,0.9662317809171974,-1.374113932019472
1789877648490630100,2.307630126953125,-0.7172903378404677,0.9827062381170689,-0.3711456809878349
1789877648500583200,2.317583251953125,-1.7445709000907836,0.6671407708581537,0.8127063759386539
1789877648510535000,2.327534912109375,-1.9291630589842794,-0.3779914917619899,1.4797738623648882
1789877648520488000,2.337488037109375,-1.0006640657424926,-1.6382468067482112,1.339081781604886
1789877648530440000,2.34743994140625,-0.3126781483195722,-2.3399800944946705,1.1319517738193272
1789877648540393000,2.35739306640625,-0.05701543416380882,-2.2319097420066596,1.0076491023242473
1789877648550345000,2.367344970703125,-0.2407435235738754,-1.6454820186987518,0.5785439843207597
1789877648560298000,2.377298095703125,-0.7360474991500378,-0.8187940252892673,-0.263847920307517
1789877648570249700,2.387249755859375,-0.4514136881843209,0.15203765063881874,-0.6490636277019978
1789877648580202800,2.39720263671875,0.6854626825556158,0.4385209619287401,-0.8526344817012548
1789877648590155000,2.407155029296875,1.649297485333681,0.2544577953454107,-0.7135323004812002
1789877648600108000,2.41710791015625,1.5606971185997127,0.08165840210895985,0.026872809356451033
1789877648610060000,2.42706005859375,1.1194833373904227,0.13372319159545004,0.7039607545375823
1789877648620013000,2.437012939453125,0.6834297154232859,0.42501189387310295,0.8271493273109197
1789877648629964800,2.44696484375,0.4432067085921764,0.3042746963072568,-0.22474165232181548
1789877648639917800,2.456917724609375,0.6810463274180889,0.04564984441027045,-1.1331430294305085
1789877648649869800,2.466869873046875,0.9841346634849906,-0.30315833256319163,-0.8242027524650096
1789877648659822800,2.47682275390625,1.0743205458447336,-0.5079660348810255,0.7369774734765291
1789877648669775000,2.486775146484375,0.6367115111291408,-0.6960922131195664,1.6612386830180883
1789877648679727900,2.496727783203125,1.299194884635508,-0.9101183370944111,1.937696494051814
1789877648689680000,2.506679931640625,1.9499813906073569,-1.3413167010501026,2.103601926523447
1789877648699633000,2.5166328125,1.7607330764710902,-1.6669008004330097,2.0455361065238713
1789877648709585000,2.5265849609375,1.8796493787527084,-1.6094576423764229,2.337369181343913
1789877648719538000,2.536537841796875,2.2377058610647915,-1.495301247972995,2.2515935166418553
1789877648729490000,2.546489990234375,1.965634302291274,-1.351790164269507,1.5251462050080298
1789877648739443000,2.55644287109375,1.8630667850032447,-1.0043946305729448,0.8451496789038181
1789877648749395000,2.56639501953125,1.5151260385140777,-0.5199478568367659,1.4977233605533837
1789877648759348000,2.576347900390625,0.9373664825692772,-0.496799328700453,2.3322172054082153
1789877648769300000,2.586300048828125,1.0186422055035829,-0.6148650055021048,2.237678973057866
1789877648779253000,2.5962529296875,0.5548194098621606,-0.6971452293038368,2.2132652472913263
1789877648789204700,2.606204833984375,0.42018999014198777,-0.7819228228792547,1.9974632727503776
1789877648799157800,2.61615771484375,0.5935153434813022,-0.8741419646322727,1.7286650365591048
1789877648809110000,2.626110107421875,0.7008540206938981,-0.9046294573545456,1.8372411466121672
1789877648819063000,2.63606298828125,0.5817904188960791,-0.8344862460702657,2.128507235199213
1789877648829015000,2.64601513671875,0.5623930599868298,-0.7374190797641873,1.9247171854913234
1789877648838967800,2.6559677734375,0.7355670221567153,-0.5879179618656635,1.2718845606446265
1789877648848919800,2.665919921875,0.5057622412264347,-0.4313490975379944,0.9857412218987941
1789877648858872800,2.675872802734375,0.08208966966569423,-0.3270376591920853,0.6338947001427412
1789877648868824800,2.685824951171875,-0.3021031244218349,-0.21441987253278494,0.40508886712193487
1789877648878777900,2.69577783203125,-0.7700251720756291,-0.10347732560932636,0.33471827682256694
1789877648888729900,2.705729736328125,-1.4812562098771334,0.1741302399814129,0.15356500633656978
1789877648898683000,2.715682861328125,-1.6755951251506804,0.5161287369400263,-0.03736263918876648
1789877648908635000,2.725634765625,-1.5710668291836976,0.551336828443408,-0.1805003595352173
1789877648918588000,2.735587890625,-1.8935165760636328,0.34176118107140063,-0.6008902561634779
1789877648928540000,2.745539794921875,-2.263973398004472,0.2502911041200161,-0.8903244531482457
1789877648938493000,2.755492919921875,-2.0156755135282873,0.22758652035892007,-1.2658388507395981
1789877648948445000,2.76544482421875,-1.8903212871536612,0.23209493769407272,-1.587823318195343
1789877648958398000,2.77539794921875,-1.3623288016796111,0.26889409778118134,-1.5803437760949135
1789877648968350000,2.785349853515625,-0.6927002325937152,0.2934890253335237,-1.4910849454522133
1789877648978303000,2.795302978515625,-0.07888444388359785,0.46758653208911416,-1.54767543220222
1789877648988255000,2.8052548828125,-0.017256255227327346,0.8327467089265584,-1.5886498321473597
1789877648998207700,2.815207763671875,-0.5086985869392753,1.1749819372504948,-1.4921289015471935
1789877649008160000,2.825159912109375,-1.0682745436787604,1.2546861730843781,-1.1261340274512768
1789877649018113000,2.835113037109375,-1.0418009627729654,1.101492922669649,-0.4044903167068958
1789877649028065000,2.84506494140625,-0.8116764483690261,0.8362374736517667,0.34297581755816936
1789877649038018000,2.85501806640625,-0.9535583234354853,0.4510457316547632,0.8672720788627862
1789877649047969800,2.8649697265625,-1.182619008000195,-0.014112111982703209,0.8886018671393394
1789877649057922800,2.8749228515625,-0.02406009002327919,-0.494325485932827,0.9736509711325168
1789877649067874800,2.884874755859375,2.207945513573289,-0.9545195696830749,0.324251827865839
1789877649077827800,2.894827880859375,2.564467625924945,-1.5805810919821262,-0.6704010147631168
1789877649087780000,2.904780029296875,1.7254054502412677,-1.8394623297929762,-0.3123907096803188
1789877649097733000,2.914733154296875,1.6933187056288121,-1.3569026849776507,0.6516957297712564
1789877649107684900,2.924684814453125,2.5946011906430124,-0.9011170653194188,0.9023726183384656
1789877649117638000,2.934637939453125,3.6176465995416045,-0.5004670574277639,1.5948533629626034
1789877649127590000,2.94458984375,3.5873496609553692,-0.608417144536972,2.0710136621296407
1789877649137543000,2.95454296875,2.5406109495192766,-0.5694798033773899,2.3289383298680186
1789877649147495000,2.964494873046875,2.1284777168437836,0.7450047125875949,3.0839018341511486
1789877649157448000,2.974447998046875,2.2198642071649433,2.676819162863493,3.6691020614907144
1789877649167400000,2.98439990234375,2.2758356852337718,3.6991374265313146,3.701800215999782
1789877649177353000,2.99435302734375,1.8912148749925195,3.3827690453916786,3.1333935948118565
1789877649187305000,3.004304931640625,2.334891539184004,2.7543869711905717,2.554254274946451
1789877649197258000,3.014258056640625,2.6082009691894052,2.19505563686192,2.31863116312623
1789877649207209700,3.024209716796875,2.545874569135904,1.4491548522174358,1.9532371775329112
1789877649217162800,3.034162841796875,3.53340325897336,0.9516495672047137,1.1701584626168011
1789877649227115000,3.044114990234375,1.7387163288436829,0.904878463679552,0.7004293655410408
1789877649237067000,3.05406689453125,-0.2311409979701042,-0.06671849753260613,0.3380687562942505
1789877649247020000,3.06402001953125,0.6951532517690211,-1.7583727770805357,-0.15219108763486147
1789877649256971800,3.0739716796875,2.603967861664295,-2.9354239218205214,-0.5542635295450687
1789877649266924800,3.0839248046875,0.3405716790258884,-2.7017811701625583,-0.48933089251592754
1789877649276876800,3.093876708984375,0.5617851572215556,-3.0338860496163367,-0.38987157037630676
1789877649286829800,3.103829833984375,1.490332081258297,-4.033720678797364,-0.3904956936240196
1789877649296782800,3.113782958984375,1.6856699444413183,-4.0601650336086745,-0.2961784105479717
1789877649306734800,3.12373486328125,1.4435843586087227,-3.307244725590944,-0.34625483922883865
1789877649316688000,3.13368798828125,0.9474328262925148,-2.4697055216908455,-0.5918365966141224
1789877649326639900,3.143639892578125,0.9010451691269874,-1.7252993595182895,-0.9891491306461393
1789877649336592000,3.153591796875,0.5734276642203331,-1.4455407533735036,-1.6089979159101844
1789877649346545000,3.163544921875,0.5642243670672178,-1.0670043776124716,-2.1436703175395726
1789877649356497000,3.173496826171875,0.8450181614786386,-0.7654074491471051,-2.541195471408963
1789877649366450000,3.183449951171875,0.9735328977108001,-0.5916559793502092,-2.892374469166994
1789877649376402000,3.19340185546875,1.1607646113276482,-0.7548053911119699,-3.2334459144085645
1789877649386355000,3.20335498046875,0.5112111542820931,-1.2194207984358072,-3.460824344974756
1789877649396307000,3.213306884765625,0.07365794140696526,-0.9409580773204564,-2.8514883320271966
1789877649406260000,3.223260009765625,-0.011827234182227402,-0.2975812630832195,-1.9518219039075075
1789877649416212000,3.2332119140625,-0.2786404340361245,0.4219575843364,-1.0193526187952606
1789877649426165000,3.2431650390625,-0.01329202777147293,1.0230383946359156,-0.3168227007783949
1789877649436117000,3.253116943359375,0.21095451624346895,1.5526263326078653,0.10712149079795927
1789877649446070000,3.263070068359375,0.5790799908936023,2.1632301735341546,0.32519287157561627
1789877649456022000,3.27302197265625,1.0653080950886011,2.578256497302651,0.30271742039527744
1789877649465974800,3.282974853515625,1.4082149390637875,2.7868641764253375,0.30277978157438334
1789877649475926800,3.2929267578125,1.7654045754134653,2.9117092842340466,0.08397075243825092
1789877649485879800,3.3028798828125,1.5924147376388311,3.047323038816452,0.043300176011584694
1789877649495832000,3.31283203125,1.169450022086501,3.0677883192181588,-0.02409870956719387
1789877649505785000,3.32278515625,0.958532896977663,3.1055449261605736,-0.20435840591406448
1789877649515737900,3.33273779296875,0.11277005461156367,2.9100065719693897,-0.3643533904992044
1789877649525690600,3.342690673828125,1.4108873731434344,2.938935729333758,-0.42123865894470364
1789877649535642600,3.352642578125,1.5660475397169589,2.795948231112957,-0.4880852763690054
1789877649545595600,3.362595703125,0.6678706195026636,2.573407303705811,-0.6870547009874135
1789877649555547600,3.372547607421875,0.22885011055395005,2.235258467912674,-0.689732834155485
1789877649565500700,3.382500732421875,0.5474637133371084,1.2777338711947201,-0.22918284963965416
1789877649575452700,3.39245263671875,3.073246000102162,0.15395195982754228,0.012368190924823283
1789877649585405700,3.40240576171875,1.1071803206562996,-1.5386141738682984,-0.07037278225645423
1789877649595357700,3.412357666015625,-1.2469324902176857,-2.211771793863177,0.04960398886352777
1789877649605310700,3.422310791015625,3.9686031867206095,-4.749790388801694,2.5674872660070656
1789877649615262700,3.4322626953125,-2.1194775410473348,-5.942684414839745,2.7448703703045845
1789877649625215700,3.4422158203125,3.576381984478235,-6.445957177338004,2.14054195638597
1789877649635167500,3.45216748046875,2.303341093405336,-7.2439645813167095,2.168321359193325
1789877649645120500,3.46212060546875,0.4267524173974991,-4.360777627211809,-0.04544102396517992
1789877649655072800,3.47207275390625,1.1841735439658165,-5.30275218809843,1.6634604507207869
1789877649665025800,3.48202587890625,-0.6227848387159407,-4.673022206419706,3.2302526713252067
1789877649674977500,3.4919775390625,0.20754501832723615,-1.8149129949480294,2.7156641495645046
1789877649684930600,3.5019306640625,-0.07458338568881154,0.1997404820561409,2.55614958717376
1789877649694882600,3.511882568359375,-0.5293466034967452,1.2715882080465555,3.138734079056978
1789877649704835600,3.521835693359375,-0.4911276397395879,2.737304903486371,2.790075247426331
1789877649714787800,3.531787841796875,-0.7114152352619916,2.6145494614332914,2.690757964105904
1789877649724740900,3.541740966796875,-0.5085141702830791,1.9574258613944053,2.3360624826595187
1789877649734692600,3.551692626953125,-0.1800590455085039,1.2028531099945305,1.8222291631802916
1789877649744645600,3.561645751953125,0.2528261755555868,0.6959756010025739,1.574995693065226
1789877649754597600,3.57159765625,0.5843050320655108,0.41632220879793164,1.3672893466964364
1789877649764550700,3.581550537109375,0.8048795547705143,0.23478023125529288,1.0815575113609432
1789877649774502700,3.591502685546875,1.0121697946190833,0.16734627892971038,0.7709399488329887
1789877649784455700,3.60145556640625,1.2084510030668227,0.05787935751676559,0.47319501962065696
1789877649794407700,3.61140771484375,1.377348091635108,-0.08057984962463378,0.1699436019465327
1789877649804360700,3.621360595703125,1.4498383044369518,-0.20282617311179638,-0.12186784556359052
1789877649814312700,3.631312744140625,1.3707429942816496,-0.31958558962047096,-0.44623160937130446
1789877649824265700,3.641265625,1.138140034000203,-0.41589083164334295,-0.8466253044143318
1789877649834217500,3.651217529296875,0.7395027541704475,-0.46433717490434645,-1.1529138978272675
1789877649844170500,3.66117041015625,0.34027291527502235,-0.3867752117961645,-1.3450672857552766
1789877649854122800,3.671122802734375,0.00961246247589588,-0.21546236732304094,-1.509203954988718
1789877649864075800,3.68107568359375,-0.20188750402219593,-0.046831893801689145,-1.5584709669828414
1789877649874027800,3.69102783203125,-0.1950439948029816,0.0701788671195507,-1.4761872360497712
1789877649883980800,3.700980712890625,-0.0026462036598473787,0.1143330661445856,-1.319308867381513
1789877649893932500,3.7109326171875,0.2547024177562445,0.2077005011498928,-1.1979872575238346
1789877649903885600,3.720885498046875,0.588287964221835,0.043537528431415555,-1.1390820640906691
1789877649913837600,3.730837646484375,1.0434826322495936,-0.40937341257333754,-0.9559022562131285
1789877649923790600,3.74079052734375,0.5016046831555664,-0.5628080705285072,-0.9702879244402051
1789877649933742800,3.750742919921875,0.5249368242304772,-0.4129126926153898,-0.3648255380555987
1789877649943695600,3.760695556640625,0.19168167876303194,-0.12376549587845802,0.00651946489661932
1789877649953647600,3.770647705078125,0.1462835440915078,0.8933774109780788,0.3855734347909689
1789877649963600600,3.7806005859375,0.7783224602997303,1.2788228354752063,0.7673889783531427
1789877649973552600,3.790552734375,1.213472557555884,0.6397545320868492,0.31129794600754973
1789877649983505700,3.800505615234375,1.1570616651564836,-0.2693967866063118,-0.25995880391448734
1789877649993457700,3.810457763671875,0.9934871598504483,-1.1630033301651477,-0.7774450929433107
1789877650003410700,3.82041064453125,0.8017271551541983,-1.7128391063958406,-1.007973804233968
1789877650013362700,3.83036279296875,0.5808879170984029,-2.072526989302039,-1.0863184421524406
1789877650023315700,3.840315673828125,0.36800387583076954,-2.4704636465817686,-1.1647864141896367
1789877650033267700,3.850267822265625,-0.10025894808471202,-2.9865158111542462,-1.2419319054514169
1789877650043220700,3.860220703125,-0.7078690140224992,-3.163074155065417,-1.2851950008556245
1789877650053172500,3.87017236328125,-1.5969149716675282,-2.520647188898921,-1.3678987107664347
1789877650063125500,3.88012548828125,-2.2302860863275824,-1.610166082906723,-1.3532412398606537
1789877650073077800,3.890077880859375,-3.4582588784009216,-1.4301046993106603,-1.7818030447676776
1789877650083030800,3.90003076171875,-4.501635127666592,-0.8025590759336948,-1.7297051932618022
1789877650092982800,3.909982666015625,-5.313474073120951,-1.03315705306828,-1.6947800103530286
1789877650102935600,3.919935546875,-6.131293846550584,-1.0497685806512833,-1.9686019199252127
1789877650112887600,3.929887451171875,-6.48311523386538,-0.8412100013673305,-1.7609578251376747
1789877650122840600,3.939840576171875,-7.009878762066364,-0.943251156693697,-1.3297861299932001
1789877650132792800,3.949792724609375,-6.510224190065264,-0.39636721600592134,-0.5427084085687994
1789877650142745900,3.959745849609375,-5.835557334551215,-0.39432022034823894,-0.015059037443995475
1789877650152697600,3.969697509765625,-5.0490153274387115,-0.7409387783229351,0.5117199805870651
1789877650162650600,3.979650634765625,-4.20004988963902,-0.9943108973234891,0.9537307573929429
1789877650172602600,3.9896025390625,-3.339802594846487,-1.3237035952091216,1.081567448233068
1789877650182555600,3.9995556640625,-2.595885092973709,-1.8413117570519446,1.1609408446773886
1789877650192507600,4.009507568359375,-1.5715093122541903,-2.1070137807935474,1.313878074504435
1789877650202460700,4.019460693359375,-0.44466092598848045,-2.146933703249693,1.2913491395711898
1789877650212412700,4.02941259765625,0.7924246354103088,-2.188396178972721,1.350340549983084
1789877650222365700,4.03936572265625,2.1346729182220994,-2.242867773872614,1.5200082575976848
1789877650232317700,4.049317626953125,3.4609050089955327,-2.1228028860777615,1.604101083779335
1789877650242270700,4.059270751953125,4.799553659880161,-1.9016653957277536,1.4863564556255935
1789877650252222700,4.06922265625,5.638208131545782,-1.5085796856105327,1.36996821051687
1789877650262175500,4.079175537109375,5.603042125618457,-1.0660668045014143,1.3258983287744224
1789877650272127700,4.089127685546875,5.813777464419603,-0.5463268913269043,1.3968296216964722
1789877650282080800,4.099080810546875,5.802583870232105,-0.0970797335267067,1.437036690530926
1789877650292032800,4.10903271484375,5.818215154606103,0.32106501452326774,1.5289586029030382
1789877650301985800,4.11898583984375,5.837894837588071,0.5564560711532831,1.5098914988614618
1789877650311937500,4.1289375,5.317753357875347,0.49229544140994547,1.3467301044009625
1789877650321890600,4.138890625,4.110020074623823,0.3257330063343048,1.0515896585986018
1789877650331842600,4.148842529296875,2.6905633183166384,-0.061357847282290455,0.6754102212272584
1789877650341795600,4.158795654296875,1.2822899270638823,-0.43157939916253085,0.15153408503085375
1789877650351747800,4.168747802734375,0.06746902363896369,-0.6873474733889102,-0.5258350151792168
1789877650361700900,4.178700927734375,-0.43445977690443394,-0.7032207498252392,-0.835319482024014
1789877650371652600,4.188652587890625,-0.5296493127703666,-0.7598264341443777,-1.0120908841639757
1789877650381605600,4.198605712890625,-0.6160099377535283,-0.836020616030693,-1.1284494647867978
1789877650391557600,4.2085576171875,-0.47733226555585856,-0.7995417739391326,-0.9450127595387399
1789877650401510700,4.2185107421875,-0.32567323897108436,-0.5802028574436903,-0.6962102865412831
1789877650411462700,4.228462646484375,-0.09792144504785537,-0.23270751663446426,-0.39869485523588954
1789877650421415700,4.238415771484375,0.18670082161054014,0.07115209606587887,-0.18028825115449726
1789877650431367700,4.24836767578125,0.31291224933639167,0.2482902856916189,-0.11832461999878287
1789877650441320700,4.25832080078125,0.23183920936733482,0.26755904978513717,-0.060989379296079275
1789877650451272700,4.268272705078125,-0.29562296862229703,0.07204524551331996,0.02678319484423846
1789877650461225700,4.278225830078125,-0.9308359117567538,0.002766542103886604,0.507347574189119
1789877650471177500,4.288177490234375,-1.1944294189117848,0.4022206182092428,1.3106538517609239
1789877650481130500,4.298130615234375,-0.9787797123230993,1.1201742422640324,2.2484514192238447
1789877650491082800,4.308082763671875,-0.519833144415915,1.6229717884659767,3.08666925303787
1789877650501035800,4.318035888671875,-0.06814473094344138,2.200266649508476,3.5965550039350984
1789877650510987000,4.327987060546875,0.20449702893346547,2.66833891928792,3.873087926031649
1789877650520940000,4.33793994140625,0.5795207203984261,3.4313346311181783,4.018032111278176
1789877650530892000,4.34789208984375,0.5617560772575437,3.9185967545360323,3.9533620707079766
1789877650540844800,4.3578447265625,0.42520489569455383,4.142151827421785,3.9191523425921795
1789877650550797000,4.367797119140625,0.4245210050836205,3.972151234591007,3.4551185345485806
1789877650560750000,4.37775,0.6287129135906696,3.7837130677938458,2.8377456378787755
1789877650570702000,4.3877021484375,0.7133303481683134,3.6232746685564514,2.3178594481013715
1789877650580655000,4.397655029296875,0.81809420645684,3.4200802466541527,1.8400543043367563
1789877650590606800,4.40760693359375,0.9836709914959967,3.292569134506583,1.5332368647441268
1789877650600559900,4.417559814453125,1.3348758543476462,3.1401638195991515,1.2658034871652721
1789877650610512100,4.42751220703125,1.6135609860420226,2.9681355203330515,1.0509890623569489
1789877650620465200,4.437465087890625,1.709462323439121,2.716722718706727,0.831597685021907
1789877650630417200,4.447417236328125,1.3650412755087018,2.1633406481713053,0.4888096451207995
1789877650640370200,4.4573701171875,0.9243279911674559,1.598507793816924,0.25118732230737806
1789877650650322000,4.467322021484375,0.7519523397684097,1.5113380444079636,0.3248014611052349
1789877650660275000,4.47727490234375,0.3643779404185712,1.4734902520507573,0.40153687372878194
1789877650670227000,4.48722705078125,-0.3875545256055891,1.1183055257827044,0.3047480859726667
1789877650680180000,4.497179931640625,-0.8024423176862299,0.5779980408757924,0.16620244265682993
1789877650690132200,4.50713232421875,-1.040327236958593,-0.1303536420971155,-0.10990881996154785
1789877650700085000,4.5170849609375,-1.4555927763104437,-0.9248013077676296,-0.5989825228460133
1789877650710037000,4.527037109375,-1.8904089654371141,-1.7733523195475338,-1.2625308952353893
1789877650719990000,4.536989990234375,-2.1221182648144663,-2.4207746097832916,-1.9042806927926836
1789877650729942000,4.54694189453125,-2.282350766216218,-2.8106203150659796,-2.321422693540901
1789877650739895000,4.55689501953125,-2.272637619844824,-3.105733142209053,-2.6222642735943196
1789877650749847000,4.566846923828125,-2.381675356060266,-3.325700419735908,-2.9566046570152045
1789877650759800000,4.576800048828125,-2.6200094804048537,-3.19471783208549,-3.427252330240607
1789877650769752000,4.586751953125,-2.4810931771457194,-3.0064035839289427,-3.391162779727578
1789877650779705000,4.596705078125,-1.71623459405303,-2.7242233035951853,-2.6441306529656052
1789877650789657000,4.606656982421875,-0.27341942971851674,-3.0945518229812383,-1.130248623163253
1789877650799610000,4.616610107421875,1.0588263318538664,-3.54075069912672,1.09196594652012
1789877650809561900,4.626561767578125,-0.11829086385965347,-2.741141120648384,2.1070551357172427
1789877650819515000,4.636514892578125,-1.5203659849941729,-3.1411358795017,2.201608127245307
1789877650829467100,4.646467041015625,-3.737324241584539,-4.153829405733942,2.6172978833585976
1789877650839420200,4.656420166015625,-5.822842229884863,-3.871306595572829,2.5582488975405693
1789877650849372200,4.6663720703125,-4.213991321229934,-2.862021416479349,2.1583462008848784
1789877650859325000,4.676324951171875,-1.9905998167216776,-1.3418974235475063,1.7154583489835262
1789877650869277000,4.68627685546875,-0.7077414421200752,0.08845043686926364,1.3155008534006774
1789877650879230000,4.69622998046875,-0.09743278474807739,1.2291349677205086,0.8962607113294303
1789877650889182200,4.70618212890625,0.23694237772524354,2.2047177836984395,0.5429204438842833
1789877650899135200,4.71613525390625,0.49934652896523474,3.0119021813452242,0.046308308319002386
1789877650909087000,4.7260869140625,0.6760650318741798,3.5970863343328237,0.14255845915377138
1789877650919040000,4.7360400390625,0.6889432181477546,3.2821967935740948,0.6047567223332821
1789877650928992000,4.745991943359375,0.6496446424603461,3.271373786264658,1.136134466331452
1789877650938945000,4.755945068359375,0.7237292848467827,2.8611346967726945,1.7774524483427405
1789877650948897000,4.76589697265625,0.8605512461751699,2.1127087775647637,2.321142707555741
1789877650958850000,4.77585009765625,1.1436509794414043,1.2858084565788506,2.524718968382478
1789877650968802000,4.785802001953125,1.3522884691804646,0.6862959185093641,2.5835227472677826
1789877650978755000,4.795755126953125,1.4942776040136814,0.22211656451523304,2.4719959707155823
1789877650988707000,4.80570703125,1.740421525326371,0.09139701171517371,2.0724853421173988
1789877650998660000,4.81566015625,1.9426269361913202,0.15240356134176253,1.7469325146555899
1789877651008611800,4.82561181640625,1.807905162012577,0.218740950602293,1.505252733144909
1789877651018564900,4.83556494140625,2.397994622698426,0.2445394087255001,1.2392971730336546
1789877651028517000,4.84551708984375,2.197663773533702,0.3232750917881727,1.1806807334139942
1789877651038470100,4.85547021484375,2.1231904240906236,-0.03719663497209549,1.1218708170488476
1789877651048422100,4.865422119140625,2.0785651004225016,-0.20090718774795532,0.9835461960725486
1789877651058375200,4.875375244140625,1.7606442291438578,-0.24284371072351932,0.8220198554679751
1789877651068327000,4.885326904296875,1.3420412159323691,-0.2763829922318458,0.5064005391299724
1789877651078279000,4.89527880859375,0.9559978255420922,-0.18224574189782142,0.2866116869099438
1789877651088232000,4.90523193359375,0.4886075466774404,-0.19953531487286089,0.021955226698517797
1789877651098184200,4.91518408203125,-0.1793940787937492,-0.24295126275122164,-0.2682546308338642
1789877651108137200,4.92513720703125,-1.2240098797917365,-0.18851473916471004,-0.5339077008672058
1789877651118089000,4.9350888671875,-3.0348937653541563,0.04359539609849453,-0.824155406191945
1789877651128042000,4.9450419921875,-4.684416876137257,0.25388240661025047,-0.7743431814052164
1789877651137995000,4.9549951171875,-5.008800221428275,0.3226350403189659,-0.4336236183412373
1789877651147947000,4.964947021484375,-4.01778193590939,0.19123861117064953,-0.037261955293267965
1789877651157899300,4.974899169921875,-2.63391057998538,-0.06959609879553318,0.2908135225139558
1789877651167852000,4.98485205078125,-1.2738584910660982,-0.2975631429046392,0.5250118622280657
1789877651177804000,4.994803955078125,-0.1553589040160179,-0.41672260629236696,0.636362551560998
1789877651187757000,5.004757080078125,0.5608318020194769,-0.3980301807820797,0.6324862946495413
1789877651197709000,5.014708984375,0.9084978232204913,-0.24873744493722913,0.5224985642328858
1789877651207662000,5.024662109375,0.9907024975679815,-0.08937456597685814,0.3540399401471019
1789877651217613800,5.03461376953125,0.8424718379966915,0.04185644347667694,0.1694182628981769
1789877651227566800,5.04456689453125,0.6587291355393826,0.21783201906383037,-0.10365808900371193
1789877651237519000,5.05451904296875,0.5992987491883337,0.4863596216201782,-0.30128493990674615
1789877651247472000,5.06447216796875,0.5722564284838736,0.7150263384312391,-0.41241278026923534
1789877651257424100,5.074424072265625,0.6106722299873828,0.8554483700782061,-0.5502950643055141
1789877651267377200,5.084377197265625,0.7538068815939128,0.8666834653198718,-0.6078751466147602
1789877651277329000,5.094328857421875,0.848934896530956,0.8026601982206105,-0.6548860502451658
1789877651287282000,5.104281982421875,0.858967776376009,0.6489654280245304,-0.5917132624953985
1789877651297234200,5.114234130859375,0.9279203165709972,0.4489081351041794,-0.6488157904207706
1789877651307187200,5.124187255859375,0.8696649653486906,0.24136077868938444,-0.6524696367532015
1789877651317139200,5.13413916015625,0.6395042105875909,0.11062661284208297,-0.6187235806263983
1789877651327092000,5.144092041015625,0.3644412149131298,0.031980361628532405,-0.5925915066346525
1789877651337044000,5.1540439453125,-0.00678045392036438,0.009125555741786957,-0.5352534163877367
1789877651346997000,5.1639970703125,-0.47681627885773775,0.03391746717095375,-0.46441345501095055
1789877651356949000,5.173948974609375,-1.468257612094283,0.08879472026228905,-0.32669688293039795
1789877651366902000,5.183902099609375,-3.195145409847796,0.016501052945852277,-0.28323578073605893
1789877651376854000,5.19385400390625,-4.28682742486,-0.30327801342010496,-0.4177192161142826
1789877651386807000,5.20380712890625,-4.261886460348964,-0.7829810997605323,-0.622457068066299
1789877651396759000,5.213759033203125,-3.589084814184904,-1.0892366676867007,-0.8002559135578572
1789877651406712000,5.223712158203125,-2.643012462590635,-1.2087912678718566,-0.9611744975276291
1789877651416664000,5.2336640625,-1.653840389460325,-1.228160569730401,-1.0981319218039511
1789877651426617000,5.2436171875,-0.8460049805589019,-1.168808801573515,-1.2172422853529452
1789877651436569000,5.253569091796875,-0.3298030322521925,-1.1023591841101645,-1.2880407456755638
1789877651446522000,5.263522216796875,-0.0972708721846342,-0.941934228876233,-1.354488609573245
1789877651456474000,5.27347412109375,-0.11743760803118347,-0.6913485257238149,-1.396915546414256
1789877651466427100,5.28342724609375,-0.24141879248693585,-0.39271979941427704,-1.423214355275035
1789877651476379000,5.29337890625,-0.4406406574964523,-0.20998422817289827,-1.4700252062886952
1789877651486332000,5.303331787109375,-0.9234399562865495,-0.20967150896191597,-1.5661811029687522
1789877651496284000,5.313283935546875,-1.8774936620235443,-0.3765150990664959,-1.7157722372382878
1789877651506237700,5.32323779296875,-3.0210493643969296,-0.7343342654913664,-1.8864903306886553
1789877651516189700,5.333189697265625,-3.803277015441656,-1.203732815438509,-2.012502144189179
1789877651526142700,5.343142822265625,-4.065898901085555,-1.6386691238135098,-2.0550626442819833
1789877651536094700,5.3530947265625,-3.865959389325976,-2.0116133786559103,-2.026341284449398
1789877651546047700,5.3630478515625,-3.274614667882025,-2.329208086720109,-1.957159903934598
1789877651555999700,5.372999755859375,-2.4776217016428705,-2.6088456968337295,-1.9253493459150195
1789877651565952800,5.382952880859375,-1.6281088590934871,-3.0049715052992103,-1.8198530816987155
1789877651575904500,5.392904541015625,-0.8125937093444168,-3.485151561501622,-1.6830463179394601
1789877651585857500,5.402857421875,-0.5110840207710862,-3.9741514684975145,-1.7449565384075045
1789877651595809800,5.412809814453125,-1.1308905743286013,-4.497967252808809,-1.9974699947521088
1789877651605762800,5.4227626953125,-2.720085180877149,-5.085580678769946,-2.5934923526182767
1789877651615714600,5.432714599609375,-4.424929489126801,-5.499403471967578,-3.291198430675268
1789877651625667600,5.44266748046875,-6.012590894758701,-5.583302236881852,-3.988932273522019
1789877651635619600,5.45261962890625,-6.757182350370288,-5.169116455590725,-4.30837903919369
1789877651645572600,5.462572509765625,-5.386942629435658,-4.461693577900529,-4.102038720481097
1789877651655524600,5.472524658203125,-3.1242028648793694,-3.5367853026270866,-3.7294606686025857
1789877651665477600,5.4824775390625,-0.9174345783919096,-2.3021569981873036,-2.878807716107368
1789877651675429600,5.4924296875,0.5411702026834712,-1.2297300110042095,-1.6831857264101504
1789877651685382700,5.502382568359375,1.5812071149259805,-0.42314591733813284,-0.5899935990959405
1789877651695334700,5.512334716796875,2.3777497070491314,-0.13071896827816962,0.5270670411922037
1789877651705287700,5.52228759765625,3.262833336934447,-0.2848468691945076,1.6606605908691883
1789877651715239700,5.53223974609375,3.873526025187969,-0.862990456020832,2.469273560014367
1789877651725192400,5.5421923828125,3.5335751084089275,-1.93104580399096,3.1708278379321095
1789877651735144700,5.552144775390625,2.8304350226044654,-2.8222862029403446,3.9222441711276765
1789877651745097700,5.56209765625,2.2794531450785693,-3.2891958586812016,4.713892269207537
1789877651755049700,5.5720498046875,1.537934374910593,-3.6068829212039706,5.267501426497102
1789877651765002800,5.582002685546875,0.61162156660147,-3.2195360469996928,5.584748344036936
1789877651774954500,5.59195458984375,-0.08319609653763473,-2.1993957118928433,5.293813094839454
1789877651784907500,5.601907470703125,-0.09491583349108695,-0.9798165080249309,4.685930787831545
1789877651794859500,5.611859619140625,0.4231880029141903,0.0011246201157569884,4.021246689410507
1789877651804812500,5.6218125,1.1945079640407115,0.7204466099143028,3.419288804015517
1789877651814764800,5.631764892578125,1.8471347641170024,1.220808453401923,2.907177486023307
1789877651824717800,5.6417177734375,2.0520450500264764,1.5505740762531757,2.5569758088648316
1789877651834669600,5.651669677734375,1.9837762543119488,1.8395371485948562,2.413749387321621
1789877651844622600,5.66162255859375,1.78922603437528,2.0797294680267573,2.2647077036283907
1789877651854574600,5.67157470703125,1.7970532208696006,2.2286463562965393,2.1729098560273648
1789877651864527600,5.681527587890625,1.853272097828239,2.2333155171513557,2.4363196771785613
1789877651874479900,5.69147998046875,1.372395291533321,2.3539731101423502,2.723997678145766
1789877651884432600,5.7014326171875,0.7703064732350409,2.5368735165566205,3.0062688516333695
1789877651894384600,5.711384521484375,0.42995691252723334,2.677809342944622,3.4395530088871715
1789877651904337700,5.721337646484375,0.40035292464122174,2.826815078541636,3.920212957561016
1789877651914289700,5.73128955078125,0.595232522662729,3.0696979522317647,4.3283904383480545
1789877651924242700,5.74124267578125,0.9153954737797378,3.259978532025218,4.62911233754456
1789877651934194700,5.751194580078125,1.1541396402299404,3.393829953110218,4.822303251826763
1789877651944147700,5.761147705078125,1.3697592439413069,3.6295319753855466,4.934908471265435
1789877651954099700,5.771099609375,1.5647442020334303,3.8976118341743944,4.939008892321587
1789877651964052700,5.781052734375,1.6660688796535132,4.096773639559745,4.855114803582429
1789877651974004700,5.791004638671875,1.7168074255049228,4.315079121354222,4.663387824372947
1789877651983957800,5.800957763671875,1.7879310261286794,4.933312141984701,4.430114198288321
1789877651993909500,5.810909423828125,1.7670938436746597,5.394458996415138,4.095454665915668
1789877652003862500,5.820862548828125,1.4792460390985012,5.2588183538258075,3.589696516342461
1789877652013814800,5.830814697265625,1.1696259631752968,4.876867785707116,2.867562099471688
1789877652023767800,5.840767822265625,0.7834720981478691,4.227645168051123,2.0353268471986055
1789877652033719600,5.850719482421875,0.4077146855808794,3.3845091670572756,1.2655932054154575
1789877652043672600,5.860672607421875,0.1386113289631903,2.4280484001785516,0.5493743327314033
1789877652053624600,5.87062451171875,-0.3762811441801488,1.305097678938508,-0.09492630008617416
1789877652063577600,5.88057763671875,-0.8463850659176707,0.16478256592154503,-0.6306831907503306
1789877652073529600,5.890529541015625,-0.9532570024013519,-0.7513765857070684,-1.102029075372964
1789877652083482600,5.900482666015625,-1.171290681517124,-1.4426555533260106,-1.318543582097441
1789877652093434600,5.9104345703125,-1.5484464165747165,-2.36816588614583,-1.5598608139060437
1789877652103387600,5.9203876953125,-1.7255096412681041,-3.2192806109339,-2.154067208391428
1789877652113339600,5.930339599609375,-2.137831674513966,-3.8726884053200483,-2.9995553254693745
1789877652123292700,5.940292724609375,-2.7320459600448608,-4.317673814022541,-3.741475516045093
1789877652133244700,5.95024462890625,-3.0602164226591584,-4.3990807621210815,-4.380202458649873
1789877652143197700,5.96019775390625,-2.7671102591633794,-4.077546376520395,-4.820280806088447
1789877652153149700,5.970149658203125,-2.1934372418798507,-3.3780993000149726,-5.044435598433018
1789877652163102700,5.980102783203125,-1.8252083251215516,-2.365679330027103,-5.137967284089327
1789877652173054700,5.9900546875,-1.223548107498884,-0.8731354179382323,-4.753490412363409
1789877652183007700,6.0000078125,-0.6248830531042069,0.24928221933841704,-3.81632471306324
1789877652192959500,6.00995947265625,0.1684299825131893,-0.3884785085827112,-2.4417967934153975
1789877652202912500,6.01991259765625,0.7045031908512115,-2.1882295902341604,-0.9431380517080425
1789877652212864500,6.029864501953125,0.8594354669529944,-3.6728918091624974,0.10101100856103003
1789877652222817500,6.039817626953125,0.601070873427391,-4.805426351305842,1.2204415928509085
1789877652232769800,6.049769775390625,-0.10512385070733725,-5.683087137714028,2.4219755100056526
1789877652242722800,6.059722900390625,-2.360950547939539,-6.068474694544077,3.5916090719655154
1789877652252674600,6.069674560546875,-3.4153321753442287,-5.748008230435848,4.017266095341742
1789877652262627600,6.079627685546875,-1.9605121369719505,-3.867582606613636,3.4623192597076295
1789877652272579600,6.08957958984375,-0.6070738767018541,-1.2287538594484329,2.6702719331771134
1789877652282532600,6.09953271484375,0.43635614857766775,0.8827817826837301,2.0714863942079247
1789877652292484900,6.10948486328125,1.2271779884338379,2.4154525379776954,1.5674308107689021
1789877652302437600,6.119437744140625,1.667423509132862,3.2909377339124677,1.0557056425500662
1789877652312389600,6.1293896484375,1.8826164118647575,3.77936013328135,0.8127771761525422
1789877652322342700,6.1393427734375,1.7120342197537421,4.037992949289083,0.6666312869660556
1789877652332294700,6.149294677734375,1.4893477463960647,4.191391366887093,0.6883198255524039
1789877652342247700,6.15924755859375,1.318870768225193,4.090025918865203,0.8925508970260619
1789877652352199700,6.16919970703125,1.2493757917165755,3.4724855566740036,1.382925453376025
1789877652362152700,6.179152587890625,1.1285668075561524,2.378884264037013,2.0584397194996473
1789877652372104700,6.189104736328125,0.9437877477884292,1.3719950401693581,2.63366800340116
1789877652382057700,6.1990576171875,0.8511059569597244,0.5763812533289194,2.97543035351634
1789877652392009700,6.209009765625,0.8825883059382438,-0.013159341302514076,3.054849927189946
1789877652401962800,6.218962646484375,1.067881744968891,-0.4512713571041822,2.905851205855608
1789877652411914500,6.22891455078125,1.4900322215288877,-0.44827977407276626,2.6454917121857404
1789877652421867500,6.238867431640625,1.7544640792042017,-0.14099135596752166,2.3417247462049127
1789877652431819800,6.24881982421875,2.234989587843418,0.21276596784591673,2.0415835695058107
1789877652441772800,6.258772705078125,2.675785143640637,0.4900011929929256,1.710255958034843
1789877652451724800,6.268724853515625,2.704860431477427,0.6882388692706823,1.3488190395042299
1789877652461677600,6.278677490234375,2.7819559461176393,0.7268190675556659,0.9342517115496098
1789877652471629600,6.288629638671875,2.748940980744362,0.6645207245528698,0.48496948243603105
1789877652481582600,6.29858251953125,2.37702489990592,0.4289151483893394,0.10185966127961874
1789877652491534600,6.30853466796875,1.9441788418084383,0.24884032078981397,-0.12139686705097555
1789877652501487600,6.318487548828125,1.6468080066055057,0.07063713228106498,-0.35755993096679445
1789877652511439000,6.328439208984375,1.2227736159950493,-0.13771627981960774,-0.5650634482398629
1789877652521392000,6.33839208984375,0.5809375283937901,-0.278989959859848,-0.7648780184455215
1789877652531344100,6.34834423828125,-0.20831139958985148,-0.4264864599376917,-1.0265358813628553
1789877652541297200,6.358297119140625,-1.2970301078170536,-0.5204881011933088,-1.3192837329402565
1789877652551249200,6.368249267578125,-2.4644044926732778,-0.4914397013634443,-1.5017866644695401
1789877652561202200,6.3782021484375,-3.1403853533953425,-0.3920873467296362,-1.464246038365364
1789877652571154200,6.388154296875,-3.0721102740705013,-0.3160369572281837,-1.1996152971170841
1789877652581107200,6.398107177734375,-2.4693770203888414,-0.2620592833250761,-0.8504963006287812
1789877652591059200,6.40805908203125,-1.7574055394835768,-0.21260463980436323,-0.5173386972516775
1789877652601012200,6.41801220703125,-1.0089736289262772,-0.1216787527322769,-0.21704992877542972
1789877652610964200,6.427964111328125,-0.32340310208201406,-0.07710603603422642,-0.03264028684198856
1789877652620917000,6.4379169921875,0.28170696373358367,-0.11715279974043369,0.0843463625513017
1789877652630869200,6.447869140625,0.6996586003642529,-0.164762107655406,0.18151348210051654
1789877652640822300,6.457822265625,0.8670446998476982,-0.11723112567365168,0.2582834180481732
1789877652650774300,6.467774169921875,0.9564286181747913,0.04665010749399662,0.2881584779605269
1789877652660727300,6.477727294921875,0.8900370145089924,0.2950941224426031,0.2602069334566593
1789877652670679000,6.487678955078125,0.6345667541854083,0.5156190338522195,0.22674729305580257
1789877652680632000,6.497632080078125,0.29789354390278455,0.7068564759790897,0.22440321414768694
1789877652690584000,6.507583984375,-0.003338204512000084,0.8552209910631179,0.24313231840655206
1789877652700537000,6.517537109375,-0.19004925525560973,0.8833043452531099,0.2607300805479288
1789877652710489300,6.5274892578125,-0.34605639404729005,0.8247720767855644,0.23852234039306638
1789877652720442400,6.5374423828125,-0.47101884462535376,0.6525409484237432,0.15199673410654066
1789877652730394000,6.54739404296875,-0.5974411386229097,0.4373223267287016,-0.04118278199881315
1789877652740347100,6.55734716796875,-0.6763647454731166,0.23840660505890846,-0.314821297828108
1789877652750299100,6.567299072265625,-0.6613935324430466,0.050824178308248515,-0.6078695936568081
1789877652760252200,6.577252197265625,-0.6029642859585583,-0.06577741729021072,-0.837991916103661
1789877652770204400,6.587204345703125,-0.5531915163993835,-0.12095862176418304,-1.047385484907031
1789877652780157200,6.5971572265625,-0.4832124096356332,-0.09063187256157397,-1.2412757796302436
1789877652790109200,6.607109130859375,-0.3964437883734703,-0.075929977992177,-1.3557503000721334
1789877652800062200,6.617062255859375,-0.2785996453680098,-0.07950549839138984,-1.4514239661931991
1789877652810014200,6.62701416015625,-0.11863178625181317,-0.11984686112999915,-1.4937527033567428
1789877652819967200,6.63696728515625,0.054027796655148265,-0.17871172255277631,-1.5042659140646457
1789877652829919000,6.6469189453125,0.18314941273927687,-0.21060966659486294,-1.4568722947269677
1789877652839872000,6.6568720703125,0.22670754556730388,-0.20757482894361018,-1.3502633930936454
1789877652849824300,6.66682421875,0.19919351569786667,-0.17307225536108015,-1.2084803022265433
1789877652859777300,6.67677734375,0.16672493216097353,-0.19930325968265533,-1.0833251055553554
1789877652869729300,6.686729248046875,0.16392390326559542,-0.28074820170402526,-1.0106421466603874
1789877652879682300,6.696682373046875,0.19161168226674197,-0.39071021315753457,-0.9667170802161097
1789877652889634000,6.706634033203125,0.2717921573102474,-0.48405777441859243,-0.9640721186652779
1789877652899587000,6.716587158203125,0.34888168060109015,-0.5529191291987896,-0.9841109903484583
1789877652909539300,6.726539306640625,0.3452886245451867,-0.6142307992517948,-1.018830129291117
1789877652919492400,6.736492431640625,0.2100296747498214,-0.6548503944098949,-1.0722036998212336
1789877652929444400,6.7464443359375,-0.05590732679143548,-0.664842796114087,-1.1102645504072308
1789877652939397000,6.756397216796875,-0.42674423409104345,-0.7396078219801188,-1.1539213213041424
1789877652949349000,6.76634912109375,-0.877924551910907,-0.9391028048425912,-1.2610913639515637
1789877652959302100,6.77630224609375,-1.3820023471817373,-1.1652180836051702,-1.465991420727968
1789877652969254100,6.786254150390625,-1.907556207332015,-1.4112357481896876,-1.7576856715992093
1789877652979207200,6.796207275390625,-2.3395573390379547,-1.5760054546296596,-2.054684750880301
1789877652989159200,6.8061591796875,-2.412421207457781,-1.715993771034479,-2.5252339321672914
1789877652999112200,6.8161123046875,-2.138702027607709,-1.8176473883479833,-2.909228281073272
1789877653009064200,6.826064208984375,-1.4951637391984463,-2.1475667404562233,-3.1955209651619194
1789877653019017200,6.836017333984375,-0.6146078158706426,-2.606638542178273,-3.399926516419649
1789877653028969200,6.84596923828125,0.1905902302645147,-2.991216536191106,-3.4895950969070193
1789877653038922200,6.855922119140625,0.6943300257526338,-3.3206536577403543,-3.5410540659874674
1789877653048874200,6.865874267578125,0.6697267687633633,-3.7130455403745173,-3.6397239913150665
1789877653058827300,6.8758271484375,0.04760521626174449,-4.2028649470597506,-3.924587811644375
1789877653068779300,6.885779296875,-1.1268471441566943,-4.60975297255814,-4.34773928194046
1789877653078731300,6.895731201171875,-2.7836533976852893,-4.751309561192989,-4.8400163109108805
1789877653088684000,6.90568408203125,-4.539211701866984,-4.50801810670197,-5.250540354824066
1789877653098637000,6.915636962890625,-5.756681366235018,-3.829422095045447,-5.295277322173118
1789877653108589000,6.925589111328125,-6.258845290708542,-2.9833371811181304,-4.759479423645138
1789877653118542000,6.9355419921875,-5.853840594738721,-2.0327771627157927,-3.69110784933269
1789877653128494300,6.945494384765625,-4.621349886849522,-0.9842442613393068,-2.1702090726360677
1789877653138446000,6.955446044921875,-3.0813691008031365,-0.19189210664331913,-0.6285486629396677
1789877653148399000,6.965399169921875,-1.5508505551069973,0.03517944993078709,0.5813581649586558
1789877653158351000,6.97535107421875,-0.2948492077708244,-0.25305823074579237,1.2582901889257132
1789877653168304000,6.98530419921875,0.5603174227565526,-0.8437655310690403,1.724888148368895
1789877653178256400,6.99525634765625,1.5199264245331285,-1.7024340322375298,2.278871107406914
1789877653188209400,7.00520947265625,2.269822416293621,-2.412302549514174,3.032823973342776
1789877653198161200,7.0151611328125,2.9357682052135465,-2.890281880801916,3.6901638464808464
1789877653208114200,7.0251142578125,3.3278093747138975,-3.2075241221666335,4.339509213733673
1789877653218066200,7.035066162109375,3.3105320766985415,-3.264344326019287,4.969202955055237
1789877653228019200,7.045019287109375,2.6725930696010587,-3.018821751475334,5.594699244686961
1789877653237971200,7.05497119140625,1.501571414283663,-2.174355963182449,5.7498447982132435
1789877653247924000,7.064924072265625,0.22608144955821333,-1.0654010340690612,5.232480966520309
1789877653257876200,7.074876220703125,-0.6237631822288036,-0.302692322486639,4.519433819207549
1789877653267829200,7.084829345703125,-1.066992029587552,0.21246786168217657,3.8538884277820586
1789877653277781200,7.09478125,-0.9621312137305736,0.4870493574500084,3.347120224383473
1789877653287734300,7.104734375,-0.3997217871308327,0.5601783065468072,3.0421500200927256
1789877653297686000,7.11468603515625,0.32491935186386106,0.4973293439239263,2.901284044070542
1789877653307639000,7.12463916015625,0.9726983465828001,0.3699006493628025,2.8183196373969315
1789877653317591300,7.13459130859375,1.4094948958717286,0.24768998171091078,2.779752006332576
1789877653327544300,7.14454443359375,1.6342824331618844,0.22087387097775935,2.71389158693403
1789877653337496300,7.154496337890625,1.3984078307986259,0.19773323388695715,2.6903242488637567
1789877653347449300,7.164449462890625,0.9960941274784505,0.4282020316839218,2.6734251365110278
1789877653357401000,7.174401123046875,0.6541629966676235,0.8881424329340457,2.5749454730585217
1789877653367354000,7.18435400390625,0.4134555673204362,1.3417857798665762,2.5269138480782507
1789877653377306000,7.19430615234375,0.3760555187307298,1.7786007415950298,2.555896196934581
1789877653387259100,7.204259033203125,0.4310511375047266,2.13733468477726,2.576988961584866
1789877653397211400,7.21421142578125,0.546960659185797,2.4290572849601504,2.596362355096638
1789877653407164200,7.2241640625,0.7481622998356818,2.660731366893649,2.6375954059779643
1789877653417116200,7.2341162109375,0.9030265522025525,2.7488462881982323,2.753064198154211
1789877653427069200,7.244069091796875,1.0099472962640226,2.7942548711985347,2.8524902025461194
1789877653437021200,7.254021240234375,0.9990670058093964,2.841350384372473,2.7880522171661255
1789877653446974200,7.26397412109375,0.8818611607074737,2.777788305044174,2.6869001196339726
1789877653456926200,7.27392626953125,0.7656137853741646,2.6757243533641097,2.516061322413385
1789877653466879200,7.283879150390625,0.7320531688168644,2.616612823703885,2.233895508996397
1789877653476831200,7.293831298828125,0.6858104730799793,2.509652916675806,1.801723696898669
1789877653486784300,7.3037841796875,0.6118681617736816,2.2652906180828807,1.5136466136112807
1789877653496736300,7.313736328125,0.4929822546303272,1.935641315087676,1.3627885281458496
1789877653506689300,7.323689208984375,0.42482466420531273,1.7632780847787857,1.0485299787670372
1789877653516641000,7.33364111328125,0.43372810162901876,1.673790706077218,0.7883001028262079
1789877653526594000,7.343593994140625,0.6453098281264305,1.6755647300124168,0.5202805959224701
1789877653536546000,7.353546142578125,0.732595751260966,1.5305542015314102,0.3197929487608373
1789877653546499000,7.3634990234375,0.9081110158599912,1.614960915967822,0.2572047559659928
1789877653556451000,7.373451171875,1.0321113434076308,1.697961270737648,0.17428177728131414
1789877653566404000,7.383404052734375,1.1391725188530981,1.7337690816998481,0.11105039121210575
1789877653576355800,7.39335595703125,1.153404457823187,1.7778998998492954,0.05782649481836706
1789877653586308900,7.403308837890625,1.1101065833665429,1.907507692015171,0.09924794441126286
1789877653596261000,7.41326123046875,1.0181193506732582,2.0470225456893445,0.1379139943487942
1789877653606214100,7.423214111328125,0.9496469952106475,2.0212457148760556,0.16452822583429513
1789877653616166100,7.433166259765625,0.9860733764626085,1.8602122723549603,0.16028788485080003
1789877653626119200,7.443119140625,1.014443877030909,1.6934341487020252,0.1391495092268102
1789877653636071000,7.45307080078125,0.9821287304900586,1.5260007760107517,0.09401981623312458
1789877653646024000,7.46302392578125,0.9265784004427492,1.3079337791472672,0.03585384206101298
1789877653655976000,7.472975830078125,0.8117043592892587,1.1066115808576344,-0.05644996403446421
1789877653665929000,7.482928955078125,0.5931016481138766,0.8633966987341641,-0.2315571958218701
1789877653675881200,7.492881103515625,0.21729382053390145,0.5394821399986743,-0.4893957744456827
1789877653685834000,7.502833984375,-0.2647648890219629,0.1024818848311901,-0.7297893886033445
1789877653695786000,7.512785888671875,-0.8367631049610674,-0.35623335853815075,-0.9824003870382905
1789877653705739000,7.522739013671875,-1.4531975517369806,-0.7487468217253684,-1.2927879402026534
1789877653715691000,7.53269091796875,-2.125624227108806,-1.128929211127758,-1.6055786089859903
1789877653725644000,7.54264404296875,-2.5819991909623146,-1.5076754302471875,-1.9110012332193553
1789877653735596000,7.552595947265625,-2.6894845831692216,-1.7532991270780562,-2.1310991513885558
1789877653745549000,7.562549072265625,-2.63950562351346,-1.8221365164607761,-2.284712526911497
1789877653755501000,7.5725009765625,-2.5715198825240133,-1.7472423112571238,-2.3993676646173
1789877653765454000,7.5824541015625,-2.4116940622270104,-1.430713186597824,-2.3639982450723647
1789877653775406000,7.592406005859375,-1.8710928550705312,-0.8584820386856794,-2.0017422652438284
1789877653785359000,7.602359130859375,-0.8358918750844896,-0.44643853012025353,-1.358716164140403
1789877653795310800,7.612310791015625,0.3337970703244209,-0.58936056188941,-0.5692994783744215
1789877653805264000,7.622263916015625,0.9347978011250495,-1.1636679315537213,0.36252317939735945
1789877653815216000,7.632216064453125,0.901117795971781,-1.9427461786568163,1.3565974184207616
1789877653825169200,7.642169189453125,0.42813678442798553,-2.831968808043003,2.380845919498801
1789877653835121000,7.652120849609375,-0.8517031191352754,-3.946975292280316,3.3345626483663913
1789877653845074000,7.662073974609375,-3.5868589548289775,-5.146536959514021,4.348994542698562
1789877653855026000,7.67202587890625,-6.616806495952606,-6.680579587683082,5.184613299930096
1789877653864979000,7.68197900390625,-5.524670599693059,-7.911017454695701,4.926998136532307
1789877653874931200,7.69193115234375,-3.2613761238634584,-6.126342361623048,3.8556308875352143
1789877653884884200,7.70188427734375,-1.646330452221632,-2.8541169269651174,2.5348241828113793
1789877653894836000,7.7118359375,0.05719312881827354,-0.5935200196564198,1.535223508516699
1789877653904789000,7.7217890625,1.2393278604328632,1.2768231860905885,0.8291612516552209
1789877653914741000,7.731740966796875,1.8015572542905807,2.6289842294991015,0.22055939820110795
1789877653924694000,7.741694091796875,1.9999509979128836,3.5307390082001686,-0.11182181397601962
1789877653934646000,7.75164599609375,1.6885925538897513,4.123319701179862,-0.41569633198454975
1789877653944599000,7.76159912109375,1.3040098837018013,4.588502094736695,-0.4957188399873674
1789877653954551000,7.771551025390625,1.3230524378240107,4.488571647953987,-0.4589164650298655
1789877653964504000,7.781504150390625,1.6734125204145907,3.7253029644012448,-0.11892740819752215
1789877653974456000,7.7914560546875,2.0983763008296488,2.5140046821445226,0.2910916088029742
1789877653984409000,7.8014091796875,2.6106349183380604,1.1512304747849702,0.6499633530206977
1789877653994360800,7.81136083984375,2.980361380177736,-0.017948913666605948,0.9398835799567401
1789877654004313900,7.82131396484375,3.1516052510678767,-0.7916144880712032,1.14653574109748
1789877654014266000,7.83126611328125,3.265959944522381,-1.1098030703753232,1.2761490862213074
1789877654024219100,7.84121923828125,3.2969641545951363,-1.0045230792582034,1.2808541951723396
1789877654034171100,7.851171142578125,3.2005694807231424,-0.6818418617099523,1.1463292587399483
1789877654044124200,7.861124267578125,3.1992379398584365,-0.3017261078029871,0.898573956707865
1789877654054076000,7.871075927734375,3.1109084990203377,0.12709376351833343,0.6919711876668035
1789877654064029000,7.88102880859375,2.9402503190636633,0.4557692530453205,0.5739337140463292
1789877654073981000,7.89098095703125,2.6286393615841863,0.7438555425524711,0.5101300810471177
1789877654083934000,7.900933837890625,2.251753675639629,0.9198328717052936,0.5990488660804927
1789877654093886200,7.91088623046875,1.9571622420221566,0.8962737169414758,0.7471972541958093
1789877654103839000,7.9208388671875,1.783438244754076,0.6236614754199982,0.8896402702763676
1789877654113791000,7.930791015625,1.5777730488240718,0.2985673515111208,0.9665293025590479
1789877654123744000,7.940743896484375,1.1504741034597157,-0.023119594302773473,1.0712471297487616
1789877654133696000,7.950696044921875,-0.4911165338236838,-0.30740590700507164,1.1169671167857944
1789877654143649000,7.96064892578125,-3.272722278264165,-0.2975216418504715,0.9407621163569391
1789877654153601000,7.97060107421875,-5.168649422600865,-0.13233283321559428,0.6780167504638434
1789877654163554000,7.980553955078125,-5.120787016707658,-0.1973690767496824,0.43585736874267456
1789877654173506000,7.990506103515625,-4.028229095643758,-0.3126549135744571,0.28406740925461055
1789877654183459000,8.000458984375,-2.5590467699199912,-0.3628343642383814,0.19792349576205015
1789877654193411000,8.0104111328125,-1.1067332344759255,-0.27569442544579503,0.21689546886608002
1789877654203364000,8.020364013671875,0.06511208524927496,-0.0440630136102438,0.30866452876403927
1789877654213315800,8.03031591796875,0.9046540072739124,0.15672434715032577,0.32548633809685706
1789877654223268900,8.040268798828125,1.4191916756302116,0.27760347393751145,0.21208967601954937
1789877654233221000,8.05022119140625,1.6022387970387935,0.3572282147943973,0.08859598281979561
1789877654243174100,8.060174072265625,1.623459864243865,0.4509931246846914,0.029622546456009147
1789877654253126100,8.070126220703125,1.5907770534344017,0.5106318930894136,-0.015923983710259198
1789877654263079000,8.080078857421874,1.4681940453387796,0.5189630835831165,-0.05888210481852293
1789877654273031000,8.090031005859375,1.3139350653886794,0.4850111296206712,-0.08878624469488859
1789877654282983200,8.099983154296876,1.1933587209403513,0.4134171350061893,-0.04066284977793693
1789877654292936200,8.109936279296875,1.0800928456358612,0.2965682866483927,0.025315789172798395
1789877654302888000,8.119887939453125,0.9497609039139002,0.23003332898914813,0.11928031328842043
1789877654312841000,8.129841064453124,0.6857778859846293,0.13699556432962418,0.2502276834949851
1789877654322793000,8.13979296875,0.13633381248526275,0.013633388555049895,0.3920768253356218
1789877654332746000,8.14974609375,-0.5671149739421903,-0.15649989074468612,0.5899199493378401
1789877654342698000,8.159697998046875,-1.1425181760191916,-0.23353227702081203,0.7390297298312187
1789877654352651000,8.169651123046876,-1.4262724276714025,-0.20286299799084662,0.8215222812093794
1789877654362603000,8.17960302734375,-1.4213484152726827,-0.038570261412858964,0.8159719536058604
1789877654372556000,8.18955615234375,-1.3141975157171486,0.16653730063438416,0.7615097110562026
1789877654382508000,8.199508056640624,-1.1083271526038645,0.33120003956854344,0.6565948999896645
1789877654392461000,8.2094609375,-0.8109868586696684,0.40327743378579617,0.5907036470614373
1789877654402413000,8.2194130859375,-0.5127030002750456,0.3761304836630821,0.5482996527045965
1789877654412366000,8.229365966796875,-0.25579335479810833,0.23401450757980347,0.486270482032001
1789877654422318000,8.239318115234376,-0.055400546313077205,0.13728314909934997,0.3513837265498936
1789877654432271000,8.24927099609375,0.08302081303596497,0.15057693043649195,0.13278627607151866
1789877654442223000,8.25922314453125,0.1551326940447092,0.2367360414981842,-0.11541750038042664
1789877654452176100,8.269176025390625,0.18140359198525546,0.2798445308625698,-0.4134864008501172
1789877654462127900,8.2791279296875,0.2623747790150344,0.26996552640497684,-0.7075513263754546
1789877654472081000,8.289080810546874,0.43007235560044643,0.14039806624948978,-0.9425662431694567
1789877654482033000,8.299032958984375,0.6429238097727298,-0.07795593086183071,-1.0939603352077305
1789877654491986000,8.30898583984375,0.8914794684022664,-0.3031722149580717,-1.2177505271360278
1789877654501938200,8.318938232421875,1.0213314445875585,-0.4142465715676546,-1.3429007553711532
1789877654511890700,8.328890625,1.023527493327111,-0.4081365642547607,-1.525616160607338
1789877654521842700,8.3388427734375,0.8089167743973433,-0.36323943790793417,-1.7203361841529607
1789877654531795700,8.348795654296875,0.45432489945590493,-0.26846038253903387,-1.8994249233245848
1789877654541747700,8.358747802734374,-0.034327217015624044,-0.1506973419457674,-2.0486220898404714
1789877654551700500,8.368700439453125,-0.5086738908894359,-0.055123921328783035,-2.0802844715610145
1789877654561652700,8.37865283203125,-0.7680908430121839,-0.07171206803619862,-1.9950237706437706
1789877654571605800,8.388605712890625,-0.7452052035957575,-0.14299042083024976,-1.8732786746770143
1789877654581557800,8.398557861328126,-0.48642742615938184,-0.2601812144935131,-1.8004042848631738
1789877654591510800,8.4085107421875,-0.16750468436181545,-0.33073651371002194,-1.7881641042321919
1789877654601462500,8.418462646484375,0.16424933582767842,-0.41416532302498815,-1.799433978526294
1789877654611415600,8.42841552734375,0.45650509303919967,-0.4755944819778204,-1.8629297146201134
1789877654621367800,8.438367919921875,0.7177589052002876,-0.6315238793581723,-1.982141200456023
1789877654631320800,8.44832080078125,0.9157336196929216,-0.9765788412779569,-2.138561596223712
1789877654641272800,8.45827294921875,1.0311803461678326,-1.4878127919137476,-2.2333938430845737
1789877654651225900,8.468225830078126,1.0285346539646387,-1.951433927503228,-2.2630329022839666
1789877654661177600,8.478177490234375,0.9463723574541508,-2.2894249423861504,-2.242393434359133
1789877654671130600,8.488130615234375,0.8164583488833159,-2.4548487288206813,-2.1911212200224397
1789877654681082600,8.49808251953125,0.6529284133713692,-2.5915713214278218,-2.0777818410903213
1789877654691035600,8.50803564453125,0.3901115896772593,-2.7301380805969235,-1.8777789087057113
1789877654700988000,8.51798779296875,0.10180961159281432,-2.844374700629711,-1.5820283681809901
1789877654710940700,8.527940673828125,-0.13815803223773837,-2.9268963319718835,-1.2243357507452368
1789877654720892700,8.537892578125,-0.3083317896783352,-2.9328549481153487,-0.8683663038402796
1789877654730845700,8.547845703125,-0.4271732731580734,-2.820599857288599,-0.5993652385532856
1789877654740797700,8.557797607421875,-0.5179922657895832,-2.4950989061444995,-0.43471039066463707
1789877654750750700,8.567750732421874,-0.6212299374241381,-1.9999813930511474,-0.3196595316395163
1789877654760702700,8.57770263671875,-0.8002906195450573,-1.3672621664285658,-0.3178147805556655
1789877654770655700,8.58765576171875,-0.914509703921154,-0.5660340468376874,-0.41257074730992316
1789877654780607700,8.597607666015625,-0.9603993484366684,0.24566169075369834,-0.6031207916945218
1789877654790560800,8.607560791015626,-0.8398340368390083,1.018302598285675,-0.8572194714039564
1789877654800512800,8.6175126953125,-0.6846225054044276,1.703213199916482,-1.1455404464498162
1789877654810465800,8.6274658203125,-0.580182326112315,2.18748374030292,-1.3988818780511616
1789877654820417500,8.63741748046875,-0.41499709767401216,2.437847909659147,-1.525035730370879
1789877654830370600,8.64737060546875,-0.22513795816302298,2.484894907516241,-1.5219173060894011
1789877654840322800,8.65732275390625,-0.031734277912974354,2.3510738815695045,-1.4004805454194544
1789877654850275800,8.66727587890625,0.06477028607428073,2.046501152163744,-1.1565595608532429
1789877654860227600,8.6772275390625,0.054873745959997174,1.5125976890802382,-0.7900491384506225
1789877654870180600,8.6871806640625,-0.1015191772788763,0.9798884042173623,-0.42218350204676386
1789877654880132600,8.697132568359375,-0.42787353038191794,0.5591022017478943,-0.1182546235024929
1789877654890085600,8.707085693359375,-0.8595067055583,0.2476771222293377,0.15595599312633274
1789877654900038000,8.717037841796875,-1.1923942598223685,0.12420797894895076,0.3718129127249121
1789877654909991000,8.726990966796874,-1.4435083707630634,0.12222644974291325,0.4640703406617045
1789877654919942700,8.736942626953125,-1.5327064111292361,-0.04607259986698627,0.5279293571099639
1789877654929895700,8.746895751953126,-1.3498422450721264,-0.13315467099249362,0.552323501393199
1789877654939847700,8.75684765625,-1.0269342330306768,-0.22632979829609393,0.5748749404191971
1789877654949800700,8.76680078125,-0.5266980617493391,-0.6046767889648675,0.5695344561740756
1789877654959752700,8.776752685546874,0.0822872380644083,-0.871821412730217,0.5139288888081908
1789877654969705500,8.78670556640625,0.4137584957897663,-0.9303495895445346,0.41897243104577064
1789877654979657700,8.79665771484375,0.5381786561846733,-0.9200766173332929,0.2895528549283743
1789877654989610800,8.80661083984375,0.7049485965311527,-0.9081161304265261,0.18729922589510678
1789877654999562800,8.816562744140626,0.8679179755508899,-0.9501128591567277,0.14432576108723877
1789877655009515800,8.826515869140625,0.9535282205581664,-1.0243465546250343,0.15084873311519623
1789877655019467500,8.836467529296876,0.9433611198741942,-1.0625737016886472,0.2151595849841833
1789877655029420500,8.846420654296875,0.955794996446371,-1.0647364326804876,0.29524639039486644
1789877655039372800,8.856372802734375,1.0060709662873297,-1.0887450847774744,0.3757192725136876
1789877655049325800,8.866325927734374,1.067107837986946,-1.088475035664439,0.4543050257116556
1789877655059277800,8.87627783203125,1.2351578812718391,-1.0548200188219548,0.5460489511683583
1789877655069230800,8.88623095703125,1.4644891994714737,-1.01072134937644,0.6444080569811165
1789877655079182600,8.8961826171875,1.7652900091230868,-0.8608324012041091,0.7879011666364968
1789877655089135600,8.906135498046876,2.1255602219618854,-0.6403343778014182,1.000800405473262
1789877655099087600,8.916087646484375,2.3148760483764113,-0.411970443329215,1.1481357236400247
1789877655109040600,8.92604052734375,2.371049771019071,-0.24841888050734995,1.293239775623381
1789877655118993000,8.935992919921874,2.2325394182123244,-0.20071312648057937,1.3980052413471042
1789877655128945700,8.945945556640625,1.9091678803123533,-0.23226678712964058,1.5129647688269614
1789877655138897700,8.955897705078126,1.4374668986417352,-0.06888590469956397,1.620730293149501
1789877655148850700,8.9658505859375,1.0261737700521945,-0.0004699555993080139,1.7136685429573058
1789877655158802700,8.975802734375,0.7741476588331162,0.28121932634711266,1.7794227255024015
1789877655168755700,8.985755615234375,0.6465956301532685,0.54661447609663,1.8542197539418934
1789877655178707700,8.995707763671875,0.6818401081442833,0.6818658271074295,1.9068765545047819
1789877655188659700,9.00565966796875,0.7312871528804302,0.7550415379554033,1.8908907576046883
1789877655198612700,9.01561279296875,0.7612392235517501,0.8070581409186124,1.9621062742955981
1789877655208564700,9.025564697265626,0.9824433493971824,0.810166043806076,1.9763471272245048
1789877655218517800,9.035517822265625,1.2976936862923205,0.9624094461500644,2.0319439267620445
1789877655228469500,9.045469482421876,1.5184734492458403,0.9196142605185508,2.148140156430006
1789877655238422500,9.055422607421875,1.5953415848709642,0.7456161224842071,2.224578960727155
1789877655248374800,9.065374755859375,1.5473967613913118,0.6268973886013031,2.2620085276722905
1789877655258327800,9.075327880859374,1.4196050787366925,0.5316816953808069,2.2320751617014407
1789877655268279800,9.08527978515625,1.2383353422641754,0.4682803595721721,2.1450253854103387
1789877655278232800,9.09523291015625,1.0912577982507645,0.46319443461000914,1.967969174979627
1789877655288184600,9.1051845703125,1.068072299104929,0.5586386758893728,1.7916535537831484
1789877655298137600,9.1151376953125,1.065342728010565,0.6614174978405237,1.6035402350261807
1789877655308089900,9.12508984375,0.9596271950203925,0.7372165429294109,1.4470070265337824
1789877655318043000,9.13504296875,0.7231985389709472,0.6740425861358642,1.2249196150477974
1789877655327994600,9.14499462890625,0.38955702453441915,0.5385872369855642,0.9485343577936292
1789877655337947600,9.15494775390625,0.004185249795392155,0.3100304102897644,0.6691216424770653
1789877655347899600,9.164899658203124,-0.3861865982532501,0.02201952410638332,0.3771047355227172
1789877655357852700,9.174852783203125,-0.6355414444364607,-0.2053869635105133,0.22499862275756893
1789877655367804700,9.1848046875,-0.7397029529176652,-0.4604243853747844,0.17253467788565902
1789877655377757700,9.1947578125,-0.7729670707464218,-0.6172936939537524,0.20402115505002438
1789877655387709700,9.204709716796875,-0.6937244610749185,-0.6073427933037281,0.3369944415936246
1789877655397662700,9.214662841796875,-0.5066552445434034,-0.43821021547913547,0.5450987743040546
1789877655407614700,9.22461474609375,-0.1511443550609052,-0.11342647269368171,0.7882818365171551
1789877655417567700,9.234567626953124,0.2554372348368168,0.194177002710104,0.9861218917794525
1789877655427519700,9.244519775390625,0.5029074363172054,0.3924176015973091,1.1556852622367442
1789877655437472500,9.254472412109376,0.6063936758853494,0.3637964872688055,1.2128028416007757
1789877655447424800,9.2644248046875,0.4952911891598254,0.22764497254788874,1.229061317962408
1789877655457377800,9.274377685546876,0.3547603633761406,0.04844342065155506,1.1937960894443094
1789877655467329800,9.284329833984375,0.23512984841056167,-0.0995411552041769,1.1429012570526451
1789877655477282800,9.29428271484375,0.1283857030250132,-0.14256547341644762,1.1107080563910305
1789877655487234600,9.304234619140624,0.0066810851991176605,-0.11906418631970882,1.0690377831362188
1789877655497187600,9.3141875,-0.10151391658186912,-0.08651625393629074,1.0641454079847783
1789877655507139600,9.3241396484375,-0.1984498577237129,-0.01803951455950737,1.0571354561574757
1789877655517093400,9.33409326171875,-0.24794132612347602,0.0481669417977333,1.0293286538865416
1789877655527045400,9.34404541015625,-0.2592413032948971,0.11980360651016235,1.0431066385440528
1789877655536998400,9.353998291015625,-0.22583112805895506,0.1869265931904316,1.0206424394100904
1789877655546950400,9.363950439453125,-0.15461539217233658,0.18419161526858804,0.9838565041307359
1789877655556903400,9.3739033203125,-0.10518127998299896,0.1817418840289116,1.0142541266124694
1789877655566855400,9.38385546875,-0.14697225700803102,0.11351239741146564,1.0284308282639831
1789877655576808400,9.393808349609374,-0.1831225977975875,0.07170154664218426,1.090672253447771
1789877655586760400,9.403760498046875,-0.2314028637766838,-0.007874094375967979,1.1274301316764206
1789877655596713500,9.41371337890625,-0.24326040176562963,-0.04088555261790752,1.129914861164242
1789877655606665500,9.42366552734375,-0.22765257133245467,-0.02835866400003433,1.091745947093889
1789877655616618500,9.433618408203126,-0.24379713899083433,-0.009016834670305252,1.0338344408731908
1789877655626570500,9.443570556640625,-0.22159568244628608,0.030112229669094083,1.0171863806720822
1789877655636523500,9.4535234375,-0.17977781741432844,0.11498422352969646,1.0012455919574945
1789877655646475500,9.4634755859375,-0.184913499802351,0.16539572938382624,0.9836389158573001
1789877655656428300,9.47342822265625,-0.11748305460810661,0.14653963774442672,0.9915608679629861
1789877655666380300,9.48338037109375,-0.05837503207921981,0.07668868740499019,0.9765366095714271
1789877655676333300,9.493333251953125,-0.004237783700227737,0.03246609931886196,0.9555822304785251
1789877655686285600,9.50328564453125,-0.0332920287489891,0.03937222544550895,0.9449968313172459
1789877655696238600,9.513238525390625,-0.11689276056475936,0.08020692465901375,0.8860431225672364
1789877655706190300,9.5231904296875,-0.33766550925560296,0.08210778984427451,0.7481923296477645
1789877655716143400,9.533143310546874,-0.5391525427181273,0.11908990528285503,0.5658168238904326
1789877655726095400,9.543095458984375,-0.6552608018416911,0.15103519559800624,0.46110491498485207
1789877655736048400,9.55304833984375,-0.7481050166904926,0.07951601978540421,0.43204182904250915
1789877655746000600,9.563000732421875,-0.7559679320853203,-0.2056184341788292,0.3754484196830541
1789877655755953700,9.57295361328125,-0.49031793079189956,-0.23559213216006755,0.36887645741421726
1789877655765905400,9.582905517578125,-0.4029178797584027,-0.29305238748192786,0.2859184804813936
1789877655775858400,9.5928583984375,-0.5344832357328385,-0.33158173236250876,0.06551876635402441
1789877655785810400,9.602810546875,-0.5961339284818619,-0.2541062784940004,-0.1457698954809457
1789877655795763500,9.612763427734375,-0.6677214933555573,-0.21567571781277656,-0.29566647897046056
1789877655805715500,9.622715576171874,-0.8036240017514675,-0.3462538163155317,-0.41274219488669184
1789877655815668200,9.632668212890625,-0.9136145817123353,-0.32889234714806076,-0.4107994998537004
1789877655825620500,9.642620361328126,-0.8222562945723533,-0.15979308707118034,-0.3795389038670808
1789877655835573500,9.652573486328125,-0.5634428613007069,-0.1811795739710331,-0.370030778548494
1789877655845525500,9.662525390625,-0.2629962719142437,-0.22283494191765785,-0.3836144827429205
1789877655855478500,9.672478515625,0.0004747048396617174,-0.3155284231841564,-0.38581411167904733
1789877655865430300,9.68243017578125,-0.011737126479670405,-0.6685071638405322,-0.5001574069567024
1789877655875383300,9.69238330078125,0.17383096477389334,-0.6347136153101921,-0.5303839106552303
1789877655885335600,9.70233544921875,0.15665427758879957,-0.5247539419442415,-0.4999132960025221
1789877655895287600,9.71228759765625,-0.22727964636683462,-0.510623709782958,-0.5898837820459157
1789877655905240600,9.722240478515625,-0.3590508271116763,-0.12468904046416282,-0.5919966825466603
1789877655915192300,9.7321923828125,-0.7803822423737495,0.16148644698560238,-0.5259177250266075
1789877655925145300,9.742145263671874,-1.1601741711538285,0.4513192878991365,-0.29168679821714755
1789877655935097300,9.752097412109375,-1.2415385222196578,0.747442168867588,0.1066654541261494
1789877655945050400,9.76205029296875,-0.9764403095901012,1.4149229122698306,0.562234070032835
1789877655955002600,9.772002685546875,-1.0053823264360426,1.627170993721485,0.8732890010647475
1789877655964955600,9.78195556640625,-1.0063876310210675,1.7307243071764706,1.102187042413652
1789877655974907400,9.791907470703125,-0.9156078013561666,1.8962030386686324,1.382575470894575
1789877655984860400,9.8018603515625,-0.8227927395366131,2.0663024156987664,1.6747412848003207
1789877655994812400,9.8118125,-0.7773018850803375,2.225973922216892,1.880254066647589
1789877656004765400,9.821765380859375,-0.7857038027226925,2.3492349757045505,2.0398533847123383
1789877656014717400,9.831717529296874,-0.8588042563773691,2.261502331715822,2.066887229849398
1789877656024670500,9.84167041015625,-0.6762229989148676,2.553160049968958,2.0368729075968264
1789877656034622500,9.85162255859375,-0.45153146934509275,2.7009850513488054,1.9295301387310027
1789877656044575500,9.861575439453125,-0.3258943343758583,2.563752171131968,1.6879776368618011
1789877656054527500,9.871527587890625,-0.22233561409339309,2.428418402534723,1.4464732119180261
1789877656064480500,9.88148046875,-0.03933350087031722,2.248156527930498,1.27519763071537
1789877656074432300,9.891432373046875,0.19230068744421003,2.0698013637304307,1.1559456667385994
1789877656084385300,9.90138525390625,0.44414201668091113,1.9840332978129385,1.1163790877647697
1789877656094337500,9.911337646484375,0.8115490225970745,1.9829139383941887,1.0319726655893027
1789877656104290600,9.92129052734375,1.1448751874741165,2.055344383832812,0.8843254319291561
1789877656114242600,9.93124267578125,1.264438920813799,2.0779291406065226,0.6610544366817921
1789877656124195300,9.9411953125,0.7996108205873519,1.6934242118299005,0.20995779682369903
1789877656134147300,9.951147216796874,-0.4804628917317837,0.33055706548988817,-0.652699938377738
1789877656144100400,9.961100341796875,-2.8420868819534775,-2.5339316178858278,-2.4551766456007957
1789877656154052600,9.971052490234374,-1.9464951559267938,-5.928426172384619,-3.9094729523599145
1789877656164005600,9.981005615234375,4.531363326454162,-7.602986693790554,-2.6583713597640393
1789877656173957400,9.990957275390626,7.222680970269441,-7.97664991055727,-1.8297502063348887
1789877656183910400,10.000910400390625,3.8624411520719524,-7.486444134902953,-2.7299814287304875
1789877656193862400,10.0108623046875,-2.1374375606298446,-5.873379407945275,-3.934970089448988
1789877656203815400,10.0208154296875,-5.1997874881863595,-1.755558304181695,-4.233790538938344
1789877656213767400,10.030767333984375,-3.9131788211405274,2.2583459135115147,-3.3490579144477843
1789877656223720400,10.040720458984374,-0.8806979621469974,3.814475870326161,-2.6055408100694417
1789877656233672400,10.05067236328125,2.535126380628347,3.816225928863883,-1.6519121978767215
1789877656243625500,10.06062548828125,3.7094437164902683,2.5944460000813008,-0.576634826231189
1789877656253577500,10.070577392578125,2.707893515563011,0.8587339676201343,-0.13808284810967741
1789877656263530500,10.080530517578126,1.415942318445444,-0.7934288440167904,-0.4523961233504116
1789877656273482500,10.090482421875,1.0573790556550025,-2.2034949639052153,-0.5875195005999878
1789877656283435300,10.100435302734375,0.644120910602808,-3.020522710174322,1.0131538372203708
1789877656293387500,10.110387451171874,1.34424018728137,-2.9206115526139733,1.1444959788981826
1789877656303340500,10.120340576171875,0.9933066887170076,-2.047567320090532,1.585540760216117
1789877656313292500,10.13029248046875,0.07990470857573673,-0.8971341331630944,1.783855885644257
1789877656323245600,10.14024560546875,-0.7846944064844399,0.38641573083400726,1.736824085356295
1789877656333197300,10.150197265625,-1.2424889548122882,1.4270160856455563,1.6036322972238062
1789877656343150300,10.160150390625,-0.9679191494822501,1.8276473888367413,1.3738864068739116
1789877656353102300,10.170102294921875,-0.8302847027271986,1.948019150623679,1.1803341849986464
1789877656363055400,10.180055419921874,-0.9013683366667479,1.8416309060037135,1.04834307789281
1789877656373007600,10.190007568359375,-0.7078389842104167,1.4601695827066898,0.91199494462125
1789877656382960600,10.199960693359374,-0.6729167969763279,0.9925339507788419,0.7844766720805316
1789877656392912400,10.209912353515625,-0.8230810549587011,0.540838815304637,0.7098531005118042
1789877656402865400,10.219865478515626,-0.7787532529324293,0.09047931234836577,0.6792991914898157
1789877656412817400,10.2298173828125,-0.3162673319179565,-0.35752749000191686,0.6802316500343382
1789877656422770400,10.2397705078125,0.25952830354273315,-0.6501157671034336,0.6797865366153418
1789877656432722700,10.24972265625,0.5989701017558574,-0.8258464280188084,0.5993572013773024
1789877656442675500,10.259675537109375,0.8245376835078001,-0.9165192171126604,0.4404880972832441
1789877656452627500,10.26962744140625,1.1026361744206399,-1.0303419956475495,0.26533114460259677
1789877656462580500,10.27958056640625,1.3719780890345572,-0.948133668038249,-0.1055487250559032
1789877656472532500,10.289532470703126,1.455109376707673,-0.6875655000537634,-0.3001723024897277
1789877656482485500,10.299485595703125,1.3882891723662614,-0.4778372924685478,-0.5175416724778712
1789877656492437200,10.309437255859375,1.294526600563526,-0.28717794249057765,-0.713913116492331
1789877656502390300,10.319390380859375,1.3398305541455744,-0.1346276661545038,-0.9071941932760178
1789877656512342500,10.329342529296875,1.3221715633362532,0.05056172797977924,-1.048105615875125
1789877656522295800,10.3392958984375,1.2068635146796702,0.22130700169801712,-1.125767824487388
1789877656532247800,10.349247802734375,1.0446738878607749,0.31906828774809837,-1.1508705554313956
1789877656542200800,10.359200927734374,0.6165840843796729,0.39111353326141834,-1.0723591826438903
1789877656552152800,10.36915283203125,-0.28833237322270866,0.4066185609072447,-0.8708269948653876
1789877656562104600,10.3791044921875,-1.5926356869131326,0.3907072905480861,-0.5203161056272685
1789877656572057600,10.3890576171875,-2.4806571238160133,0.27231764248907564,-0.1874782357238233
1789877656582010600,10.3990107421875,-2.2795547057569028,0.016845920860767364,0.056286243106424806
1789877656591963000,10.408962890625,-1.5218502322025595,-0.29636838016211986,0.2067944922208786
1789877656601915000,10.418914794921875,-0.7883658615387976,-0.4570329893708229,0.26732319520264863
1789877656611867600,10.42886767578125,-0.42491877222955227,-0.3162204971015453,0.39121860107108947
1789877656621819600,10.438819580078125,-0.26908699000477787,-0.06874620396792888,0.42408509788438675
1789877656631772700,10.448772705078126,-0.13115852873921394,0.19752280600667,0.47156741841882466
1789877656641725000,10.458724853515625,-0.14427008537724614,0.4399170193970203,0.41653059085160493
1789877656651678000,10.468677978515625,-0.2536854227334261,0.5699322233200073,0.26366525721698997
1789877656661629700,10.478629638671874,-0.41317572746574877,0.7219757191777229,0.13441563083902
1789877656671582700,10.488582763671875,-0.411392351180315,0.8707131592273711,0.08897782174423337
1789877656681534700,10.49853466796875,-0.3870861774414778,0.928569720390439,0.0666454322963953
1789877656691487700,10.50848779296875,-0.25066154486760495,0.9028671238571405,0.021162761146575212
1789877656701439700,10.518439697265626,-0.06659048723876476,0.8452087156146765,0.025355244400352236
1789877656711392800,10.528392822265625,0.01611585302054882,0.6810638630747795,0.008047843507677316
1789877656721344800,10.5383447265625,0.011413958939909935,0.4795622165650129,-0.0578591915115714
1789877656731297800,10.5482978515625,-0.06274038768187165,0.2943792521715164,-0.08331248945891857
1789877656741249800,10.558249755859375,-0.22460209772065282,0.16396598884165287,-0.102405604724586
1789877656751202800,10.568202880859374,-0.4461627819187939,0.060496846538782116,-0.11102116511762142
1789877656761154800,10.57815478515625,-0.5917120934516191,-0.0573778377354145,-0.15589666415452957
1789877656771107600,10.588107666015626,-0.5877578028678894,-0.19525369203090667,-0.24986907931566238
1789877656781059800,10.598059814453125,-0.4494423881113529,-0.3255868758618831,-0.3901613471031189
1789877656791012900,10.608012939453126,-0.21506723052561283,-0.38532618203163144,-0.5615934340417384
1789877656800964900,10.61796484375,-0.02659925311207771,-0.41518122206926344,-0.7095391391918062
1789877656810918000,10.62791796875,0.13149696691334248,-0.417720385158062,-0.9185156516268849
1789877656820869600,10.63786962890625,0.26921879969090223,-0.42317572795450686,-1.138824582198262
1789877656830822700,10.64782275390625,0.4003621308609843,-0.44598084948062894,-1.3950515061080455
1789877656840774700,10.657774658203126,0.5086734524980188,-0.4477963744699955,-1.6860171504437922
1789877656850727700,10.667727783203125,0.5959542610660195,-0.4488514364808798,-1.8756398508504033
1789877656860680000,10.677679931640625,0.6778804107330739,-0.4681821598947048,-2.0982965135917064
1789877656870633000,10.687633056640625,0.7222247255027294,-0.5022165314435959,-2.354830896015465
1789877656880584700,10.697584716796875,0.7782283522754907,-0.5141460386902094,-2.5821821463137864
1789877656890537700,10.707537841796874,0.7553074954152107,-0.5555746121436357,-2.7705302967399357
1789877656900489700,10.71748974609375,0.7566194547966122,-0.6693927145034074,-2.9657968482524155
1789877656910442800,10.72744287109375,0.7079791963987052,-0.6965951942056418,-3.110646048691869
1789877656920395000,10.73739501953125,0.5212742831349373,-0.6029121173799038,-3.1819968822002407
1789877656930347800,10.74734765625,0.25559958579167724,-0.4860772975474596,-3.1933015355467793
1789877656940299800,10.7572998046875,-0.16600918510705232,-0.41190439235568044,-3.18447028657645
1789877656950252800,10.767252685546875,-1.0151800823509693,-0.3088531832039356,-3.1207047936305403
1789877656960204800,10.777204833984374,-2.1979468282587824,-0.23427929599583147,-3.003972849650681
1789877656970157800,10.78715771484375,-2.8405706321716306,-0.44747021125555037,-2.89928234885931
1789877656980109600,10.797109619140626,-2.4552660774499175,-1.2012819151550531,-2.99741889796257
1789877656990062600,10.8070625,-1.6170536504633723,-2.464564067149162,-3.206103733974695
1789877657000014800,10.817014892578126,-0.8778294209733605,-3.8803345361590384,-3.284950768457353
1789877657009967900,10.8269677734375,-0.33742052151858803,-4.9157653793781995,-3.269800837859511
1789877657019920000,10.836919921875,-0.11394289778321981,-5.505982265836,-3.1952742969244716
1789877657029873000,10.846872802734374,-0.2801192561507225,-5.976279225927591,-3.1995047741010785
1789877657039824600,10.85682470703125,-0.8913532116740941,-6.313617914381623,-3.274193227599561
1789877657049777700,10.866777587890626,-1.7314545211471617,-6.303904914140701,-3.4587624440088867
1789877657059730000,10.87672998046875,-2.541866502538323,-5.474197134518623,-3.6095299285814164
1789877657069683000,10.886682861328126,-3.0571091042935845,-4.148467586439848,-3.6353988215923305
1789877657079634700,10.896634765625,-3.366195511731505,-2.8122908786267042,-3.580709200027585
1789877657089587700,10.906587646484375,-3.7395068463206287,-1.5368430725425481,-3.5149513642206784
1789877657099539700,10.916539794921874,-3.575724397352338,-0.42373569992482657,-3.244504484039545
1789877657109492700,10.92649267578125,-3.370097195345163,0.31582945195734496,-2.9511656808316706
1789877657119444700,10.93644482421875,-3.0441976002722977,0.42470483721792696,-2.7029280021101236
1789877657129397800,10.946397705078125,-1.4326520457059144,0.5632949772626161,-2.084709010004997
1789877657139349800,10.956349853515626,-0.06190671333670616,0.3858423148602247,-1.3620260193407534
1789877657149302800,10.966302734375,0.9932792892534286,-0.02208382151424885,-0.4856488430023193
1789877657159254800,10.9762548828125,1.7784750693887472,-0.7303449035942554,0.5692965557649732
1789877657169206800,10.986206787109374,2.342807573005557,-1.2900830651581288,1.7407710694164036
1789877657179159800,10.996159912109375,2.648925778287649,-2.033794815325737,2.812177481380105
1789877657189111800,11.00611181640625,2.436501755747199,-3.0568033993452786,3.739420337080955
1789877657199064800,11.01606494140625,1.6773609657794235,-4.02708869343698,4.568841700977087
1789877657209017900,11.026017822265626,0.8908785798996687,-4.595518110978603,5.326107929244637
1789877657218969900,11.035969970703125,0.1842512365013361,-4.788779752409458,5.6328246849417685
1789877657228921900,11.045921875,-0.3355237479865551,-3.7261931912392376,5.39391363749206
1789877657238874600,11.05587451171875,-0.48264440048933027,-1.1403420010238885,5.68804505238235
1789877657248826600,11.06582666015625,-2.6612065831899643,1.296009532597661,7.457645910441875
1789877657258779600,11.075779541015624,-2.4923452235221863,0.648710576480627,7.708716766762733
1789877657268732000,11.08573193359375,-1.1320657555878162,1.8594143999755381,6.183484637036919
1789877657278685000,11.095684814453126,0.017252748095989225,2.9128531935721633,2.9305680062219497
1789877657288636700,11.10563671875,0.3967828476021066,1.3508674964666365,2.269640776116401
1789877657298589700,11.115589599609375,1.5821394273400307,0.9669424134045839,0.8458218790769576
1789877657308541700,11.125541748046874,0.021083741093613207,-0.6898416282922029,0.4195992577072233
1789877657318494700,11.13549462890625,-0.9151707251131534,-1.6370944218426942,0.6866032308928668
1789877657328447000,11.145447021484374,-1.2621288903057575,-0.5210469041198492,-0.4291034375030547
1789877657338400000,11.15539990234375,-2.0243208845376968,0.34851708507239815,0.631454759644717
1789877657348351700,11.165351806640626,-1.7456863139867782,1.5210983909219502,1.9781668899975715
1789877657358304800,11.1753046875,-0.805000039345026,2.1660037299007175,2.7633453536719084
1789877657368256800,11.1852568359375,0.21016016926169395,2.321365556526184,3.2093522143766284
1789877657378209800,11.195209716796874,1.0283913730364291,2.367684824630618,3.5251071397930382
1789877657388161800,11.205161865234375,1.2743091574430465,2.5329852769464254,3.818045545506477
1789877657398114600,11.215114501953124,1.0160603723168373,2.694737681391835,4.036720445135235
1789877657408066800,11.22506689453125,0.901546835038811,3.2039193756729363,4.240278731913865
1789877657418019800,11.235019775390626,0.8243161497116088,3.5940181789338586,4.322697195142507
1789877657427971800,11.244971923828125,0.7594950832981616,3.794380007758736,4.330526865854859
1789877657437924900,11.2549248046875,0.8519605279624461,4.004520887798071,4.244519145962595
1789877657447876600,11.264876708984374,1.0043535679101943,4.481988762432336,4.222798020280897
1789877657457829600,11.27482958984375,1.142998653012514,4.8750259572327135,4.13016854416132
1789877657467782000,11.284781982421874,1.4262592759288846,5.265615758880973,3.9972950281977653
1789877657477735000,11.29473486328125,1.7773183005690574,5.578796157634258,3.8039562298774716
1789877657487687000,11.30468701171875,2.036116536271572,5.558431999519467,3.3223201296478506
1789877657497640000,11.314639892578125,2.0412676354244352,4.853158993339538,2.5596301227658986
1789877657507591700,11.324591796875,1.5889702962733805,4.0192397335022685,1.8459581215530634
1789877657517544400,11.33454443359375,1.01022231381312,3.168648155805468,1.2890841172486542
1789877657527496400,11.344496337890625,0.5230362513061613,2.21650349856019,0.7158975683078169
1789877657537449500,11.354449462890624,0.2534429922796786,1.493338277336955,0.20381708384528754
1789877657547401500,11.3644013671875,0.3376829718470573,0.7390665547102689,-0.14045644537322222
1789877657557354500,11.3743544921875,0.1718694554425776,-0.19419863002002238,-0.6683923052892089
1789877657567306500,11.384306396484375,-0.17414419544152915,-1.2196195358783006,-1.397459297902137
1789877657577259300,11.39425927734375,-0.7738870351355522,-2.448933951818943,-2.2772370764642953
1789877657587211300,11.404211181640624,-1.0515080447297542,-3.682653909242153,-3.1328432674527167
1789877657597164300,11.414164306640625,-1.0783972937643527,-4.772390927666425,-3.929798532029986
1789877657607116500,11.424116455078124,-1.0961292036794126,-5.469492317828536,-4.612716206277907
1789877657617069600,11.434069580078125,-1.0280980161130429,-5.7259273315310475,-5.187622418618202
1789877657627021300,11.444021240234376,-1.3807377340734004,-5.501218412435055,-5.6390720548987385
1789877657636974300,11.453974365234375,-2.5430945830285547,-4.920858318603038,-5.760099065724015
1789877657646926300,11.46392626953125,-3.5142975764870643,-4.44317124826014,-5.491950233352184
1789877657656879400,11.47387939453125,-0.9962684611320495,-3.7444887263864275,-4.231867754182219
1789877657666831600,11.48383154296875,0.30514263824820514,-3.6496664163976904,-2.67289848228842
1789877657676784600,11.49378466796875,-0.17385259208381176,-3.836569628712535,-1.173938492612168
1789877657686736400,11.503736328125,-0.9354232395470142,-3.7125475277245044,0.38200960482954976
1789877657696689400,11.513689453125,-2.8062077593207357,-3.288481572932005,1.809605097798258
1789877657706641400,11.523641357421875,-5.487849227774143,-2.6427088034689423,3.3086332573398947
1789877657716593400,11.533593505859375,-6.62203913590908,-1.9288702135175466,4.1382954442545765
1789877657726546400,11.54354638671875,-5.658244372880459,-1.3758195668935775,4.626671666394174
1789877657736498400,11.55349853515625,-3.90097751121521,-0.3571913899153471,4.647741634690761
1789877657746451500,11.563451416015624,-2.6740783397227523,0.8291098137289286,4.0486806397810575
1789877657756403500,11.573403564453125,-1.470226866340637,2.0649463249146938,3.2548052210405465
1789877657766356500,11.5833564453125,-0.1691361214885488,3.222292067709565,2.1793661925598977
1789877657776308200,11.59330810546875,1.3120774548232554,3.8642572615832087,1.5611749652445315
1789877657786261200,11.60326123046875,1.5322323638767004,4.007196244487166,0.8914395017180591
1789877657796213500,11.613213623046875,1.9042747014433143,4.0633167756378645,0.46575522500872607
1789877657806166500,11.62316650390625,0.8160095091372728,3.8359687402099367,0.7209006372921168
1789877657816118500,11.633118408203124,0.42225854004435237,3.268237826326489,0.9387410588581114
1789877657826071600,11.643071533203125,0.14194931427948176,2.1463708086699245,1.4350281271874903
1789877657836023300,11.653023193359376,-0.38704759899675845,0.9236708424329757,1.8468762593112884
1789877657845976300,11.662976318359375,-0.7500333544045686,-0.19764964725673198,2.223198904545605
1789877657855928300,11.67292822265625,0.938820992226526,-0.7671148375868797,2.2091109040908514
1789877657865881300,11.68288134765625,2.571511114695668,-1.0380372263252735,1.9745698884189127
1789877657875833600,11.69283349609375,2.5689304505527017,-0.7856921122848987,1.8087807758033274
1789877657885786400,11.702786376953124,2.5336224058061836,-0.2794172453612089,1.6023203378424047
1789877657895738400,11.71273828125,2.625689864128828,0.13779343670904637,1.3355004159867763
1789877657905691400,11.72269140625,2.715265505635738,0.5216910472422838,1.0450871448367833
1789877657915643400,11.732643310546875,2.787814609017968,0.7544546779781579,0.6744200411461293
1789877657925596400,11.742596435546876,2.6446330495297907,0.789897162759304,0.3893351254120469
1789877657935548400,11.75254833984375,2.522696522644162,0.7070791788190602,0.21394334106221793
1789877657945501400,11.76250146484375,2.4203344648003577,0.47993631057441233,0.20401640580967068
1789877657955453400,11.772453369140624,2.44325064548552,0.13329612528979778,0.24050211603343485
1789877657965406500,11.782406494140625,2.1620073537409303,-0.23461656512618065,0.19000424707010388
1789877657975358500,11.7923583984375,1.7948066109865903,-0.535831216275692,0.12047712185755372
1789877657985311500,11.8023115234375,1.3740183626905083,-0.6756763248175383,-0.05819952938184142
1789877657995263200,11.81226318359375,0.9353494436584413,-0.8057856367647648,-0.26578414906710385
1789877658005216300,11.82221630859375,0.5822679732799529,-0.6702355950683355,-0.4694204695180058
1789877658015168500,11.83216845703125,0.22817557229325175,-0.5287579168885946,-0.6200798175409435
1789877658025121500,11.84212158203125,-0.7399532744169235,-0.4114432045847177,-0.7582166608601808
1789877658035073500,11.852073486328125,-5.444274289941787,-0.5450771835267544,-0.9026597647167742
1789877658045026300,11.8620263671875,-8.472714349111914,-0.6833376532256603,-1.147864797744155
1789877658054978300,11.871978271484375,-6.9755953841924665,-0.678418317002058,-0.5170774159669875
1789877658064931300,11.881931396484376,-5.352069468975067,0.22386253139972687,0.5302054853484034
1789877658074883600,11.891883544921875,-3.3666917708158492,0.5849298859655857,0.5277592612400651
1789877658084836600,11.901836669921876,-1.1397820290535687,0.08941782059669494,0.025580431458353994
1789877658094788400,11.911788330078124,0.30873467139080163,-0.2984562923520803,-0.050241848375648254
1789877658104741400,11.921741455078125,1.2230595933295785,-0.49986733796894545,-0.3261278508707881
1789877658114693400,11.931693359375,1.9870311644546685,-0.7250456281423568,-0.4520043475538492
1789877658124646400,11.941646484375,2.347366843745112,-0.3067261080473661,-0.5557375476203859
1789877658134598400,11.951598388671876,2.0370698914736507,0.21671324416697024,-0.6115519354313612
1789877658144551400,11.961551513671875,1.9183043958395718,0.7463561271965503,-0.8247058796815574
1789877658154503400,11.97150341796875,1.7822053419582544,1.2876403481811285,-1.0992962894082068
1789877658164456400,11.98145654296875,1.4941044394038616,1.8377233771711587,-1.2019118836216627
1789877658174408400,11.991408447265625,1.2711439714103936,2.193981870150566,-1.0829033730119466
1789877658184361500,12.001361572265624,1.1056627557002008,1.9655144753038882,-0.9651105218023062
1789877658194313500,12.0113134765625,1.1286946717195212,1.157797578215599,-0.9136597360283136
1789877658204266200,12.021266357421876,1.1124741892807184,0.28915771813094615,-0.9271265358448028
1789877658214218500,12.031218505859375,0.8616809808574616,-0.3105781073004007,-0.9261629515096544
1789877658224171500,12.041171630859376,0.44246509644463655,-0.6106956108629703,-0.9784799987241625
1789877658234123500,12.05112353515625,-0.20005144770145414,-0.7073024661809205,-1.0356871560677885
1789877658244076500,12.06107666015625,-1.4193665938057005,-0.6045160454452038,-1.038840067140758
1789877658254028300,12.0710283203125,-2.937578177244961,-0.4105938942790031,-1.1102294790938496
1789877658263981300,12.080981201171875,-3.6510970337226984,-0.3849059107929468,-1.3692150540620087
1789877658273933300,12.090933349609376,-3.2631635918021202,-0.3007312515467405,-1.4950266688153147
1789877658283886300,12.10088623046875,-3.152835669645667,0.5389274287253618,-1.21267337000221
1789877658293838600,12.110838623046876,-2.1377982106357813,0.5519231038987636,-1.3110948735266923
1789877658303791600,12.12079150390625,-0.5032692553669214,-0.4826216041356325,-1.483187177939713
1789877658313743400,12.130743408203125,0.6363005922406911,-1.2942904537200928,-1.4675883345305918
1789877658323696400,12.1406962890625,0.9029774523638189,-1.6524685165852306,-1.639054615999758
1789877658333648400,12.1506484375,1.2021024377577005,-1.9783540831327437,-2.0849141771882773
1789877658343601400,12.160601318359374,1.2924199836730956,-2.1882827817261217,-2.1197604496419427
1789877658353553400,12.170553466796875,0.688094930755347,-1.89374570864439,-2.3729209717184303
1789877658363506400,12.18050634765625,0.27571546823382376,-1.6817063015073537,-2.4570523763448
1789877658373458400,12.19045849609375,-0.3565320492237806,-2.338030860123038,-3.0269805080115795
1789877658383411500,12.200411376953125,-1.2948710300870239,-3.6379508441627024,-2.8428195801422
1789877658393363500,12.210363525390624,-2.9812744033694267,-4.822095162034034,-3.4303698777392504
1789877658403316500,12.22031640625,-4.498149623638391,-5.228217463856935,-4.051114588929712
1789877658413268200,12.230268310546874,-4.514950536313653,-6.185597683668136,-4.336752023980021
1789877658423221200,12.24022119140625,-3.36945012961328,-6.317236104878783,-3.853898656915128
1789877658433173500,12.250173583984376,-2.5126415770977735,-4.8784348888933655,-2.7778885505482553
1789877658443126500,12.26012646484375,-2.6297785947471857,-4.21375692795217,-1.8641800069421528
1789877658453078500,12.27007861328125,-3.8098201534748077,-3.646998658493161,-2.0725579689621925
1789877658463031300,12.28003125,-6.389143987748026,-4.247079936361312,-1.8018369480147958
1789877658472983300,12.2899833984375,-8.446112757912278,-4.094354887980223,-1.5372899395272135
1789877658482935600,12.299935546875,-8.117965091651678,-3.5038013169139623,-0.8815686075016855
1789877658492888600,12.309888671875,-5.749612158501148,-1.993378049263358,0.6257689690932631
1789877658502840600,12.319840576171876,-3.023721213954687,-0.9287807327926159,1.6493015769869088
1789877658512793300,12.32979345703125,-1.2282862419366836,-0.8995271657794713,1.7020929637148976
1789877658522746000,12.33974609375,-0.11276830104589462,-1.4331652559250592,1.7989058629989623
1789877658532698000,12.349697998046874,0.5460194328129291,-1.4731296020448208,1.3572072208821773
1789877658542650000,12.359650146484375,1.402960087275505,-1.6011165150105953,1.3202487785801291
1789877658552603100,12.36960302734375,1.6556208431363104,-2.0615525908231733,0.9494476732462644
1789877658562555100,12.37955517578125,1.9002046755254267,-1.1977706921637057,0.6865968011520802
1789877658572508200,12.389508056640626,2.2523162779584527,-0.7430465642571449,1.7214634346172213
1789877658582460200,12.399460205078125,2.7311972342610358,-0.4645177921682596,2.2690404721356927
1789877658592413200,12.4094130859375,3.439525536358356,-0.447323496261239,2.765604530775547
1789877658602365200,12.419365234375,4.1512569248974325,-0.5833107603311538,3.3091198718130586
1789877658612318200,12.429318115234375,4.747362869393825,-0.766938896498084,3.748838738289475
1789877658622270200,12.439270263671874,5.174004227632284,-0.7667197007894515,4.133938710349798
1789877658632223200,12.44922314453125,5.196295554417372,-0.5281652116924525,4.284420071457326
1789877658642175200,12.45917529296875,5.12820810661912,-0.19908815562725066,4.186467939010262
1789877658652128300,12.469128173828125,4.980616329473257,0.14952303746938705,3.7425200566619634
1789877658662080000,12.479080078125,4.819060324382781,0.5078951616019011,3.2987329178333282
1789877658672033000,12.489032958984374,4.586214860582351,1.1379682576298713,3.2203494092091915
1789877658681985000,12.498985107421875,4.010566889964044,1.7120207757502792,3.1010680730074642
1789877658691938000,12.50893798828125,3.2304528700724244,1.7592121505141258,2.8397096314281223
1789877658701890300,12.518890380859375,2.683488265363872,1.6859832481741903,2.642660872673988
1789877658711843300,12.52884326171875,2.276804238004982,1.5982786612361668,2.472009999240935
1789877658721795000,12.538795166015625,1.1289724657475948,1.4608990660250185,2.4910934698954224
1789877658731748000,12.548748046875,-2.4203230666235087,1.5883447117209433,2.185581413812935
1789877658741700000,12.5587001953125,-4.039159654980898,2.4622791710823773,1.806958674942702
1789877658751653000,12.568653076171875,-3.478877595798671,3.4190982498794793,2.0676795492708684
