time,seconds_elapsed,z,y,x
1789343240077743900,0.047743896484375,-0.05474982731938362,0.12959727077186106,-0.04794453121870756
1789343240087793000,0.05779296875,-0.07766776157021522,0.12548515927791595,0.011724303530715406
1789343240097842700,0.0678427734375,-0.09330839829444884,0.13169862696528434,0.03654958750652149
1789343240107892700,0.077892822265625,-0.08019698778688907,0.10815291620492934,0.05498896983750164
1789343240117941800,0.087941650390625,-0.06004851824939251,0.10096271243989467,0.06320064387107267
1789343240127991600,0.097991455078125,-0.08101648747622966,0.15322890625,0.03590043941540643
1789343240138040800,0.108040771484375,-0.054581485015153884,0.1574766268223524,0.013361458012182265
1789343240148091000,0.1180908203125,-0.07866144878268241,0.1358387955099344,0.00554119444899261
1789343240158140700,0.128140625,-0.06107143155634403,0.0971054524898529,0.012036456486117094
1789343240168189700,0.138189697265625,-0.06940846726894379,0.07224339843392372,0.015244531812425702
1789343240178239700,0.14823974609375,-0.08677695069909096,0.05972820025384426,0.007194642478134483
1789343240188288800,0.158288818359375,-0.07111877831816672,0.035408582511544225,0.004362359927967191
1789343240198338800,0.1683388671875,-0.04285539138615131,0.06522679767012596,-0.01915679161902517
1789343240208388900,0.178388916015625,-0.03744797938466072,0.0861906752437353,-0.023773455101624128
1789343240218437600,0.188437744140625,-0.022523966497182846,0.056306409111618994,-0.04463018250633031
1789343240228487700,0.19848779296875,-0.009365209716558456,0.014494973820447921,-0.04672271607248112
1789343240238537000,0.208536865234375,-0.044966099929809565,0.021692191848158834,-0.03320897184172645
1789343240248586800,0.218586669921875,-0.03789630767405033,0.007917348995804787,-0.019371110223140565
1789343240258636800,0.22863671875,-0.05524550188183784,0.01194178220629692,-0.029643443113565444
1789343240268685800,0.238685791015625,-0.05962298631370067,0.016582301488518712,-0.048283005925454196
1789343240278736000,0.24873583984375,-0.019789573097229004,0.007663666495680808,-0.06465794827360659
1789343240288784600,0.25878466796875,0.03394377065598964,0.02411152794957161,-0.05456230539064854
1789343240298834700,0.268834716796875,0.03859948750734329,0.015166589471697807,-0.06952886051191016
1789343240308884700,0.278884765625,0.0009399111986160278,-0.024762685334682462,-0.07638029730925336
1789343240318933800,0.288933837890625,-0.03723930507004261,-0.02508183428645134,-0.07816670580198988
1789343240328983800,0.29898388671875,-0.07474164499044418,-0.04822627076953649,-0.08998851489042863
1789343240339032800,0.30903271484375,-0.10939385617673396,-0.03198942171782255,-0.10647995975771918
1789343240349082600,0.31908251953125,-0.1415606802880764,0.0002551438048481941,-0.11874783211322501
1789343240359132700,0.329132568359375,-0.15612696577906607,0.020467910750210285,-0.11370134411230683
1789343240369182000,0.339181884765625,-0.1904424923568964,0.03207680774033069,-0.13653578306445852
1789343240379231700,0.349231689453125,-0.2541466105043888,0.05480243428945541,-0.168095435062889
1789343240389280800,0.35928076171875,-0.26533202138543127,0.06262655204385519,-0.14477399804508312
1789343240399330800,0.369330810546875,-0.23557167389392852,0.07341536482274531,-0.1130247600249946
1789343240409380600,0.379380615234375,-0.17872224394679068,0.11875059032589197,-0.10171113792071118
1789343240419430000,0.389429931640625,-0.13772738573551177,0.14742752649486063,-0.07923258146783337
1789343240429480000,0.39947998046875,-0.09729659114778041,0.11828326507508755,-0.059967178375180806
1789343240439528700,0.40952880859375,-0.06069616850316524,0.11556231567859648,-0.03648183776624501
1789343240449578800,0.419578857421875,-0.028507132560014723,0.11520955671817064,0.008402958821970969
1789343240459628800,0.42962890625,0.023255203381180763,0.12723024937957525,0.06469709297390654
1789343240469677600,0.439677490234375,0.024297405910491943,0.08863426900357008,0.07077085992963984
1789343240479727900,0.449727783203125,0.02842003879845142,0.05979834288060665,0.03386082334658131
1789343240489777000,0.45977685546875,0.059338908675312996,0.06399608683139085,0.011935571661219
1789343240499826700,0.46982666015625,0.06863865194022654,0.07052958025336264,-0.03184687144197523
1789343240509876700,0.479876708984375,0.130846978572011,0.06822334913760424,-0.03219351118886843
1789343240519925800,0.48992578125,0.1614455304533243,0.0898185103520751,-0.01918568891994655
1789343240529975800,0.499975830078125,0.1583177538216114,0.057313248066604136,0.009802633019443601
1789343240540025600,0.510025634765625,0.1212304244428873,0.037732349283993244,0.038242983953561634
1789343240550075000,0.520074951171875,0.04637772029340267,0.00037847792357206345,0.034735852615442125
1789343240560125000,0.530125,-0.012240472891926766,-0.013545418010652064,0.033893209512531754
1789343240570173700,0.540173583984375,-0.08242693879604339,-0.030116613583266734,0.04183180222576484
1789343240580223700,0.5502236328125,-0.12565467062592506,-0.04916559744626283,0.020400562868732958
1789343240590273800,0.560273681640625,-0.18378654159903526,-0.036628187434375285,0.013284100193344056
1789343240600322800,0.57032275390625,-0.23796704459786414,-0.02134732393324375,0.03844232418425381
1789343240610372900,0.580372802734375,-0.2635480605781078,-0.01833265228718519,0.0155719371358864
1789343240620422000,0.590421875,-0.25612112544775006,-0.002112462109327316,0.00743407725719735
1789343240630471700,0.6004716796875,-0.22540917631983756,0.0079842767521739,-0.021206527223065496
1789343240640521700,0.610521728515625,-0.1970084267437458,0.03825549637526274,-0.03508097625868395
1789343240650570800,0.62057080078125,-0.1337912153303623,0.03896802855879068,-0.02324080952964723
1789343240660620800,0.630620849609375,-0.08267594512104988,0.05292231963127851,-0.00049180210493505
1789343240670669800,0.640669921875,-0.042240474358201024,0.0817950706332922,-0.0020262085979804397
1789343240680720000,0.650719970703125,-0.012767711636424064,0.08906126224398613,-0.019659772705100477
1789343240690769700,0.660769775390625,0.06373626685142517,0.10856208152770995,-0.03781524179447442
1789343240700818700,0.670818603515625,0.06966624142229556,0.11633768396526574,-0.049364901144336906
1789343240710868700,0.68086865234375,0.06881810016036033,0.09688421095460653,-0.0432090636620298
1789343240720917800,0.690917724609375,0.066959320551157,0.07337824768275023,-0.030913024657964704
1789343240730967800,0.7009677734375,0.05327332502603531,0.08362520866990089,-0.022309099903795867
1789343240741017900,0.711017822265625,0.06334405266344546,0.07067512620389461,-0.021842468772735445
1789343240751066600,0.721066650390625,0.08933189587891101,0.06171615920066833,-0.01293490316318348
1789343240761116700,0.73111669921875,0.09066752839684486,0.05527151310592889,-0.0188805502272211
1789343240771166000,0.741166015625,0.05240063384473324,0.047104573263227936,-0.026237817654851822
1789343240781215700,0.7512158203125,0.0657698185056448,0.03367868997901678,-0.014229600882530212
1789343240791265800,0.761265869140625,0.04031096760034561,0.018744155697524547,-0.014519889065995812
1789343240801314800,0.771314697265625,0.026630817294120788,0.03217325385212898,-0.005127827875129878
1789343240811364900,0.78136474609375,0.0028057050704956054,0.05181757325977087,-0.006780764447618276
1789343240821413600,0.79141357421875,-0.011595160725712775,0.0652007864460349,-0.02923783972105011
1789343240831464000,0.8014638671875,-0.020150223103165624,0.033842648369073865,-0.02643640896687284
1789343240841514000,0.811513916015625,-0.015556465572118759,0.031852935856580736,-0.0074746101969853035
1789343240851562800,0.821562744140625,0.004185761252045631,0.009743687640130519,-0.009691537327785044
1789343240861612800,0.83161279296875,-0.01778057136237621,0.013903145407140254,0.01295421065185219
1789343240871661600,0.84166162109375,-0.02480944708585739,0.01844108109772205,0.02770827379990369
1789343240881711600,0.851711669921875,-0.03457622334063053,0.01922638625651598,0.026275975974462924
1789343240891761700,0.86176171875,-0.06557283462882041,0.011188333490490913,-0.002280475619994104
1789343240901810700,0.871810791015625,-0.06389233419597148,0.011571195328235626,0.0057721536606550215
1789343240911860700,0.88186083984375,-0.061523851498961446,0.03300152136981487,0.014549991943314671
1789343240921909500,0.891909423828125,-0.05092296250760555,0.044802726061642165,0.005134951735660433
1789343240931959600,0.90195947265625,-0.042722704917192454,0.06672784988284111,0.02194665979957208
1789343240942009600,0.912009521484375,-0.032250995263457295,0.06475421172231435,0.01600338735571131
1789343240952058600,0.92205859375,-0.09415186338126659,0.06925064635872841,0.022904782508313654
1789343240962108700,0.932108642578125,-0.11330839927196502,0.07117635372430085,0.014264526065438985
1789343240972157700,0.94215771484375,-0.1434247205942869,0.03162468005865812,0.042201749783009286
1789343240982207500,0.95220751953125,-0.13499299233555792,0.05789806221723556,0.04049881832264363
1789343240992257500,0.962257568359375,-0.12983750926852225,0.07188654782027006,0.036338867365289476
1789343241002306800,0.972306884765625,-0.14972586656510828,0.05828998414427042,0.04997590918214991
1789343241012356600,0.982356689453125,-0.09983166258335113,0.062355333887040613,0.06671025942722335
1789343241022406700,0.99240673828125,-0.07235445759296417,0.043431145447492596,0.0666261978729628
1789343241032455700,1.00245556640625,-0.06878010623753071,0.031157062546908854,0.06476524457298219
1789343241042505500,1.01250537109375,-0.014857377392053603,0.01624269427061081,0.0588414440145716
1789343241052554500,1.022554443359375,-0.01591536201238632,0.021418051081895827,0.034044399752561
1789343241062604500,1.0326044921875,-0.01507365049123764,0.01642214249074459,0.01909833943005651
1789343241072654800,1.04265478515625,-0.0037409400939941405,0.01846563101708889,0.02301355837872252
1789343241082703600,1.05270361328125,-0.003769581666588783,0.013323591953516005,0.005979805061966181
1789343241092753700,1.062753662109375,-0.006467734709382057,0.004994739547371864,-0.010909480016492307
1789343241102802400,1.072802490234375,-0.020107553005218503,-0.010213058717548847,-0.014201342902425676
1789343241112852500,1.0828525390625,-0.039081718066334724,0.0154500825881958,-0.02527958534825593
1789343241122902500,1.092902587890625,-0.0588332972407341,0.012400047367811202,-0.007428451234009117
1789343241132951600,1.10295166015625,-0.061198272806406016,-0.000018120178580284118,-0.01439195183739066
1789343241143001600,1.113001708984375,-0.0539665679872036,0.008596563431620597,-0.01958931955108419
1789343241153050600,1.123050537109375,-0.038377953711152074,0.03745440912544727,-0.04197553981170058
1789343241163100700,1.1331005859375,-0.024384499672055242,0.05977379296123981,-0.07256174366809427
1789343241173150500,1.143150390625,-0.026723171752691267,0.0845379396006465,-0.07260605773385614
1789343241183199700,1.15319970703125,-0.032242227435112,0.06988280678242445,-0.09794780333181842
1789343241193249800,1.163249755859375,-0.010142623829841614,0.08048311125189066,-0.08455468980604783
1789343241203298600,1.173298583984375,-0.02822714657485485,0.08898556665927171,-0.07992544083651154
1789343241213348600,1.1833486328125,-0.0649766223013401,0.06972206326276063,-0.03283323386451229
1789343241223398700,1.193398681640625,-0.04327332453727722,0.043236791919171805,-0.01990304340906441
1789343241233447400,1.203447509765625,-0.039026773008704184,0.02564823599755764,0.002290522089973092
1789343241243497700,1.213497802734375,-0.020995441755652426,-0.0009489712879061699,0.010373162916395813
1789343241253546800,1.223546630859375,-0.01127951890528202,0.012589140199124813,0.009798504833597689
1789343241263596500,1.233596435546875,-0.01337093822658062,0.027750176712870597,0.00953954337015748
1789343241273646600,1.243646484375,-0.02529576929807663,0.011110299818217755,0.004402271813247352
1789343241283695600,1.253695556640625,-0.05151216057240963,0.017391279783844946,-0.00470786716369912
1789343241293745400,1.263745361328125,-0.07254267364144325,0.010787059213221073,-0.03602410232769325
1789343241303794700,1.273794677734375,-0.0415618444442749,0.0318283859372139,-0.04101597406454384
1789343241313844700,1.2838447265625,0.021769348737597463,0.06545739155560731,-0.0892288921621628
1789343241323894500,1.29389453125,0.0039040217012166973,0.05613865132927894,-0.05626934677055105
1789343241333943600,1.303943603515625,0.007892214554548263,0.05560936675816774,-0.029667481576278805
1789343241343993600,1.31399365234375,-0.010874445235729217,0.07439473124891519,-0.017252784628607333
1789343241354043600,1.324043701171875,-0.02565466573834419,0.06396364586651325,-0.007937651998316869
1789343241364092700,1.3340927734375,-0.06550035391449928,0.034251229169964786,-0.018916434391355142
1789343241374142700,1.344142822265625,-0.09823474878072738,0.012486556607484817,-0.015973521940410136
1789343241384191500,1.35419140625,-0.11382160949110984,0.03276011382937431,-0.01100583479674533
1789343241394241500,1.364241455078125,-0.12009177580177784,0.01883066493719816,-0.020437360348319635
1789343241404290600,1.37429052734375,-0.06806114431321621,0.01891483608931303,-0.021684529131511227
1789343241414340600,1.384340576171875,-0.04837853872179985,0.04117722904086113,-0.01203210910456255
1789343241424390700,1.394390625,-0.07769757218658924,0.031552199344336986,-0.02297471507252194
1789343241434439700,1.404439697265625,-0.0960334393441677,0.027492694820463657,-0.013684598152479155
1789343241444489700,1.41448974609375,-0.11717208896279334,0.0230617266356945,0.006198361449781805
1789343241454539500,1.42453955078125,-0.13795476475059984,0.020176526588201522,0.02574392405753024
1789343241464588500,1.434588623046875,-0.11489128454923629,0.031200901688635346,0.017132391385640947
1789343241474638600,1.444638671875,-0.0795814862370491,0.0276084301546216,0.009947146923514082
1789343241484687600,1.4546875,-0.07529284913241863,0.045215983037650585,-0.021056944418232887
1789343241494737700,1.464737548828125,-0.06043254913091659,0.05411328298151493,-0.028105319426627827
1789343241504787700,1.47478759765625,-0.07608136916160584,0.059251522652804846,-0.025287604257930068
1789343241514836500,1.48483642578125,-0.0994020389944315,0.053713762269914145,-0.048953087206743656
1789343241524886500,1.494886474609375,-0.08364157528281212,0.05457330170869827,-0.034336003110278394
1789343241534935800,1.504935791015625,-0.0760305157572031,0.07981734081953763,-0.032104371600691226
1789343241544985600,1.514985595703125,-0.021361352458596227,0.08351707212030887,-0.04485501337130554
1789343241555035600,1.52503564453125,0.015156652599573134,0.084313190934062,-0.045184820714406666
1789343241565084700,1.535084716796875,0.03391396003961563,0.08113748350739479,-0.04251647828798741
1789343241575134500,1.545134521484375,0.011834814700484276,0.08872808476686476,-0.056010805432219056
1789343241585183700,1.555183837890625,0.0127051677942276,0.07452478736937046,-0.05294747233884409
1789343241595233800,1.56523388671875,-0.011694529446959494,0.0918707667067647,-0.03096366799981333
1789343241605283600,1.57528369140625,-0.00971709189414978,0.0658940294072032,-0.056611337741790335
1789343241615332600,1.58533251953125,0.012929624199867248,0.06442600268125534,-0.08544368366817943
1789343241625382700,1.595382568359375,0.027245734322071075,0.05850947211384773,-0.06093165775947272
1789343241635431400,1.605431396484375,0.04087736931145191,0.042568098877370356,-0.04248729785927571
1789343241645481500,1.6154814453125,0.008960136047005653,0.021199439895153046,-0.021203997339261694
1789343241655531500,1.625531494140625,-0.028840894559025762,0.0003773088797926903,-0.013832564388960598
1789343241665580500,1.63558056640625,-0.058202013599872586,-0.008287351351976394,-0.019122724952641872
1789343241675630600,1.645630615234375,-0.08348726150393486,0.0073804656401276585,-0.028492519512772558
1789343241685679600,1.6556796875,-0.08981997165679931,0.01373684892952442,-0.03040665517156012
1789343241695729400,1.6657294921875,-0.10728548572063445,0.03593991290926933,-0.06363000259851105
1789343241705779500,1.675779541015625,-0.0833282715499401,0.04025339219421148,-0.056529586875624954
1789343241715828700,1.685828857421875,-0.09753156894743442,0.03155950586795807,-0.061233809910668055
1789343241725878800,1.695878662109375,-0.08620061211585998,-0.02161737304627895,-0.037754825977282594
1789343241735927600,1.705927490234375,-0.09186521374881267,-0.029288053804636,-0.02781144191343337
1789343241745977600,1.7159775390625,-0.10386544814407825,0.0029366379737854,-0.04989328153315
1789343241756027600,1.726027587890625,-0.09668401220738887,0.012210370014607905,-0.050775982651812955
1789343241766076700,1.73607666015625,-0.11489420715868473,0.01031447326540947,-0.07635160093773156
1789343241776126700,1.746126708984375,-0.14701251595318315,0.006763210524618625,-0.07619771641711703
1789343241786175500,1.756175537109375,-0.15714461838901042,0.013728081101179122,-0.09474729025745764
1789343241796225500,1.7662255859375,-0.12923778980970382,0.023794132563471793,-0.10695215297988615
1789343241806275600,1.776275634765625,-0.0724836369305849,0.04231441637724638,-0.13241059289323165
1789343241816324600,1.78632470703125,-0.015140870508551597,0.049311435657739634,-0.09998949262672104
1789343241826374700,1.796374755859375,0.020735914036631584,0.08844722199887037,-0.06534362898282706
1789343241836424700,1.8064248046875,-0.00017068039178848266,0.10227642538696527,-0.0975446293584071
1789343241846473700,1.8164736328125,0.015033318480849265,0.07591419590115547,-0.0781554537556134
1789343241856523500,1.8265234375,0.03850011878609657,0.04665361462533474,-0.0784846217778977
1789343241866572500,1.836572509765625,0.051391164541244504,0.011629062995314597,-0.039922023081686346
1789343241876622600,1.84662255859375,0.022782325172424314,0.022071254293620585,-0.020881779647571964
1789343241886672400,1.85667236328125,0.01686345651745796,0.025023966619372368,-0.009077972006704658
1789343241896721700,1.8667216796875,0.014767945542931557,0.03532295005470514,0.02175298212468624
1789343241906771700,1.876771728515625,-0.013215455403923987,0.04521393721103668,0.021076507635228333
1789343241916820500,1.886820556640625,-0.008921557602286339,0.03412877183407545,0.01628133664741181
1789343241926870500,1.89687060546875,-0.018247019830346108,0.04133358864635229,0.004222083807596937
1789343241936920600,1.906920654296875,-0.018742109870910642,0.061736325205862516,-0.02412234160453081
1789343241946969600,1.916969482421875,0.007571312037110328,0.06355185019522905,-0.02813814398399554
1789343241957019600,1.92701953125,0.030085341662168502,0.03958265332579612,-0.01974114911193028
1789343241967068700,1.937068603515625,0.02608428932726383,0.04601648576557636,0.004756656475178897
1789343241977118500,1.947118408203125,0.029877251869440076,0.04220423400104046,0.0006925031756516546
1789343241987168500,1.95716845703125,-0.012379589101672172,0.025868308489024636,0.018793520397739485
1789343241997217500,1.967217529296875,-0.06278758782446384,0.01464578046798706,-0.017725936831999568
1789343242007267800,1.977267822265625,-0.09828852479457854,0.00255845231115818,-0.03021110519999638
1789343242017316600,1.987316650390625,-0.10196867461204528,0.012034721186757087,-0.05875391186159104
1789343242027366700,1.99736669921875,-0.09659808748960494,-0.00118511813133955,-0.06865921980421989
1789343242037416700,2.007416748046875,-0.0889320829063654,-0.008798515744507312,-0.041150213169772173
1789343242047465500,2.017465576171875,-0.08182371220588684,-0.012295710210502147,-0.006718987790402024
1789343242057515500,2.027515625,-0.10589081649184226,0.010338146401941776,0.006582383198151365
1789343242067564500,2.037564453125,-0.1179582709044218,0.016441139452159404,-0.0031484084277879445
1789343242077614600,2.047614501953125,-0.10958499483466148,0.01813099223524332,0.000772126016812399
1789343242087664600,2.05766455078125,-0.062087915122508996,0.025161329263448714,0.0005280150626320392
1789343242097713700,2.067713623046875,-0.0171884506881237,0.023416531422734258,-0.014054527443414554
1789343242107763500,2.077763427734375,0.02148994727432728,0.02063976018577814,-0.02836820814651437
1789343242117812700,2.087812744140625,0.010441314515471457,0.0349149537757039,-0.01385652978643775
1789343242127862800,2.09786279296875,-0.006042202773690223,0.026327158172428606,-0.008631287685129791
1789343242137912600,2.10791259765625,-0.019511340677738187,0.05640343974530697,0.008815183751517906
1789343242147961600,2.117961669921875,-0.03952361661493778,0.04864595748633146,0.013800817543826997
1789343242158011600,2.12801171875,-0.036899113330245016,0.01903466307669878,0.0145495170192793
1789343242168060400,2.138060302734375,-0.011546645408868789,0.05442424862682819,-0.013532311933906749
1789343242178110700,2.14811083984375,0.011278934383392333,0.06958236253112554,-0.047274933994608
1789343242188160800,2.158160888671875,0.026689269483089445,0.06334025327116251,-0.05148177456730045
1789343242198209500,2.16820947265625,0.03220890968739986,0.09300532369464636,-0.09608651210512034
1789343242208259600,2.178259521484375,0.017772972577810287,0.10675737019330263,-0.10738428818630054
1789343242218308600,2.18830859375,0.02293430086374283,0.11105945130139588,-0.12522413372155278
1789343242228358400,2.1983583984375,0.01773673222064972,0.1171501693919301,-0.12312506994991562
1789343242238408400,2.208408447265625,-0.036036943542957306,0.06242927590608596,-0.085841048955312
1789343242248457700,2.218457763671875,-0.09080196843147277,0.033113749572634694,-0.05875177470343187
1789343242258507500,2.228507568359375,-0.15217676684856413,0.004272562752664089,-0.055411697894753885
1789343242268557600,2.2385576171875,-0.16669804415404796,-0.0015641805768013,-0.0513447589830961
1789343242278606600,2.248606689453125,-0.16333061354756354,0.026856735004484652,-0.05547678532048594
1789343242288656600,2.25865673828125,-0.10973287887275218,0.005223579867184162,-0.037804519471060484
1789343242298705700,2.26870556640625,-0.06770926213562488,0.005059036955237389,-0.010716249866178258
1789343242308755700,2.278755615234375,-0.049321957051753997,0.00815203453451395,0.028268108772905542
1789343242318805800,2.2888056640625,-0.052720951840281485,-0.008792670525610446,0.05056792939170263
1789343242328854500,2.2988544921875,-0.06885083338618278,0.0018225392520427703,0.03934172984254546
1789343242338904600,2.308904541015625,-0.09665069445967674,-0.008364800502359866,0.029495586474938315
1789343242348953600,2.31895361328125,-0.08704290815889835,-0.01184592061638832,0.04698899319269694
1789343242359003600,2.329003662109375,-0.08133096025288104,-0.030159575942158696,0.05983409918057732
1789343242369053700,2.3390537109375,-0.0720177729845047,-0.02051993319839239,0.07506167985820211
1789343242379102700,2.349102783203125,-0.08976970277428627,0.007241641691327095,0.09288836451778187
1789343242389152500,2.359152587890625,-0.11152560750842094,-0.0004056581914424896,0.0554885716564022
1789343242399201500,2.369201416015625,-0.12764789026975631,0.014048691357672213,0.011404195597721264
1789343242409251600,2.37925146484375,-0.10441489872038363,0.01845949353724718,-0.011796775111882015
1789343242419301600,2.389301513671875,-0.04800444471240043,0.022704583761096,-0.024132022748328742
1789343242429350700,2.3993505859375,0.07259937226474285,0.023938217209279536,-0.025951739855622873
1789343242439400700,2.409400634765625,0.22523148166537282,0.02985007160156965,-0.008689548077853396
1789343242449449500,2.419449462890625,0.25746494127213954,0.04647095153480768,0.023984567968500778
1789343242459499500,2.42949951171875,0.20321429564654825,0.054340369735658166,0.05067170029343106
1789343242469549600,2.439549560546875,0.16668460015058517,0.03866349265426397,0.11126486507984809
1789343242479598600,2.4495986328125,0.08880290356874465,0.013334990130364894,0.08910774086737074
1789343242489648600,2.459648681640625,0.05805354503989219,0.023205519020557404,0.0441833794537466
1789343242499697700,2.46969775390625,0.07063713228106498,0.04953910693377256,0.05436649969075806
1789343242509747500,2.47974755859375,0.043241175833344456,0.11445903061181306,0.025118444536370223
1789343242519797500,2.489797607421875,0.04324994366168976,0.07379968796521424,0.0171306241202401
1789343242529846800,2.4998466796875,-0.10298398913443088,0.03542027294933796,-0.007080135553260334
1789343242539896600,2.509896484375,-0.17372107465863226,0.05618979699462652,-0.0581600330550922
1789343242549945600,2.519945556640625,-0.18869594095051287,0.07932078947424888,-0.05610136065934784
1789343242559995600,2.52999560546875,-0.17897066574990747,0.09310440015494822,-0.04456584856584668
1789343242570045700,2.540045654296875,-0.17799217610657214,0.08581278184205293,-0.05848956183698028
1789343242580094500,2.550094482421875,-0.1982160489678383,0.07090513556748629,-0.07211494518208783
1789343242590144500,2.56014453125,-0.18911504314541816,0.05246873064488172,-0.06486832592154387
1789343242600193500,2.570193603515625,-0.13410861071646213,0.04925444477349519,-0.08161386884748935
1789343242610243600,2.58024365234375,-0.12299743411540984,0.06507336067408323,-0.1059048267508857
1789343242620293600,2.590293701171875,-0.12490998973846434,0.05880319436341524,-0.10222482306389137
1789343242630342700,2.6003427734375,-0.15574351941943168,0.039292438207566734,-0.10085379043901338
1789343242640392400,2.610392333984375,-0.20545418352782724,0.015261282017827033,-0.11170945790903643
1789343242650441700,2.620441650390625,-0.2186497651875019,0.002828501424193382,-0.0840971004979685
1789343242660491800,2.63049169921875,-0.18794658388793467,-0.006366904683411121,-0.06100293289739638
1789343242670541600,2.64054150390625,-0.1150607958972454,-0.0015770400583744047,-0.046375382205843925
1789343242680590600,2.650590576171875,-0.0702700525343418,-0.0017868834167718887,-0.02769217204847373
1789343242690640600,2.660640625,-0.034173487758636475,0.00506897382736206,-0.014967975326790473
1789343242700690400,2.6706904296875,-0.03963526029586792,0.03801408883482218,-0.009441129063558764
1789343242710739700,2.68073974609375,-0.07247311553657054,0.053721653315424917,0.0037259114882210267
1789343242720789800,2.690789794921875,-0.07734978166222573,0.024138708217442035,0.008690073234238661
1789343242730838500,2.700838623046875,-0.050307460957765573,0.023835341356694698,0.02496978874672204
1789343242740888600,2.710888671875,-0.03706277945935726,0.06105389589965343,0.04109380680741742
1789343242750938600,2.720938720703125,-0.00891103620827198,0.0813724613070488,0.047035691011790184
1789343242760987600,2.730987548828125,-0.023357494711875915,0.0829319657087326,0.04134765370432287
1789343242771037700,2.74103759765625,-0.05863982049524784,0.08593699274361133,0.016227304905233903
1789343242781086700,2.751086669921875,-0.0328261648029089,0.08407382922023535,-0.014904559268336743
1789343242791136500,2.761136474609375,-0.028397242444753647,0.11792436863481998,-0.03390522874388843
1789343242801186600,2.7711865234375,-0.013280337333679199,0.12154752756804227,-0.046442246030131355
1789343242811235600,2.781235595703125,0.0422808063685894,0.12610241439342498,-0.04044819324710406
1789343242821285600,2.79128564453125,0.04360299488306045,0.11895634203106165,-0.01748620979199186
1789343242831334700,2.801334716796875,0.04363339002132415,0.10587035822570323,-0.008482855657767505
1789343242841384700,2.811384765625,0.028224808487296103,0.11177373705059289,-0.0009046298226807266
1789343242851434800,2.821434814453125,0.002172667863965034,0.08623831377774477,-0.021547248685825617
1789343242861483500,2.8314833984375,-0.02320902615189552,0.08278437393158673,-0.03950424519418739
1789343242871533600,2.841533447265625,0.007178513327240944,0.05882628297805786,-0.012934263842366634
1789343242881582600,2.85158251953125,0.02602759070396423,0.03896218333989382,-0.0011723225818481295
1789343242891632600,2.861632568359375,0.03455985672771931,-0.004691957208514213,0.01539381322315894
1789343242901682700,2.8716826171875,0.01089957967698574,-0.026166414652764796,0.00834851608783938
1789343242911731700,2.881731689453125,-0.031190088033676146,-0.025184417878091333,-0.011260001354059204
1789343242921781500,2.891781494140625,-0.05674655409455299,0.00670329703092575,-0.022264776704879478
1789343242931830500,2.90183056640625,-0.07185878303050995,-0.013050327970087528,-0.0380702760014683
1789343242941880600,2.911880615234375,-0.10935469321012496,0.0023065233767032623,-0.006200188080687076
1789343242951930600,2.9219306640625,-0.14158172307610511,0.011855272966623306,0.01930892257397063
1789343242961979600,2.931979736328125,-0.16722528289854527,-0.014829904863238335,0.03311912900065072
1789343242972029700,2.94202978515625,-0.16223112787306307,-0.022279051825404166,0.029890175283094865
1789343242982078500,2.952078369140625,-0.13854396281540393,-0.0011126374170184134,0.044019311465835195
1789343242992128500,2.96212841796875,-0.11660860986113547,0.002508183428645134,0.04752521896124817
1789343243002178600,2.972178466796875,-0.13268646895885466,0.028796763156354425,0.02361248325309716
1789343243012227600,2.9822275390625,-0.15003274055719376,0.04511369170695543,0.014990538785047828
1789343243022277600,2.992277587890625,-0.15446867717802523,0.05194324546605348,0.024662385031674054
1789343243032326700,3.00232666015625,-0.08765431805551052,0.08631780875474214,0.03064809011146426
1789343243042376400,3.01237646484375,-0.19378128139078615,-0.05357406153827905,-0.09380843850476667
1789343243052426500,3.022426513671875,-0.17225743184685707,0.0468666728541255,-0.11386083638980053
1789343243062475800,3.032475830078125,-0.054506666213274,0.1036997361883521,-0.13689932828037998
1789343243072525600,3.042525634765625,-0.007900982382893561,0.11741671137362718,-0.14632172067742794
1789343243082575600,3.05257568359375,0.05934183128476143,0.10301321522891521,-0.13454547689692117
1789343243092624600,3.062624755859375,0.11119418359696864,0.04843260699659586,-0.11282739255568013
1789343243102674700,3.0726748046875,0.09390928679704666,-0.015844342602789403,-0.057385418253671376
1789343243112723700,3.0827236328125,0.08825462203621864,0.0160623692676425,-0.014151905136974528
1789343243122773800,3.092773681640625,0.11344283930659294,0.024949440078437326,0.014783453639317302
1789343243132823800,3.10282373046875,0.09500000464320182,0.022821780399978158,0.014660174319520592
1789343243142872600,3.11287255859375,0.09625497314035891,0.03129676327854395,0.01258186107496731
1789343243152922600,3.122922607421875,0.0630377631932497,0.011776947033405304,0.035962964991293846
1789343243162971400,3.132971435546875,0.015375263786315917,0.007292202834784984,0.023622538856230675
1789343243173021400,3.143021484375,-0.030713118171691894,0.0018541034340858458,0.03365298928217962
1789343243183071500,3.153071533203125,-0.05860884083509445,0.012063655020296573,0.0351110426033847
1789343243193120800,3.163120849609375,-0.05878653548955917,0.014530629655718802,0.030288609149307012
1789343243203170600,3.173170654296875,-0.06232172387838363,0.007280512396991253,0.017859500083792952
1789343243213219600,3.183219482421875,-0.051260231637954706,0.023472645524144173,0.01575722144176252
1789343243223269600,3.19326953125,-0.03598609013855457,0.05257803623825311,0.01630762186613865
1789343243233319400,3.2033193359375,-0.0800695620149374,0.07599398313909769,0.011152084000175817
1789343243243368700,3.21336865234375,-0.11016133341789244,0.07288695703446865,0.00651109892707318
1789343243253418800,3.223418701171875,-0.14450667061209677,0.05448240855485201,0.011388121245754883
1789343243263467500,3.233467529296875,-0.18732874425053594,0.031627602668106554,0.016280468997731803
1789343243273517600,3.243517578125,-0.20400047758817672,0.025584230850636956,0.024854884529625997
1789343243283567600,3.253567626953125,-0.17678104675114154,0.027032091571390627,0.002957160172006115
1789343243293616600,3.26361669921875,-0.1338438223004341,0.031549861256778236,0.0033887565223034467
1789343243303666700,3.273666748046875,-0.13211656011641024,0.034169396105408666,-0.008908223196677863
1789343243313715700,3.2837158203125,-0.11483400140404701,0.03688391576111316,-0.008161944007175043
1789343243323765500,3.293765625,-0.10473989289104937,0.03926613472253084,0.0014297314090188592
1789343243333815600,3.303815673828125,-0.10695113919973373,0.008951660479605198,-0.01437321973745711
1789343243343864600,3.313864501953125,-0.13015607369840143,0.014677929171919821,-0.029725696303229777
1789343243353914600,3.32391455078125,-0.0673947893589735,0.007137012273073196,-0.03344379437775351
1789343243363963600,3.333963623046875,-0.02261047573685646,-0.006621463966369629,-0.0028204916476737706
1789343243374013700,3.344013671875,-0.04192892419099808,-0.010093231730163096,0.024783335397066546
1789343243384063700,3.354063720703125,-0.055439563149213784,-0.0070823594763875005,0.007677877684123814
1789343243394112500,3.364112548828125,-0.07939151662290096,0.01756400600224733,0.01795844867993146
1789343243404162600,3.37416259765625,-0.08357377074360847,0.02554009944796562,-0.009736782975308597
1789343243414211600,3.384211669921875,-0.055634208938479424,0.06125818630009889,-0.0375926668186672
1789343243424261600,3.39426171875,-0.0452870024472475,0.07795037790387868,-0.04208715609316714
1789343243434311700,3.404311767578125,-0.04450315859317779,0.08426029170304536,-0.03820105364113115
1789343243444360400,3.4143603515625,-0.05113339038789272,0.07067863333523274,-0.056044031848385925
1789343243454410500,3.424410400390625,-0.0498924504160881,0.08412702071219683,-0.035549799346830696
1789343243464460500,3.43446044921875,-0.029134909069538115,0.09411971467733382,-0.011118108665337785
1789343243474509800,3.444509765625,-0.033932080218195916,0.07202157237678766,-0.019786687020398677
1789343243484559600,3.4545595703125,-0.0363245283126831,0.05992986030578613,-0.0014353574322070926
1789343243494608600,3.464608642578125,-0.05659165579378605,0.07569441567063331,-0.016673587368009612
1789343243504658700,3.47465869140625,-0.06846914059221744,0.06335311275273561,-0.026648197687184436
1789343243514708500,3.48470849609375,-0.052642041385173796,0.058204351687431335,-0.017587094616889953
1789343243524757500,3.494757568359375,-0.09016834670305252,0.06942337257713078,-0.025757760786637662
1789343243534807800,3.504807861328125,-0.10517536169886589,0.04595131157487631,-0.007201629341347143
1789343243544856600,3.514856689453125,-0.061228083422780036,0.061842708189785475,0.026385080638434737
1789343243554906600,3.52490673828125,-0.032843115937709805,0.06020166298449039,0.026435943175991995
1789343243564956700,3.534956787109375,-0.04833002340495586,0.05948971532285213,0.03264551100637764
1789343243575005400,3.54500537109375,-0.09564239419996738,0.06645896981358528,0.009498042315989733
1789343243585055500,3.555055419921875,-0.09034194970428944,0.08071107478886842,-0.00923628610726446
1789343243595104800,3.565104736328125,-0.0856944161593914,0.06871873143911361,-0.007225759135605767
1789343243605154600,3.575154541015625,-0.05585340464711189,0.06572013414502144,0.0014795162343420086
1789343243615204600,3.58520458984375,-0.03680091365277767,0.04249298781454563,0.035165403139125556
1789343243625253600,3.595253662109375,-0.01443359902203083,0.05782236663252115,0.04165176948374137
1789343243635303400,3.605303466796875,-0.023975334349274634,0.04317220225036144,0.053045069228112696
1789343243645352700,3.615352783203125,-0.02652794144153595,0.051717620016634464,-0.00040039749443531033
1789343243655402800,3.62540283203125,-0.06268646553754806,0.05648381150513887,-0.03540050880294293
1789343243665452800,3.635452880859375,-0.10402210001051425,0.057469607672095295,-0.060488992025889456
1789343243675501600,3.64550146484375,-0.07506137846410274,0.0688780136540532,-0.08819301890893838
1789343243685551600,3.655551513671875,-0.04967500827312469,0.10075929882228374,-0.09616551389177329
1789343243695600400,3.665600341796875,-0.018335867157578466,0.12458996400386094,-0.10575362737770191
1789343243705650700,3.675650634765625,0.016695698735117913,0.13738164103776215,-0.08614967651306651
1789343243715700700,3.68570068359375,0.04605097255706787,0.132417296628654,-0.05017390683912672
1789343243725749500,3.69574951171875,0.041027591437101364,0.1382338739529252,-0.03078913341681473
1789343243735799600,3.705799560546875,0.030984920850396155,0.1193394961297512,-0.005788565939338877
1789343243745849600,3.715849609375,0.00827273830473423,0.08540157069265841,0.021401556604821233
1789343243755898600,3.725898681640625,-0.04673077151477337,0.055343409298360347,0.04391510217268951
1789343243765948400,3.735948486328125,-0.06759352680146694,0.03504530215710401,0.05647022137120366
1789343243775997700,3.745997802734375,-0.10205635289549828,0.04023439523279667,0.0662001910132356
1789343243786047700,3.7560478515625,-0.1261585284948349,0.04797375731319189,0.06598619206952862
1789343243796097500,3.76609765625,-0.14142740929722786,0.05964928979873657,0.056462485589319836
1789343243806146600,3.776146484375,-0.12521978633999825,0.052658115737140174,0.043207593224151054
1789343243816196600,3.786196533203125,-0.08798048126995563,0.02869417956471443,0.04122102251681499
1789343243826245600,3.79624560546875,-0.06507599102258682,0.0016097732841968534,0.047214088919153435
1789343243836295700,3.806295654296875,-0.06610650311410426,-0.02599544200003147,0.048748988602543245
1789343243846345700,3.816345703125,-0.05500234077572822,-0.02074000568985939,-0.0013820198097731918
1789343243856394500,3.82639453125,-0.022403554987907408,0.003167231859266758,-0.03282433817200363
1789343243866444500,3.836444580078125,-0.023783611169457434,0.02471358549594879,-0.048689111641468476
1789343243876493600,3.84649365234375,-0.007311199796199798,0.03526858951896429,-0.04726384177843574
1789343243886543600,3.856543701171875,-0.05627718301713466,0.022309154702723023,-0.028002941330964676
1789343243896593700,3.86659375,-0.07754092032015324,0.025654081216454506,-0.04071679018856957
1789343243906642400,3.876642333984375,-0.1090221002548933,0.02477028411924839,-0.03775738782712724
1789343243916692500,3.8866923828125,-0.09757248547971248,0.017504092508554458,-0.05606994260777719
1789343243926741200,3.8967412109375,-0.07281739892959595,0.03750760061740875,-0.0825304996352177
1789343243936791300,3.906791259765625,-0.037215339672565455,0.056908466657996176,-0.07874003044422716
1789343243946841600,3.916841552734375,0.0038204350709915157,0.05120528658032417,-0.07204383444094564
1789343243956890400,3.926890380859375,0.03817746270298958,0.06586889496594667,-0.04621689914192539
1789343243966940400,3.9369404296875,0.018232406783103942,0.0698629330381751,-0.027920934736472554
1789343243976989400,3.946989501953125,-0.015418518406152725,0.07687661119252442,-0.042598009958444163
1789343243987039200,3.957039306640625,-0.03130933049917221,0.07517389892786741,-0.028178562759351915
1789343243997089300,3.96708935546875,-0.09777239196598529,0.09578677110671996,-0.06278260568866971
1789343244007138600,3.977138671875,-0.1085819552719593,0.10419073457568884,-0.0787437567712739
1789343244017188400,3.987188232421875,-0.06450842026770115,0.0914455270320177,-0.08404385420707985
1789343244027238400,3.99723828125,-0.03423193994760513,0.09178016581386327,-0.05050445396774448
1789343244037287400,4.007287353515625,-0.003243511965870857,0.08768237510621547,-0.030671425321279092
1789343244047337200,4.017337158203125,-0.007255670216679572,0.08337649460583925,-0.014772060029045677
1789343244057386500,4.027386474609375,-0.009012158495187758,0.06615034225583076,-0.01780359604493715
1789343244067436500,4.0374365234375,-0.002900397616624832,0.06833908447176218,-0.050064843274350276
1789343244077486600,4.047486572265625,-0.0005173018723726272,0.03352612976580858,-0.018369376701535656
1789343244087535400,4.057535400390625,-0.06911971345543862,0.01108867250829935,0.006277988857519813
1789343244097585400,4.06758544921875,-0.2390320434808731,0.00395575188845396,-0.007625202215393073
1789343244107634400,4.077634521484375,-0.1129039101243019,0.060652913883328434,-0.018081641234760172
1789343244117684500,4.0876845703125,-0.11406535511910915,0.06294014803767203,-0.01866828201629687
1789343244127734500,4.097734619140625,-0.019279285487532615,0.07773907324075699,0.010416138975019567
1789343244137783300,4.107783203125,0.0026408698976039886,0.04791910451650619,-0.029090974029689094
1789343244147833300,4.117833251953125,0.0408341146916151,0.029825813943147657,0.00030553598494734613
1789343244157882400,4.12788232421875,0.02530395260453224,0.023389643415808677,0.018050378446816465
1789343244167932400,4.137932373046875,0.014051321706175804,0.0631532062664628,0.018563410569448022
1789343244177982200,4.147982177734375,0.11786065574884413,0.09512392328381537,0.0008166501451283693
1789343244188031500,4.158031494140625,0.11555588593780994,0.051261108420789236,-0.04327147507348563
1789343244198081500,4.16808154296875,-0.08561433666050433,0.0352551455155015,-0.07379458709841127
1789343244208130300,4.17813037109375,-0.14217150566279887,0.0010468787044286727,-0.07506196298599242
1789343244218180400,4.188180419921875,-0.190959794229269,-0.02578063020557165,0.04202547076749615
1789343244228230400,4.19823046875,-0.10835165364742279,0.017860650861263275,0.12689819528046065
1789343244238279400,4.208279541015625,0.02575929515659809,0.1539426074773073,0.1764221868434921
1789343244248329500,4.21832958984375,-0.005813654714822769,0.16907003398239612,0.15090113915586842
1789343244258378500,4.22837841796875,-0.05274900889098644,0.1462614053249359,0.11596921597905456
1789343244268428300,4.23842822265625,-0.1324012222766876,0.12320377034246921,0.04970838538634125
1789343244278478300,4.248478271484375,-0.2415548399567604,0.06471855588704348,-0.034964051331148945
1789343244288527600,4.258527587890625,-0.24102409408092498,0.01683569172769785,-0.06843879568630364
1789343244298577400,4.268577392578125,-0.1425841781169176,-0.02262567330598831,-0.10519465092122554
1789343244308626400,4.27862646484375,-0.06530570812523365,-0.016023206301033495,-0.15729489531358704
1789343244318676500,4.288676513671875,0.06982523137629032,0.04471826264858245,-0.1459407128700521
1789343244328726300,4.298726318359375,0.14861235236525536,0.05505290191918611,-0.12166509866626002
1789343244338775300,4.308775390625,0.1172434006333351,0.06873626709580422,-0.10873671657540834
1789343244348825300,4.318825439453125,0.052991000953316686,0.05827274074852466,-0.07117718027478549
1789343244358875400,4.32887548828125,0.03790156837105751,0.04212532354593277,-0.05572297863389831
1789343244368924400,4.33892431640625,0.034308512315154076,0.012136427995562553,-0.020400416738260537
1789343244378974500,4.348974365234375,-0.05049509248435497,0.020702304027974603,-0.0249367381437798
1789343244389023200,4.359023193359375,-0.06590835019350051,0.01784165389984846,-0.025152056828315835
1789343244399073300,4.3690732421875,-0.030832945159077644,0.024875498059391973,-0.025094839898496864
1789343244409123300,4.379123291015625,-0.10315817665755748,0.08223784596472979,-0.04272429408608004
1789343244419172400,4.38917236328125,-0.07304711603224277,0.06607493893206119,-0.03812524160869652
1789343244429222400,4.399222412109375,-0.011597498813271523,0.06277239025533199,0.025006798572151455
1789343244439271400,4.409271484375,-0.05945756661891937,0.05527852736860513,0.004880496342334663
1789343244449321500,4.419321533203125,-0.07653320458233356,0.03650982175171375,0.022708145691361276
1789343244459371300,4.429371337890625,-0.03625146307647228,0.02260346147418022,0.037083922712085764
1789343244469420500,4.439420654296875,0.0014759177714586257,-0.02883884873241186,0.05706151092839427
1789343244479470600,4.449470703125,-0.05675941357612609,0.037111879298090934,0.021893116681161336
1789343244489519400,4.459519287109375,-0.06965279741883278,0.03748626556843519,-0.04396722051899414
1789343244499569400,4.4695693359375,-0.08253449082374573,0.04497720584571361,-0.04509400062579661
1789343244509619500,4.479619384765625,-0.05851005663573742,0.04925707512199878,-0.03256940214642091
1789343244519668200,4.489668212890625,-0.0150187054336071,0.07533171983808279,-0.025017897638189606
1789343244529718300,4.49971826171875,0.038622283861041065,0.0013479074776172636,-0.04066719715949148
1789343244539767600,4.509767578125,-0.015354805520176887,0.020358605156838894,-0.06376582173947244
1789343244549817300,4.5198173828125,0.005200491252541542,0.09428338080644608,-0.05583417022367939
1789343244559867400,4.529867431640625,-0.009486205747723579,0.08833031762093305,-0.04333827496569138
1789343244569916400,4.53991650390625,-0.0055716626524925225,0.08364858954548836,-0.04524171113395132
1789343244579966200,4.54996630859375,-0.036249124988913535,0.09773995100110769,-0.02224512672291603
1789343244590016300,4.560016357421875,-0.04979600430428981,0.0918026699066162,-0.01631771171860164
1789343244600065500,4.5700654296875,-0.047802200138568875,0.10702215860933065,-0.027074053849861956
1789343244610115300,4.580115234375,-0.045666357153654094,0.08216127359718084,-0.035122422513924535
1789343244620164400,4.590164306640625,-0.05906885956227779,0.05319996752887964,-0.015173838913103099
1789343244630214400,4.60021435546875,-0.05188917719125748,0.03048457011282444,-0.008224474149639718
1789343244640264400,4.610264404296875,-0.007832008799910545,0.026892390839755535,-0.00612864351470489
1789343244650313500,4.6203134765625,0.033493688800930975,0.06999941889941692,0.03714083139793947
1789343244660363500,4.630363525390625,0.1339490362405777,0.18604805679023265,0.07891793516124598
1789343244670412300,4.640412353515625,0.089214406979084,0.12125994279831648,0.06794552771006711
1789343244680462300,4.65046240234375,0.08051262960731982,-0.017515198424458502,0.040837324995431114
1789343244690512400,4.660512451171875,-0.05137888958156109,0.02250380049198866,-0.010166255867178552
1789343244700561400,4.6705615234375,-0.12348843250274658,0.017395371437072753,-0.07533289801501669
1789343244710611500,4.680611572265625,-0.19795418316125868,0.01932049428075552,-0.11980742416875437
1789343244720660500,4.690660400390625,-0.21516659924685955,0.04012158250808716,-0.15471697111697866
1789343244730710500,4.70071044921875,-0.1898971334338188,0.03148585610985756,-0.1567346493486315
1789343244740760300,4.71076025390625,-0.11808218954503535,-0.032543840730190274,-0.12532605059291235
1789343244750809300,4.720809326171875,-0.1350555361777544,-0.08840542868375778,-0.07194388119780924
1789343244760859400,4.730859375,-0.07787643588483333,-0.08626023334860801,-0.00771747904215008
1789343244770908400,4.740908447265625,-0.0387777666836977,-0.03827624690234661,0.021470594119885934
1789343244780958500,4.75095849609375,-0.026402269235253333,-0.01692892296910286,0.03222026219847612
1789343244791008500,4.761008544921875,-0.0767798728197813,-0.0025637130081653595,0.052939773089578375
1789343244801057300,4.771057373046875,0.01289338384270668,0.07778992664515971,0.027980140410689636
1789343244811107300,4.781107421875,-0.09492752392888068,0.01285159052759409,0.02280806240187958
1789343244821156600,4.791156494140625,-0.14896248097717762,-0.07726590277105569,0.03808946475912817
1789343244831206400,4.801206298828125,-0.0652332274109125,-0.11497428665757178,0.09718576031760312
1789343244841256400,4.81125634765625,-0.11419453445672988,-0.08372107025980949,0.07989734725318849
1789343244851305500,4.821305419921875,-0.30149113000333305,-0.2222413599386811,0.20388740913514047
1789343244861355300,4.831355224609375,-0.08542085991501808,-0.3062237114831805,0.09065874230219051
1789343244871405300,4.8414052734375,0.15911328811347483,-0.19766221447736024,0.01454803744824603
1789343244881454600,4.85145458984375,0.724905342888832,-0.21791268308460712,-0.05431795697445049
1789343244891504400,4.86150439453125,0.6941629986226558,-0.37726474839001894,-0.13086796656111255
1789343244901553400,4.871553466796875,0.4991074595123529,-0.4829539048299193,-0.20497944215554742
1789343244911603500,4.881603515625,0.6081032562822103,-0.4092024399206042,0.039610381582938135
1789343244921653500,4.891653564453125,0.6549053394675255,-0.18359803328961133,0.27151962397918106
1789343244931702300,4.901702392578125,0.4970253925412893,-0.03285568315833807,0.5264476671848446
1789343244941752300,4.91175244140625,0.27597791856229303,0.06869622734636067,0.7718984916668384
1789343244951801600,4.921801513671875,-0.7893056266069411,0.21078882255405187,0.773156382773444
1789343244961851600,4.9318515625,-2.5947066968441006,0.45841070746481416,0.5049174974979832
1789343244971901400,4.9419013671875,-2.6690654799968003,0.9114365070208906,0.5928804065786302
1789343244981950500,4.951950439453125,-1.208760872733593,0.9145707133933901,0.7361518363073468
1789343244992000500,4.96200048828125,0.3222393189996481,0.7036398520201445,0.32786800906900315
1789343245002049500,4.972049560546875,1.258919865131378,0.31018881572186946,-0.05034713538102805
1789343245012099600,4.982099609375,1.172519931051135,0.21662527362257242,0.04584920290727168
1789343245022149600,4.992149658203125,0.1472322961837053,0.3445025887340307,0.18130290808975696
1789343245032198400,5.002198486328125,-0.007076806518435477,0.5117895386919379,-0.10224909898862242
1789343245042248400,5.01224853515625,-0.07132803715467452,0.6892898396283388,-0.6206918119594454
1789343245052297500,5.02229736328125,-0.34443829132616516,0.574087881694734,-0.5365671658674255
1789343245062347500,5.032347412109375,-0.5186258144527673,0.21597323945462701,-0.1417357080614194
1789343245072397600,5.0423974609375,-0.32315994097590445,0.020189093808829783,0.1932366165874526
1789343245082446600,5.052446533203125,-0.2184568729639053,0.0668742726162076,0.403800361681357
1789343245092496400,5.062496337890625,-0.2585597507715225,0.3082315441742539,0.4514960327055305
1789343245102546400,5.07254638671875,0.020492752930521965,0.43899493611603974,0.42212008142173285
1789343245112595500,5.082595458984375,0.15384440779983996,0.4314864601820707,0.4200337401343509
1789343245122645500,5.0926455078125,0.3002951982170343,0.40795448568612336,0.37791020668670533
1789343245132694500,5.102694580078125,0.5483499215871095,0.2826440984532237,0.3248956787273288
1789343245142744600,5.11274462890625,0.6757628340572118,0.0897159267604351,0.23197438005432486
1789343245152794600,5.122794677734375,0.6336299117267131,-0.07617197005450725,0.024496435613930223
1789343245162843400,5.132843505859375,0.4773188215523958,-0.13809446548223495,0.004264890902861952
1789343245172893400,5.1428935546875,0.38347032503187656,-0.07362666948586702,0.11919818796291946
1789343245182942500,5.1529423828125,0.3695663028419018,0.05838204634189605,0.20657113179378211
1789343245192992500,5.162992431640625,0.25078327155113217,0.14535890352725983,0.14739040935486555
1789343245203042600,5.17304248046875,0.04768529576063156,0.17187077061682937,0.052959144510328765
1789343245213091300,5.18309130859375,-0.12727964147925377,0.11331658257842063,-0.06378496483135968
1789343245223141400,5.193141357421875,-0.24267127676606176,0.031736323739588256,-0.18921485025808213
1789343245233190700,5.203190673828125,-0.252626269069314,0.01390899062603712,-0.17203849186655132
1789343245243240700,5.21324072265625,-0.11271861668527125,-0.026323651041090485,-0.11067655293103307
1789343245253290500,5.22329052734375,-0.08330605971813201,-0.0038610593423247337,-0.061777387868613004
1789343245263339500,5.233339599609375,-0.07516542336046696,0.03911620485782623,-0.045423122982308266
1789343245273389600,5.2433896484375,-0.07865677260756491,0.03772504276037216,-0.0764288674250245
1789343245283439400,5.253439453125,0.012223521757125854,0.08703150998204946,-0.09716456226594745
1789343245293488400,5.26348828125,0.07692541877031325,0.17774638465195894,-0.05881532319262624
1789343245303538700,5.27353857421875,-0.07393734287023544,0.22991174843609333,-0.10791750001385807
1789343245313587500,5.28358740234375,-0.2649105811029672,0.1511383637115359,-0.24358702163780108
1789343245323637500,5.293637451171875,-0.329906492626667,0.07151070024520158,-0.26043195611787956
1789343245333687600,5.3036875,-0.2621224116891622,0.025505320395529267,-0.17284894973291084
1789343245343736300,5.313736328125,-0.05642623609900474,-0.03787672619074583,-0.0332106523421593
1789343245353786400,5.323786376953125,0.10720599074363708,-0.07456453485786914,0.07781984685938804
1789343245363835600,5.333835693359375,0.1622603539675474,-0.07314034727364778,0.11633706291075795
1789343245373885400,5.343885498046875,0.1404746386170387,-0.030730946089327332,0.13733957372801378
1789343245383935500,5.353935546875,0.10850947455763817,0.022784078738093374,0.1042627768985927
1789343245393984500,5.363984619140625,0.06193477038741112,0.013396657189726829,0.10525931365527212
1789343245404034300,5.374034423828125,-0.03567453997135162,-0.019878712685406207,0.0945148332084529
1789343245414083600,5.38408349609375,-0.15777181037664412,-0.1354477503657341,0.06931463323934003
1789343245424133600,5.394133544921875,-0.18467092321813106,-0.273644799439609,0.07269974563298746
1789343245434183700,5.40418359375,-0.20287527295053004,-0.4071791173994541,0.12830293837869539
1789343245444232400,5.414232421875,-0.13075228602588176,-0.3844514450237155,0.19553873778367414
1789343245454282500,5.424282470703125,-0.022825579792261123,-0.20859598868489265,0.26808323805602263
1789343245464332500,5.43433251953125,0.05488718996345997,-0.03869505683630705,0.3377523107562214
1789343245474381600,5.444381591796875,0.04931026661396026,0.08198328668177127,0.39926483714357014
1789343245484431600,5.454431640625,-0.030741759744286536,0.1317266840159893,0.37394554083943365
1789343245494480400,5.46448046875,-0.10053834954798221,0.12564940992891788,0.37307379950620234
1789343245504530400,5.474530517578125,-0.18548750029802322,0.08586743463873862,0.3257821061730385
1789343245514580500,5.48458056640625,-0.3063432462096214,0.08215250576883554,0.21089670337531716
1789343245524629500,5.49462939453125,-0.3387444635987282,-0.019854747287929058,0.08357503111893311
1789343245534679300,5.50467919921875,-0.32990824619233605,-0.1751996227785945,0.024641214379481968
1789343245544728600,5.514728515625,-0.3194365365386009,-0.27212913417965173,0.00812017809152603
1789343245554778600,5.524778564453125,-0.2839730089694261,-0.35459815855175253,0.004206895371619611
1789343245564828400,5.534828369140625,-0.2491355043441057,-0.2686798705086112,0.037816995360143484
1789343245574877400,5.54487744140625,-0.21663842536509037,-0.15146861857920885,0.06957249872423708
1789343245584927500,5.554927490234375,-0.24193477918505668,-0.0019455811098217962,0.007975581989064812
1789343245594976500,5.5649765625,-0.25696400601267816,0.10589520040601491,-0.030826625016145408
1789343245605026600,5.575026611328125,-0.23357728520631788,0.1233759120389819,-0.0697231957739219
1789343245615076600,5.58507666015625,-0.1888379797697067,0.049261751297116275,-0.07072864648941904
1789343245625125400,5.59512548828125,-0.18667524877786634,-0.024442659600079058,-0.03830638631228357
1789343245635175400,5.605175537109375,-0.1880330931276083,-0.09716448920071125,-0.05868501134384423
1789343245645224400,5.615224365234375,-0.23154373355209826,-0.12911328664720056,-0.11782960302345453
1789343245655274500,5.6252744140625,-0.3028577421814203,-0.08517419167757034,-0.13798724224809555
1789343245665324500,5.635324462890625,-0.4232815264165401,0.006315174496173858,-0.1509384937578812
1789343245675373600,5.64537353515625,-0.394517788746953,0.057903322914242744,-0.14655465265046805
1789343245685423400,5.65542333984375,-0.3475181371629238,0.09359802889078855,-0.03727726246025413
1789343245695473400,5.665473388671875,-0.31387539528012276,0.1526093130469322,0.0998213238524273
1789343245705522400,5.6755224609375,-0.24405776268839835,0.20278291849195956,0.2425163054000586
1789343245715572500,5.685572509765625,-0.23638942001760005,0.29410949531942604,0.324574155155383
1789343245725621500,5.69562158203125,-0.1869429598033428,0.32502164319455623,0.28676176290512084
1789343245735671600,5.705671630859375,-0.10421499223411082,0.30690438722372054,0.26752730294000354
1789343245745721600,5.7157216796875,-0.011326280656456947,0.1892968294531107,0.3581581525882706
1789343245755770400,5.725770263671875,0.17518997816741466,-0.027435703936219212,0.5547874072887004
1789343245765820400,5.7358203125,0.3649813131392002,-0.13120675179511307,0.7317638304814695
1789343245775869400,5.745869384765625,0.2727174554616213,-0.08804711676537991,0.7233176353059708
1789343245785919500,5.75591943359375,-0.06476444085538387,0.1630272466868162,0.5110173487430438
1789343245795969500,5.765969482421875,-0.419326066789031,0.37169659286886453,0.4729718783892691
1789343245806018600,5.7760185546875,-0.5463754066437483,0.20592560043185948,0.7595889721266925
1789343245816068400,5.786068359375,-0.4563344857126474,0.05832476319670677,1.0137411355890333
1789343245826118400,5.796118408203125,-0.39082419492602344,-0.23435586836338043,0.9465614502854645
1789343245836167700,5.806167724609375,-0.30486849748194217,-0.5450464961275459,0.7971826435923576
1789343245846217500,5.816217529296875,0.10277531481981277,-0.3644593350917101,0.5061158039044589
1789343245856266500,5.8262666015625,0.08796528370082378,-0.009182254365086556,0.05921447857804596
1789343245866316500,5.836316650390625,-0.03561725682616233,0.3556076278552413,-0.1310420627526939
1789343245876366300,5.846366455078125,-0.35746202355027196,0.5102107450678944,0.11923318621106445
1789343245886415400,5.856415283203125,-0.5993371815025806,0.5835667809188365,0.3104862642984837
1789343245896465700,5.866465576171875,-0.6461702443480491,0.5108168942674994,0.3334236339021474
1789343245906515700,5.876515625,-0.6753910781353711,0.36580519674271345,0.28805202191136775
1789343245916565500,5.8865654296875,-0.6067354750603438,0.26047026056796313,0.2082184606093913
1789343245926615600,5.896615478515625,-0.4984925424844026,0.01884030954837799,-0.020776465242728588
1789343245936664600,5.90666455078125,-0.36014673258960245,-0.27151246358603237,-0.19146204466298222
1789343245946714400,5.91671435546875,-0.3040466597050428,-0.5482037911146879,-0.23390147565938532
1789343245956763400,5.926763427734375,-0.5891431197464466,-0.7020283251702785,-0.31188392920196056
1789343245966813400,5.9368134765625,-0.6698083095669746,-0.6345213076084851,-0.34963761353492734
1789343245976863500,5.946863525390625,-0.7060778928220272,-0.3171937260478735,-0.2896399486899376
1789343245986912500,5.95691259765625,-0.7446160055309534,0.16217764412015676,-0.3552143907539546
1789343245996962600,5.966962646484375,-0.5012848035514355,0.42980625201016665,-0.5064836873687804
1789343246007011300,5.97701123046875,-0.17935060497820376,0.2687266322597861,-0.46011312746852634
1789343246017061400,5.987061279296875,0.30399171464741226,0.058552726733684536,-0.32194676579385995
1789343246027111400,5.997111328125,0.7123667638331651,-0.12820435510873793,-0.25543518901020285
1789343246037160400,6.007160400390625,0.9208873491942882,-0.22531594507843256,-0.2535137194283306
1789343246047210500,6.01721044921875,0.9940548767358064,-0.1680675789415836,-0.13357464997023344
1789343246057260500,6.027260498046875,0.9409791201084852,-0.06356617098152637,-0.01163023203909397
1789343246067309300,6.037309326171875,0.6681897684544325,0.005397182868421078,-0.05122194545418024
1789343246077359400,6.047359375,0.4481494256913662,0.050527825710177415,-0.10413871212750672
1789343246087408600,6.05740869140625,0.37218963708281516,-0.07227204000651836,-0.1715650656685233
1789343246097458400,6.06745849609375,0.23268588932454584,-0.26371640288233755,-0.18526377454474569
1789343246107508500,6.077508544921875,0.1765513296484947,-0.2876356231302023,-0.10379033708125353
1789343246117557500,6.0875576171875,0.17737609003484248,-0.09983429293185472,-0.06255845524370669
1789343246127607600,6.097607666015625,0.037083822247385975,0.15684154378920792,-0.21325711236372588
1789343246137656600,6.107656494140625,-0.17173194666802882,0.25922756703048944,-0.3647947045259177
1789343246147706600,6.11770654296875,-0.20922025806307792,0.22041531355530022,-0.4698334342330694
1789343246157756700,6.127756591796875,-0.16299509798288345,0.1548024391770363,-0.5580027160733938
1789343246167805400,6.137805419921875,-0.001418050104379654,0.12320873877853154,-0.5612536806933581
1789343246177855500,6.14785546875,0.23473288498222827,0.07055033078044652,-0.5511882137529551
1789343246187904500,6.157904541015625,0.33693712191581726,0.019043723165988923,-0.6016447277925908
1789343246197954300,6.167954345703125,0.365045026025176,-0.02546557290703058,-0.6178529352717101
1789343246208004400,6.17800439453125,0.46472295935153957,-0.096521515122056,-0.6256881589420139
1789343246218053600,6.1880537109375,0.5891419507026672,-0.14449118078202008,-0.5628694453269243
1789343246228103400,6.198103515625,0.6320078634828329,-0.13284136725962162,-0.5597155113406479
1789343246238153500,6.208153564453125,0.6998971583604813,-0.12440554734766482,-0.49888840993419287
1789343246248202500,6.218202392578125,0.8363508708983659,-0.07546177595853805,-0.4548099064938724
1789343246258252300,6.228252197265625,0.7748778728038073,-0.04600158045738935,-0.3749883278906345
1789343246268301600,6.238301513671875,0.670717825627327,-0.008851414975523948,-0.278975054551661
1789343246278351600,6.2483515625,0.5756348188757896,0.0713791828200221,-0.2726157486528158
1789343246288401400,6.2584013671875,0.35316286505162714,0.0785506818845868,-0.33362317506223915
1789343246298450400,6.268450439453125,0.15051614015996456,0.012344517788290977,-0.37007322945073245
1789343246308500500,6.27850048828125,-0.010227964025735855,-0.08473258538991213,-0.3578950081400573
1789343246318549500,6.288549560546875,-0.1694143173754215,-0.15749650056660175,-0.35192850095108147
1789343246328599600,6.298599609375,-0.31051147180497646,-0.22238807493299245,-0.3737780753180384
1789343246338649600,6.308649658203125,-0.28290859460830686,-0.24309710096269846,-0.3450323116965592
1789343246348698400,6.318698486328125,-0.1553244172245264,-0.15291647929996252,-0.19811068889722228
1789343246358748400,6.32874853515625,-0.003419453054666519,-0.03852408418357372,-0.04402618873119354
1789343246368797400,6.33879736328125,0.023876550149917602,-0.019190145899355412,0.0053548050314188
1789343246378847500,6.348847412109375,-0.025932898157835005,-0.09689765495806932,0.006756196261942386
1789343246388897500,6.3588974609375,-0.10387012431919575,-0.20927257277220487,-0.02319821249693632
1789343246398946600,6.368946533203125,-0.17844751865863798,-0.24177491244822738,-0.07832198769524693
1789343246408996600,6.37899658203125,-0.18949907402694224,-0.23477847768962382,-0.09811009948775172
1789343246419046400,6.38904638671875,-0.20477438457012176,-0.24374387443363665,-0.06014861762300133
1789343246429095400,6.399095458984375,-0.3239081289947033,-0.17603256647139787,-0.04662015074715018
1789343246439145500,6.4091455078125,-0.5951490821629762,-0.07334317636936903,-0.11214359327629207
1789343246449194500,6.419194580078125,-0.7715040124565362,0.007755436432361602,-0.13567498325034974
1789343246459244500,6.42924462890625,-0.7993342686682939,0.14827829810529947,-0.14884791468679903
1789343246469294600,6.439294677734375,-0.7350105573177337,0.2917939118534326,-0.10562661259770392
1789343246479343400,6.44934326171875,-0.5516197370380163,0.3107189770758152,-0.05118848157599568
1789343246489393400,6.459393310546875,-0.33508886370062824,0.1916840168505907,-0.002177197908610105
1789343246499442700,6.469442626953125,-0.2336895134091377,-0.0771519210025668,0.10093626282438635
1789343246509492500,6.479492431640625,-0.17168576943874359,-0.2071826147556305,0.16194412762522697
1789343246519542500,6.48954248046875,-0.18300152870118616,-0.1867491907969117,0.15143983087614177
1789343246529591600,6.499591552734375,-0.21533961772620677,-0.08987199410498142,0.1336884856082499
1789343246539641300,6.509641357421875,-0.18117372875213622,0.010986965699493884,0.17203195252791045
1789343246549690400,6.5196904296875,-0.10959434718489647,0.06546528260111809,0.21327362510710954
1789343246559740400,6.529740478515625,-0.07857201693356036,0.0686404055058956,0.2148030266314745
1789343246569790500,6.53979052734375,-0.026364275312423704,0.03380027053207159,0.22264511843398213
1789343246579839500,6.549839599609375,-0.027728549402952194,0.025375556536018848,0.2251582702986896
1789343246589889500,6.5598896484375,-0.18589841918647287,0.016874270172417164,0.2440695992566645
1789343246599939600,6.569939697265625,-0.36977205454707146,0.0317716873139143,0.158744600931555
1789343246609988400,6.57998828125,-0.6523229217588901,-0.05562690241485834,0.0691878102555871
1789343246620038400,6.590038330078125,-0.6063999594956636,-0.07051409042328596,-0.007041589074581861
1789343246630087400,6.60008740234375,-0.46415421955287456,-0.036250878554582595,-0.013832856649905443
1789343246640137500,6.610137451171875,-0.37507834426164627,-0.1200321545690298,0.04692892443537712
1789343246650187500,6.6201875,-0.23857202475368974,-0.12361118209958076,0.07693944729566574
1789343246660236500,6.630236572265625,-0.1703565666615963,-0.10996639536768198,0.061220484638214105
1789343246670286300,6.640286376953125,-0.06841244196891784,-0.10801058512479066,0.11478826256617904
1789343246680335600,6.650335693359375,0.09510288049578666,-0.11073153452128172,0.1441860603556037
1789343246690385700,6.6603857421875,0.30180501825809475,-0.1283458094060421,0.2320171962827444
1789343246700435500,6.670435546875,0.49602118393480776,-0.18801205033957957,0.28918256031125783
1789343246710484500,6.680484375,0.5633376473605632,-0.26257687745839353,0.24362492422908544
1789343246720534500,6.690534423828125,0.421047483754158,-0.28506606490314007,0.10250906509906053
1789343246730583600,6.70058349609375,0.2608446468383074,-0.22494272785186767,-0.08962254938855767
1789343246740633600,6.710633544921875,0.10041852256059645,-0.05122048414945602,-0.21539543956667184
1789343246750683600,6.72068359375,0.019039631512761116,0.10979951436817645,-0.30793343801051376
1789343246760732400,6.730732421875,-0.09434943177998065,0.19736410831362008,-0.33127193576097486
1789343246770782500,6.740782470703125,-0.10862345632612705,0.2704845818430185,-0.2606093767777085
1789343246780832500,6.75083251953125,-0.17423603844344615,0.32276568096131086,-0.1719916205175221
1789343246790881300,6.76088134765625,-0.19105974747240542,0.3342328313931823,-0.09621361821666359
1789343246800931300,6.770931396484375,-0.25635318063795565,0.3887573255240917,-0.06082827045023441
1789343246810980600,6.780980712890625,-0.417505865624547,0.4046443382248282,-0.11590440711453556
1789343246821030400,6.791030517578125,-0.49151919634044167,0.363176309543848,-0.25045506251007316
1789343246831080400,6.80108056640625,-0.5259644867777824,0.26829145571291446,-0.3604112287446856
1789343246841129500,6.81112939453125,-0.4234364247173071,0.1002121863335371,-0.2807316889606416
1789343246851179500,6.821179443359375,-0.327274975079298,-0.0046431496307253834,-0.14703136678412557
1789343246861228500,6.831228515625,-0.3559972116947174,0.049510173100233076,-0.15859540171921252
1789343246871278600,6.841278564453125,-0.2511310620754957,0.2499652331665158,-0.16251725133806466
1789343246881328600,6.85132861328125,0.016160861206054686,0.48944180554449557,-0.09594780688732862
1789343246891377400,6.86137744140625,0.12107494162023066,0.3295008344352245,-0.06946019745618104
1789343246901426200,6.87142626953125,0.2619838800013065,0.2160357832968235,-0.11183949576318264
1789343246911475200,6.88147509765625,0.2722989377886057,0.1277247548982501,-0.16527239526510237
1789343246921525200,6.891525146484375,0.393128380215168,0.007287234398722648,-0.11988894670605658
1789343246931575000,6.901574951171875,0.5403782120555639,-0.0353159357920289,-0.08457330317497253
1789343246941624000,6.9116240234375,0.5653717835366726,-0.0318391995921731,-0.04360416392683983
1789343246951674000,6.921674072265625,0.5638444278389215,0.03621230010986328,0.03640314650684595
1789343246961724200,6.93172412109375,0.5944120000600814,0.12609306204318999,0.04773673368692398
1789343246971773200,6.941773193359375,0.5203156672358512,0.21366262442469597,-0.0007397124513983726
1789343246981823200,6.9518232421875,0.561862898632884,0.21576865679323673,-0.0016714403435587881
1789343246991872000,6.9618720703125,0.6562152530223131,0.14901888733953236,0.05158347224295139
1789343247001922000,6.971922119140625,0.7029284888803958,0.09909165787100792,0.14152619349658488
1789343247011972000,6.98197216796875,0.6107873807996511,0.06514964078068733,0.10050707762688398
1789343247022021000,6.992021240234375,0.4395896871387958,0.004928980834782123,0.021081658734381198
1789343247032071200,7.0020712890625,0.28924072023928166,-0.03828852186203003,-0.05522679718136787
1789343247042120200,7.0121201171875,0.1423795954555273,-0.07456658068448305,-0.12475903696045279
1789343247052170000,7.022169921875,0.0543757333099842,-0.07837561757862567,-0.11552680597379802
1789343247062220000,7.032219970703125,-0.05270049357414245,-0.056685763818025585,-0.16305267338901758
1789343247072269300,7.042269287109375,-0.2125374197870493,-0.05937777938097715,-0.21773469616919755
1789343247082319400,7.0523193359375,-0.2780062095195055,-0.04902297410517931,-0.20154607017338275
1789343247092368100,7.0623681640625,-0.2921253357648849,0.013288228379189967,-0.14070172537118195
1789343247102418200,7.072418212890625,-0.3308288681685924,0.056686056078970426,-0.06587547083720564
1789343247112468200,7.08246826171875,-0.3137456314206123,0.10618775361180305,-0.00860664643421769
1789343247122517000,7.09251708984375,-0.27435060962140556,0.05662292771488428,-0.012790215729176997
1789343247132567000,7.102567138671875,-0.3193891902655363,-0.044354982294142246,-0.03433291610404849
1789343247142617300,7.112617431640625,-0.38559681566655635,-0.2339323822543025,-0.04700432775914669
1789343247152666000,7.122666015625,-0.4443015180915594,-0.3942094534501433,-0.06671718235835433
1789343247162716200,7.132716064453125,-0.5370382539778947,-0.41159371897131203,-0.07231865562722087
1789343247172765200,7.14276513671875,-0.6666133129179477,-0.28201047672480345,0.011915040329843758
1789343247182815000,7.15281494140625,-0.736692226794362,-0.05135083253085613,0.0656672349140048
1789343247192865000,7.162864990234375,-0.6875877118855714,0.08966039718091487,0.11238646212145685
1789343247202914300,7.172914306640625,-0.5723503903776407,0.03234656459242105,0.19027488070502876
1789343247212964000,7.182964111328125,-0.5675619870573282,-0.13561989206224678,0.20344313596636054
1789343247223013000,7.19301318359375,-0.6706172878623008,-0.25373306126743556,0.1758775220401585
1789343247233063200,7.203063232421875,-0.8354191430062055,-0.3466606435507536,0.13698051289096475
1789343247243113000,7.213113037109375,-1.082932599106431,-0.38406653735935686,0.1404232006907463
1789343247253162200,7.223162353515625,-1.4682055896461008,-0.45438919686377044,0.12413345240801572
1789343247263212300,7.23321240234375,-1.8576772009193896,-0.5411731618255377,0.11222498794943093
1789343247273261000,7.243260986328125,-2.1783330501198765,-0.6654214727848767,0.12750409788489342
1789343247283311000,7.25331103515625,-2.4493653289735318,-0.8772533746510743,0.0968374492034316
1789343247293361200,7.263361083984375,-2.6084645885616538,-1.0777639642968773,0.12164485046267509
1789343247303410200,7.27341015625,-2.440485272425413,-0.9841793794095516,0.006152092888951301
1789343247313460200,7.283460205078125,-2.587889418044686,-1.0906427350923418,-0.23640490984767673
1789343247323510300,7.29351025390625,-1.8551035510390996,-1.1550368813306093,-0.27056612264662977
1789343247333559000,7.30355908203125,-1.837998686981201,-1.4243281617358325,-0.3757748020932078
1789343247343609000,7.313609130859375,-2.1502830136775968,-1.944729169167578,0.008805530007183551
1789343247353658000,7.323658203125,-1.9361457574784755,-2.1232164353147147,0.0621229864358902
1789343247363708200,7.333708251953125,-1.9046049563109873,-2.316063066203892,0.1156008941233158
1789343247373758000,7.343758056640625,-2.0081886649042366,-2.387810497814417,0.21470541147589683
1789343247383807200,7.35380712890625,-1.751309414565563,-2.381017768934369,0.10907353818118572
1789343247393857300,7.363857177734375,-1.321349141037464,-2.5746701632484794,0.17019348505437373
1789343247403906000,7.373906005859375,-0.43787586895823477,-2.812603597837686,0.5354881019264459
1789343247413956000,7.3839560546875,0.26355390579700466,-3.100337712906301,0.85689564627707
1789343247424006100,7.394006103515625,0.17282909425497053,-3.544240587069094,1.0517173766314982
1789343247434055200,7.40405517578125,-0.9420809438705444,-3.9336139986649155,0.9354647406011819
1789343247444105200,7.414105224609375,-2.1101205146372317,-3.929055020186305,0.4215975188523531
1789343247454155300,7.4241552734375,-2.199666345527768,-3.2286557575225827,0.028568507358431815
1789343247464204000,7.4342041015625,-1.4744389310777186,-2.0926706365339456,0.22491642436683176
1789343247474254000,7.444254150390625,-1.1130044967651367,-0.6573184650238603,0.47534956730604166
1789343247484303400,7.454303466796875,-1.074888993382454,0.7434016613051295,0.31272096454799175
1789343247494353200,7.464353271484375,-0.9921452437222004,1.7951339432448148,-0.22514321886003016
1789343247504403200,7.4744033203125,-0.7765501899302005,2.6253444116920233,-0.9786012870162725
1789343247514452200,7.4844521484375,0.4757470421910286,3.0872198726579545,-1.3418296190083026
1789343247524502000,7.494501953125,2.095216375494003,2.9979011285215615,-0.9243190772086382
1789343247534551000,7.504551025390625,4.947089322924613,1.2754425453871487,-0.2694102306097746
1789343247544601000,7.51460107421875,3.004593611897528,-0.9448202326413243,0.21043606359362602
1789343247554651100,7.524651123046875,-0.6696966658860445,-3.4826612059906124,-0.03405366077125072
1789343247564700200,7.5347001953125,-0.5279015923202037,-4.155981615331768,-0.8422662324219942
1789343247574750200,7.544750244140625,0.31898645468354225,-3.165274879980087,-1.0320563983500004
1789343247584799000,7.554799072265625,0.24497137040197847,-2.095099178855121,-1.212144085431099
1789343247594849000,7.56484912109375,0.3054889674678445,-1.4980138679325579,-0.4031874174147844
1789343247604899000,7.574899169921875,0.40730654317140574,-0.9290962284825741,0.23784429500102997
1789343247614948000,7.584947998046875,1.1218734473973513,-0.25226284258440135,0.37181028237640856
1789343247624998100,7.594998046875,1.4922802927166223,-0.16449132789000867,-0.016908464702963828
1789343247635047200,7.605047119140625,1.1426473553568124,-0.7863976302057504,-0.3986947821706533
1789343247645097200,7.61509716796875,0.8905676142543554,-1.2959449429288505,-0.34327217015624045
1789343247655147000,7.62514697265625,1.0412526812404395,-2.2603619295090436,0.1411819101035595
1789343247665196300,7.6351962890625,0.873648920418322,-3.6008383803427217,0.5240501775890588
1789343247675246300,7.645246337890625,0.8285884202033281,-4.329430010528863,0.9382400505334139
1789343247685296000,7.655296142578125,0.5017375157549977,-3.1742575201198457,1.5963134986430405
1789343247695345200,7.66534521484375,0.13017828553020952,-1.384675658044219,1.7741963691562412
1789343247705395200,7.675395263671875,0.1082093225672841,-1.0930877901569007,1.5241057560443878
1789343247715444000,7.68544384765625,0.5785857776358724,-0.7528814373120665,1.823731676697731
1789343247725494300,7.695494384765625,1.1680173589348792,-0.12178162858486175,2.139676279467344
1789343247735544300,7.70554443359375,0.682801062130928,-0.16098375816047192,2.15659935721755
1789343247745593000,7.715593017578125,0.6914590003609656,0.11941489945352077,2.6638579744815827
1789343247755643100,7.72564306640625,0.8071630625978111,0.40495121221691366,2.8825527478545903
1789343247765692200,7.735692138671875,0.9684130704790354,0.43575785389095545,2.668235458913445
1789343247775742000,7.745741943359375,1.0891536655783653,0.9451973223254084,2.6040900267392395
1789343247785792000,7.7557919921875,0.718277156920731,1.8215280291736125,3.0387223837316033
1789343247795841300,7.76584130859375,0.608236235012114,2.6439950438871977,3.741565532416105
1789343247805891000,7.77589111328125,0.7237383449360728,3.705506084780395,3.9843858622640367
1789343247815940000,7.785940185546875,0.876778450615704,4.518925869685411,4.22295087275505
1789343247825990100,7.795990234375,1.4215043364867568,3.5150603775531053,4.4913492959737775
1789343247836040200,7.806040283203125,2.745150356289744,1.7077838688328861,4.251608227440714
1789343247846089200,7.816089111328125,2.8814275432169434,0.3715533850058913,3.9850083780765533
1789343247856139300,7.82613916015625,2.0338237491592763,-0.31971213860958814,4.011912751615047
1789343247866189300,7.836189208984375,0.2601861829295754,-0.11381693331599235,3.616683015206456
1789343247876238000,7.846238037109375,-0.9702975690513849,0.7888648971021175,3.047194444000721
1789343247886288100,7.8562880859375,-1.3763161182388663,2.0817945838630196,2.6111609880387783
1789343247896337200,7.866337158203125,-2.0330384440004825,2.95471986618191,2.1795126152932642
1789343247906387700,7.8763876953125,-2.34460176294595,3.196254247872531,1.8656535866260529
1789343247916437800,7.886437744140625,-3.59346551348716,4.567519804723561,1.9058155011445284
1789343247926487000,7.896487060546875,-4.867933076362312,4.471850230255723,1.4129273545384406
1789343247936536800,7.906536865234375,-5.112230200764537,3.0727590933680533,1.0660422545820474
1789343247946585900,7.9165859375,-5.066827462983131,1.8207617209762335,0.7924965316027403
1789343247956636000,7.926635986328125,-3.923343656802177,0.3758241941928863,0.47089492598474025
1789343247966686000,7.93668603515625,-2.462463003216684,-0.7474734407886863,0.6252724177479744
1789343247976735000,7.94673486328125,-1.4034791427135467,-1.183991465397179,0.9950900650024413
1789343247986785000,7.956784912109375,-0.6469304150655866,-1.1962015431508422,1.1157616865187883
1789343247996833800,7.966833740234375,-0.1202326455771923,-1.312944008524716,1.1393547435522078
1789343248006883800,7.9768837890625,0.23956249709576366,-1.075060258296132,1.0789140111148356
1789343248016934000,7.986933837890625,0.4168599689364433,-0.7269716277688741,1.0896744745820761
1789343248026983000,7.99698291015625,0.5971335339784621,-0.6657292235597968,1.0493331118434668
1789343248037033000,8.007032958984375,0.7159568972796201,-0.9183125302702188,0.9657686934500932
1789343248047083000,8.0170830078125,0.8413216450482607,-1.6033049649655817,1.0862690500527619
1789343248057132000,8.027132080078125,1.4459990185350178,-2.3923636310741303,1.0011661700457335
1789343248067181800,8.037181884765625,2.040730459807813,-2.982308714853227,0.6700321814507245
1789343248077230800,8.04723095703125,2.4031486444607375,-3.3142522662654517,0.23559680833518504
1789343248087281000,8.057281005859375,2.535367203646898,-3.407005368764698,-0.24139409643709658
1789343248097330700,8.06733056640625,2.1648203653350473,-3.2625024975448844,-0.591708586320281
1789343248107380000,8.0773798828125,1.5826342251196504,-3.115253834748268,-0.7867699706494807
1789343248117430000,8.087429931640624,0.9439885310575366,-2.5731717413842676,-1.0178560235619545
1789343248127478800,8.097478759765625,0.3068035571977496,-2.134618996077776,-1.380921273946762
1789343248137528800,8.10752880859375,0.12121464235186576,-1.7800483100548385,-1.6137684913128614
1789343248147579000,8.117578857421876,-0.03465104214251041,-0.2953539424225688,-1.7788620228797196
1789343248157628000,8.1276279296875,-0.659990095385909,1.2413923917472363,-1.6387644008815287
1789343248167678000,8.137677978515624,-0.8713473654776811,0.7259080901905894,-1.4810060345083473
1789343248177727000,8.14772705078125,-0.8334586565881967,0.180922384339571,-1.427747907051444
1789343248187776800,8.15777685546875,1.6500836672753094,-2.4631343266069887,-1.8779045809119939
1789343248197826800,8.167826904296875,2.3002806829214095,0.37077129471749065,-2.3010569279909134
1789343248207875800,8.177875732421874,1.2073457452386618,3.2685476229280233,-2.2747037585943937
1789343248217926000,8.18792578125,-1.0923574300557375,4.09955391792804,-1.438770236325264
1789343248227976000,8.197975830078125,-2.4884020388543604,4.389398449279367,-0.8930863190770149
1789343248238025000,8.20802490234375,-3.0532343086868523,5.384117635142803,-0.9422165529489517
1789343248248075000,8.218074951171875,-3.3691344877928495,6.353024626618623,-0.8059931420356035
1789343248258123800,8.228123779296874,-3.4114608868688343,7.329200732314586,-0.4739332707673311
1789343248268173800,8.238173828125,-3.9166774769112465,8.702532574045657,-0.05373918897211551
1789343248278224000,8.248223876953125,-4.321207833367586,9.598093758803605,-0.0204126734316349
1789343248288273000,8.25827294921875,-4.273220632050931,9.560623567587136,-0.37047815698981285
1789343248298323000,8.268322998046875,-4.252141895925998,8.066824102479218,-0.5457932228416205
1789343248308371700,8.278371826171876,-3.64797071839571,4.440188725318015,0.4933119249761104
1789343248318421800,8.288421875,-3.0798195332735774,0.9667214641302824,1.6428589767187833
1789343248328471800,8.298471923828124,-2.894257798695564,-1.1411562400162218,2.730124636593461
1789343248338521000,8.30852099609375,-2.0402304013311863,-2.378430967311561,4.629349653431773
1789343248348571000,8.31857080078125,-0.323518837416172,-5.702207433247566,5.091256386318802
1789343248358620000,8.328619873046875,-0.2430442017316818,-5.997634148645401,5.448848758250475
1789343248368670000,8.338669921875,0.9321303354814648,-4.154812571552395,4.866436408063769
1789343248378719700,8.3487197265625,0.8025421247988939,-1.8145403622433542,2.882354010412097
1789343248388769000,8.35876904296875,-0.28402795402705666,0.8396735855802893,0.5312012183874845
1789343248398819000,8.368819091796874,-0.49857846720218657,2.9403447193488477,-3.001004939755797
1789343248408868900,8.378868896484375,0.5667869110316038,3.5168422925338145,-4.0106262189358475
1789343248418918000,8.38891796875,-0.747867408542335,2.6959394583970306,-2.613487385159731
1789343248428968000,8.398968017578126,-1.0841127488017082,1.8543527326717972,-1.7942501461476086
1789343248439016700,8.4090166015625,-0.1348158822029829,0.6434468107335269,-1.1605723036259412
1789343248449066800,8.419066650390626,1.0367948250487447,-0.603888122805208,-0.37179274671971796
1789343248459117000,8.429116943359375,1.4475868722483516,-1.6551969186358153,0.2291635604172945
1789343248469165800,8.439165771484374,1.321433312189579,-2.2481847311116754,0.730325029850006
1789343248479215900,8.4492158203125,0.7960264592945575,-2.0502277714714405,0.7868336835354566
1789343248489265000,8.459264892578124,-0.44866906565129755,-1.220402941340953,0.39646658472716806
1789343248499314700,8.469314697265625,-1.8915455682516098,-0.3770717100359499,0.6598872195333242
1789343248509364700,8.47936474609375,-1.8028873338505624,-1.28926005833745,1.1114607744544744
1789343248519414000,8.4894140625,-1.2226184254333377,-3.1218419809669253,1.0600842229604721
1789343248529464000,8.499464111328125,-0.3214034526973963,-4.511330592250824,0.8878706302553415
1789343248539513900,8.509513916015624,-0.262037071493268,-4.382924577090144,0.5004805014312267
1789343248549563000,8.51956298828125,-1.6460142258793116,-3.387701825618744,-0.8288286586999892
1789343248559613000,8.529613037109375,-1.7869506367892025,-1.652374700821936,-2.093284530648589
1789343248569662000,8.539661865234375,-1.2201169640064238,0.0447293685644865,-2.465204703140259
1789343248579712000,8.5497119140625,-0.1751712734669447,0.6724085551932454,-1.6197615942478178
1789343248589762000,8.559761962890626,1.0298321464292703,0.2646381939023733,-0.17925883504152296
1789343248599810800,8.569810791015625,2.5500349036857486,-0.6098810796096921,1.5962223132282494
1789343248609860900,8.57986083984375,3.6565012308537956,-1.0933236447393893,3.362275707939267
1789343248619910000,8.589909912109375,3.673696695804596,-1.2179049870453775,4.366523477387428
1789343248629960000,8.5999599609375,2.999374123683572,-0.7277367669224739,4.491846139580011
1789343248640010000,8.610010009765626,1.8875395474806427,0.09768003750741482,4.2012241941154
1789343248650059000,8.62005908203125,0.8943059239998459,0.6780939073532819,3.720864105170965
1789343248660108800,8.63010888671875,-0.06616933921724558,0.9234007933199405,3.0562340750247237
1789343248670157800,8.64015771484375,-0.809528330424428,0.5508640963651239,2.165494611334801
1789343248680208000,8.650207763671874,-1.410636320991814,0.4883586864829063,1.8228373582065105
1789343248690257700,8.660257568359375,-1.188722877833247,0.24741160316094754,1.9948691646039485
1789343248700307000,8.670306884765624,-0.8467775723665952,-0.13768544628992677,2.1020880148291585
1789343248710357000,8.68035693359375,-1.1777671840548514,-1.0092392941251396,1.5835551393568514
1789343248720405800,8.69040576171875,-2.168584394043684,-2.0398573302350935,0.8291916467934847
1789343248730455800,8.700455810546876,-3.435704516765475,-2.3361307255901393,-0.19024258587062357
1789343248740505900,8.710505859375,-4.291111970311403,-1.6542298271693288,-1.0197393530905245
1789343248750555000,8.720554931640624,-3.93381945810914,-0.8200500166997313,-1.9294062200903892
1789343248760605000,8.73060498046875,-3.0150609376370907,-0.3492180729486048,-2.5826328126907345
1789343248770655000,8.740655029296875,-3.1672382890075443,-0.1652967990539968,-2.247902845430374
1789343248780703700,8.750703857421875,-2.3460364719241857,-0.6602518150620162,-1.0182207652211188
1789343248790753800,8.76075390625,-1.033271034836769,-1.198898527149856,-0.29567163006961344
1789343248800803000,8.770802978515626,-0.8413099546104669,-1.0710723577037453,-0.05277472785413265
1789343248810853000,8.78085302734375,-0.8592769884556531,-0.5284463667213917,-0.13158406067490577
1789343248820903000,8.79090283203125,-1.085888526302576,-0.11764306747540831,-0.8673609261900186
1789343248830952000,8.800951904296875,-1.058344101294875,0.43544279659241436,-1.074967319315672
1789343248841002000,8.811001953125,-0.09581775076687335,0.7550302859090268,-0.7251251231193542
1789343248851050800,8.82105078125,1.1564145994246005,0.34149610039442774,-0.1715028140872717
1789343248861100800,8.831100830078125,1.8176631704390047,-0.11823927980288862,0.07538871072232722
1789343248871150800,8.84115087890625,1.8211627029925583,-0.13291063310354947,0.12132862412035464
1789343248881199900,8.851199951171875,2.2661638937860724,0.22781594520062207,0.2795522699177265
1789343248891250000,8.86125,2.430632571452856,1.0527360521547495,0.1775666441708803
1789343248901300000,8.871300048828125,2.4018916301369666,1.7586019096612928,-0.06463058534264564
1789343248911350800,8.881350830078125,2.526341016626358,1.8458447243064642,-0.26067630453407764
1789343248921400800,8.89140087890625,2.2767314650297164,1.7222120610274374,-0.6744494133710861
1789343248931449900,8.901449951171875,1.5086428139746189,1.584578783316165,-1.0068787024736403
1789343248941499600,8.911499755859374,0.8063643134355545,1.6010358509898184,-0.8380541676849126
1789343248951549700,8.9215498046875,0.5002303260624409,1.1274413106575607,-0.5811497829049825
1789343248961599000,8.931598876953124,0.1700029309183359,0.2792753526724875,-0.5272416671067476
1789343248971648800,8.941648681640626,-0.43081542905271053,-0.12258724587932228,-0.5228443089306354
1789343248981697800,8.95169775390625,-0.5599047503024339,-0.17197306194752454,-0.2556365568011999
1789343248991747800,8.961747802734376,-0.38095512734055514,-0.21795491479113696,-0.08213292428553104
1789343249001797600,8.971797607421875,-0.5915782379388809,-0.30099706287607547,-0.09729659114778041
1789343249011846700,8.9818466796875,-0.8835808241069316,-0.4894635789848864,-0.23252105415165422
1789343249021897000,8.99189697265625,-1.3055015835642814,-0.6974675931259989,-0.41088849331140515
1789343249031945700,9.00194580078125,-1.6350386583566665,-0.8090123437263071,-0.53909869363904
1789343249041995800,9.011995849609375,-1.5841507671624422,-0.8713153629042207,-0.5339315201342105
1789343249052045800,9.0220458984375,-1.2645914810270071,-0.9003294220730662,-0.5959188974916935
1789343249062094600,9.032094482421876,-0.5656453397810459,-0.8952155861906707,-0.2701426365375519
1789343249072144600,9.04214453125,0.26902795329391954,-0.6808665869370103,0.21174889975786207
1789343249082194700,9.052194580078124,0.8768775270760059,-0.2861722725793719,0.4825865328222513
1789343249092243700,9.06224365234375,1.1767360874414443,0.05396116115972399,0.5952659865409136
1789343249102293800,9.072293701171875,1.1885931139737367,0.3421627476096153,0.5988169570207595
1789343249112342800,9.0823427734375,1.132034191405773,0.5955366201758384,0.5673994899719953
1789343249122392600,9.092392578125,0.9126151954114436,0.6873505421288311,0.3832148889660835
1789343249132442600,9.102442626953126,0.6596773761749267,0.8165918390698731,0.2515717915803194
1789343249142492000,9.112491943359375,0.7746352962195873,0.37117636838704343,0.13320143274366855
1789343249152542000,9.1225419921875,0.5369266102969646,0.12084756260514258,0.3352186275601387
1789343249162590700,9.1325908203125,0.16143910071253775,0.4668766302540898,0.6221686065137386
1789343249172640800,9.142640869140624,-0.08537526720762252,0.2722087752871215,0.48514907678663727
1789343249182690800,9.15269091796875,-0.5173989030063152,0.26343773207142945,0.30509821458458897
1789343249192739800,9.16273974609375,-0.889061301344633,0.24266703898236153,-0.058922144567966454
1789343249202790000,9.172789794921876,-1.0247130498498678,0.11952902735248207,-0.4398036221504211
1789343249212840000,9.18283984375,-1.0836831252127885,-0.06060220660939812,-0.743872493687272
1789343249222888700,9.192888671875,-1.1222206533998251,-0.21133491212949154,-0.8209002037882804
1789343249232938800,9.202938720703125,-0.7229781742185354,-0.39759675780087705,-0.5765536872863769
1789343249242987800,9.21298779296875,-0.21408464922904968,-0.5531782185263932,-0.3642512452989816
1789343249253037600,9.22303759765625,0.027018939828872678,-0.491418804705888,-0.2688911751717329
1789343249263087900,9.233087890625,0.15932313147187233,-0.2529259826682508,-0.22980419640839098
1789343249273137000,9.243136962890626,0.17880699962079524,-0.1213026128962636,-0.3555342703580856
1789343249283186700,9.253186767578125,0.023076924204826352,0.0780085378319025,-0.40525136420726776
1789343249293235700,9.263235595703126,-0.0972013140797615,0.08030556272789835,-0.25796763009727
1789343249303285800,9.27328564453125,-0.037653731089830396,-0.20230609476044772,-0.04516834450364113
1789343249313335600,9.28333544921875,0.271897371250391,-0.3663286360949278,0.13721008386313915
1789343249323384800,9.293384765625,0.509801287484169,-0.41556612973362206,0.22237200058102607
1789343249333435000,9.303434814453125,0.4193021013915538,-0.28983269478306173,0.28705811550319194
1789343249343485000,9.31348486328125,0.19462533099949358,0.06110694126114249,0.3205377757787704
1789343249353533700,9.32353369140625,-0.04671031324863434,0.3219276227019727,0.27962533515393734
1789343249363583700,9.333583740234374,-0.3059609688937664,0.3373600235030055,0.17572481569647788
1789343249373632800,9.3436328125,-0.19420856689214705,0.036587709293514487,0.10539455740749835
1789343249383682800,9.353682861328124,-0.11885200487375258,-0.1934096715994179,0.07300386141240596
1789343249393732900,9.36373291015625,-0.11693418855369091,-0.1873676149562001,0.07978197724521159
1789343249403782000,9.373781982421875,0.1317313601911068,-0.5731434404514729,-0.08739712842404841
1789343249413831700,9.383831787109376,-0.03289689195156097,-0.18362039125189183,0.19943594615161417
1789343249423880700,9.393880615234375,-0.03620937750041485,0.18344883407726884,0.24577333443462848
1789343249433930800,9.4039306640625,0.03902034326791763,0.218026664853096,0.18809563696980475
1789343249443980800,9.413980712890625,0.14644143806695936,0.3528466387093067,0.2787614118009806
1789343249454029800,9.42402978515625,0.4493903656631708,0.07847717825695871,0.12954057214856146
1789343249464080000,9.434079833984375,0.4271370328009128,0.15717983583286405,0.1801069763034582
1789343249474128600,9.444128662109375,0.1302747316420078,0.8256608423188329,0.42192426658868787
1789343249484178700,9.4541787109375,0.11198270362615585,0.6451286263406276,0.30047873809039594
1789343249494228700,9.464228759765625,0.009232523247599602,0.4265826137885451,0.17724574165344237
1789343249504277800,9.47427783203125,-0.1821539719611406,0.582356382215768,0.13850889150202272
1789343249514327800,9.484327880859375,-0.23334464549422262,0.47916006550490853,0.04050035269260406
1789343249524377900,9.4943779296875,-0.3338941009581089,0.45517231006547804,-0.022184943801164626
1789343249534426600,9.504426513671875,-0.38227205515801904,0.5110882585547865,-0.009633505263924598
1789343249544476700,9.5144765625,-0.30812311536371706,0.37193858493119475,0.05292728806734085
1789343249554526000,9.52452587890625,-0.28409049786925317,0.09038914984688162,0.04471592456102371
1789343249564575700,9.53457568359375,-0.3363303881943226,-0.1556101022981107,-0.10580606081783771
1789343249574625800,9.544625732421874,-0.44022330886721606,-0.29903979132846,-0.3127355775952339
1789343249584674800,9.5546748046875,-0.5758832406789064,-0.3472254378266632,-0.5523574036628007
1789343249594724600,9.564724609375,-0.6253910756915807,-0.2959413869217038,-0.6923205856263637
1789343249604773600,9.574773681640625,-0.6413210507512093,-0.2768605466157198,-0.8559516434252261
1789343249614824000,9.584823974609375,-0.556413401055336,-0.3929160526387393,-0.8525584938555956
1789343249624874000,9.5948740234375,-0.37579087644517417,-0.4153161004953086,-0.629751024466753
1789343249634922800,9.6049228515625,-0.1813619448006153,-0.3473826742149889,-0.34592531501352786
1789343249644972800,9.614972900390624,0.03356733855903148,-0.23053996333703397,-0.1242494800031185
1789343249655021600,9.625021484375,0.1906990974664688,-0.17409882192984222,0.00637304216325283
1789343249665071600,9.635071533203124,0.2778133172959089,-0.103855657402426,0.021384148812294005
1789343249675121700,9.64512158203125,0.22781039224267005,0.03283405584841966,-0.027953590330481528
1789343249685171000,9.6551708984375,0.09387070835232735,0.17586816968992353,-0.038031916752457616
1789343249695220700,9.665220703125,0.10625438910722732,0.599814882016927,0.23454700702130793
1789343249705270800,9.675270751953125,0.6328484059602022,0.5165379022628068,0.14906944848299025
1789343249715319800,9.68531982421875,0.79326167075634,0.19245397830978034,-0.19308453129827974
1789343249725369600,9.69536962890625,0.6140653795570135,0.5920183829218149,-0.2464291679948568
1789343249735419000,9.7054189453125,0.6426227809995413,0.42923853512480853,-0.6939256827354431
1789343249745469000,9.715468994140625,0.30137481014728545,-0.10096826539784669,-1.1355027442991732
1789343249755518700,9.725518798828125,0.3714063777506351,-0.8254906003184616,-1.2218009715706108
1789343249765567700,9.735567626953125,0.773253778733313,-1.763298981436342,-1.3870271896064281
1789343249775617800,9.74561767578125,0.5447460518762469,-1.1896512447245418,-0.993326562461257
1789343249785666800,9.755666748046876,0.041460722157359124,0.486936252464354,-0.3334340822309255
1789343249795716900,9.765716796875,-0.41711014430522914,1.154922753431648,-0.2363829902768135
1789343249805767000,9.775766845703124,-0.31222821259498595,1.3611413454607129,0.07172492751777172
1789343249815815700,9.785815673828125,-0.2532601830586791,1.501992854566127,0.6064432141155004
1789343249825865700,9.79586572265625,0.029855916820466517,1.4832272176891566,0.9227934750765562
1789343249835915800,9.805915771484376,0.19134616319835185,1.4810489968672393,1.1614128461033104
1789343249845964500,9.815964599609375,0.822407978002727,1.6228136752948163,1.389164786157012
1789343249856014800,9.826014892578126,2.053990631136298,1.9650845594540238,1.6482675577640533
1789343249866064000,9.83606396484375,2.761764221960306,2.0683947118029,2.2479601285755635
1789343249876114000,9.846114013671874,3.0303555374026296,1.5188427209496498,2.8428461758881807
1789343249886163700,9.856163818359375,2.7766426421403883,1.0007722022920846,2.955909660488367
1789343249896212700,9.866212646484374,1.9071135781310498,0.9170230749815702,2.8415105433702466
1789343249906260700,9.8762607421875,0.7430756442211568,1.1026873931512235,2.4163942027419805
1789343249916309500,9.8863095703125,-0.25403379777967927,1.5150819071114063,2.0308412262171505
1789343249926359600,9.896359619140625,-1.3618372187703847,1.215612930585444,0.8352782732307911
1789343249936409600,9.90640966796875,-3.0493612666457888,-1.2155094702109694,-2.2888556180655955
1789343249946458600,9.916458740234376,-2.910119969215989,-2.881048480771482,-2.701619842121005
1789343249956508700,9.9265087890625,-2.1951846700690685,-3.4701860475599764,-2.7655525083273647
1789343249966557700,9.9365576171875,-2.585340902605653,-4.329773417139053,-3.3582647187322374
1789343249976607500,9.946607421875,-3.54632703795433,-2.8131910423368214,-2.875097171151638
1789343249986657500,9.956657470703124,-2.3469494951158762,-0.03323533012568951,-1.6612369294524192
1789343249996706800,9.966706787109375,-1.7843764023870228,0.8931184677809476,-1.0098679474174976
1789343250006756600,9.976756591796875,4.190041705843806,1.5214485195338725,0.0047679450541734695
1789343250016806700,9.986806640625,4.9900505127727985,1.9774054041057825,-0.007532149070501327
1789343250026855700,9.996855712890625,2.9655794061094523,2.1425462819457053,-1.6305565445065497
1789343250036905700,10.00690576171875,2.8101380845069883,2.5592794096320866,-2.0221879641622302
1789343250046954800,10.016954833984375,2.2064964838087557,1.9508511591792106,-1.0947931327700615
1789343250057004800,10.0270048828125,1.6423106951862572,0.4654062654405832,-0.3365250339835882
1789343250067054800,10.037054931640625,1.003613563197851,-0.8122522024303674,0.23566052122116088
1789343250077103600,10.047103515625,-0.736599360879138,-1.924865069529414,0.5829255604058504
1789343250087153700,10.057153564453126,-2.354348373195529,-2.6419027477830648,1.1251286498010158
1789343250097202400,10.067202392578125,-2.3450737643718718,-2.2611691542387007,1.280486969295144
1789343250107252500,10.07725244140625,-1.5110101276278496,-0.6416150652617215,0.9805769710034131
1789343250117302800,10.087302734375,-0.8186948757637291,1.223333587965369,0.7100485500186682
1789343250127351800,10.097351806640624,-1.2010223874360322,2.514360071453452,0.964362918305397
1789343250137401600,10.107401611328125,-2.276169154971838,2.871937830337882,1.7566051828861236
1789343250147451600,10.11745166015625,-2.1479484332501886,2.6193495551913974,2.636230547365546
1789343250157500700,10.127500732421876,-1.1600514946222305,2.0983581806510685,3.3637405197948214
1789343250167550500,10.137550537109375,-0.11455923958327621,1.5944430285960436,3.547981234902143
1789343250177599700,10.147599853515626,0.7688905420225113,1.0242214669406413,3.06940861389637
1789343250187649800,10.15764990234375,1.6869933019995689,-0.20108079074919222,0.47636780443787574
1789343250197699600,10.167699462890624,1.0175579173982143,-1.583414269581437,-3.2609172741800543
1789343250207748600,10.17774853515625,-1.6392752730131148,-2.3768021970659494,-5.598965085437894
1789343250217798700,10.187798583984375,-1.8147674489974974,-2.240578786152601,-4.359178375321626
1789343250227847700,10.19784765625,0.13996847919318825,-1.7198182977586984,-2.02726161416471
1789343250237897700,10.207897705078125,0.8382523206055164,-1.2892203108489513,-1.0400210936188696
1789343250247947800,10.21794775390625,0.81519410110116,-0.7358195356130599,-0.5780909798562527
1789343250257996500,10.22799658203125,1.3099310904443264,0.4360790486693382,-0.45621056707203383
1789343250268046600,10.238046630859374,1.6036369733989237,1.6259060883522032,-0.9265572115242481
1789343250278096600,10.2480966796875,1.2039578563660382,2.3015046717584133,-1.4552800570994615
1789343250288145700,10.258145751953125,0.24591712681949138,2.256225852617621,-1.8275035964518784
1789343250298195700,10.26819580078125,-0.9506512038171291,0.8980757979273796,-1.5224755244940518
1789343250308244700,10.27824462890625,-0.9875275207936763,-1.547093248400092,-0.9167115248143672
1789343250318294800,10.288294677734376,-0.1660287665903568,-2.6101269688159228,-0.530941106146574
1789343250328344600,10.298344482421875,0.7854664868354797,-2.188058909842372,-0.3389356022566557
1789343250338393600,10.3083935546875,1.535108796095848,-1.3085755841821431,-0.0009036708414554595
1789343250348443600,10.318443603515625,1.4489035078048704,-0.6225339326947927,0.5682137289643288
1789343250358492700,10.32849267578125,0.23861237503038718,0.2705295900285244,1.1089315482378006
1789343250368542700,10.338542724609376,-1.1561200003921985,2.5011808564066884,1.40839672537148
1789343250378592800,10.3485927734375,-1.1164917543590067,3.048364072301984,1.727771302589774
1789343250388641500,10.3586416015625,-1.0827928983747959,0.9111527216434478,2.2044635166764257
1789343250398691600,10.368691650390625,-1.6369839472055434,-1.268713529393077,2.5813410193145274
1789343250408740900,10.378740966796874,-1.2831132261455058,-1.742380258178711,2.9279788665115833
1789343250418790700,10.388790771484375,-0.2623286748509854,-0.4597206210196018,2.627767254924774
1789343250428840700,10.3988408203125,1.8153227447926996,1.1499416040182113,1.8931085797846317
1789343250438889700,10.4088896484375,1.9721546439707278,1.8692974960863589,0.9107546622365713
1789343250448939500,10.418939453125,0.0663362932819873,1.602887031814456,0.13259586806595325
1789343250458989600,10.428989501953126,-1.1847311047833413,1.2724924634099006,-0.3459463578015566
1789343250469038800,10.439038818359375,-0.9575135638672858,1.4205460128486156,-0.4312725251704454
1789343250479088600,10.449088623046874,0.2726022315841168,1.4818138437598942,-0.2653010417252779
1789343250489137700,10.4591376953125,1.218475626540184,1.3892986416697501,0.20756781468093394
1789343250499187700,10.469187744140624,1.2744377522587775,1.2724848646253346,0.8192807858929038
1789343250509237800,10.47923779296875,0.975743632562831,1.4603952081561087,1.3280144441455601
1789343250519286500,10.48928662109375,0.7049930201947688,2.2066513821095226,1.5759221602603792
1789343250529336600,10.499336669921876,-0.4821685996711254,2.455481181505322,1.566927537421882
1789343250539385600,10.509385498046875,-2.644630711442232,1.150423250055313,1.607784448467195
1789343250549435600,10.519435546875,-2.607244691377878,-0.031125206103920933,1.4571601717576383
1789343250559485700,10.529485595703125,-1.1495705056834966,0.16345628575384616,0.34301702635139225
1789343250569534500,10.539534423828124,-1.6342781953781842,0.5163151994228363,-1.047631860883534
1789343250579584500,10.54958447265625,-1.693764988091588,1.3881103086680173,-2.9287241319209336
1789343250589634600,10.559634521484375,-1.8192818576820193,2.744935836756229,-4.91143816382885
1789343250599683800,10.569683837890626,-1.3584624816402793,1.8461369852513074,-4.423610515482723
1789343250609733600,10.579733642578125,-0.5412590865433216,-0.3600304127335548,-2.590563605690002
1789343250619782700,10.58978271484375,-1.9313589615933595,-2.3748960711836813,-1.2197349789515137
1789343250629832700,10.599832763671875,-0.8927461273372173,-3.242161720305681,-0.2087719297736883
1789343250639882500,10.609882568359374,2.327835044801235,-2.627829214245081,-0.01647358041703701
1789343250649931800,10.619931884765625,6.096052437299489,-2.2157179011404513,-0.18471271653324364
1789343250659981800,10.62998193359375,2.305210832799971,-1.2224825240939854,0.23389351154863833
1789343250670030600,10.640030517578126,2.8226991676554083,-0.5682663359344006,0.6555678950294852
1789343250680080600,10.65008056640625,1.2668301998645066,0.24901684640049934,1.3116618597596883
1789343250690130700,10.660130615234374,1.4627126913182436,1.229570436528325,2.5187065762251613
1789343250700179500,10.670179443359375,0.2523345926463604,1.7560884655356406,2.1699518830046056
1789343250710229800,10.680229736328124,-1.4452514150381088,1.2083049456596373,1.1112889250189066
1789343250720279800,10.69027978515625,-0.8426825581379235,2.237926810339093,0.6823129863530397
1789343250730328600,10.70032861328125,-0.03446998648717999,1.5298141968190668,0.6652712506592273
1789343250740378600,10.710378662109376,1.7245453262805939,0.1363315474629402,0.46911242648214097
1789343250750427600,10.720427734375,3.3734541045576334,-0.43937458308339117,-0.05135784679353237
1789343250760477400,10.7304775390625,1.9604950397066772,-0.8322919508963823,-0.1587330566242337
1789343250770527500,10.740527587890625,-0.32415026718750595,-0.8785194490641355,-0.25422347513288257
1789343250780576800,10.75057666015625,-0.9046703738868236,-0.3447416581869125,-0.5834691657632589
1789343250790626800,10.760626708984375,-1.0713093813300132,-0.2941045268833637,-0.057361178861558434
1789343250800675600,10.770675537109375,0.3795272864945233,0.11859247715473174,0.04716419449597597
1789343250810725600,10.7807255859375,1.7565468768276273,-0.0040068975538015365,-0.15531448035240172
1789343250820775700,10.790775634765625,1.5857114406079054,-0.3289420315086841,-0.08791530707925557
1789343250830824700,10.80082470703125,1.761834754102677,-0.25536884577572344,0.16301497172713278
1789343250840874800,10.810874755859375,3.5724440605074164,-0.11816986782848835,0.05315817421376705
1789343250850924800,10.8209248046875,1.4658366685576736,-0.44819268031120296,0.09458499410152435
1789343250860973600,10.8309736328125,-2.6910961100190876,0.25563480323553084,-0.17758973278552292
1789343250871023600,10.841023681640625,-5.850469657000899,1.064797222957015,-0.7710574377328157
1789343250881072600,10.85107275390625,-6.278568812832236,1.7733692706823347,-1.5615245093345642
1789343250891122700,10.861122802734375,-5.834939494913816,1.8244097220897673,-1.7691528220310806
1789343250901172700,10.8711728515625,-3.680503453209996,2.227632210817933,-0.8593860017880797
1789343250911222300,10.88122216796875,-1.2963392029434442,3.4358190830558537,-0.04274024057388305
1789343250921272000,10.89127197265625,-0.39757366918623444,4.223434856879711,-0.013619944551587104
1789343250931321000,10.901321044921875,-0.9293722689449787,3.4914036076337096,0.06975742683708668
1789343250941371100,10.91137109375,-1.521479499194026,2.604846398064494,0.6837152543663978
1789343250951421200,10.921421142578126,-1.1266478221923113,0.9220148919194936,1.0511167803898454
1789343250961470200,10.93147021484375,1.4636533331692219,-1.0048124175935984,0.9995432450190186
1789343250971520300,10.941520263671874,4.902954997643828,-2.8430162717580796,0.9835992414340377
1789343250981569000,10.951569091796875,7.166231353294849,-3.3939924501955505,0.9571437807068228
1789343250991619000,10.961619140625,5.735995136559009,-1.7375848405957222,0.9816370014503598
1789343251001669000,10.971669189453126,1.5627730480909348,1.236634968087077,0.6973278923943639
1789343251011718100,10.98171826171875,0.43061376900076864,0.9100257634401321,1.0616744147613644
1789343251021768200,10.991768310546876,0.24351295175459234,1.173541675314307,1.071289215324819
1789343251031818200,11.001818359375,-0.25171737406346945,1.57386025929451,0.8948398847460747
1789343251041867300,11.0118671875,-1.0541711995244025,0.6865916865855455,0.7567752298802137
1789343251051917000,11.0219169921875,-3.1290368609070778,1.9740221914082765,-0.29430589467436075
1789343251061966000,11.031966064453124,-3.471494207549095,1.941249218097329,-1.2976590533703565
1789343251072016100,11.04201611328125,-3.3728386030077933,1.334946873757243,-1.9734902764886617
1789343251082066200,11.052066162109375,-2.383647532916069,1.3248060034930704,-2.14506469450742
1789343251092115200,11.062115234375,-0.059656304061412806,1.4316466680556534,-1.7648606777951121
1789343251102165200,11.072165283203125,1.4317010285913943,1.2741262020915747,-1.0849155896171927
1789343251112214000,11.082214111328126,3.2496997145950792,0.03841653215587139,-0.019255173959583042
1789343251122264000,11.09226416015625,0.8711211555063724,-0.3823468739598989,-0.1270247899353504
1789343251132314000,11.102314208984374,-0.9267126943469047,-0.9844529356539249,0.1406789290174842
1789343251142363100,11.112363037109375,0.2665677006602287,-1.9172271219968795,0.8118630569823085
1789343251152413200,11.1224130859375,1.41016841121912,-2.469877955648303,1.1629808260723948
1789343251162463200,11.132463134765626,1.4577870714843273,-2.2990029180705545,1.1490940472781657
1789343251172512000,11.142511962890625,-0.5652642315089702,-1.2746850050181149,0.7955008279852569
1789343251182562000,11.15256201171875,-2.3782675934433937,0.528253474497795,0.44383214701414103
1789343251192611300,11.162611328125,-1.4451719200611113,0.6701806500107049,0.6379111692424864
1789343251202661000,11.1726611328125,1.303313133609295,-0.10157412233650684,1.258262424135953
1789343251212711200,11.182711181640625,1.8722423173665999,-2.101833747807145,1.4510513334885238
1789343251222760200,11.19276025390625,2.041483616262674,-3.286575447049737,1.388120245540142
1789343251232810200,11.202810302734376,1.6979636088252066,-3.4059213729202744,0.8143716788023709
1789343251242859000,11.21285888671875,1.1466180125534533,-2.677872471308708,0.44920697192028164
1789343251252909000,11.222908935546876,0.255021091783978,-1.8953905532419681,0.26861469631791113
1789343251262959400,11.23295947265625,-1.0905622902672738,-1.0463754310816527,-0.0990710991401691
1789343251273008000,11.243008056640624,-1.816789894735813,-0.16360358527004717,-0.2521367685193196
1789343251283058200,11.25305810546875,-1.794225011706352,0.4329799136102199,-0.2867930713588372
1789343251293108200,11.263108154296875,-1.08856680560112,1.0221867462426424,-0.5814867597743868
1789343251303157000,11.273156982421876,-0.14437807579636572,1.173487899300456,-1.036396034989506
1789343251313207000,11.28320703125,0.6608370676040649,0.8081663944214582,-1.5873735286012292
1789343251323256300,11.29325634765625,0.8718038770735264,0.4653700250834226,-2.2074369795292617
1789343251333306000,11.30330615234375,0.7432008780360222,0.4026648548454046,-2.8200188425302506
1789343251343356200,11.313356201171874,0.738961925292015,0.004160626810789108,-3.227482622089982
1789343251353405200,11.3234052734375,0.9032312809944152,-0.9306038565665483,-3.330436216086149
1789343251363455000,11.333455078125,1.0780991876006125,-1.9290058225959539,-3.0465903406277297
1789343251373504300,11.343504150390626,2.181849533808231,-2.98408478461504,-1.554293973559141
1789343251383554300,11.35355419921875,2.644185305762291,-2.8254116414844987,1.4062638049960137
1789343251393604000,11.36360400390625,-0.09775660987496375,-0.5421826311290264,3.861324715262651
1789343251403653000,11.373653076171875,-0.4715407861402258,1.7167998267203568,2.944046204215288
1789343251413703200,11.383703125,-1.4853554618895053,1.0139327126383781,0.4977995917841792
1789343251423752200,11.393752197265625,-1.948966660606861,0.5485831458210945,-1.6102144520930946
1789343251433802200,11.40380224609375,-1.376535021686554,0.7765431756675243,-3.0051778415262698
1789343251443852300,11.413852294921876,-0.8068529737353325,1.0462053352117537,-3.122311059783399
1789343251453901000,11.423901123046875,-0.32467619075775145,1.5171160432875155,-2.3205700222343206
1789343251463951000,11.433951171875,0.4492834712225944,1.85163382910192,-2.022578717045486
1789343251474001200,11.444001220703125,0.702208357912302,1.293527068132162,-1.9033999644353985
1789343251484050000,11.4540498046875,0.7158896772623061,0.727915630620718,-1.8318948171481488
1789343251494100000,11.464099853515625,0.32543256208300586,0.806878108176589,-1.756930030926317
1789343251504149200,11.474149169921875,-0.25787819824814795,0.4585159214049577,-1.5382894719585776
1789343251514199300,11.48419921875,-0.8253612748503685,0.06957797861695289,-1.084877595694363
1789343251524249000,11.4942490234375,-0.4729190887561068,-0.1328068804681301,-0.5506291185654699
1789343251534298000,11.504298095703126,0.36584991266727446,-0.2778483886092901,-0.0938596024364233
1789343251544348200,11.51434814453125,0.8309165708899497,-0.4535585912585258,0.2665082255579531
1789343251554397200,11.524397216796874,0.8844400712847709,-0.3611030104011297,0.38607524683326483
1789343251564447200,11.534447265625,0.8349988717675209,-0.4400783474385738,0.4076761071361601
1789343251574497300,11.544497314453125,0.8406535365283488,-0.45829380308687684,0.16117665038406848
1789343251584546000,11.554546142578126,0.39741420430820434,-0.2963151886701584,0.043703532648086546
1789343251594596000,11.56459619140625,-0.1925333271563053,-0.08575053026080132,0.0549238687120378
1789343251604646100,11.574646240234374,-0.20748536056187003,0.1786789893269539,0.1563781640611589
1789343251614695200,11.584695068359375,-0.036448410420678555,0.2979746463149786,0.33278336323723196
1789343251624745200,11.5947451171875,0.2181482454061508,0.15120353790223598,0.5897020688034593
1789343251634794200,11.604794189453125,0.44946584205217655,-0.06242869138419628,0.6790333801604806
1789343251644844000,11.614843994140625,0.49694531304240225,-0.15073825847804545,0.730984516672045
1789343251654894000,11.62489404296875,0.302685381289199,-0.14541794023811816,0.7062430202558636
1789343251664943000,11.634943115234375,-0.012789338946342467,-0.10814297933280467,0.6468631950482726
1789343251674993200,11.6449931640625,-0.3586672711541876,-0.07468962254226208,0.5579886875480413
1789343251685042200,11.655042236328125,-0.6147615451276301,-0.0946001916706562,0.5324276914425194
1789343251695092200,11.66509228515625,-0.7197253829676657,-0.12671440881192683,0.5581707661166787
1789343251705142300,11.675142333984375,-0.7415479231972247,-0.1642038892507553,0.6526498156256973
1789343251715191000,11.68519091796875,-0.7096995904505252,-0.23496903182566165,0.7632187069311738
1789343251725241000,11.695240966796876,-0.6562099923253059,-0.26675007148981095,0.9215034352660179
1789343251735291100,11.705291015625,-0.63371751694493,-0.3182219000518322,1.0748862169034779
1789343251745340200,11.715340087890626,-0.6645241586189716,-0.38511166249811646,1.1973911913268267
1789343251755390200,11.72539013671875,-0.6906615663729607,-0.43059564882218837,1.288088968731463
1789343251765439000,11.73543896484375,-0.6610054099082946,-0.4156535157561302,1.331607646331936
1789343251775489000,11.745489013671875,-0.5457961454510688,-0.32964696490764617,1.3875710872247815
1789343251785539000,11.7555390625,-0.37034605504274365,-0.13552373821139335,1.468783389534056
1789343251795588400,11.76558837890625,-0.2882861959934234,0.015921791753172872,1.5151146403372286
1789343251805638100,11.77563818359375,-0.27958025390319524,0.05982815349698067,1.5673010469093918
1789343251815688200,11.785688232421874,-0.29110001130513846,0.016126958936452863,1.5553440671339631
1789343251825737200,11.7957373046875,-0.3007972294550389,-0.039539983227849004,1.5164906048655509
1789343251835787000,11.805787109375,-0.3055225044112652,-0.09702361942529678,1.4629849323883652
1789343251845836300,11.815836181640625,-0.3880208279430866,-0.21080431238412856,1.429433960442245
1789343251855886300,11.82588623046875,-0.5011071088969707,-0.26207506541609765,1.430983527971804
1789343251865936100,11.83593603515625,-0.6529333087421954,-0.28891221893727775,1.4493039052993058
1789343251875985200,11.845985107421875,-0.8277730121672153,-0.23450375240147112,1.4532728089302778
1789343251886035200,11.85603515625,-0.889524315746501,-0.11832242804169654,1.4702166372075676
1789343251896084000,11.866083984375,-0.8735423182386904,0.03567278640568256,1.4794061980962752
1789343251906133500,11.876133544921874,-0.7836007660288363,0.08916822974979877,1.4352800561219452
1789343251916183600,11.88618359375,-0.7181061842679977,0.07497837635576725,1.3540420348495243
1789343251926232600,11.896232666015624,-0.6578840630173682,0.13805062634050846,1.2192185538619755
1789343251936282400,11.906282470703125,-0.5542237089913338,0.14943185205459594,1.0936173669889568
1789343251946332400,11.91633251953125,-0.46338323518037794,0.22693477845191953,0.8661527194440364
1789343251956381400,11.92638134765625,-0.46415823814086615,0.3139507986038923,0.6363321564227342
1789343251966431500,11.936431396484375,-0.4358860103152692,0.46545185814797874,0.41664077322781085
1789343251976480500,11.94648046875,-0.3424490172050893,0.6683183632701635,0.22625249527618288
1789343251986530600,11.956530517578125,-0.3052488751016557,0.8472790921479463,0.007848667673766612
1789343251996580400,11.966580322265624,-0.3652979048077017,0.916391206818819,-0.1469695535942912
1789343252006629400,11.97662939453125,-0.4086602958679199,0.8523147482275962,-0.30809944222718477
1789343252016679400,11.986679443359375,-0.37104280513525006,0.5974573591053486,-0.4776254032835364
1789343252026728400,11.996728515625,-0.3627121991634369,0.22033026562035082,-0.6044611003875732
1789343252036778500,12.006778564453125,-0.3861608792901039,-0.28803368253707884,-0.7728038430087268
1789343252046828500,12.01682861328125,-0.49093058279752727,-0.8365612987786532,-0.9182856422632932
1789343252056877300,12.026877197265625,-0.5616380038358271,-1.3195768706679343,-0.991173329950124
1789343252066927400,12.03692724609375,-0.6803659439384937,-1.6808523150265215,-1.0184314853623508
1789343252076977400,12.046977294921875,-0.9105636697091162,-1.8880308381289244,-0.7932258687905966
1789343252087026700,12.057026611328125,-1.0910497084580362,-1.7935954816311597,-0.37562121896669265
1789343252097076500,12.067076416015626,-1.1147532401286064,-1.1987480127632617,0.056531157778203486
1789343252107125500,12.07712548828125,-1.0294387631975113,-0.4747703061133623,0.4184155278153717
1789343252117175600,12.087175537109376,-0.8890554561257362,-0.04425064513683319,0.6868460997380316
1789343252127225300,12.097225341796875,-0.9032559770442545,0.01318272217810154,0.805733760447055
1789343252137274600,12.107274658203124,-1.1095113939523695,-0.10484919848442077,0.6582815379023551
1789343252147324700,12.11732470703125,-1.1613536632619796,-0.12097849550843238,0.2527317752704024
1789343252157373400,12.12737353515625,-0.869299785298109,0.08097557094395161,-0.2587880065694451
1789343252167423500,12.137423583984376,-0.3265067671857774,0.3915869959920645,-0.5719537922754884
1789343252177473500,12.1474736328125,0.19602438414245843,0.6915075156778097,-0.6787234374284744
1789343252187522300,12.157522216796876,0.4170774110794067,0.8374275602191686,-0.6603633126124739
1789343252197572400,12.167572265625,0.4443664000213146,0.8179062826693058,-0.6235036545097827
1789343252207622700,12.17762255859375,0.2945769667007029,0.7402431972742081,-0.551289336039871
1789343252217671400,12.18767138671875,-0.0011398176848888397,0.6686188075214624,-0.48578620564639563
1789343252227721500,12.197721435546875,-0.30141207341775295,0.6777817726641893,-0.3847979203738272
1789343252237770500,12.2077705078125,-0.4766124268487096,0.7220727498114109,-0.2885189818359911
1789343252247820300,12.2178203125,-0.48480830052495,0.8246732925862074,-0.1093988246127963
1789343252257870300,12.227870361328126,-0.30648382372409105,0.8909136512130499,0.05510331693217158
1789343252267919600,12.237919677734375,-0.15001374359577893,0.9571884966313838,0.23801512152329085
1789343252277969700,12.2479697265625,-0.017715397171676157,1.0141384643435478,0.3447090710915625
1789343252288018400,12.258018310546875,-0.051877779014408584,1.0481137991815805,0.37229236680492755
1789343252298068500,12.268068359375,-0.2118354089975357,1.0432610984534025,0.3235753899089992
1789343252308118500,12.278118408203126,-0.4608569315731525,1.0340835202634333,0.2617586929433048
1789343252318167600,12.28816748046875,-0.6359557243257761,1.0656459487408398,0.17298589225187896
1789343252328217600,12.298217529296876,-0.762813633261621,1.0564350528031587,0.11213117218613623
1789343252338267600,12.308267578125,-0.8999886458113789,1.051128763088584,0.125968997272104
1789343252348316400,12.31831640625,-1.07166038672477,1.0796750586152075,0.18641192166656254
1789343252358366500,12.328366455078125,-1.152225038780272,1.088943237698078,0.2680703603081405
1789343252368415500,12.33841552734375,-1.2665885000631212,1.111452006626129,0.3501896944597363
1789343252378465500,12.348465576171876,-1.5159809017777441,1.1406366000562906,0.4876826869174838
1789343252388515600,12.358515625,-1.6837150109812615,1.092302484998107,0.6389258261777461
1789343252398564600,12.368564697265626,-1.6007389138698578,0.9299141207367181,0.7784813041232526
1789343252408614400,12.378614501953125,-1.4600097159698604,0.7219061610728502,0.9326780324921011
