time,seconds_elapsed,z,y,x
1789755352590034700,0.04603466796875,-0.6206634626477956,-1.0285893067613243,-2.9045038828998804
1789755352600049700,0.056049560546875,-1.078325982093811,-0.8869374410584568,-2.716149887254834
1789755352610065700,0.066065673828125,-1.4690531463861465,-0.7984455031350255,-2.4385027203060683
1789755352620080600,0.07608056640625,-1.9864374363452195,-0.7868222853586078,-2.142670346716791
1789755352630096600,0.0860966796875,-2.4533885931402444,-0.872740573401749,-1.936103671902418
1789755352640111600,0.096111572265625,-2.943510782164335,-0.8633212954103946,-1.7681684871688483
1789755352650127600,0.106127685546875,-3.4113784692823885,-0.867986949133873,-1.5379964803613722
1789755352660142600,0.116142578125,-3.6530309243947263,-0.882166573394835,-1.2781516582153736
1789755352670158600,0.12615869140625,-3.580211187377572,-0.8735635802224277,-1.040029861447215
1789755352680173600,0.136173583984375,-3.3089339938521385,-0.879100463822484,-0.8131714361671358
1789755352690189600,0.146189453125,-2.971168604418635,-0.8317179504007101,-0.6416270479604601
1789755352700204500,0.15620458984375,-2.507455698892474,-0.7939227650135755,-0.5950048879193142
1789755352710219500,0.166219482421875,-2.0100217255502937,-0.696928371682763,-0.5943660785591229
1789755352720235500,0.176235595703125,-1.7800456797063349,-0.5351537554055452,-0.5184395346330478
1789755352730250500,0.18625048828125,-1.651750139182806,-0.34571605617702006,-0.35037623000778256
1789755352740266500,0.1962666015625,-1.5351333460152148,-0.4263482205107808,-0.24518504968527702
1789755352750281500,0.206281494140625,-1.2766665342241525,-0.6723425042197108,-0.33921427306756374
1789755352760297500,0.21629736328125,-0.9482733687698841,-0.6779644357547163,-0.29878603576309976
1789755352770312400,0.2263125,-1.0939017368882893,-0.3926175080835819,-0.30751882932763547
1789755352780328700,0.23632861328125,-1.4414467620581388,-0.11535860980004072,-0.4288601667990908
1789755352790343700,0.24634375,-1.6100480094850063,-0.09927636678814887,-0.5017142810098827
1789755352800359700,0.256359619140625,-1.8740479054838417,-0.31464491834789515,-0.4394136364521459
1789755352810374700,0.266374755859375,-1.9180133039385079,-0.03968319109082222,-0.14290763791762293
1789755352820390700,0.276390625,-1.571946534627676,0.06445785912424326,0.1969336079418659
1789755352830405600,0.286405517578125,-1.2770429663211107,0.12088672557175159,0.46078766572922464
1789755352840421600,0.296421630859375,-1.207317103666067,0.17102058352828026,0.5276728981308638
1789755352850436600,0.3064365234375,-1.333973644810915,0.42199031756222244,0.44110469481162723
1789755352860452600,0.31645263671875,-1.5532324818074703,0.732537152941525,0.54393130142726
1789755352870467600,0.326467529296875,-1.9363988554567098,0.8539990480527281,0.7136763851270079
1789755352880483600,0.336483642578125,-2.3330916501551866,0.6870236482620239,0.3005980536211282
1789755352890498600,0.34649853515625,-2.2795810092419386,-0.2418310265496373,-0.8195593105733394
1789755352900514600,0.3565146484375,-2.081284880775213,-0.8387672843903302,-1.335040397259593
1789755352910529500,0.366529541015625,-1.6484113501489162,-0.9864610606059432,-0.8659608501337468
1789755352920545500,0.376545654296875,-0.9830810627788305,-1.3137725683033465,-0.32827976820766924
1789755352930560500,0.386560546875,-0.13540624931156633,-1.0096981438085437,0.260415461640805
1789755352940576500,0.396576416015625,0.5430962388426065,-0.7124056345388293,0.5198055257566273
1789755352950591500,0.406591552734375,0.3700298287004232,-0.7879775928735733,0.4258391019448638
1789755352960607500,0.416607421875,0.4552706558734178,-0.5605646755158901,0.6769146344408392
1789755352970622500,0.42662255859375,-0.03136778268814087,-0.6451140132933855,0.721372711783275
1789755352980638700,0.436638671875,-0.4911795891225338,-0.3955687591046095,1.1892190638523548
1789755352990653700,0.44665380859375,-1.3314029175400732,0.2400529109612107,1.3579181456305085
1789755353000669700,0.456669677734375,-2.3200942214161158,0.2136225846752524,1.3267907475695013
1789755353010684700,0.4666845703125,-3.226389566156268,0.3661412968292832,1.3761305325388908
1789755353020700700,0.47670068359375,-4.488544759947061,0.3359291139170527,1.443808084362
1789755353030715600,0.486715576171875,-5.599073221987486,0.2721425781831145,1.5951061686798929
1789755353040731600,0.496731689453125,-5.863910153332352,0.1807125409811735,1.1949302080407738
1789755353050746600,0.50674658203125,-5.271585480940342,-0.1971501733019948,1.0123776652161032
1789755353060762600,0.5167626953125,-0.5054758255004882,0.17873831829875705,4.712242748434841
1789755353070777600,0.526777587890625,5.47118217061162,1.1521978585124015,8.070148862987756
1789755353080793600,0.536793701171875,5.104485285726189,1.061761216261983,4.935229958304762
1789755353090808600,0.54680859375,4.0314556564748285,1.2274131123639642,1.9835851156540214
1789755353100824600,0.556824462890625,3.9410909104168415,1.0653558797530829,0.9493116257764399
1789755353110839600,0.566839599609375,2.920267269220948,0.0030570494830608366,-0.6799851279273629
1789755353120855600,0.57685546875,1.7351742723226546,-1.4914118393190203,-2.328570081077516
1789755353130870500,0.58687060546875,1.5193021551549433,-2.0677112595833838,-3.3543338090240953
1789755353140886500,0.596886474609375,1.0966057351499796,-1.718513644900918,-2.438974575601518
1789755353150901500,0.606901611328125,-0.21588146951794623,-1.3042010223597287,-1.3333736330911516
1789755353160917800,0.616917724609375,-1.3813199178755282,-1.011030123064667,-0.9677670276604592
1789755353170932500,0.626932373046875,-1.6075789890229701,-1.0124999033562838,-0.06762333741784095
1789755353180948700,0.63694873046875,-0.984562825769186,-1.2788596603542566,0.5926601879566907
1789755353190963700,0.646963623046875,0.18972177686691283,-1.7972005203858017,-0.015450667110085487
1789755353200979700,0.656979736328125,0.9041302756607532,-2.159236719983816,-1.0740887829154728
1789755353210994700,0.66699462890625,0.009301496830582618,-2.048632026712596,-1.2591335078820585
1789755353221010700,0.6770107421875,-1.0618465564578772,-1.960536979152262,-0.9571522562742233
1789755353231025700,0.687025634765625,-1.3572107280135155,-2.0426190500333905,-0.620713147008419
1789755353241041700,0.697041748046875,-1.5906033043026924,-2.1459309559479354,-0.29842940434515475
1789755353251056600,0.707056640625,-2.154434288138151,-2.287623445922136,-0.1131672372356057
1789755353261072600,0.71707275390625,-2.6180478249430656,-2.388837210513651,0.07797755817174912
1789755353271087600,0.727087646484375,-2.7097090405523776,-2.4317098452955483,0.34798546241372824
1789755353281103600,0.737103515625,-2.6996435736119744,-2.401258008408546,0.6001315467506647
1789755353291118600,0.74711865234375,-2.765292980608344,-2.4313719916433096,0.9977437943816184
1789755353301134600,0.757134521484375,-2.9731811132848263,-2.670588451780379,1.5692814070716499
1789755353311149600,0.767149658203125,-3.2661201035201546,-2.9736674354970454,2.14354464533329
1789755353321165600,0.77716552734375,-3.522060027182102,-3.320572409197688,2.6062428208589554
1789755353331180500,0.7871806640625,-3.6620869220316408,-3.6760774534612892,3.0350054090350866
1789755353341196500,0.797196533203125,-3.6248154682576654,-3.866741187353432,3.458946276143193
1789755353351211500,0.80721142578125,-3.445702179166674,-3.9013048434734343,3.648336044576764
1789755353361227800,0.817227783203125,-3.2819682455152273,-3.9195127003371715,3.5649504898816344
1789755353371242800,0.82724267578125,-3.1886160080790518,-3.9661072782516475,3.2506554078847167
1789755353381258800,0.8372587890625,-3.0095652628302574,-4.171507978026568,2.7332442299187183
1789755353391273700,0.847273681640625,-2.718801278546452,-4.457716783224046,2.1418857722103595
1789755353401289700,0.857289794921875,-1.4941928483396767,-4.707802135638892,1.3276017716914414
1789755353411304700,0.8673046875,-0.18633154990673065,-4.894477968938649,0.7696504935443401
1789755353421320700,0.87732080078125,-1.1672037044644354,-5.127772053289413,0.1159849250048399
1789755353431335700,0.887335693359375,-0.9614183892861008,-5.492807142442465,-0.19196166474819182
1789755353441351700,0.8973515625,-0.9306953342422842,-5.78241494242847,-0.2151683528125286
1789755353451366700,0.90736669921875,-0.7963786337330937,-5.771296751564741,-0.8247539566069841
1789755353461382700,0.917382568359375,-0.4391317142382264,-5.459510437518358,-1.3086001341015099
1789755353471397600,0.927397705078125,-0.3617255262136459,-4.997113875287771,-1.7160522232234476
1789755353481413600,0.93741357421875,-0.8191497068591416,-4.717041965410113,-2.332902849584818
1789755353491429400,0.947429443359375,-1.2698662065595387,-4.888006434836983,-3.183958537662029
1789755353501445400,0.9574453125,-1.1439691054798662,-5.560855427274108,-4.212749212214351
1789755353511460400,0.96746044921875,-0.5945575460106134,-6.30698417545557,-5.171238270050287
1789755353521476400,0.977476318359375,0.05375964723825454,-6.735653824651241,-6.117433078980445
1789755353531491300,0.9874912109375,0.6473708523094653,-6.848353152114153,-7.149861233252286
1789755353541507300,0.99750732421875,1.2396072618961334,-6.793084853878617,-8.370653904563188
1789755353551522300,1.007522216796875,1.8034680563479661,-6.654462565129995,-9.756903095534444
1789755353561538600,1.01753857421875,2.3594664468616244,-6.412776792269945,-10.874529406881331
1789755353571553500,1.027553466796875,2.8593197563052177,-5.978174245893955,-11.611578776550292
1789755353581569500,1.037569580078125,3.1925171071708203,-5.203447179737687,-12.023884150922298
1789755353591584500,1.04758447265625,3.406170379245281,-4.221481969246268,-12.38683015884161
1789755353601600500,1.0576005859375,3.4689047755777835,-3.3777900879353284,-12.655714904272555
1789755353611615500,1.067615478515625,3.3009050011754035,-2.576330789937079,-12.552805149418115
1789755353621631500,1.077631591796875,2.9557167682647703,-1.7398428486555815,-12.295198169326781
1789755353631646500,1.087646484375,2.5361340963661667,-0.7812047377377748,-12.027879942560196
1789755353641662500,1.097662353515625,2.0457126321345567,0.4336532828271389,-11.67091008644104
1789755353651677400,1.107677490234375,1.5395061542719601,1.94221718634665,-11.118324134719371
1789755353661693400,1.117693359375,0.9123100749850273,3.307294994473457,-10.507430955457687
1789755353671708400,1.12770849609375,0.1738712602516636,4.4552094765782355,-9.842842426365614
1789755353681724400,1.137724365234375,-0.6341098041981458,5.462526570469141,-9.281959186419844
1789755353691739400,1.147739501953125,-1.5085498749941586,6.190915663820505,-8.873819699555636
1789755353701755400,1.15775537109375,-2.3482874657213686,6.602261837771534,-8.261362339717149
1789755353711770400,1.167770263671875,-3.177595432370901,6.737120390072464,-7.609899249657988
1789755353721786400,1.177786376953125,-4.1457454679995775,6.586727584031224,-7.132894316360354
1789755353731801300,1.18780126953125,-5.200487745410204,6.372755747526884,-6.55088937793076
1789755353741817600,1.197817626953125,-6.198025788086652,6.17031594338417,-5.83099689476788
1789755353751832300,1.207832275390625,-6.86411653843522,6.074012454926967,-4.930992759126425
1789755353761848600,1.2178486328125,-7.138519170504808,6.065304247814416,-3.985279596233368
1789755353771863600,1.227863525390625,-7.148322187116742,6.067544135695695,-3.11866276640892
1789755353781879600,1.237879638671875,-6.87057082914114,5.962730593046546,-2.331188446882367
1789755353791894500,1.24789453125,-6.402004638364911,5.752189315512776,-1.8090899878829716
1789755353801910500,1.25791064453125,-5.873334984281659,5.3841591361969705,-1.4561638541966675
1789755353811925500,1.267925537109375,-5.308913633337617,4.970300687164068,-1.123608308365941
1789755353821941200,1.277941162109375,-4.773507364475726,4.611151148918271,-0.8604939630299806
1789755353831956500,1.28795654296875,-4.199537848463654,4.295011900359392,-0.6164437991261482
1789755353841972200,1.29797216796875,-3.6526883945673703,4.018811278957128,-0.40382980697154996
1789755353851987500,1.307987548828125,-3.171267398393154,3.737068805518746,-0.1868254709035158
1789755353862003200,1.318003173828125,-2.729256621587276,3.454714337661862,0.16243804862201214
1789755353872018400,1.328018310546875,-2.215480439122766,3.2627503348261118,0.5671271027714013
1789755353882034200,1.3380341796875,-1.6458387231819331,3.123029144924879,0.9091998340100049
1789755353892049400,1.34804931640625,-1.180576396256685,2.998004588896036,1.10854108761549
1789755353902065200,1.358065185546875,-0.6788169609308242,2.8765105450809,1.1476643067359924
1789755353912080400,1.368080322265625,-0.21738778242766857,2.741967634600401,1.0584159974873066
1789755353922096000,1.37809619140625,0.17852343343906105,2.5895693339556454,0.9526689733803272
1789755353932111400,1.388111328125,0.5176491514403373,2.449770402643084,0.9785971953630447
1789755353942127400,1.39812744140625,0.8358915097583085,2.327445460961759,0.9291659327179193
1789755353952142300,1.408142333984375,1.0772843640863894,2.2762451428174972,0.8902695080906152
1789755353962158300,1.418158447265625,1.35654963375628,2.2618241110160944,1.027467316994071
1789755353972173600,1.428173583984375,1.5899030470788478,2.173639631606638,0.8968862958818673
1789755353982189300,1.438189208984375,1.7674240985423326,1.9131985971331595,0.46547056284844873
1789755353992204500,1.44820458984375,1.9031278694957494,1.539870311409235,0.08348784602582454
1789755354002220300,1.45822021484375,1.9558704486459493,1.2222805717810987,-0.2072165170252323
1789755354012235500,1.468235595703125,1.994855136078596,0.9891212197259068,-0.529445314630866
1789755354022251300,1.478251220703125,1.908331867879629,0.8251005780875682,-0.8345569732189178
1789755354032266500,1.4882666015625,1.7265724481940268,0.6312967926040292,-1.0619944404959678
1789755354042282200,1.4982822265625,1.551267319214344,0.4501137115016579,-1.303924543505907
1789755354052298200,1.50829833984375,1.446329273402691,0.3683095807790756,-1.7643436681836842
1789755354062313200,1.518313232421875,1.264537120491266,0.45565380997210736,-2.2206091803133488
1789755354072329200,1.5283291015625,0.9813187292814254,0.4612430082812905,-2.523766782224178
1789755354082344200,1.53834423828125,0.6996282782912254,0.24442104304283857,-2.8719623802572487
1789755354092360200,1.548360107421875,0.4221627880522981,-0.07773410480469464,-3.2805273990571497
1789755354102375200,1.558375244140625,0.09464110820293425,-0.41340982848256824,-3.843860954764485
1789755354112391400,1.568391357421875,-0.17646715849637984,-0.8324836740761995,-4.6049961334198715
1789755354122406100,1.57840625,-0.4471358647346496,-1.3483464535564182,-5.347485648316145
1789755354132422400,1.58842236328125,-0.7575041286766528,-1.8422075368478894,-5.781424177825451
1789755354142437400,1.598437255859375,-0.9738484664659947,-2.1008707479938864,-5.862815928354859
1789755354152453400,1.608453369140625,-1.0288754302263259,-1.8008099430546163,-5.572179369843006
1789755354162468400,1.61846826171875,-0.939225042982772,-0.9253837838307023,-4.99821686809361
1789755354172484400,1.628484375,-0.6064519819438458,0.21638795773535965,-4.216033640712499
1789755354182499300,1.638499267578125,-0.182990386252664,1.2688874246552586,-3.5279023234695193
1789755354192515300,1.648515380859375,0.12366375253703445,1.9179519291400908,-3.0835587198019025
1789755354202530300,1.6585302734375,0.3063163582026958,1.922833417571336,-2.8927018014252184
1789755354212546300,1.66854638671875,0.3684801881056279,1.460113906996697,-2.8779788640677926
1789755354222561300,1.678561279296875,0.3371696885626763,0.8494220955260098,-3.007814035248756
1789755354232577300,1.688577392578125,0.25613398492932316,0.13497823315784335,-3.112935620933771
1789755354242592300,1.69859228515625,0.21992753003835677,-0.6466374234683812,-2.920362546288967
1789755354252608300,1.708608154296875,0.2366086157262325,-1.4660532339178025,-2.5022604683369396
1789755354262623200,1.718623291015625,0.26114107250161467,-2.2898468210600313,-1.8720920952409505
1789755354272639200,1.72863916015625,0.35709384782500564,-2.9179440869703885,-1.108160563865304
1789755354282654200,1.738654296875,0.49845695971436793,-3.293971110258996,-0.10440379280447959
1789755354292670200,1.748670166015625,0.7025719305276871,-3.378674177293479,1.071304120633006
1789755354302685200,1.758685302734375,0.9965409213978796,-3.2591043795391914,2.2284634009450675
1789755354312701400,1.768701416015625,1.317220078408718,-3.002844722403586,3.2283564823150632
1789755354322716400,1.77871630859375,1.609624815636873,-2.684161634580791,3.9009529612958427
1789755354332732400,1.788732421875,1.8462182337939739,-2.404024258251488,4.179101209634542
1789755354342747400,1.798747314453125,1.972512371367216,-2.1941201095774767,4.063557014134526
1789755354352763400,1.808763427734375,1.9897627813756464,-2.1335572120651602,3.766223003810644
1789755354362778400,1.8187783203125,1.8334195424973965,-2.201013522353023,3.4382518631607293
1789755354372794400,1.82879443359375,1.645556545239687,-2.2642475387707353,3.176680071091652
1789755354382809300,1.838809326171875,1.5106301883995532,-2.353239681301266,2.9570184985131025
1789755354392825300,1.848825439453125,1.410190623050928,-2.448762833035737,2.8024726644456384
1789755354402840300,1.85884033203125,1.2804431301534176,-2.5751585312873124,2.8179870444416997
1789755354412856300,1.868856201171875,1.0650888993799685,-2.7161402426436543,2.9361376230478284
1789755354422871300,1.878871337890625,0.8330605971813202,-2.850304675200581,3.1211329559147356
1789755354432887300,1.88888720703125,0.6610872429728507,-2.988174099755287,3.330205329939723
1789755354442902300,1.89890234375,0.5399333543648943,-3.098661011865735,3.4587867016673086
1789755354452918300,1.908918212890625,0.4342366722056642,-3.194462396019697,3.5305478695422408
1789755354462933200,1.918933349609375,0.40827918759584425,-3.3070103323131796,3.597189794707298
1789755354472949200,1.92894921875,0.43745384415388106,-3.3901568175554275,3.672168755584955
1789755354482964200,1.938964111328125,0.5340040008485317,-3.4163001435935496,3.727130764350295
1789755354492980000,1.94897998046875,0.7153717908680438,-3.4061244942769404,3.7260476452887055
1789755354502995000,1.958994873046875,0.937587139582634,-3.425022086970508,3.641830900466442
1789755354513011200,1.96901123046875,1.1115022755086421,-3.4696094167158007,3.3527152679115533
1789755354523026000,1.97902587890625,1.2113001088876276,-3.570110064601898,2.8859055654138324
1789755354533042200,1.989042236328125,1.2745745303809641,-3.764331783236563,2.423187516143918
1789755354543057200,1.99905712890625,1.2966308793663979,-3.924246450860798,1.9360270995348692
1789755354553073200,2.0090732421875,1.3745898789681494,-4.082693676280975,1.536878728377819
1789755354563088100,2.019088134765625,1.4869570518672466,-4.167891541095078,1.2589958529770373
1789755354573104000,2.029104248046875,1.578005688536167,-4.1725823292598125,1.062303652575612
1789755354583119000,2.039119140625,1.7129330682896076,-4.106125989794731,0.8083616247326135
1789755354593135000,2.049135009765625,1.8281915787160397,-4.064139197936654,0.3834171335399151
1789755354603150000,2.059150146484375,1.8993327149964867,-4.106077182216942,-0.15346622213721275
1789755354613166000,2.069166015625,1.8625041826844215,-4.185309416624904,-0.6989724447309971
1789755354623181000,2.07918115234375,1.7763234443128109,-4.234843262861669,-1.1753051778554915
1789755354633197000,2.089197021484375,1.7479931296244262,-4.213771833260357,-1.5558657529205082
1789755354643213000,2.099213134765625,1.7626292654812334,-4.139724015752971,-1.864489219021797
1789755354653228000,2.10922802734375,1.7261058535955844,-3.9508033261358735,-2.0677251419782636
1789755354663244000,2.119244140625,1.7101039823435247,-3.673634736484289,-2.0431161859005686
1789755354673259000,2.129259033203125,1.7833774544775485,-3.314288798883557,-2.050522078242898
1789755354683275300,2.139275146484375,1.876813278543949,-2.891997452548146,-2.2454180428773163
1789755354693290000,2.1492900390625,1.885186116222292,-2.51877408850342,-2.4239468100786206
1789755354703306200,2.15930615234375,1.8705403357543051,-2.232145596589148,-2.524170102328062
1789755354713321200,2.1693212890625,1.882549776369333,-2.0168053943410515,-2.6967992900967594
1789755354723337200,2.179337158203125,1.835284021195024,-1.8390794679552316,-3.00444952725172
1789755354733352200,2.189352294921875,1.6161938187636433,-1.6771493688553571,-3.3940988331794735
1789755354743368200,2.1993681640625,1.3099066866554319,-1.5068673287346959,-3.7941649037033316
1789755354753383200,2.209383056640625,1.0055625053085386,-1.2081719669297337,-4.055651355576515
1789755354763399200,2.219399169921875,0.6475308651767671,-0.7295356330379843,-4.091401883393526
1789755354773414100,2.2294140625,0.14110709130167962,-0.0850733616515994,-3.9359669915318487
1789755354783430100,2.23943017578125,-0.40144378861784935,0.7268819036588072,-3.6334558708310123
1789755354793445000,2.249445068359375,-0.9416833959203212,1.4838719453334808,-3.323509631693363
1789755354803461000,2.259461181640625,-1.4576573076248167,2.306230531236529,-2.8497715912371873
1789755354813476000,2.26947607421875,-1.9561387441933153,3.0478938244417306,-2.1776789701253176
1789755354823492000,2.2794921875,-2.4068425305426118,3.4908246387019752,-1.5616057578772307
1789755354833507000,2.289507080078125,-2.757142991900444,3.653503510342538,-0.9956348394036293
1789755354843523000,2.299523193359375,-3.0678666451513767,3.7474542981937526,-0.36327626278698444
1789755354853538000,2.3095380859375,-3.542455749478936,3.7912671364352106,0.3053711863070726
1789755354863554000,2.319553955078125,-3.854435540270805,3.790261466524005,0.9474743273466825
1789755354873569000,2.329569091796875,-3.924873350587487,3.7907133019447325,1.4138450539052485
1789755354883585300,2.339585205078125,-3.9178824687868357,3.7369600844472646,1.723034337195754
1789755354893600000,2.34960009765625,-3.769165487003326,3.559608252070844,1.8896599006354808
1789755354903616300,2.3596162109375,-3.5784546990990638,3.3496450666859743,1.9446072963535785
1789755354913631200,2.36963134765625,-3.360098948422074,3.0611972503900526,2.0124919150561094
1789755354923647200,2.379647216796875,-2.9661586673021314,2.8120889263138173,2.08919813811779
1789755354933662200,2.389662109375,-2.500346159148216,2.585295309898257,2.0643898600757122
1789755354943678200,2.39967822265625,-2.07256264513731,2.3514713564544913,2.093205620193481
1789755354953693200,2.409693115234375,-1.6408710177719592,2.054618992167711,2.144723041462898
1789755354963709200,2.419709228515625,-1.1777695221424103,1.8002526014328002,2.1436790853679177
1789755354973724200,2.42972412109375,-0.7475292626291513,1.62290924462378,2.161594681286812
1789755354983740200,2.439740234375,-0.376039298248291,1.490781286330521,2.206872915905714
1789755354993755100,2.449755126953125,-0.07632979096472263,1.4179913599297402,2.2420085266947747
1789755355003771100,2.459771240234375,0.19270225398242471,1.4486457336515188,2.2184265755772588
1789755355013786000,2.4697861328125,0.4394739518046379,1.510399302253127,2.1269079833090303
1789755355023802000,2.479802001953125,0.6757055509120226,1.6123025104135273,1.988870216450095
1789755355033817000,2.489817138671875,0.9305062414109706,1.7090663098588585,1.7651695976138113
1789755355043833000,2.4998330078125,1.1025590905964373,1.7877327270776033,1.4581085585236548
1789755355053848000,2.50984814453125,1.1987117724061012,1.879689126241207,0.9825637609064578
1789755355063864000,2.519864013671875,1.225120471382141,1.951210055619478,0.48960254906415934
1789755355073879000,2.529879150390625,1.2101473586559295,1.9344322315588591,0.06702654056847095
1789755355083895300,2.539895263671875,1.0917723236441612,1.887363314130902,-0.3328682650417089
1789755355093910300,2.54991015625,0.9189081580758094,1.8646029085293412,-0.5770119524478912
1789755355103926300,2.55992626953125,0.7868073800504207,1.9321064189597963,-0.7418763514339923
1789755355113942300,2.5699423828125,0.690022245556116,2.12778535066545,-1.0638052893102168
1789755355123957200,2.579957275390625,0.6080313600897789,2.2524670846059918,-1.675267792892456
1789755355133973200,2.58997314453125,0.4353133249938488,2.2912144561514256,-2.4326164387464524
1789755355143988200,2.59998828125,0.25337737969756124,2.3310528378039597,-3.085716190096736
1789755355154004200,2.610004150390625,0.060509687754046165,2.3187959982991218,-3.716132400473952
1789755355164019200,2.620019287109375,-0.05024551990376785,2.3543945504248143,-4.441935568985342
1789755355174035200,2.63003515625,-0.1347264686201699,2.403967851889133,-5.226583725175261
1789755355184050200,2.64005029296875,-0.38242812250256536,2.317832706224918,-6.152391579636931
1789755355194066000,2.65006591796875,-0.7697346646964549,2.1130422473028303,-7.175060556438565
1789755355204081200,2.6600810546875,-1.3011059789538382,1.8082193425282835,-8.165936803138255
1789755355214097000,2.670096923828125,-1.8582967941224573,1.617704077196121,-8.87800721437335
1789755355224112000,2.680112060546875,-2.3401322163164613,1.587476112192869,-9.09093684834838
1789755355234128000,2.6901279296875,-2.735592838871479,1.748821397142112,-8.712879196015
1789755355244143000,2.70014306640625,-2.8941549228429793,2.113128756542504,-7.86885179913938
1789755355254159000,2.7101591796875,-2.687984700000286,2.5393206174477934,-6.734154526004195
1789755355264174300,2.72017431640625,-2.165042191392183,2.789446886394918,-5.622288677880167
1789755355274190000,2.730190185546875,-1.611931923535466,2.72439135363847,-4.691476731520891
1789755355284205300,2.740205322265625,-1.122205455830693,2.450621758775413,-3.8984751730054614
1789755355294221000,2.750220947265625,-0.6375017847239971,2.0118869349002835,-3.381580127868056
1789755355304236300,2.760236328125,-0.17924365573870016,1.360842947036028,-3.1838924866884946
1789755355314252000,2.770251953125,0.13471706147100776,0.5550362674832344,-3.214875069451332
1789755355324267300,2.780267333984375,0.3696306002497673,-0.26953385698944327,-3.1682951045840975
1789755355334283000,2.790282958984375,0.5675847834110259,-0.961632324297726,-2.857653868919611
1789755355344298200,2.80029833984375,0.7801566899895668,-1.4389035073161125,-2.2666449553012846
1789755355354314000,2.81031396484375,0.9645124828439205,-1.673771709115803,-1.4225906704187392
1789755355364329200,2.8203291015625,1.1297931344807148,-1.701539275354892,-0.47345980803668497
1789755355374345000,2.830344970703125,1.330224521410465,-1.5862205591738223,0.4306295510917902
1789755355384360200,2.840360107421875,1.4725485872864723,-1.4703361719340085,1.2075099958896636
1789755355394376000,2.8503759765625,1.5221312411010264,-1.3599074197515844,1.859002312043309
1789755355404391200,2.86039111328125,1.5152771374225615,-1.2897950419969857,2.3368699996501205
1789755355414407000,2.870406982421875,1.4815899718761443,-1.2811075854115188,2.553487966749072
1789755355424422100,2.880422119140625,1.34664607937932,-1.3076765895158051,2.4404414332836866
1789755355434438000,2.89043798828125,1.1338754353582858,-1.3668950866818428,2.3334844488650557
1789755355444453000,2.900453125,0.9726607910513877,-1.4865113539263606,2.423250644508004
1789755355454469000,2.91046923828125,0.8595814512949437,-1.633699664837867,2.4922844332456586
1789755355464484000,2.920484130859375,0.7730698735337704,-1.8276650706239044,2.565655374404788
1789755355474500000,2.9305,0.6703437316179275,-2.089925575609505,2.6250486436158416
1789755355484516000,2.94051611328125,0.6214391231954097,-2.3460136755704877,2.7680805655002594
1789755355494531000,2.950531005859375,0.736427438378334,-2.4809692585051057,3.0161165841698643
1789755355504547000,2.960547119140625,0.8631517840623855,-2.485843586543202,3.280921951332688
1789755355514562000,2.97056201171875,0.9646855013232678,-2.459670742149651,3.5176480559587477
1789755355524578000,2.980578125,1.055166055780649,-2.516088502681255,3.6659231391936538
1789755355534593000,2.990593017578125,1.1409585985522717,-2.6344205753341314,3.743348908701539
1789755355544609000,3.000609130859375,1.2288625805199145,-2.731191096781194,3.7392631006926296
1789755355554624000,3.0106240234375,1.3298551035761832,-2.817908133986592,3.6452187893390655
1789755355564640000,3.020639892578125,1.427965933716297,-2.9345024230614305,3.508000522169471
1789755355574655000,3.030655029296875,1.4946096124470234,-3.0820798794209954,3.279159617835283
1789755355584671200,3.040671142578125,1.5284183585464954,-3.310135770857334,3.0085955410152674
1789755355594686000,3.05068603515625,1.5823872646212578,-3.577116728493571,2.6674931161135436
1789755355604702200,3.0607021484375,1.5752748022675513,-3.9052027276948094,2.2953134159028528
1789755355614717200,3.07071728515625,1.4670936828814447,-4.289526746946573,1.9416455239385366
1789755355624733200,3.080733154296875,1.3127658754788338,-4.593505017590522,1.7585931418329477
1789755355634748200,3.090748046875,1.2853718187272547,-4.714408694297075,1.6403402718961237
1789755355644764200,3.10076416015625,1.4054783537067472,-4.746292025291919,1.3531167366981505
1789755355654779100,3.110779052734375,1.5010672641538083,-4.853320905902981,0.8028419845283031
1789755355664795100,3.120795166015625,1.4395733694016932,-5.13283167476654,0.16940905667841433
1789755355674810000,3.13081005859375,1.2635948712050915,-5.44329930742979,-0.404808881136775
1789755355684826000,3.140826171875,1.1442298022426665,-5.736439373195171,-0.9227741858541965
1789755355694841000,3.150841064453125,1.1555017223633826,-6.111559803032875,-1.4508826989233492
1789755355704857000,3.160857177734375,1.2371639603972435,-6.418524980533123,-1.9192787938296794
1789755355714872000,3.1708720703125,1.4161607835017145,-6.5437617180079215,-2.063476252362132
1789755355724888000,3.18088818359375,1.7319545796237885,-6.349641413921117,-1.797770721489191
1789755355734903000,3.190903076171875,2.1460029982708395,-5.761721698489785,-1.3145002980560063
1789755355744919000,3.2009189453125,2.5882126586496828,-5.016849087849259,-0.7039011333048343
1789755355754934000,3.21093408203125,2.9830630403518676,-4.355106888099015,-0.4952332484275102
1789755355764950000,3.220949951171875,3.283191942091286,-3.6744229642525315,-0.6386123763144016
1789755355774965000,3.230965087890625,3.427127827078104,-2.9996985333323476,-0.9916226811528205
1789755355784981200,3.240981201171875,3.29110140004158,-2.481722707220912,-1.6385954740554094
1789755355794996200,3.250996337890625,2.834355995440483,-2.0679346930757165,-2.342212529721856
1789755355805012200,3.26101220703125,2.127858415901661,-1.6609326858088374,-2.8767034373044966
1789755355815028200,3.2710283203125,1.3384848386250436,-1.2069852413631974,-3.286106660494208
1789755355825043200,3.281043212890625,0.5528418992441148,-0.712005237044394,-3.3497102408766746
1789755355835059200,3.29105908203125,-0.19655593373589217,-0.12910276525318623,-3.0941099244326353
1789755355845074200,3.30107421875,-0.9234357915680855,0.40223815386593337,-2.6673107452839613
1789755355855090200,3.311090087890625,-1.4219500344276428,0.842281429991126,-2.1058283704012632
1789755355865105200,3.321105224609375,-1.7601415403187275,1.2025704936608672,-1.5454197622299193
1789755355875121200,3.33112109375,-2.0055939722359177,1.5269862799167633,-1.019881976431608
1789755355885136100,3.34113623046875,-2.2470716553032397,1.7616674347117542,-0.554887798923254
1789755355895152000,3.351152099609375,-2.5260931793451307,1.9224898648306725,-0.042186113822460174
1789755355905167000,3.3611669921875,-2.7315900329709053,2.07594731913954,0.4544523252278566
1789755355915183000,3.37118310546875,-2.847220737710595,2.200168157570064,0.8791793742775916
1789755355925198000,3.381197998046875,-2.8702023848474023,2.293431547679007,1.2160282333880663
1789755355935214000,3.391214111328125,-2.8039614416986702,2.35089560239315,1.595660003170371
1789755355945229000,3.40122900390625,-2.633224351286888,2.370174595619738,1.8589198944568632
1789755355955245300,3.411245361328125,-2.3764064757466317,2.338784893360734,1.9768080227345226
1789755355965260000,3.421260009765625,-2.059664585119486,2.263309965659678,1.9851614250600338
1789755355975276300,3.4312763671875,-1.7076526436686514,2.1860911169007418,1.9450000950634478
1789755355985291300,3.441291259765625,-1.403636963623762,2.1043837245509027,1.9277274732232093
1789755355995307300,3.451307373046875,-1.143172256013751,2.065887697418034,1.9242139121443032
1789755356005322200,3.461322265625,-0.8864438123226165,2.037347831632197,1.9355951378583907
1789755356015338200,3.471338134765625,-0.6845563813656568,2.069871798618138,1.9499118325024842
1789755356025353200,3.481353271484375,-0.536036383458972,2.1162959884017707,1.9320804077357052
1789755356035369200,3.491369140625,-0.4762678146621212,2.226391563107073,1.832851387220621
1789755356045384200,3.50138427734375,-0.5633230708459391,2.3219611843317747,1.727956011506915
1789755356055400200,3.511400146484375,-0.7129653142482042,2.354046175378561,1.595522056004405
1789755356065415200,3.521415283203125,-0.8349655540198088,2.4358742714986206,1.3684955076158045
1789755356075431200,3.53143115234375,-0.8915911120831966,2.519147305729985,1.0626198789179324
1789755356085446100,3.541446044921875,-0.8751209657322615,2.592560040204227,0.7655874818891286
1789755356095462100,3.551462158203125,-0.802206024712324,2.6037322993427514,0.4122399079203605
1789755356105478100,3.56147802734375,-0.6879957812298089,2.577282976095378,0.08750175784230231
1789755356115493000,3.5714931640625,-0.5532464979896321,2.5491487685009835,-0.21887831324636936
1789755356125509400,3.58150927734375,-0.44440267691109325,2.513582072818279,-0.5516700059205293
1789755356135524000,3.591524169921875,-0.3704676355957985,2.483240126046538,-1.02368312228024
1789755356145540400,3.601540283203125,-0.336717305152677,2.4571821402043104,-1.5492723460048436
1789755356155555300,3.611555419921875,-0.4227028132131323,2.4088369192302226,-2.0132021091520786
1789755356165571300,3.6215712890625,-0.6050520885506645,2.302216911680996,-2.6870214079260824
1789755356175586300,3.63158642578125,-0.67293141002357,2.249284655177593,-3.5344431234151124
1789755356185602300,3.641602294921875,-0.7615420058906078,2.23999280295819,-4.2237721260100605
1789755356195617300,3.6516171875,-0.8647685716092586,2.204996892900765,-4.675967027699947
1789755356205633300,3.66163330078125,-0.882584214285016,2.2364780728355047,-5.149962842309475
1789755356215648300,3.671648193359375,-0.8543138130903244,2.2432880451112984,-5.743973860353231
1789755356225664300,3.681664306640625,-0.8316548220366239,2.2076272414043543,-6.472426666590571
1789755356235679200,3.69167919921875,-0.8572551272392273,2.1846277663499114,-7.209898645585775
1789755356245695200,3.7016953125,-0.9075187490552663,2.311430730228126,-7.68951288459897
1789755356255710200,3.711710205078125,-0.9810533563435077,2.687264861293137,-7.7449606310546395
1789755356265726200,3.721726318359375,-1.0629466266542673,3.259338480556011,-7.220395489680767
1789755356275741200,3.7317412109375,-1.054556399449706,3.840616273754835,-6.392109851816296
1789755356285757200,3.741757080078125,-0.9081588005244732,4.17317415767312,-5.824139283958077
1789755356295772200,3.751772216796875,-0.6469084954947233,4.1516427093446255,-5.49798249925375
1789755356305788200,3.7617880859375,-0.5187216760426759,3.8228921087548136,-5.248865699610114
1789755356315803100,3.77180322265625,-0.5130658057054505,3.26377909335196,-5.118026904344559
1789755356325819100,3.781819091796875,-0.5100801044255495,2.528605162166059,-4.966670806229114
1789755356335834400,3.79183447265625,-0.4774269581019878,1.7814380108475685,-4.814391163527965
1789755356345850000,3.80185009765625,-0.32460604813098903,0.9712737206071614,-4.606262792354822
1789755356355866000,3.8118662109375,-0.06799159534149803,0.20210341179519892,-4.392065914922952
1789755356365881000,3.821881103515625,0.18223171337246893,-0.4625444462686777,-4.130444438493251
1789755356375897000,3.83189697265625,0.4257482087910175,-0.9403314698547124,-3.5958576693207025
1789755356385912000,3.841912109375,0.6535434034645557,-1.2013240007311106,-2.773588515266776
1789755356395928000,3.851927978515625,0.8748129957616329,-1.315667442139238,-1.8634528617113828
1789755356405943000,3.861943115234375,1.1189818176090716,-1.2994699021846055,-0.959325508660078
1789755356415959000,3.871958984375,1.413523566865921,-1.2549066839672625,-0.11989128479361534
1789755356425974000,3.88197412109375,1.6547814697027206,-1.2216039876937865,0.5248918891102076
1789755356435990000,3.891989990234375,1.7813339659512042,-1.250100306598842,0.9206342512160539
1789755356446005000,3.9020048828125,1.8238626096010206,-1.3502730377048253,1.1269009201705456
1789755356456021000,3.91202099609375,1.8250491890370846,-1.453245482531935,1.3016127594321965
1789755356466036000,3.922035888671875,1.7203215711057185,-1.6706702359691261,1.3763298545032738
1789755356476052000,3.932052001953125,1.547680692899227,-2.044221809054911,1.3651830220669507
1789755356486067000,3.94206689453125,1.297734456694126,-2.416081775791943,1.3683727580189704
1789755356496083000,3.9520830078125,1.0748445697188376,-2.8328382843539117,1.4873726469308137
1789755356506098000,3.962097900390625,0.9427356083869933,-3.221486596545577,1.708392063859105
1789755356516114000,3.972114013671875,0.8732944078922271,-3.5564629397824405,1.990131030166149
1789755356526129000,3.98212890625,0.9036509677112102,-3.8385397597417232,2.418479776844382
1789755356536145000,3.992144775390625,0.9965116222381591,-3.9880326943337914,2.940532643136382
1789755356546159900,4.002159912109375,1.093525889313221,-4.078317945414781,3.4863346338063477
1789755356556176000,4.01217578125,1.2067068628132342,-4.132991200366616,3.9883407373696564
1789755356566190800,4.02219091796875,1.3310498663187027,-4.155232258269191,4.423434866654873
1789755356576206800,4.032206787109375,1.4155939433991909,-4.190872019188106,4.704335044050216
1789755356586221800,4.042221923828125,1.442294903320074,-4.249603901880979,4.824835400652885
1789755356596237800,4.05223779296875,1.39256261190176,-4.357174049761891,4.803928221702575
1789755356606253800,4.06225390625,1.3554723599135874,-4.4619624579697845,4.69470563043952
1789755356616268800,4.072268798828125,1.3142951308727264,-4.571198493236303,4.530511093538999
1789755356626285000,4.08228515625,1.275792673999071,-4.674893845510483,4.2995168105632064
1789755356636300000,4.092300048828125,1.26053899076581,-4.7919145433038475,4.036231200313568
1789755356646316000,4.10231591796875,1.2460779192149638,-4.915714525973796,3.7050218083947897
1789755356656331000,4.1123310546875,1.2458639842033385,-5.0239709025532004,3.447797105619311
1789755356666347000,4.122346923828125,1.2482722143888472,-5.037727040705085,3.2587147956997153
1789755356676362000,4.132362060546875,1.2813421248197554,-4.947924604704975,2.942726353788376
1789755356686378000,4.1423779296875,1.2924632382929324,-4.8121270179882645,2.4658055916428565
1789755356696393000,4.15239306640625,1.3123907585561274,-4.7664697209239,1.8207909470707178
1789755356706409000,4.162408935546875,1.250091246509552,-4.893037999263406,1.1089297946721315
1789755356716424000,4.172423828125,1.1206840184170752,-5.0898056029886005,0.39202129575610156
1789755356726440000,4.18243994140625,0.9856301627397537,-5.349157380920648,-0.4196276800841093
1789755356736455000,4.192454833984375,0.9182769475001841,-5.632406751790643,-1.3548586119294166
1789755356746471000,4.202470947265625,0.988884926752001,-5.929697507494688,-2.1535516600847244
1789755356756486000,4.21248583984375,1.1582173379976302,-6.156632285946607,-2.7196844911217686
1789755356766502000,4.222501953125,1.4314800793170928,-6.21714666814208,-2.994804331550002
1789755356776516900,4.232516845703125,1.7230803682945668,-6.009900340500474,-2.970437952056527
1789755356786532900,4.242532958984375,2.119526787016541,-5.490548549860716,-2.9197599042207
1789755356796547800,4.2525478515625,2.547349902385473,-4.678609358902276,-2.8846313076943155
1789755356806564000,4.262564208984375,2.915784570848942,-3.7393507789760827,-3.0021260527402163
1789755356816580000,4.272580078125,3.0938591645419597,-2.836414973796904,-3.246033593302965
1789755356826595000,4.282594970703125,2.98012990950942,-2.0550668820656837,-3.677302611342072
1789755356836611000,4.292611083984375,2.5689818884789943,-1.4177828317455947,-4.375847770571708
1789755356846626000,4.3026259765625,1.9802035103917122,-0.9077160251930355,-5.069242122909427
1789755356856642000,4.31264208984375,1.2636707129202782,-0.4459595144316554,-5.55674799195528
1789755356866657000,4.322656982421875,0.3986182828683406,-0.040382571531832216,-5.594996766328811
1789755356876673000,4.332673095703125,-0.4130395338654518,0.31052316224277016,-5.110438056650757
1789755356886688000,4.34268798828125,-0.9790144709270447,0.6663549542427063,-4.340382489436864
1789755356896704000,4.3527041015625,-1.3090753503978252,1.0198229397207499,-3.4620185231953857
1789755356906719000,4.362718994140625,-1.4972048896372316,1.3561600499168038,-2.631806885704398
1789755356916735000,4.37273486328125,-1.7071277430117129,1.6782856794089078,-1.8650462683826683
1789755356926750000,4.38275,-1.9985820476472376,1.9356883690997957,-1.1782727954894303
1789755356936766000,4.392765869140625,-2.316044653764367,2.1796756969004867,-0.6073685122668743
1789755356946781000,4.402781005859375,-2.554180040666461,2.428538229522109,-0.11252338637411594
1789755356956797000,4.412796875,-2.7644395786494016,2.6222777175977825,0.3311567849487066
1789755356966812000,4.42281201171875,-2.9422680886268613,2.7899045670345424,0.6798685158103704
1789755356976828200,4.432828125,-3.012633418229222,2.949814850744605,0.9953244582802057
1789755356986843000,4.4428427734375,-3.011128274363279,3.0746961989104746,1.2776590523928404
1789755356996859100,4.452859130859375,-2.86602889855504,3.1690377396449443,1.534344241464138
1789755357006874000,4.4628740234375,-2.6315163783252236,3.193123840892315,1.72085991576612
1789755357016890000,4.47289013671875,-2.3707260920226574,3.164702048528194,1.868373951500654
1789755357026905000,4.482905029296875,-2.1390800671398638,3.05093509183377,1.9874574270427225
1789755357036921000,4.492921142578125,-1.896861794838309,2.8916160520151255,2.1080062989622355
1789755357046937000,4.50293701171875,-1.7225521066367626,2.7196254544109104,2.2531045057266947
1789755357056952000,4.5129521484375,-1.5721809279054402,2.5745234482541677,2.365101237878203
1789755357066968000,4.522968017578125,-1.394794900998473,2.440962826809287,2.4821447320252656
1789755357076983000,4.532983154296875,-1.1960464256543666,2.334342526999116,2.6357594227224586
1789755357086999000,4.5429990234375,-0.9309166488427668,2.3329706541240216,2.776402403643727
1789755357097014000,4.553013916015625,-0.6831324860423803,2.4091858787983655,2.7799469443827864
1789755357107030000,4.563030029296875,-0.4697148493546992,2.539835873493552,2.6696973481595516
1789755357117045000,4.573044921875,-0.30401399954445657,2.665884219612181,2.4927380222320554
1789755357127061000,4.58306103515625,-0.22071787669844925,2.77233120868206,2.0709674849003554
1789755357137076000,4.593075927734375,-0.23319624999947844,2.83926597931385,1.5430132856100798
1789755357147092000,4.603092041015625,-0.2868331476408988,2.7816180924654006,1.1134504869669675
1789755357157107000,4.61310693359375,-0.30409342145621776,2.6295757656514644,0.6475806956678628
1789755357167123200,4.623123291015625,-0.3163163586914539,2.37305190462172,0.08808043451309204
1789755357177138200,4.63313818359375,-0.31340492822416127,2.1223793999686835,-0.5114560689538717
1789755357187154200,4.643154296875,-0.3320101138424128,1.9037503853082656,-1.1111609147250652
1789755357197169200,4.653169189453125,-0.3555103780258447,1.7662100465774535,-1.711084956204891
1789755357207185200,4.66318505859375,-0.3413694783400744,1.7199650127530097,-2.232371514299512
1789755357217200000,4.6732001953125,-0.28375556682646275,1.7495748458579181,-2.7843127383768556
1789755357227216100,4.683216064453125,-0.13900390847735106,1.8828622033193707,-3.3602117611467834
1789755357237231000,4.693231201171875,0.01310205815732479,2.0592899065881967,-4.102748622316122
1789755357247247000,4.7032470703125,0.12909633551239966,2.193216730996966,-4.815100188580155
1789755357257262800,4.713262939453125,0.18503741844296454,2.275262561520934,-5.400863018238544
1789755357267278000,4.723278076171875,0.18195757260620593,2.382243511337042,-5.977128536233305
1789755357277293800,4.7332939453125,0.13562953667342662,2.4755758750289676,-6.674125881499052
1789755357287309000,4.74330908203125,0.023047113588452336,2.494158410423994,-7.500750308153033
1789755357297324800,4.75332470703125,-0.16863748778402804,2.420043372899294,-8.242341412904858
1789755357307340000,4.763340087890625,-0.43323648218717425,2.3743612336546183,-8.841236695858836
1789755357317355800,4.773355712890625,-0.812896345552802,2.4705612617373465,-9.11530907306075
1789755357327371000,4.78337109375,-1.2876742504507301,2.710323373058438,-8.88477656237781
1789755357337387000,4.793386962890625,-1.6987381003290414,3.005764701503515,-8.21108176676631
1789755357347402000,4.803402099609375,-1.701653695514798,3.2567028713554143,-7.410987619641423
1789755357357418000,4.81341796875,-1.2514303861588238,3.2861949232995507,-6.739611037844419
1789755357367433000,4.823432861328125,-0.8024871797412634,3.0248858738198874,-6.147295717802644
1789755357377449000,4.833448974609375,-0.4372329314121976,2.505885380835831,-5.645758400794864
1789755357387464000,4.8434638671875,-0.1687269561657682,1.8662080056384205,-5.263721907958388
1789755357397480000,4.85347998046875,-0.012117175305821001,1.1472937198579312,-4.932241882404685
1789755357407495000,4.863494873046875,0.007370236507058143,0.3443202179044485,-4.5657326290458435
1789755357417511000,4.873510986328125,-0.005261281529068946,-0.41314504006654024,-4.075570108011365
1789755357427526000,4.88352587890625,0.09753799868822097,-1.0982605166196822,-3.4982898600161074
1789755357437542000,4.8935419921875,0.3272130157589912,-1.6252596071422099,-2.849107574370503
1789755357447558000,4.903557861328125,0.6223907248318195,-1.9322922969207166,-2.0276023904263973
1789755357457572900,4.91357275390625,0.9067641312956809,-2.0633339212819934,-1.0925590901076794
1789755357467588900,4.9235888671875,1.1814485029160975,-2.0272233279809355,-0.12032733812332153
1789755357477603800,4.933603759765625,1.504871478742361,-1.8900915700510144,0.8045265766143799
1789755357487619800,4.943619873046875,1.7859142794787883,-1.7541300249442457,1.5553075345158576
1789755357497634000,4.953634033203125,2.019807206505537,-1.6548147874504326,2.12099671343863
1789755357507650300,4.963650390625,2.149080067628622,-1.6119295854479074,2.4877491279035806
1789755357517665300,4.973665283203125,2.155113502573967,-1.6124302284464238,2.624713712573051
1789755357527681300,4.983681396484375,2.0405413669764996,-1.683443062172085,2.6270120526432987
1789755357537696300,4.9936962890625,1.811422814744711,-1.8570383184939623,2.675578222891688
1789755357547712300,5.003712158203125,1.5550900923728943,-2.0384879415780306,2.7350743679553267
1789755357557727200,5.013727294921875,1.3668576772809027,-2.2599827209331096,2.7398323761373757
1789755357567743200,5.0237431640625,1.2429577413678168,-2.5479253641858697,2.806830275133252
1789755357577758200,5.03375830078125,1.1509539959311486,-2.8050091971859334,2.9692940427184102
1789755357587774200,5.043774169921875,1.0815350072681904,-3.0066371004238723,3.145528561502695
1789755357597789200,5.0537890625,1.0555366426587105,-3.1810695382222534,3.3457997894346714
1789755357607805200,5.06380517578125,1.0891127490460872,-3.35028804076463,3.5324697775155305
1789755357617820200,5.073820068359375,1.1801941189408303,-3.50091494782269,3.731163965389132
1789755357627836200,5.083836181640625,1.3221078504502772,-3.634090953864157,3.945259720534086
1789755357637852200,5.09385205078125,1.4919570521116257,-3.7220752345263954,4.166504762911797
1789755357647867100,5.1038671875,1.673106230944395,-3.755397073891759,4.338799019637704
1789755357657883100,5.113883056640625,1.8512790243148802,-3.7559605529934164,4.414874543580413
1789755357667898000,5.123898193359375,2.0279040037214755,-3.736136493104696,4.4719028372257945
1789755357677914400,5.133914306640625,2.192506536900997,-3.730185768006742,4.420976952108741
1789755357687929000,5.14392919921875,2.3252830222308636,-3.752254099690914,4.155574203574657
1789755357697945300,5.1539453125,2.3483494250416754,-3.92740433036983,3.8027164589494467
1789755357707960300,5.163960205078125,2.285516829031706,-4.158499151110649,3.3673277306318283
1789755357717976300,5.173976318359375,2.156666138843447,-4.402255300503969,2.8582290384590623
1789755357727991300,5.1839912109375,2.0584088859699667,-4.661325631146132,2.409016367450356
1789755357738007300,5.19400732421875,2.0381237844407556,-4.857600190657377,2.0749042398273945
1789755357748022300,5.204022216796875,2.08805583621487,-4.937295658662915,1.8495932631850243
1789755357758038300,5.214038330078125,2.1820658069074153,-4.92356114782095,1.5718202778995036
1789755357768053200,5.22405322265625,2.204899570006132,-4.879165833516419,1.109857430911064
1789755357778069200,5.2340693359375,2.103358765417337,-4.952437698215246,0.5888204636633396
1789755357788084200,5.244084228515625,1.8646188367508352,-5.089948226329684,0.13971066850721836
1789755357798100200,5.254100341796875,1.613930257745832,-5.2179199417263264,-0.46240533005893225
1789755357808115200,5.264115234375,1.4061574220120907,-5.337493831133842,-1.1241536672890187
1789755357818131200,5.274131103515625,1.254403995142132,-5.478278850874305,-1.8209446763277053
1789755357828147200,5.284147216796875,1.1572915283896028,-5.640093214640021,-2.4852386063873766
1789755357838162200,5.294162109375,1.0936813721358776,-5.74194206226468,-2.9718863972991705
1789755357848178400,5.304178466796875,1.150765633752197,-5.711642201068997,-3.1393226925998925
1789755357858193200,5.314193115234375,1.3859693511165678,-5.413231501424312,-3.021964725676179
1789755357868209400,5.32420947265625,1.7998750002920627,-4.762067978833615,-2.9786732809603214
1789755357878224400,5.334224365234375,2.2037238042250276,-3.7960558320164677,-2.935371899372339
1789755357888240400,5.344240478515625,2.54245043990612,-2.7817466872811316,-2.87091550155282
1789755357898255400,5.35425537109375,2.676870600789785,-1.8399657492704689,-3.005442629942298
1789755357908271400,5.364271240234375,2.5239374626159665,-1.0444736891135573,-3.4584804121971127
1789755357918286300,5.374286376953125,2.079909939160198,-0.4297650432169437,-4.035846584910154
1789755357928302300,5.38430224609375,1.4654993994273244,0.036758828076720235,-4.548061947798729
1789755357938317300,5.3943173828125,0.7146363892655819,0.3588949789628386,-4.729963406303525
1789755357948333300,5.404333251953125,-0.1251904871802777,0.5789625019937753,-4.4714813969433305
1789755357958348300,5.414348388671875,-0.9109411247193813,0.7517799058109521,-3.9089825384944676
1789755357968364300,5.4243642578125,-1.4884300470292566,0.9408782900825142,-3.1711767975002525
1789755357978379300,5.434379150390625,-1.9123767593562602,1.1916373039752244,-2.3720400972306726
1789755357988395300,5.444395263671875,-2.2585154248595236,1.4751716292664407,-1.5852227803081274
1789755357998411300,5.454411376953125,-2.5835095955252645,1.7331252308383582,-0.813472684136033
1789755358008426200,5.46442626953125,-2.8416496595799923,1.9443895619496703,-0.07411737561225891
1789755358018442200,5.474442138671875,-3.0069203012794254,2.1140818194836375,0.5341518848866224
1789755358028457200,5.484457275390625,-3.021661943337321,2.230066159966588,1.0860159520745276
1789755358038473500,5.494473388671875,-3.082231855112314,2.3020357098951933,1.6237813512831925
1789755358048488400,5.504488525390625,-2.8946880068063736,2.404231471261382,2.056706319835782
1789755358058504400,5.51450439453125,-2.6445307581990956,2.4602593556925654,2.3857933127731084
1789755358068519400,5.52451953125,-2.3727730876803395,2.485294135966897,2.641771814879775
1789755358078535400,5.534535400390625,-2.056441531419754,2.4624752781763672,2.805280123081803
1789755358088550400,5.54455029296875,-1.7436153529316185,2.3675904243454338,2.837884754088521
1789755358098566400,5.55456640625,-1.4571283153146504,2.2641794419705867,2.7907138375908134
1789755358108581400,5.564581298828125,-1.2090870359480381,2.159576327201724,2.7400907348126173
1789755358118597400,5.574597412109375,-0.9999130281794816,2.062441064095497,2.7390140454918144
1789755358128612400,5.5846123046875,-0.7990607124239206,1.9896575674355028,2.7453742281734943
1789755358138628400,5.59462841796875,-0.6073136037418618,1.9167089433416724,2.7036072165459393
1789755358148644000,5.60464404296875,-0.4551011810580268,1.9098393498331308,2.6432588385671374
1789755358158659300,5.614659423828125,-0.35648528747260566,1.957418847131729,2.578204474854469
1789755358168675000,5.624675048828125,-0.30582711338102814,1.952450703330338,2.3875404487013814
1789755358178690300,5.634690185546875,-0.23740882619321346,1.8958070250883696,2.1252707374960185
1789755358188706000,5.6447060546875,-0.2053114871215075,1.9341689044475554,1.844134413257241
1789755358198721300,5.65472119140625,-0.219259421518445,2.044386059705913,1.484790813744068
1789755358208737300,5.6647373046875,-0.20595153859071433,2.1509666120275854,1.0954039581447839
1789755358218752500,5.67475244140625,-0.17465682113878428,2.154411784045398,0.5941524723410606
1789755358228768300,5.684768310546875,-0.15247436155565083,2.1116019853666423,-0.017177344772219657
1789755358238783200,5.694783203125,-0.12853862856440246,1.9532967987656593,-0.6345780062317847
1789755358248799200,5.70479931640625,-0.14661800021026283,1.8330869495421647,-1.240282969200611
1789755358258814200,5.714814208984375,-0.18220077024493364,1.8020774787724017,-1.6680150452852247
1789755358268830200,5.724830322265625,-0.1816542057454586,1.8782281137779353,-2.0519909817516804
1789755358278845200,5.73484521484375,-0.1715367163568735,2.052894068071246,-2.4821499927222725
1789755358288861200,5.744861083984375,-0.16180037177298218,2.3602277866229415,-2.8821926823705435
1789755358298877200,5.754877197265625,-0.16000705861542372,2.7148043178647754,-3.3692759420901535
1789755358308892200,5.76489208984375,-0.15409746924545614,3.0504569529280063,-3.941775970071554
1789755358318908200,5.774908203125,-0.18092472242712973,3.3219238238066433,-4.593144952106476
1789755358328923100,5.784923095703125,-0.2690812178511172,3.4353400673672554,-5.185832612591981
1789755358338939100,5.794939208984375,-0.4298446112591773,3.480712702271342,-5.563767515328526
1789755358348954000,5.8049541015625,-0.575939939302206,3.518251282548904,-5.83485824637115
1789755358358970000,5.81497021484375,-0.6817127554375678,3.5848066984742877,-6.093188864561915
1789755358368985000,5.824985107421875,-0.7855419632244854,3.6251392933845517,-6.3219870987981555
1789755358379001300,5.83500146484375,-0.9046277037888765,3.593653145013749,-6.582185848948359
1789755358389016300,5.845016357421875,-1.0244020111393184,3.4577439146161075,-6.854917332935333
1789755358399032300,5.8550322265625,-1.1506097125381232,3.2883591155961156,-7.126588494214415
1789755358409047300,5.86504736328125,-1.2966963458180427,3.1201950905427336,-7.199543840309977
1789755358419063300,5.875063232421875,-1.4355612111508846,2.9843408052027223,-7.009434525430202
1789755358429078300,5.885078369140625,-1.4340712648540734,2.826158952720463,-6.614757746729254
1789755358439094300,5.89509423828125,-1.208541165568307,2.5864231448844075,-6.191127845266461
1789755358449110300,5.9051103515625,-0.819341868430376,2.214556748406589,-5.837645246741175
1789755358459125200,5.915125244140625,-0.47849195698499675,1.7164400534972548,-5.457042586100101
1789755358469141200,5.925141357421875,-0.22713410041630266,1.230239714092016,-5.066731016871333
1789755358479156200,5.93515625,0.015069558838009834,0.748497815400362,-4.6545641741871835
1789755358489172200,5.945172119140625,0.23862404720187186,0.2351712763994932,-4.165224659973383
1789755358499188200,5.955188232421875,0.4532867520472035,-0.21700287476330996,-3.576872398343682
1789755358509204200,5.965204345703125,0.6395107864588498,-0.5432844548910856,-2.913435377374291
1789755358519219200,5.97521923828125,0.8518360247999429,-0.7236100423812866,-2.1397002448648212
1789755358529235200,5.985235107421875,1.0706003562778235,-0.7503034035176038,-1.3199854514688252
1789755358539250200,5.995250244140625,1.2752981684803961,-0.6830474381074308,-0.4942401457369327
1789755358549266200,6.00526611328125,1.422007317572832,-0.5705841113574802,0.24335575189888475
1789755358559281200,6.01528125,1.5031523998647927,-0.47648412429392334,0.9103940122306347
1789755358569297200,6.025297119140625,1.5118138452261685,-0.4065783750273287,1.4168775534689426
1789755358579312000,6.03531201171875,1.4766449166893958,-0.4139730153232813,1.7891285653501747
1789755358589328100,6.045328125,1.3983008632928131,-0.5037121768288314,2.020122848325968
1789755358599344000,6.05534423828125,1.2902344563275574,-0.713325671993196,2.0802187128484246
1789755358609359400,6.065359375,1.14317400957942,-1.0639548538487404,2.001429253771901
1789755358619375000,6.075375,0.9553981060832738,-1.5179948719486593,2.01204358676672
1789755358629390300,6.085390380859375,0.7283084293305874,-1.963620039859414,2.1630957334995267
1789755358639406000,6.095406005859375,0.568651535859704,-2.3395970865264535,2.340513324588537
1789755358649421300,6.10542138671875,0.4791577274173498,-2.6697517086952924,2.541066876593232
1789755358659437000,6.11543701171875,0.3998375224649906,-2.9864965219318864,2.765110025256872
1789755358669452300,6.125452392578125,0.329759193110466,-3.2954303691565987,3.0265812795609235
1789755358679468000,6.135468017578125,0.2581710437148809,-3.578139057278633,3.287199716427922
1789755358689483300,6.145483154296875,0.21692601013481616,-3.8455446700677274,3.515284249436855
1789755358699499000,6.1554990234375,0.20525895321667192,-4.0616485501646995,3.758278182286024
1789755358709514200,6.16551416015625,0.20994506520628928,-4.2164971665710205,4.018385747021436
1789755358719530000,6.175530029296875,0.26549101133942604,-4.310146341127157,4.212701865941286
1789755358729546000,6.1855458984375,0.3821089735507965,-4.368652013848722,4.2935126017123455
1789755358739561000,6.19556103515625,0.5622387462079524,-4.4015626420646905,4.347436499601602
1789755358749577000,6.205576904296875,0.7740238863229751,-4.391285578200221,4.277756229653955
1789755358759592000,6.215592041015625,1.0300058955609799,-4.387124074606597,4.036434029409289
1789755358769608200,6.225608154296875,1.2662240506649016,-4.424797387179732,3.6969928157180547
1789755358779623000,6.235622802734375,1.4681775325953959,-4.570031203022599,3.2267133912831545
1789755358789639200,6.24563916015625,1.6144354307889937,-4.757613337512314,2.713864991188049
1789755358799654100,6.255654052734375,1.6962170574188231,-4.935940152400732,2.2028934908807276
1789755358809670100,6.265670166015625,1.822024872779846,-5.1122956672161814,1.7506226013451813
1789755358819685000,6.27568505859375,1.9951251851916312,-5.233181223744154,1.4223235439151525
1789755358829701000,6.285701171875,2.1535177578151226,-5.254526794111729,1.1805313880711794
1789755358839716000,6.295716064453125,2.347126605248451,-5.170471377331018,0.9121803111255168
1789755358849732000,6.305732177734375,2.4563445203363896,-4.989107094442844,0.5676502498626709
1789755358859748000,6.315748046875,2.4248610023140906,-4.855632982237637,0.11406184798777103
1789755358869763000,6.32576318359375,2.2689573238968848,-4.752164132195711,-0.32846272355914113
1789755358879779000,6.335779052734375,2.021599350619316,-4.689270161387324,-0.8648463130205869
1789755358889794000,6.3457939453125,1.7907178803682327,-4.680668921780586,-1.4183359355837106
1789755358899810000,6.35581005859375,1.6202923401236533,-4.69611228236705,-1.8379589394927023
1789755358909825000,6.365824951171875,1.5039759912073611,-4.684514783553779,-2.152434638753533
1789755358919841000,6.375841064453125,1.4799686542846262,-4.58271182089746,-2.5006471879214045
1789755358929856000,6.38585595703125,1.6008908895611762,-4.466626358127594,-2.927764931499958
1789755358939872300,6.395872314453125,1.735927136516571,-4.340910312703252,-3.3395740467876194
1789755358949887000,6.405886962890625,1.8435878852903842,-4.061970913986862,-3.682233053481579
1789755358959903200,6.4159033203125,1.92725985571146,-3.572666763347387,-3.988945717525482
1789755358969918200,6.425918212890625,1.968144823807478,-2.9248785624086855,-4.417019738915562
1789755358979934200,6.435934326171875,1.9136054243683813,-2.1983825893275437,-4.741410682991146
1789755358989950200,6.4459501953125,1.7382535336375236,-1.4018810598671436,-4.793007599237561
1789755358999965200,6.455965087890625,1.46315298243165,-0.5783106139563023,-4.5887738974153995
1789755359009981200,6.465981201171875,1.045322707158327,0.24818755596950648,-4.2125200796335935
1789755359019996200,6.47599609375,0.45804655032753944,1.0568179146409034,-3.7123049511402844
1789755359030012200,6.48601220703125,-0.19657010839171707,1.8042188747152685,-3.2253175530105826
1789755359040027100,6.496027099609375,-0.8140659738540649,2.365157644240558,-2.613995919203758
1789755359050043100,6.506043212890625,-1.401803902977705,2.6383617141753435,-1.8881775531232357
1789755359060058000,6.51605810546875,-1.9267863929808138,2.6066931949749588,-1.2732540954321623
1789755359070074000,6.52607421875,-2.410505144703388,2.4092849552586673,-0.6124556062728166
1789755359080089000,6.536089111328125,-2.819850500226021,2.138572409878671,0.05027297416627407
1789755359090105000,6.54610498046875,-3.022804683631658,1.914247521664202,0.6918026992321014
1789755359100120000,6.5561201171875,-3.0463965716212984,1.784333440028131,1.3564128556340933
1789755359110136000,6.566135986328125,-3.061394234266877,1.7713778046041726,1.9731886631935833
1789755359120152300,6.57615234375,-2.8795401220351455,1.8455515865787864,2.455444356626272
1789755359130167300,6.586167236328125,-2.5515882706075907,1.9919778270766137,2.7534172493755817
1789755359140183300,6.596183349609375,-2.355588728645444,2.0785370433717967,2.8968489842325447
1789755359150198300,6.6061982421875,-2.259704926905036,2.112471753938496,2.9180490086495876
1789755359160214300,6.61621435546875,-2.1856372356534,2.0676216816037893,2.885647206738591
1789755359170229200,6.626229248046875,-2.130896176162362,1.939220050357282,2.860655973345041
1789755359180245200,6.636245361328125,-1.991350927349925,1.8089587627187371,2.8225831400603054
1789755359190260200,6.64626025390625,-1.8267969094872474,1.636592902061343,2.7605513390392065
1789755359200276200,6.656276123046875,-1.6374615015894174,1.5348460535064339,2.7780916719049213
1789755359210291200,6.666291259765625,-1.4067594795584677,1.5596853112086653,2.876595885276794
1789755359220307200,6.67630712890625,-1.1086703400183469,1.6728642388820647,2.9226018496483563
1789755359230322200,6.686322265625,-0.8099374957472085,1.821014234432578,2.8309347888201475
1789755359240338200,6.696338134765625,-0.5658090059101581,1.9115917464584111,2.510014735725522
1789755359250354200,6.706354248046875,-0.49210547179579733,1.9120009117811918,2.248188092112541
1789755359260369200,6.716369140625,-0.48142574541456995,1.9078201189652084,2.144315045183897
1789755359270385200,6.72638525390625,-0.37012802837789055,1.9429215352237224,1.97175892265141
1789755359280400100,6.736400146484375,-0.22591763729862868,2.0259628065258264,1.6708336098372936
1789755359290416000,6.746416015625,-0.21545717969126998,2.0866081216245886,1.2256757671773433
1789755359300431400,6.756431396484375,-0.43656014671716836,2.0238103046670557,0.6773053873240947
1789755359310447000,6.766447021484375,-0.7387479902803897,1.9146625322058797,0.09714110832512378
1789755359320462300,6.77646240234375,-0.967789458687976,1.8168954009369014,-0.684188717097044
1789755359330478000,6.78647802734375,-1.2007798108518124,1.666123532450199,-1.4664929405093192
1789755359340493300,6.796493408203125,-1.510684548935294,1.5907576180815697,-1.851145168802142
1789755359350509000,6.806509033203125,-1.7323153757601975,1.6942364049956202,-2.089281724748015
1789755359360524300,6.816524169921875,-1.706364941945672,1.8643524408996104,-2.586805714461207
1789755359370540000,6.8265400390625,-1.5814362475067376,1.8371593135476112,-3.398485085439682
1789755359380556000,6.83655615234375,-1.6260919663131237,1.555437590636313,-4.247576195445657
1789755359390571000,6.846571044921875,-1.6967776139110327,1.1600868581965564,-5.131624637064338
1789755359400587000,6.8565869140625,-1.6456038915127515,0.8011509627014398,-5.954429797691106
1789755359410602000,6.86660205078125,-1.5077303753048181,0.48650312174409627,-6.762859811484813
1789755359420618000,6.876617919921875,-1.3507114291220903,0.1970800306752324,-7.398418060925603
1789755359430633000,6.886633056640625,-1.2089473352164029,0.23086451911628245,-7.724680644091963
1789755359440649000,6.89664892578125,-1.0732710367918015,0.7072296932056545,-7.562519074323773
1789755359450664000,6.906663818359375,-0.8636778537631035,1.4675988559246063,-7.004893959391117
1789755359460680200,6.91668017578125,-0.5030874690592289,2.2718466155976054,-6.4819572960019105
1789755359470695200,6.926695068359375,-0.08906769198477267,2.8006542168468234,-6.255197289595007
1789755359480711200,6.936711181640625,0.2387052957445383,2.843369030718505,-6.1009916472673416
1789755359490726400,6.946726318359375,0.5287888965487479,2.4463223080158234,-6.053764616668224
1789755359500742400,6.956742431640625,0.7360510062813759,1.6947233117297291,-6.184834298080205
1789755359510758400,6.96675830078125,0.7427998960196971,0.6596867285251617,-6.2169906007975335
1789755359520773400,6.9767734375,0.6121697750687599,-0.4869526190772652,-6.048358958232402
1789755359530789400,6.986789306640625,0.45835872154925017,-1.607972664515674,-5.703303411790729
1789755359540804400,6.996804443359375,0.3853986992785707,-2.628326934634149,-5.101363938835263
1789755359550820600,7.006820556640625,0.43063481178879737,-3.3214635128185153,-4.319729577508569
1789755359560835600,7.016835693359375,0.6077426062762737,-3.6370711387187242,-3.4078649082034826
1789755359570851600,7.0268515625,0.7901859165728091,-3.687995270270109,-2.459958034658432
1789755359580866600,7.036866455078125,0.8843219978630542,-3.591320610412955,-1.544637087419629
1789755359590882600,7.046882568359375,0.9440414302885531,-3.3627935943335294,-0.7266606621235608
1789755359600897500,7.0568974609375,1.0352373664736747,-3.1384330502837896,-0.2022141786932945
1789755359610913500,7.06691357421875,1.1174597226083278,-3.0197154854446646,0.09448796346783638
1789755359620928500,7.076928466796875,1.138296758931875,-3.0276041928678747,0.14413199208080768
1789755359630944500,7.086944580078125,1.0167314034461974,-3.1251576813861726,0.05565116007328033
1789755359640960500,7.09696044921875,0.8477741821885109,-3.286371741171181,0.04387655112743377
1789755359650975500,7.1069755859375,0.631170243614912,-3.49257791211009,0.1592629257172346
1789755359660991500,7.116991455078125,0.4135585527708754,-3.7143437634915113,0.3934627267360687
1789755359671006500,7.12700634765625,0.248429986423254,-3.9283281672164794,0.757556151124835
1789755359681022500,7.1370224609375,0.17106968336701392,-4.126538955487311,1.2785159614831207
1789755359691037400,7.147037353515625,0.12517185554504393,-4.258438365721703,1.8552584493398665
1789755359701053400,7.157053466796875,0.07994505885243415,-4.342454035013914,2.3554829301834106
1789755359711068400,7.167068359375,0.010367025436554104,-4.411916570557653,2.8469758230388162
1789755359721084700,7.177084716796875,-0.04085340391397476,-4.433798439759016,3.3406869764655824
1789755359731099400,7.187099365234375,-0.025356577840913087,-4.4722193558290595,3.7545652992427345
1789755359741115600,7.19711572265625,-0.07597264809012412,-4.492619754301011,4.201984657093882
1789755359751130600,7.207130615234375,-0.04546411257982254,-4.532538507713377,4.551364496475458
1789755359761146600,7.217146728515625,0.03168928799377754,-4.568818320101499,4.880707510000467
1789755359771162600,7.22716259765625,0.05328970990525558,-4.620753674522042,5.142607218849658
1789755359781177600,7.237177490234375,0.0637549898182042,-4.7026627269238235,5.305024809205531
1789755359791193600,7.247193603515625,-0.02199554044259712,-4.890458504164219,5.260888730359077
1789755359801208600,7.25720849609375,-0.18410099610937758,-5.161177479285001,5.161010306024551
1789755359811224600,7.267224609375,-0.37266777598857875,-5.420817426508664,5.105195479822158
1789755359821239600,7.277239501953125,-0.5466904639422894,-5.653667566484213,5.120713951471448
1789755359831255600,7.287255615234375,-0.683280370080471,-5.842161847382783,5.1410991523742675
1789755359841270500,7.2972705078125,-0.7046902378559112,-5.981733984202146,5.082791340312362
1789755359851286500,7.30728662109375,-0.7072130343317985,-6.082693774032593,5.043978502315283
1789755359861301500,7.317301513671875,-0.6887129165232181,-6.176718796163797,4.974900874435901
1789755359871317500,7.3273173828125,-0.573164592837356,-6.1823050718635315,4.870879943469166
1789755359881332500,7.33733251953125,-0.2750280339589342,-6.095632166060805,4.490041135984659
1789755359891348500,7.347348388671875,0.007314670394919813,-6.119568337443471,3.667899992224574
1789755359901364500,7.357364501953125,0.1591535835912451,-6.42082332060337,2.774451854097843
1789755359911379500,7.36737939453125,0.17111059989929198,-6.848086610132455,1.9476018019944428
1789755359921395500,7.3773955078125,0.10231120443940162,-7.344629187592863,1.1432231094181537
1789755359931410400,7.387410400390625,0.18232282572202382,-7.9132094117820255,0.268033097037673
1789755359941426400,7.397426513671875,0.37601131426282225,-8.540042502975464,-0.7411392693310975
1789755359951441400,7.40744140625,0.6045055240511894,-9.224595377209782,-1.8134037594288586
1789755359961457400,7.41745751953125,1.0295756143849342,-9.753248664680124,-2.6884634234279394
1789755359971472400,7.427472412109375,1.6890566642701625,-9.738916772466897,-3.276968245270848
1789755359981488400,7.43748828125,2.520128717982769,-8.958702214810252,-3.7071202419787643
1789755359991503400,7.44750341796875,3.3921816013813015,-7.963156807255745,-4.1032156553059815
1789755360001519400,7.457519287109375,4.150790476429462,-6.912676278942823,-4.663170674490928
1789755360011534300,7.467534423828125,4.709898523396253,-5.59028025920093,-5.343778610491753
1789755360021550300,7.47755029296875,5.046281518560647,-4.20200686892569,-5.97301700926125
1789755360031565300,7.4875654296875,5.006967745304108,-2.8886826289117336,-6.571500788804888
1789755360041581300,7.497581298828125,4.505643194264173,-1.6426941415458918,-7.005547454863787
1789755360051597600,7.50759765625,3.7007904544353485,-0.5275638847984373,-7.354618666687608
1789755360061612300,7.5176123046875,2.654476398152113,0.34043577768653627,-7.391033211371302
1789755360071628500,7.527628662109375,1.3823067369557915,0.8431435997784137,-6.897955095151066
1789755360081643500,7.5376435546875,0.07420739198327064,1.0176777443856,-5.9618777756094925
1789755360091659500,7.547659423828125,-0.8274256600342691,1.0514943815305828,-4.909271341183781
1789755360101674500,7.557674560546875,-1.338466280055046,1.1259110323503614,-3.9340830774813886
1789755360111690500,7.5676904296875,-1.82791100820899,1.317721890451014,-2.9245255111873147
1789755360121705500,7.57770556640625,-2.338273436707258,1.6134791529774666,-2.0080343511253593
1789755360131721500,7.587721435546875,-2.7185844209253784,1.917328828805685,-1.157760168814659
1789755360141736400,7.597736328125,-2.8098902472257614,2.266062479238212,-0.3340115898579359
1789755360151752400,7.60775244140625,-2.7412778987705706,2.659282044868171,0.4274567662745714
1789755360161768400,7.6177685546875,-2.592727505725622,3.066043229116499,0.8884002070873975
1789755360171783400,7.627783447265625,-2.3870459431827067,3.3831083603486416,1.060272439008951
1789755360181799400,7.63779931640625,-1.8679495886087416,3.4697201836138962,0.8922937073945999
1789755360191814400,7.647814453125,-1.0576304000675678,3.3136803115963933,0.3856470845490694
1789755360201830400,7.657830322265625,-0.2960053920686245,3.075558368697762,-0.2791045261502266
1789755360211845400,7.667845458984375,0.3634533729195595,2.8948782686814662,-0.7300964817911386
1789755360221861400,7.677861328125,1.028677934892848,2.8155913814768194,-0.9190104494065046
1789755360231876400,7.68787646484375,1.6905964410580694,2.8313445386648177,-1.0694307279765605
1789755360241892600,7.697892578125,2.3214507505916058,2.873036146968603,-1.2645137396156787
1789755360251907600,7.707907470703125,2.899090625679493,2.891021885514259,-1.4553653972953557
1789755360261923600,7.717923583984375,3.370500515449047,2.990360211622715,-1.6446037745594977
1789755360271938600,7.7279384765625,3.7003146536171436,3.1852316263377665,-1.8374685256272554
1789755360281954600,7.73795458984375,3.9688673906147476,3.500592291739583,-2.099638868111372
1789755360291970600,7.747970458984375,4.126034805357456,3.9384062013775107,-2.543518945920467
1789755360301985500,7.757985595703125,4.154553628355265,4.533817733868957,-2.91780175589025
1789755360312001500,7.76800146484375,4.058685024183989,5.1486862465023995,-3.1447604997396468
1789755360322016500,7.7780166015625,3.8999896692216396,5.716386180725693,-3.287106777447462
1789755360332032500,7.788032470703125,3.7581484184265133,6.235314777517319,-3.3341192885130644
1789755360342047500,7.798047607421875,3.5894963175952435,6.698646574771404,-3.3796699103325603
1789755360352063500,7.8080634765625,3.4448458545982836,7.113638411748409,-3.448481580752134
1789755360362078500,7.818078369140625,3.2286452361285685,7.389775904786586,-3.5494589062392707
1789755360372094500,7.828094482421875,2.8986124867737293,7.519176776203513,-3.6250054378718137
1789755360382109400,7.838109375,2.520727268397808,7.489995689904689,-3.644465340623259
1789755360392125400,7.84812548828125,2.1004279726624486,7.34403998952806,-3.6429374004036186
1789755360402140400,7.858140380859375,1.666208726515621,7.119476031860708,-3.662066463765502
1789755360412156700,7.86815673828125,1.2130734021704643,6.853532016056776,-3.638526013702154
1789755360422172700,7.878172607421875,0.8353087414342909,6.573430880084634,-3.55160468609631
1789755360432187600,7.888187744140625,0.5196435401279479,6.3592334181308745,-3.4695033259928225
1789755360442203600,7.89820361328125,0.27110717072077095,6.202492119845748,-3.4122786329925057
1789755360452218600,7.908218505859375,0.09333645534515381,6.045927347171307,-3.214310421305895
1789755360462234600,7.918234619140625,0.053729288632608944,5.971356382572651,-2.975346766886115
1789755360472249600,7.92824951171875,0.1367547778436914,5.947481001466512,-2.7472552196145057
1789755360482265600,7.938265625,0.24500351910591123,5.907407349753379,-2.574430217012763
1789755360492279800,7.94827978515625,0.3549731293439865,5.814791025376319,-2.497720486819744
1789755360502296000,7.958296142578125,0.4437082283735275,5.670273833370208,-2.596944246637821
1789755360512310800,7.968310791015625,0.5798106432557105,5.351710572534799,-2.9539713859021663
1789755360522327000,7.9783271484375,0.7383224583446979,4.778018704420328,-3.553815347883105
1789755360532342000,7.988342041015625,0.8270715858995914,4.051246398615837,-4.296609983205795
1789755360542358000,7.99835791015625,0.8376806581974029,3.3232343218833207,-5.200409419476985
1789755360552373800,8.008373779296875,0.806193633043766,2.6058769101560113,-6.3215323407679795
1789755360562389000,8.018388916015626,0.7925707658827305,1.9869594143927096,-7.473357858836651
1789755360572404700,8.02840478515625,0.854967308562994,1.5593886663496492,-8.66007933371961
1789755360582420000,8.038419921875,0.9361164825081825,1.4308675003767013,-9.623481298038364
1789755360592435700,8.048435791015624,0.8805635221123694,1.2731979813307523,-10.276786801093817
1789755360602451000,8.058450927734375,0.8460404902637004,1.2184955002844333,-10.43821421136856
1789755360612466700,8.068466796875,0.8659586581766605,1.290873338752985,-10.161492196440696
1789755360622482000,8.07848193359375,1.114447096788883,1.4049340176969767,-9.724896430420875
1789755360632497700,8.08849755859375,1.514871479231119,1.4441454996228218,-9.084460930332542
1789755360642513000,8.098512939453125,1.8454688767313956,1.3381184895306826,-8.389152853327989
1789755360652528600,8.108528564453126,1.9922364780128001,1.046534713296592,-7.802257220247387
1789755360662544000,8.1185439453125,2.083871974658966,0.5308037435024976,-7.3885875717848535
1789755360672559600,8.1285595703125,2.1834546309173106,-0.12161562436819076,-7.13333036969006
1789755360682576000,8.138575927734376,2.234547689294815,-0.9128446202531456,-6.806601922577619
1789755360692590800,8.1485908203125,2.14533562040329,-1.746165914197266,-6.225402455312013
1789755360702606800,8.15860693359375,1.9882804338634013,-2.502202016147971,-5.4360015516370535
1789755360712621800,8.168621826171876,1.8376316072344778,-3.151065445102751,-4.46693030951023
1789755360722637800,8.178637939453125,1.8145231188476085,-3.724092419567704,-3.4288924986630676
1789755360732652800,8.18865283203125,1.847939066237211,-4.232180181132256,-2.401432195931673
1789755360742668800,8.198668701171876,1.9037188211262226,-4.697255314922333,-1.4871429298281669
1789755360752683800,8.208683837890625,2.028700122535229,-5.064085470798611,-0.6138175422757863
1789755360762699800,8.21869970703125,2.171137585657835,-5.385765986871719,0.24056173726618288
1789755360772714800,8.22871484375,2.29170589293018,-5.632060714831948,0.9288549670726061
1789755360782730800,8.238730712890625,2.351765517095476,-5.82202740637064,1.530429698368907
1789755360792746800,8.248746826171875,2.407314970359951,-5.9648091528862714,2.2117548427283764
1789755360802761700,8.25876171875,2.408340367884934,-5.992575696212053,2.942535799652338
1789755360812777700,8.26877783203125,2.367754528865963,-5.935917989444732,3.5484172882318497
1789755360822792700,8.278792724609374,2.3650423472978175,-5.85585777978003,4.0372459303140635
1789755360832809000,8.28880908203125,2.3209096294522285,-5.7935424856424325,4.389097712767124
1789755360842823700,8.29882373046875,2.253128471124172,-5.779332758504152,4.574771675547957
1789755360852840000,8.30883984375,2.2173149610735474,-5.798818380218744,4.557783131346106
1789755360862855000,8.31885498046875,2.2222657153487204,-5.90775981645286,4.375549664407968
1789755360872871000,8.328870849609375,2.2573440429925915,-6.009609833121299,4.185515752851963
1789755360882886000,8.338885986328124,2.3293549478448927,-6.084684071066976,4.001456824052333
1789755360892902000,8.34890185546875,2.4706863494217393,-6.162263569831848,3.793547064065933
1789755360902918000,8.35891796875,2.6652292628347873,-6.240290227842331,3.585108896291256
1789755360912932900,8.368932861328124,2.9605203691542146,-6.340169821220636,3.3743951848000284
1789755360922948900,8.378948974609376,3.2973534461736675,-6.4115890437901015,3.1608576480597255
1789755360932963800,8.3889638671875,3.657498425197601,-6.479153929018974,2.8858763393193483
1789755360942979800,8.398979736328124,3.966032459449768,-6.6077896612823,2.5286937172323465
1789755360952994800,8.408994873046876,4.165132305514812,-6.744879918158054,2.2198598232507702
1789755360963010800,8.4190107421875,4.319156161534786,-6.8761600274503225,1.9623101263046263
1789755360973025800,8.42902587890625,4.501454510402679,-6.997698494929075,1.7391279783844946
1789755360983041800,8.439041748046876,4.69229856929779,-7.0743024266600605,1.5559814882546663
1789755360993056800,8.449056884765625,4.862505498355627,-7.104914422544836,1.4285761745691299
1789755361003072800,8.45907275390625,5.0393818221747875,-7.016459309500456,1.3996750742554664
1789755361013087700,8.469087646484375,5.169393518966436,-6.7819888748466965,1.393757959166169
1789755361023104000,8.47910400390625,5.138694429320097,-6.472531296008825,1.2494745759159325
1789755361033120000,8.4891201171875,4.81840010690838,-6.242188754940033,0.9511205748945474
1789755361043135000,8.499135009765626,4.2955028987467285,-6.144439159327745,0.5558259565562009
1789755361053151000,8.50915087890625,3.76707903611809,-6.051229545232653,0.05534720869064331
1789755361063166000,8.519166015625,3.280678205704689,-5.882618945455551,-0.44328211191594596
1789755361073182000,8.529181884765626,2.830067942857742,-5.6394999249219895,-0.9768056357711553
1789755361083197000,8.539197021484375,2.35621606676355,-5.457037909924984,-1.5537690729022025
1789755361093213000,8.549212890625,1.8269687589228152,-5.288460627895593,-2.110612097546458
1789755361103228000,8.559227783203125,1.274457626003027,-5.107904154258966,-2.4020880294919014
1789755361113244000,8.569243896484375,0.8111188144862651,-4.741260460865497,-2.3483564393043515
1789755361123259000,8.5792587890625,0.5311703848578035,-4.567584978914261,-2.32342482714355
1789755361133275000,8.58927490234375,0.40063247223496434,-4.319630501048267,-2.42109434325695
1789755361143291000,8.599290771484375,0.34992066826000806,-3.8717043627187606,-2.518985393166542
1789755361153305900,8.609305908203124,0.2844246982596814,-3.40182738160491,-2.6455390584588048
1789755361163321900,8.61932177734375,0.2118624431349337,-2.8938287596285344,-2.8882506672352553
1789755361173336800,8.6293369140625,0.13234744626283645,-2.315038253200799,-3.178990686121583
1789755361183352800,8.639352783203124,-0.029263357754796743,-1.846567631753534,-3.569992575702071
1789755361193368000,8.6493681640625,-0.336224151340872,-1.5004779199585319,-4.034702091050148
1789755361203383800,8.6593837890625,-0.7614297046225518,-1.207092501129955,-4.308902478545904
1789755361213399000,8.66939892578125,-1.2383633993148804,-0.8758477456368505,-4.302437666445971
1789755361223414800,8.679414794921875,-1.718518905597925,-0.49136722064912314,-4.103527789995074
1789755361233430000,8.689429931640625,-2.1176924111962316,-0.07615618796348571,-3.7140509180247783
1789755361243445800,8.69944580078125,-2.403810030978918,0.3500903257384896,-3.1205513566344973
1789755361253461000,8.7094609375,-2.63225053781867,0.8049275586307049,-2.419097616481781
1789755361263476700,8.719476806640625,-2.796740842795372,1.2458271593242882,-1.8344751890301703
1789755361273492700,8.72949267578125,-2.96000715893507,1.605784799082577,-1.4056202463954686
1789755361283507700,8.7395078125,-3.1565982370495793,1.9003753559172152,-0.9055740447282791
1789755361293523700,8.749523681640625,-3.2962703271120786,2.128208544513583,-0.40830958273410795
1789755361303538700,8.75953857421875,-3.352612976580858,2.361050501182675,0.0019376900643110274
1789755361313554700,8.7695546875,-3.429996075990796,2.539922090472281,0.3025491146236658
1789755361323569700,8.779569580078125,-3.362775474154949,2.671685891628265,0.5687509045809507
1789755361333585700,8.789585693359374,-3.3717700969934463,2.7803794905811547,0.7760171059668064
1789755361343600600,8.7996005859375,-3.379433763489127,2.881543863072991,0.9212450765907764
1789755361353617000,8.809616943359375,-3.270763545411825,2.8721356909975406,1.115726615205407
1789755361363631900,8.8196318359375,-3.0806881328016518,2.7900743706434965,1.2530787378877402
1789755361373648000,8.82964794921875,-2.893842203631997,2.7195301773428917,1.2895283538848161
1789755361383663900,8.839663818359375,-2.6570599849045275,2.6416835520744324,1.2394734063833952
1789755361393678800,8.849678955078126,-2.401462006548047,2.5092335222199558,1.1636895588636398
1789755361403694800,8.85969482421875,-2.1237211699664593,2.3254262300938366,0.8646160113960504
1789755361413709800,8.869709716796875,-1.8813421541452406,2.0882851149260997,0.701600455147028
1789755361423725800,8.879725830078126,-1.6546008524388074,1.9659452679365872,0.75211951302886
1789755361433740800,8.88974072265625,-1.348945588493347,2.077349587152898,0.8538304134875535
1789755361443756800,8.8997568359375,-0.9941104063153267,2.3583123083904383,0.8946604365259408
1789755361453771800,8.909771728515626,-0.7247083590120077,2.651920283928513,0.8506225573569536
1789755361463787800,8.919787841796875,-0.5266472814101726,2.908651650229096,0.6629547904103994
1789755361473802800,8.929802734375,-0.3950065221119672,3.0793998465567824,0.3315875775814056
1789755361483818800,8.93981884765625,-0.292568987879157,3.163269969898462,-0.08881517852842807
1789755361493834800,8.949834716796875,-0.25324359725005924,3.2233149810165167,-0.4215998569399118
1789755361503849700,8.959849609375,-0.27529811960458755,3.3237270738363263,-0.6600415333122015
1789755361513865700,8.96986572265625,-0.2966577184975147,3.3588597620159386,-0.9024556204468012
1789755361523880700,8.979880615234375,-0.35125849273502824,3.3175743964254854,-1.0812842473775148
1789755361533896700,8.989896728515625,-0.48833062943220135,3.203666277694702,-1.2783113788217306
1789755361543911700,8.99991162109375,-0.6417220327675343,3.0886838077306744,-1.5441063415437937
1789755361553927700,9.009927734375,-0.7157190699357538,3.0075632753580805,-1.8946733448833226
1789755361563942700,9.019942626953124,-0.7370669783908873,3.037041298776865,-2.372332358175516
1789755361573958700,9.029958740234376,-0.8007032189339399,3.1428549583792686,-2.8198060765624047
1789755361583973600,9.0399736328125,-0.9182212717901915,3.311993381422758,-3.2783231670111417
1789755361593989600,9.04998974609375,-1.0231798489332198,3.48202261582613,-3.686793493264913
1789755361604005600,9.060005615234376,-1.1199673215150832,3.6452597058713434,-3.9421687687814235
1789755361614020600,9.0700205078125,-1.1963755114782602,3.847380361062288,-4.061299006074667
1789755361624036600,9.08003662109375,-1.1587760678589343,4.06006098871231,-4.155903289398551
1789755361634051600,9.090051513671876,-1.1013191735379397,4.189486410048604,-4.38341674452126
1789755361644067800,9.10006787109375,-1.0848736501716076,4.137804738128185,-4.880839611947536
1789755361654082600,9.11008251953125,-1.1142969477284699,3.8465363114535807,-5.636870745462179
1789755361664098800,9.120098876953126,-1.101768378610164,3.28237331918478,-6.575796440172195
1789755361674113800,9.13011376953125,-1.1247505372036248,2.540775784692168,-7.658940051680803
1789755361684129800,9.1401298828125,-1.1128910995185375,1.7886387360066174,-8.72089591373205
1789755361694144800,9.150144775390626,-1.0648416466206312,1.2641133421212434,-9.417077850961684
1789755361704160800,9.160160888671875,-0.9979431163460015,1.1314496695160865,-9.517421554720402
1789755361714176800,9.1701767578125,-0.7583230438441038,1.312674836194515,-8.950431230071187
1789755361724191700,9.180191650390626,-0.29261395953204483,1.5964140364080666,-8.03789669868052
1789755361734207700,9.190207763671875,0.342166802730225,1.7311586069405078,-7.1553113153517245
1789755361744222700,9.20022265625,0.9073574210137129,1.6506526993349193,-6.55465662150979
1789755361754238700,9.21023876953125,1.2763871327608822,1.3851952980041502,-6.063370064881443
1789755361764253700,9.220253662109375,1.4980086072355507,0.9332181307181715,-5.616756178194284
1789755361774269700,9.230269775390624,1.6451473799169063,0.35178923861086364,-5.262532405912876
1789755361784284700,9.24028466796875,1.7652677972912787,-0.24070465286821124,-4.935956519013643
1789755361794300700,9.25030078125,1.9015701186597347,-0.7872405107706785,-4.487324278241395
1789755361804315600,9.260315673828124,2.0348457856833932,-1.2146090142399073,-3.950504050928354
1789755361814331600,9.27033154296875,2.147019043445587,-1.5903253641441464,-3.3219267464160915
1789755361824347600,9.28034765625,2.1318016005694864,-1.9108897356688974,-2.634135620912909
1789755361834362600,9.290362548828124,2.049105781704187,-2.207721933950484,-1.935305215001106
1789755361844378600,9.300378662109376,1.955984430414438,-2.4356074372559786,-1.2945914824932814
1789755361854393600,9.3103935546875,1.8857915347695349,-2.6523101600289345,-0.7125234156996011
1789755361864409600,9.32040966796875,1.837951925230026,-2.9133476990908385,-0.22580139050781725
1789755361874424600,9.330424560546875,1.8270880013883113,-3.1114760697752235,0.23016250832676885
1789755361884440600,9.340440673828125,1.8232570449233054,-3.3208988646730777,0.5665151083528995
1789755361894455600,9.35045556640625,1.8245687120437621,-3.5197374294534325,0.9067389968544244
1789755361904471600,9.360471435546875,1.859780310678482,-3.7155271280571815,1.1795447151213885
1789755361914486500,9.370486572265625,1.9109658696450291,-3.978221786676347,1.3452297828406095
1789755361924502500,9.38050244140625,1.9406066824100912,-4.249562985348701,1.606208285191655
1789755361934518500,9.3905185546875,1.9270786539256572,-4.478838773968816,1.890524993032217
1789755361944533500,9.400533447265625,1.9145814297936856,-4.65970709003359,2.24365863198936
1789755361954549500,9.410549560546874,1.9316892164610324,-4.78173597137779,2.614072491571307
1789755361964564500,9.420564453125,1.965963241984695,-4.886198508632183,3.011971739450097
1789755361974580700,9.430580810546875,1.9407738556705414,-4.979740131160616,3.3931869790315625
1789755361984595500,9.440595458984374,1.9843056850135325,-5.0513680280447,3.712290922614932
1789755361994611700,9.45061181640625,2.0568635562241075,-5.138309813916683,3.9797541108101604
1789755362004626700,9.460626708984375,2.1547193886898457,-5.220501774913072,4.191229454323649
1789755362014642700,9.470642578125,2.2236967710651454,-5.287572739145159,4.356483729410171
1789755362024657700,9.48065771484375,2.2875649937331675,-5.374419247949123,4.4155601877570145
1789755362034673700,9.490673583984375,2.3309436783410606,-5.495601157075166,4.387216721326112
1789755362044688600,9.500688720703126,2.344137360304594,-5.651161136621236,4.352060652270913
1789755362054704600,9.51070458984375,2.321543251180649,-5.81408258484602,4.269513886487483
1789755362064720600,9.520720703125,2.2885271167635914,-6.0017690564930435,4.158632422101498
1789755362074735600,9.530735595703124,2.2294902597747743,-6.226532920646667,4.0216006174147125
1789755362084751600,9.540751708984375,2.1666880589030684,-6.474835481297969,3.833642343088984
1789755362094766600,9.5507666015625,2.1106537447310982,-6.7622881490767,3.6461563624501228
1789755362104782600,9.560782470703124,2.06924256080389,-6.978003614377975,3.4839737498939036
1789755362114797600,9.570797607421875,2.058917420013994,-7.056241869312524,3.404398693397641
1789755362124813600,9.5808134765625,2.0923661006294187,-6.987551194924116,3.330395884075761
1789755362134828500,9.59082861328125,2.1219326791144906,-6.862658740842342,3.1317899590075013
1789755362144844500,9.600844482421875,2.1403182306326927,-6.7729960055738685,2.668553438821435
1789755362154859500,9.610859619140625,2.0392497197307646,-6.81820059043467,1.9902958653390406
1789755362164875800,9.620875732421876,1.8209515444599091,-6.883378872787952,1.3116665359348059
1789755362174891800,9.630891845703125,1.5552956979475914,-6.903726664289832,0.6903092458039521
1789755362184906800,9.64090673828125,1.3980653009712696,-7.015974740853905,-0.08106441827118396
1789755362194922800,9.6509228515625,1.2548667903482913,-7.273136899787187,-0.8548819683670997
1789755362204937700,9.660937744140625,1.1093138255536557,-7.630731609806418,-1.5392647467315197
1789755362214953700,9.67095361328125,1.042382415922731,-7.9200769594639535,-1.9699065727829932
1789755362224968700,9.68096875,1.190381166434288,-7.9413418658107515,-2.200560079497099
1789755362234984700,9.690984619140625,1.5736872408151625,-7.58611622301042,-2.400935936847329
1789755362244999700,9.700999755859375,2.0723066245496273,-6.9359472644150255,-2.695180164462328
1789755362255015700,9.711015625,2.5142986966550347,-6.1085699735671275,-3.149574037501216
1789755362265030700,9.72103076171875,2.820480614823103,-5.24350212675035,-3.6945723105728625
1789755362275046700,9.731046630859375,2.942977698200941,-4.41302307049483,-4.384043351987004
1789755362285062700,9.741062744140624,2.8438509690165517,-3.5965114570543166,-5.137068873944878
1789755362295077600,9.75107763671875,2.499725396901369,-2.8217399672344325,-5.943798513561487
1789755362305094000,9.761093994140625,1.9325522630311547,-2.046212252219766,-6.623244420045614
1789755362315108600,9.771108642578126,1.1854816308896987,-1.2728618812441825,-7.018189494293928
1789755362325124900,9.781124755859375,0.27493447392396625,-0.40227176387459035,-6.8836617813825605
1789755362335139800,9.791139892578125,-0.6449439904887229,0.460121310774982,-6.237625392547249
1789755362345155800,9.80115576171875,-1.318044254273176,1.1534922822371125,-5.277303274065256
1789755362355170800,9.8111708984375,-1.6421277398347853,1.7457058954700826,-4.262970748454332
1789755362365186800,9.821186767578125,-1.8211293852448462,2.222911027514934,-3.417404889965057
1789755362375201800,9.831201904296876,-2.1045447603315113,2.6153143083259462,-2.733846871986985
1789755362385217800,9.8412177734375,-2.485449034267664,2.8914322198808193,-2.0976906566530467
1789755362395233500,9.851233642578125,-2.799200510907173,3.2007524360746142,-1.4651456175535917
1789755362405248800,9.861248779296876,-3.1827170131683347,3.3979750900909305,-0.8336386893302202
1789755362415264500,9.871264404296875,-3.3394933827668427,3.5258787086874244,-0.31743980976343156
1789755362425279700,9.88127978515625,-3.39649303483963,3.5762343927010893,-0.003661445116996765
1789755362435295500,9.89129541015625,-3.2774948994934556,3.562644258765876,0.03879354877471924
1789755362445310700,9.901310791015625,-2.9296979453891514,3.4448400093793867,0.04185176730155945
1789755362455326500,9.911326416015624,-2.4235464125841855,3.278907981161773,0.07635843253731728
1789755362465341400,9.921341552734376,-1.8989269106745719,3.132749451689422,0.006882745251059532
1789755362475357400,9.931357421875,-1.4621242239058017,3.018254180720448,-0.015364742392301558
1789755362485372400,9.941372314453124,-1.0943547413527965,2.8977859728217124,0.03828033855557442
1789755362495389000,9.951388916015626,-0.7439876444995402,2.8041791761025783,0.07526011590659618
1789755362505405000,9.961405029296875,-0.4280156057337299,2.7749381763100622,0.06239946528971195
1789755362515420000,9.971419921875,-0.11667115370333193,2.787590737134218,-0.05566694216430187
1789755362525436000,9.981435791015626,0.16015724420845506,2.849577529969811,-0.28242694857120515
1789755362535451000,9.991450927734375,0.37764497987926005,2.927040708878636,-0.5899602813482284
1789755362545467000,10.001466796875,0.5340022472828626,3.028029140281677,-0.9807201788663864
1789755362555481900,10.01148193359375,0.6951637000977993,3.179856947562098,-1.2266145093321799
1789755362565497900,10.021497802734375,0.8629933786302805,3.4169945555984973,-1.3317659056335687
1789755362575512800,10.031512939453124,1.073271621313691,3.711143506145477,-1.443154735019803
1789755362585529000,10.041529052734376,1.2297148134350775,4.044539594453573,-1.6784861704170704
1789755362595544000,10.0515439453125,1.277577803850174,4.442527689659595,-1.9256454062521458
1789755362605560000,10.06156005859375,1.2133680742681026,4.774356090259552,-2.0564146434128285
1789755362615576000,10.071576171875,1.132088551941514,4.996785373985767,-2.1726602651804683
1789755362625591000,10.081591064453125,1.0813304246068,5.12822505775392,-2.5389105753421783
1789755362635607000,10.09160693359375,0.9709534026116132,5.043506208628416,-3.1623686371445654
1789755362645622000,10.1016220703125,0.6424328113853931,4.75626864490509,-3.7608103311121464
1789755362655638000,10.111637939453125,0.1662380254268646,4.469633723250031,-4.138313272172212
1789755362665653000,10.121653076171874,-0.26313421908020973,4.312705377960205,-4.418191120782494
1789755362675669000,10.1316689453125,-0.47779228428304193,4.233287557852268,-4.750756603485345
1789755362685684000,10.14168408203125,-0.5617267415652051,4.1174551930606365,-5.2064615591228005
1789755362695700000,10.151699951171874,-0.6534791060566901,3.8963545275896787,-5.7728352131783955
1789755362705715000,10.16171484375,-0.8089964155048132,3.6443402529388664,-6.283453662264347
1789755362715731000,10.17173095703125,-0.9464596704114228,3.437825746703148,-6.619618630763888
1789755362725746000,10.181745849609374,-1.06094580822587,3.301929668048024,-6.9375430091738695
1789755362735762000,10.191761962890626,-1.1104834538549184,3.1745249388843773,-7.298135731965303
1789755362745778200,10.201778076171875,-1.1430074208408594,3.106840811190009,-7.451157132944465
1789755362755793200,10.211793212890624,-1.238071138370037,3.196200179597735,-7.357363581481575
1789755362765809200,10.22180908203125,-1.4686813904643057,3.464968020650744,-6.955839713364839
1789755362775824100,10.23182421875,-1.663523579084873,3.8383904143989085,-6.42240912849009
1789755362785840000,10.241840087890624,-1.7842852169722319,4.168225595355033,-5.922659863942862
1789755362795855000,10.251855224609375,-1.841546150329709,4.429340875828266,-5.449943567749858
1789755362805871000,10.26187109375,-1.9060259290248154,4.49373122267425,-4.952014504367113
1789755362815886000,10.271885986328124,-1.908466307914257,4.351238814494014,-4.474090702658891
1789755362825902000,10.281902099609376,-1.8164239840328693,4.043081796860695,-4.183036210995913
1789755362835917000,10.2919169921875,-1.6221546268641949,3.4552976905077695,-4.148336653536558
1789755362845933000,10.30193310546875,-1.3678589632779359,2.5859233786687255,-4.207232494619489
1789755362855948800,10.31194873046875,-1.0834785425513982,1.622670759692788,-4.258024524223805
1789755362865964000,10.321964111328125,-0.8142255483299493,0.6178267779171467,-4.306479635313153
1789755362875979800,10.331979736328124,-0.5366641599684954,-0.35886604512929915,-4.216728637239337
1789755362885995000,10.3419951171875,-0.25413842719793317,-1.2889303879916667,-3.969014690130949
1789755362896010800,10.3520107421875,0.059421344528067854,-2.066525410799682,-3.485105384272337
1789755362906026000,10.36202587890625,0.3889923033237457,-2.6597566766425964,-2.8181869509279727
1789755362916042000,10.3720419921875,0.7297463531792163,-3.2038118236452338,-2.0629794087558984
1789755362926057000,10.382056884765625,1.079431897509098,-3.5350437196567652,-1.2923878349691629
1789755362936073000,10.392072998046874,1.3698457531809807,-3.611697628009319,-0.47701487016975874
1789755362946088200,10.402088134765625,1.6301847885847092,-3.534503621430695,0.35327509325444695
1789755362956104000,10.41210400390625,1.8849147519350051,-3.3739255214616652,1.0694283898890018
1789755362966120000,10.422119873046874,2.08821511842981,-3.2494317113086577,1.585074311748147
1789755362976135000,10.432135009765625,2.164405062532425,-3.1763448477879166,1.9121616553008556
1789755362986151000,10.44215087890625,2.1361212173342703,-3.156527802161872,2.066318197789788
1789755362996166000,10.452165771484376,2.0328139875948428,-3.2805311984494328,2.0739415322750805
1789755363006182000,10.462181884765625,1.856544397497177,-3.4502804468676445,2.116087898609042
1789755363016196900,10.47219677734375,1.6574562418699263,-3.574306347247958,2.2192618573576213
1789755363026212900,10.482212890625,1.5400804470285772,-3.6950276531249284,2.323859711429477
1789755363036227800,10.492227783203125,1.5286277635134755,-3.8657983535453675,2.335617369240522
1789755363046243800,10.502243896484375,1.4957577595688403,-4.069653285183012,2.440912557926774
1789755363056258800,10.5122587890625,1.4259762212038039,-4.269908438763022,2.5719004062741995
1789755363066274800,10.52227490234375,1.4093265535674988,-4.4493198340177535,2.6046739641070364
1789755363076291000,10.532291015625,1.3887059364736078,-4.626660268217325,2.603372233858704
1789755363086306000,10.54230615234375,1.318971305990219,-4.796362754884362,2.733638197672367
1789755363096322000,10.552322021484375,1.3305625211931764,-4.867622110716998,2.891619266885519
1789755363106337000,10.5623369140625,1.491048851225525,-4.839380058833957,2.9945027182549238
1789755363116353000,10.57235302734375,1.7847408517852426,-4.744399927935004,3.0811341230034826
1789755363126368000,10.582367919921875,2.086007963774353,-4.57960713288039,3.145421593996882
1789755363136384000,10.592384033203125,2.3452198948442935,-4.408903652477264,3.2106758641958235
1789755363146399000,10.60239892578125,2.579432263083756,-4.329698598337173,3.154010558643937
1789755363156415000,10.6124150390625,2.718676775383949,-4.3533278957277535,2.7237340587735175
1789755363166430000,10.622429931640625,2.651259189671278,-4.659240933826566,2.109683292263746
1789755363176446000,10.632446044921876,2.402139613548666,-5.163412690991163,1.7120248674035072
1789755363186462000,10.6424619140625,2.1343198670007286,-5.622898918733,1.5540630874127148
1789755363196477000,10.652476806640625,2.0935366057135165,-5.8526177749454975,1.5818746389240026
1789755363206493000,10.662492919921876,2.256802921853214,-5.855307160159946,1.6773679800420997
1789755363216508000,10.6725078125,2.5014497364759443,-5.757581529945135,1.620632531863451
1789755363226524000,10.68252392578125,2.7052456314027307,-5.7415878419995305,1.1939046643853186
1789755363236539000,10.692538818359376,2.795453725594282,-5.937049039301276,0.3777677294760942
1789755363246555100,10.70255517578125,2.700287716734409,-6.352170640137791,-0.47358255763351914
1789755363256569900,10.71256982421875,2.488543493151665,-6.751922822406888,-1.166555469688773
1789755363266586000,10.722586181640626,2.3233622833013534,-6.985114907687902,-1.768252950581908
1789755363276601000,10.73260107421875,2.3432233141995966,-7.049540910369157,-2.1106436617285014
1789755363286617000,10.7426171875,2.475359017407894,-6.908699192005395,-2.0553642575770614
1789755363296633000,10.752633056640626,2.6991981679320336,-6.422807187896966,-1.682106699001789
1789755363306648000,10.76264794921875,3.0313632531404493,-5.613288209822773,-1.3596914389133452
1789755363316664000,10.7726640625,3.266753725248575,-4.620945982223749,-1.1946113513499497
1789755363326679000,10.782678955078126,3.361688263440132,-3.6059085232138632,-1.2615852849483489
1789755363336695000,10.792695068359375,3.206799315023422,-2.79076732134372,-1.7853005314946173
1789755363346710000,10.8027099609375,2.8092554564535615,-2.270511421471089,-2.690634337726235
1789755363356726000,10.81272607421875,2.2207003657281397,-1.9578464248940348,-3.565184883159399
1789755363366741000,10.822740966796875,1.5002340282000601,-1.6404446090534328,-4.411383194333315
1789755363376757000,10.832757080078125,0.6253381033953279,-1.1673850523807108,-4.857971946579218
1789755363386772000,10.84277197265625,-0.3666365330003202,-0.682964289868623,-4.811685996222495
1789755363396788000,10.8527880859375,-1.2686591688573359,-0.28357962573766704,-4.451664935839176
1789755363406804000,10.862803955078125,-1.8253155848883091,0.20557985573410986,-3.7442017261385914
1789755363416819200,10.872819091796876,-2.097875950092077,0.8004395995616912,-2.859255458897352
1789755363426835000,10.8828349609375,-2.2734464520096775,1.3416139304310082,-1.9906208595097064
1789755363436850200,10.89285009765625,-2.335662961947918,1.7155141708239912,-1.2849123845219612
1789755363446866000,10.902865966796876,-2.6376456748604773,1.8817565801650284,-0.6137853935718536
1789755363456881200,10.912881103515625,-2.7015198888778684,2.0525275728464125,0.08654314194321631
1789755363466897000,10.92289697265625,-2.743706002700329,2.207943467746675,0.7845452803373336
1789755363476912000,10.932912109375,-2.9030525150477886,2.279028051534295,1.3850743019729852
1789755363486928000,10.942927978515625,-2.9704759459793566,2.2375956786885856,1.7977625381827353
1789755363496943400,10.952943359375,-2.9033751711308953,2.1831018719568847,2.0238398230224846
1789755363506959000,10.962958984375,-2.674931157159805,2.136850408391654,2.1339871279150247
1789755363516975000,10.97297509765625,-2.420150924926996,2.108976605299115,2.2238345721006394
1789755363526990000,10.982989990234374,-2.216177335345745,2.025693341934681,2.3672341582536696
1789755363537006000,10.993006103515626,-1.9750725772440432,1.9091992983639239,2.5040958670705558
1789755363547021000,11.00302099609375,-1.6894669986367226,1.864276745314896,2.487908702379465
1789755363557037000,11.013037109375,-1.414795486497879,1.8195348095297812,2.4082716865628955
1789755363567052000,11.023052001953126,-1.1341571749091148,1.795038373915851,2.315169624495506
1789755363577068300,11.033068359375,-0.9202245013713836,1.76964820433259,2.181668916544318
1789755363587083300,11.043083251953124,-0.715130967849493,1.7571353442400692,2.017514711654186
1789755363597099300,11.053099365234376,-0.5357213261604309,1.7998054421871899,1.8747493317514656
1789755363607115300,11.063115234375,-0.38682957233190535,1.9027578671395777,1.7383575785338878
1789755363617130200,11.073130126953124,-0.22524666096819562,2.0133841877207157,1.5947773751169443
1789755363627146200,11.083146240234376,-0.11189970151782035,2.120388518412411,1.3683973079383371
1789755363637161200,11.0931611328125,0.0524807133436203,2.21335234105289,1.092820955914259
1789755363647177200,11.10317724609375,0.19319266784787176,2.2721555354163048,0.7904115420222282
1789755363657192200,11.113192138671875,0.33014848468899727,2.3225468752652407,0.36387130607068535
1789755363667208200,11.123208251953125,0.4423170662760734,2.3245015164643523,-0.13695172518789767
1789755363677223200,11.13322314453125,0.448186798559688,2.2902377200737596,-0.6388619671612977
1789755363687239200,11.1432392578125,0.3076888155996799,2.2234479108706116,-1.2059458153128624
1789755363697254100,11.153254150390625,0.09143321553971617,2.1328052246540783,-1.8151269299596546
1789755363707270100,11.163270263671874,-0.09884730945480986,2.067068139374256,-2.309422020754218
1789755363717286400,11.173286376953126,-0.2249614142860286,2.0938936024576424,-2.689677475392818
1789755363727301000,11.183301025390625,-0.38886020137667654,2.235854680240154,-3.038198652118444
1789755363737317400,11.1933173828125,-0.5735854851305484,2.483271690228581,-3.385626188388467
1789755363747332400,11.203332275390625,-0.7773053922116756,2.757871890696883,-3.686861882326007
1789755363757348400,11.213348388671875,-0.9146002317488193,3.077776629269123,-3.8908863253116603
1789755363767363300,11.22336328125,-0.9838625685453415,3.372435867425799,-4.165668896609544
1789755363777379300,11.23337939453125,-1.0237982730925081,3.634506841188669,-4.447230168262124
1789755363787394300,11.243394287109375,-1.0211632484138011,3.8467888249099254,-4.5321512619614595
1789755363797410300,11.253410400390624,-1.0733195521086454,4.035485934904218,-4.497951470717788
1789755363807425300,11.26342529296875,-1.1262322271287442,4.17281993740797,-4.431498930644989
1789755363817441300,11.273441162109375,-1.2129051329314708,4.153817130774259,-4.6890421978503465
1789755363827457300,11.283457275390624,-1.3269552904814481,3.8828070637524124,-5.144034036782384
1789755363837472300,11.29347216796875,-1.3462667246729134,3.329505657237768,-5.784798622694611
1789755363847488300,11.30348828125,-1.3501736689835786,2.6631284911632536,-6.611320173496008
1789755363857503200,11.313503173828124,-1.3372171567767859,2.1524439911037683,-7.274104868036508
1789755363867519200,11.323519287109375,-1.3015934702098368,2.1308026526600123,-7.6927587346524
1789755363877534200,11.3335341796875,-1.2790747644096612,2.741758375763893,-7.761017447364329
1789755363887550200,11.34355029296875,-1.466165023729205,3.7863048378527164,-7.4810992667436595
1789755363897565200,11.353565185546875,-1.771753652179241,4.871465049880743,-7.080135370597243
1789755363907581400,11.36358154296875,-1.879205726638436,5.703474092182517,-6.988466556203365
1789755363917596400,11.373596435546874,-1.7180349214732646,6.177120362702012,-6.944137000611424
1789755363927612400,11.3836123046875,-1.7310919714450834,6.103274205246567,-7.088823119443655
1789755363937628200,11.393628173828125,-1.7281559179931878,5.449475365716219,-7.186696049174666
1789755363947643400,11.403643310546874,-2.0615175195097923,4.513819194196165,-7.42306033475101
1789755363957659100,11.4136591796875,-2.706768895447254,3.5761873386889693,-7.719910360950231
1789755363967674400,11.42367431640625,-3.1586744588017464,2.7281542133033274,-7.866419019034504
1789755363977690000,11.433690185546874,-3.331405937901139,2.069876474793255,-7.898019441434741
1789755363987705300,11.443705322265625,-3.1116064181566236,1.6483587431788445,-7.76782420476973
1789755363997721000,11.45372119140625,-2.518312023949623,1.598961382803321,-7.541461088725924
1789755364007736300,11.463736328125,-1.4835072036743162,1.7284125231027603,-6.595954846581816
1789755364017752000,11.473751953125,-1.2336311100959778,2.057113147071004,-7.175979424849152
1789755364027767300,11.483767333984375,-1.3202408875346183,2.229243445406854,-7.441558698993921
1789755364037783000,11.493782958984376,-1.4261784657776355,1.6874902917362749,-7.27186322658956
1789755364047799300,11.50379931640625,-1.8645523473858832,0.9836392811834812,-7.198359598961472
1789755364057814000,11.51381396484375,-2.2989783681511877,0.5015237268738448,-7.482315072274208
1789755364067830300,11.523830322265624,-2.5641210044443605,-0.4178413081239909,-7.60415223043859
1789755364077845200,11.53384521484375,-2.900306431210041,-1.9614812742650507,-7.146477436032891
1789755364087861200,11.543861328125,-3.083274642163515,-3.0049069156304,-6.581957300889492
1789755364097876200,11.553876220703126,-2.9154923099040984,-3.681818627461791,-5.920080953365564
1789755364107892200,11.563892333984375,-2.356832006704807,-4.064820458199083,-5.090258022931218
1789755364117907200,11.5739072265625,-1.537508842974901,-4.2852351872324945,-4.41950454146862
1789755364127923200,11.583923095703126,-0.5737561289897188,-4.544439665648341,-4.137888324758411
1789755364137938200,11.593938232421875,0.5420552784223109,-4.7053164563030005,-4.055742540991306
1789755364147954200,11.6039541015625,1.7348106997072696,-4.974868141210079,-3.868877907121181
1789755364157970200,11.61397021484375,2.7627801210045813,-5.327199231612682,-3.7222564363121986
1789755364167985200,11.623985107421875,3.4393829130172726,-5.655142899733781,-3.5261142710089683
1789755364178001200,11.634001220703125,4.023107514846325,-6.0359554037332535,-3.3197546630740162
1789755364188016000,11.64401611328125,4.585941304337978,-6.4275628579914565,-3.08378726786077
1789755364198032100,11.6540322265625,5.073576937243342,-6.827903653803467,-2.7053110978543757
1789755364208047000,11.664047119140625,5.428485184657573,-7.122974979892373,-2.082512376743555
1789755364218063000,11.67406298828125,5.689356134980916,-7.358855865865945,-1.4410650692641733
1789755364228078000,11.684078125,5.929719719326496,-7.626113302356004,-0.9338631506234407
1789755364238094300,11.69409423828125,6.193074887681007,-7.857170713695884,-0.5724994434595108
1789755364248109300,11.704109375,6.839926684552431,-7.961163587611913,-0.4024000664293766
1789755364258125300,11.714125244140625,7.275530516925453,-8.059982858282327,-0.438440517103672
1789755364268141300,11.724141357421875,7.643330979138613,-8.268390630918741,-0.5036363351136446
1789755364278156300,11.73415625,7.783391776257753,-8.405640462270378,-0.5181693028569221
1789755364288172300,11.74417236328125,7.827589814424514,-8.428491761025786,-0.304727043184638
1789755364298187300,11.754187255859375,7.770387333256005,-8.551561675855517,0.06523965715169906
1789755364308203300,11.764203369140626,7.764496521651744,-8.493733171743154,0.4520639687865972
1789755364318218200,11.77421826171875,7.6685589438974855,-8.450479136428237,0.7797077771782874
1789755364328234200,11.784234130859375,7.592788540381193,-8.503173200261593,1.2165706697016954
1789755364338249200,11.794249267578126,7.584955947059393,-8.543907946231961,1.7792969071656464
1789755364348265200,11.80426513671875,7.483409297251701,-8.514129478561877,2.26587104831934
1789755364358281200,11.81428125,7.2865797342061995,-8.358830780300497,2.7698966750115153
1789755364368296200,11.824296142578126,7.168498129183053,-8.142722516289354,3.2748557831615206
1789755364378312400,11.8343125,7.029474273896217,-7.879750794294476,3.496518174168467
1789755364388327200,11.8443271484375,6.742459997534752,-7.700921582841873,3.2806267677783962
1789755364398343400,11.854343505859376,6.234367852056026,-7.784466712012887,2.747663215893507
1789755364408358400,11.8643583984375,5.57375640990138,-7.876326080542802,2.105589885470271
1789755364418374400,11.87437451171875,4.877860888397693,-7.794953619235754,1.6857845107316969
1789755364428389400,11.884389404296876,4.215961159998178,-7.671827590304613,1.341114748737216
1789755364438405400,11.8944052734375,3.500254145826399,-7.598024687469005,0.9797066179096698
1789755364448420400,11.90442041015625,2.725965471087396,-7.567156670996546,0.5874708026200532
1789755364458436400,11.914436279296876,1.8602219169661403,-7.507169527545571,0.04774491699337959
1789755364468452000,11.9244521484375,0.8949778319120406,-7.337676299715041,-0.47891924248635764
1789755364478467300,11.93446728515625,-0.14972586656510828,-7.048854097148776,-0.8780290351986885
1789755364488483000,11.944483154296876,-1.4713082318365573,-6.610100860834121,-1.2263953136235475
1789755364498498300,11.954498291015625,-2.8353005828142166,-6.144855923435092,-1.8026386197865008
1789755364508514000,11.96451416015625,-3.866049113436043,-5.528108757448196,-2.844578114247322
1789755364518529300,11.974529296875,-4.943229140365124,-4.833113399654627,-3.8123914652675386
1789755364528545300,11.984545166015625,-6.295186185634136,-4.102570343139767,-4.292440004044771
1789755364538560500,11.994560546875,-8.241521328693628,-3.5476083099365234,-4.30439639929831
1789755364548576300,12.004576171875,-9.50296749743223,-3.0209172624498604,-4.227396161726117
1789755364558592300,12.01459228515625,-10.715246022897958,-2.48847744217813,-3.8091660734802484
1789755364568607200,12.024607177734374,-12.045619012868404,-2.001994486439228,-2.8586422954350708
1789755364578623200,12.034623291015626,-13.196100715112685,-1.6416370337083934,-1.7012591432392596
1789755364588638200,12.04463818359375,-13.875817839753626,-1.358636376902461,-0.6771621794611216
1789755364598654200,12.054654296875,-13.966514594244956,-1.1368936141356825,0.1369505561441183
1789755364608669200,12.064669189453125,-13.656664216697216,-1.0966767545595764,0.7318085464060307
1789755364618685200,12.074685302734375,-12.855477598160505,-1.2595567017301916,1.0586229182362557
1789755364628700200,12.0847001953125,-11.548225956058502,-1.4336743744909763,1.2424082907915115
1789755364638716200,12.094716064453126,-9.927642524033784,-1.5006293111279605,1.2271855872184037
1789755364648731100,12.104731201171875,-8.273664187407492,-1.6696709957987068,1.0610077675461769
1789755364658747100,12.1147470703125,-6.662039137864112,-1.9644272645890712,0.9089788847357034
1789755364668763100,12.12476318359375,-5.142655734166502,-2.3200363537490367,0.7340051796674728
1789755364678778000,12.134778076171875,-3.7846123547211286,-2.7585686407893895,0.49199967333376404
1789755364688794400,12.14479443359375,-2.434547699069977,-3.19973536798656,0.4184399316042661
1789755364698809300,12.154809326171875,-1.0574258174061775,-3.5780952181369066,0.46132980978190896
1789755364708825300,12.164825439453125,0.26658085240274665,-3.9274329719424244,0.40406712285876273
1789755364718840300,12.17484033203125,1.5757739839613436,-4.246941989195347,0.23488544519543647
1789755364728856300,12.184856201171876,3.025068829171359,-4.586728070801496,-0.163646839889884
1789755364738871300,12.194871337890625,4.662984796530008,-4.8679240162730215,-0.7496189283847808
1789755364748887300,12.20488720703125,6.372534798252582,-5.058765152558684,-0.9856167187362909
1789755364758903300,12.2149033203125,7.861160075592994,-5.106686595162749,-0.8712088337898254
1789755364768918300,12.224918212890625,8.838989209192992,-4.940034728237986,-0.44814474951624866
1789755364778934300,12.234934326171874,9.389331765902043,-4.454634891560674,0.44534430514276024
1789755364788949200,12.24494921875,9.809640413987635,-4.052423625701666,1.5339976199835539
1789755364798965200,12.25496533203125,10.189029022663831,-3.8570232186764475,2.5501930168569085
1789755364808980200,12.264980224609374,10.289016168069839,-3.8419671038419008,3.284059080314636
1789755364818996200,12.274996337890625,10.020559292662144,-4.028670994192361,3.6897944286465645
1789755364829011200,12.28501123046875,9.51380687135458,-4.276134181410074,3.7669022182464595
1789755364839027200,12.295027099609374,8.85726837772727,-4.665023608881235,3.6310821274369953
1789755364849043500,12.30504345703125,8.180769630610943,-4.828893736132979,3.39979441447258
1789755364859058400,12.315058349609375,7.341382168495655,-4.591854912295937,3.380849475505948
1789755364869074400,12.325074462890624,6.47280076059997,-4.262062985959649,3.1637358338445423
1789755364879089400,12.33508935546875,5.775645594424009,-3.8020547801703213,2.836659011685848
1789755364889105400,12.34510546875,5.065067467573285,-3.401683296959102,2.4336972197204827
1789755364899120400,12.355120361328124,4.338309482555091,-3.054707011587918,1.7595500041663645
1789755364909136400,12.365136474609375,3.692948508763313,-2.7217475611314175,0.872899271094799
1789755364919151400,12.3751513671875,3.070006287528574,-2.4251070860296484,0.19688275453746318
1789755364929167400,12.38516748046875,2.4144246562346816,-2.1038298900604246,-0.19235855511128902
1789755364939183400,12.395183349609376,1.7877463172115384,-1.7889195987746118,-0.6054530340343713
1789755364949198300,12.4051982421875,1.3157608195111155,-1.4973583266332744,-1.343686645051837
1789755364959214300,12.41521435546875,1.114311195449531,-1.2132619835451244,-2.3643261618524787
1789755364969229300,12.425229248046875,1.1476562695600092,-0.9071481621772051,-3.793997145920992
1789755364979245300,12.435245361328125,1.222706249847263,-0.4728565814465284,-5.410081512960791
1789755364989260300,12.44526025390625,1.2042590312696992,0.21839885916635393,-6.739607530713081
1789755364999276300,12.4552763671875,1.0955705468833445,1.0770200140617787,-7.774561988592147
1789755365009291300,12.465291259765625,0.9846014042139053,1.9205746788591145,-8.608357329788804
1789755365019307300,12.475307373046874,0.824858586025238,2.6361235798597336,-9.29269100831449
1789755365029323300,12.4853232421875,0.5339068240843713,3.119192927762866,-9.726762808814645
1789755365039338200,12.495338134765625,0.28658611407727,3.4206516168013215,-9.876430223190784
1789755365049354200,12.505354248046874,0.17174086062684654,3.6566453154996035,-9.902787484240532
1789755365059369200,12.515369140625,0.15519772210493682,3.877344998954236,-9.79620517835319
1789755365069385200,12.52538525390625,0.2184115725174546,4.1175913866609335,-9.315805341920257
1789755365079400200,12.535400146484376,0.3286264627534896,4.343823569801449,-8.689094415801764
1789755365089416200,12.545416259765625,0.41923320087380705,4.445936621320247,-8.137523194080591
1789755365099431200,12.55543115234375,0.3793533912323415,4.422398801605403,-7.647547720050811
1789755365109447200,12.565447265625,0.11638166923746467,4.399047736634314,-7.1183934973210095
1789755365119463200,12.575463134765625,-0.39676410636901854,4.395806270495057,-6.529910302788019
1789755365129478100,12.58547802734375,-1.0410614695172757,4.3049861818850035,-5.7174348129957915
1789755365139494100,12.595494140625,-1.6925871764838694,4.142130784633755,-4.727466328790784
1789755365149509000,12.605509033203125,-2.257315985941887,3.867428877356648,-3.645986266580224
1789755365159525000,12.615525146484375,-2.824900769352913,3.550247426268458,-2.4660090052604673
1789755365169540000,12.6255400390625,-3.4444039560496806,3.1433623233795163,-1.1859896534770726
1789755365179556400,12.635556396484375,-3.764418000215292,2.7932144222348927,0.020109306570887563
1789755365189571300,12.6455712890625,-4.2990111991286275,2.3443287912234663,1.1636264304995536
1789755365199587300,12.65558740234375,-4.265750734561681,1.9702673689194024,2.1008523355543613
1789755365209603300,12.665603271484375,-4.290757165524363,1.7043381122931838,2.885337994658947
1789755365219618300,12.675618408203125,-4.321868927624822,1.4574367967419326,3.53461497285068
1789755365229634300,12.68563427734375,-4.140529194656014,1.1534699242748319,4.004003585925698
1789755365239649300,12.695649169921875,-3.8591380188733337,0.8263250053159892,4.230409372067451
1789755365249665300,12.705665283203125,-3.552461010664701,0.4821713761501014,4.287532358258963
1789755365259680300,12.71568017578125,-3.33880773859024,0.22414682823382318,4.353897804570198
1789755365269696300,12.7256962890625,-3.2828315843462943,0.06843859932348131,4.297997638171911
1789755365279711200,12.735711181640625,-3.258912948620319,-0.0775134295250289,4.203716595453024
