time,seconds_elapsed,z,y,x
1789323687376641500,0.0386416015625,0.34515316159725185,-0.389586762085557,-0.7527843336131423
1789323687386604500,0.0486044921875,0.8836784392625093,-0.5323629556432367,-0.5400797040330246
1789323687396567600,0.058567626953125,1.1695891382962464,-0.6952826503023505,-0.05310853551891632
1789323687406530600,0.068530517578125,1.0197989743232727,-0.7161711245521902,0.453224902324751
1789323687416493300,0.078493408203125,0.46589375669658184,-0.6551660362303257,0.9200520674139261
1789323687426456600,0.08845654296875,0.12680208709537982,-0.6199804488196968,1.4558425132878123
1789323687436420400,0.09842041015625,-0.011789806514978409,-0.6462666904598474,1.7975557635642587
1789323687446383400,0.10838330078125,0.17794482983350754,-0.6546937425434589,1.899350104522705
1789323687456346600,0.1183466796875,0.6688385877519846,-0.7664096119269728,1.9767855186417698
1789323687466309600,0.1283095703125,0.427444491314888,-0.9367091877043247,1.6623498591303825
1789323687476272600,0.138272705078125,-0.18164134626388548,-1.191183130466938,1.5829223944112658
1789323687486235600,0.148235595703125,-0.8049445097655057,-1.8839020677611231,2.041867647144198
1789323687496198400,0.158198486328125,-1.1531804398089647,-2.369628359913826,1.9268686644367872
1789323687506161400,0.168161376953125,-0.755530782777071,-1.5755243931144476,0.49188306121677156
1789323687516124400,0.17812451171875,0.12489946834445,0.7171425999328493,-1.3088906414806842
1789323687526088400,0.18808837890625,0.3902963716596365,2.147828898523748,-2.2214921006277204
1789323687536051500,0.198051513671875,0.7109136424154042,1.802741203378141,-2.5348762052595615
1789323687546014500,0.208014404296875,0.5967126782178879,0.9078390670508146,-2.0899987869761882
1789323687555977500,0.2179775390625,0.2490443189293146,0.4331365654766559,-1.8406711210608482
1789323687565940700,0.227940673828125,0.10407879863381385,0.4320446785867214,-1.727328381127864
1789323687575903500,0.237903564453125,0.22453005539774892,0.5925625728011131,-1.718229128871113
1789323687585866500,0.247866455078125,0.5050736744403839,0.684572747978568,-1.6256743254229424
1789323687595829500,0.25782958984375,0.5726578488916159,0.6688897334173322,-1.319964262550324
1789323687605792500,0.26779248046875,0.5538590403974056,0.70385320250988,-1.3951331930421291
1789323687615755500,0.277755615234375,0.5727238998651504,0.8518120594024657,-1.5800048995293676
1789323687625719600,0.287719482421875,0.5921756193101406,0.8279889930054545,-1.5409315108999608
1789323687635682600,0.2976826171875,0.33804654446244237,0.11894903550744056,-0.4379025377694517
1789323687645645600,0.3076455078125,0.2636749018281698,-0.09610007483959197,0.5661140532713383
1789323687655608300,0.3176083984375,0.25792612904310225,0.10125760373324155,0.7271521719675511
1789323687665571300,0.3275712890625,0.1551186655193567,0.42518414516746994,0.6523452797211706
1789323687675534600,0.33753466796875,0.10298165104687214,0.7862968001797794,0.3330758433777839
1789323687685497600,0.34749755859375,-0.3531698793143034,-0.24695669900029896,0.4732093769395724
1789323687695460600,0.357460693359375,-0.35971944708824155,-0.3393678561940789,0.13055771330185234
1789323687705423600,0.367423583984375,-0.06040040042698383,-0.5227633526489138,-0.19408026433736084
1789323687715387600,0.3773876953125,-0.25414368789494035,-0.9492550732836127,0.27315007472522557
1789323687725350700,0.3873505859375,-0.3098123836249113,-0.6381818759426474,0.26634930866919454
1789323687735313400,0.3973134765625,-0.14405600423514842,-0.3254264246031642,-0.16723748479299247
1789323687745276400,0.4072763671875,-0.005220949518680572,-1.277443071554601,-1.0132123624745757
1789323687755239400,0.417239501953125,-0.07622983772158622,-1.8689432758212088,-1.138715349670127
1789323687765202400,0.427202392578125,-0.26745734297633167,-2.0363439152866603,-1.289974636347592
1789323687775165400,0.43716552734375,-0.17202362309098243,-1.0842971654579043,-0.8384685937047004
1789323687785128700,0.447128662109375,0.23702245722413062,-0.13504238443523645,-1.7557152483090757
1789323687795091700,0.457091796875,-0.23364099809229372,0.42803778103291984,-0.7044730879738926
1789323687805055000,0.467054931640625,1.2123854929715394,1.4299951014563441,0.7365445619519799
1789323687815019000,0.47701904296875,1.3720154984354973,1.1047200680226086,1.2892849005177616
1789323687824982000,0.48698193359375,0.8142220411986112,0.6138479374140501,1.1223064319871365
1789323687834945000,0.496945068359375,0.6695657329827547,0.15085574737787247,1.106802061928436
1789323687844907800,0.50690771484375,0.30769466081857677,-0.4040691686853766,1.0456468245461583
1789323687854870800,0.516870849609375,-0.06524316428303718,-0.7360597741097211,1.127864869831875
1789323687864833800,0.526833740234375,0.13864040892720222,-0.9324363326907157,1.251696635879576
1789323687874796800,0.536796875,0.3512473868191242,-0.7686404397189617,0.6255355256635695
1789323687884759800,0.546759765625,0.03701426414251327,-0.40799481769651175,0.13974595901630818
1789323687894722800,0.556722900390625,-0.24388825134038924,-0.3140878689870238,0.13807831806503235
1789323687904685800,0.566685791015625,-0.3989525563240051,-0.3084975016340613,0.4293944563388824
1789323687914649900,0.57664990234375,-0.6206763221293687,-0.2813698407337069,0.6671520229045301
1789323687924612900,0.58661279296875,-0.8330208496928214,-0.1883288612037897,0.7946719028804451
1789323687934575900,0.596575927734375,-0.9000076427727938,-0.042561084614694114,0.5914377334896475
1789323687944539000,0.606538818359375,-0.7389104873657226,0.15101882898509503,0.29388613489232956
1789323687954502000,0.616501953125,-0.4528150794148445,0.2566404731467366,0.36300446010828014
1789323687964465000,0.62646484375,-0.26765257328748704,-0.24903175170868633,-0.5322790767520665
1789323687974428000,0.636427978515625,-0.26492519415020943,-0.4441755536243319,-1.0127275746323168
1789323687984390700,0.646390625,-0.4682593167841434,-0.20466507897675038,-0.9494760956231504
1789323687994353700,0.656353759765625,-0.5781190369069575,0.03447627009749412,-0.4587125399556011
1789323688004317000,0.66631689453125,-0.5093821852892637,-0.10171849924325943,-0.9319825245086103
1789323688014280700,0.67628076171875,-0.39908115113973613,-0.03411123617738485,-0.24748379161432385
1789323688024243700,0.68624365234375,0.038892332974076266,0.0480865700379014,0.2955425237972289
1789323688034207000,0.69620703125,0.580479336297512,-0.2840174326330423,-0.35668212521895765
1789323688044170000,0.706169921875,0.869122675165534,-0.6467416144952177,-0.2985777267746627
1789323688054133000,0.716133056640625,0.9833604642421007,-0.46565176463425156,0.15983553797341882
1789323688064095700,0.726095703125,0.840628986608982,-0.33472616786807774,-0.2238832088615745
1789323688074058800,0.736058837890625,0.5649374837726354,-0.42037411453723905,-0.4139906971104443
1789323688084021800,0.746021728515625,0.5556207893729209,-0.46805414960086345,0.07470905789509415
1789323688093984800,0.75598486328125,0.6235048235535622,-0.214231364223361,0.14940821545068173
1789323688103947800,0.76594775390625,0.6984265012860298,0.03312368644475937,0.007097155186720192
1789323688113911800,0.775911865234375,0.4878244334757328,0.12364391532540321,0.10762392389476298
1789323688123874800,0.785874755859375,0.2402209610044956,0.16930442726016043,0.33017292501050977
1789323688133837800,0.795837890625,0.06612871494591235,0.18081015613675117,0.4232509486151859
1789323688143800800,0.80580078125,-0.07837152592539787,0.29244740732610225,0.4018109414298087
1789323688153763800,0.815763916015625,-0.26987317194640636,0.325465879830718,0.2846699417250231
1789323688163726800,0.825726806640625,-0.4336030139446258,0.32488077341914173,0.20934936433546245
1789323688173689900,0.83568994140625,-0.5216080451339483,0.31912557089328764,0.09386837026476859
1789323688183652900,0.84565283203125,-0.535353661891818,0.34148996291458605,0.02419080373086035
1789323688193616000,0.855615966796875,-0.527321162083745,0.35349662705063817,0.08775390597246586
1789323688203579000,0.865578857421875,-0.3926923268854618,0.2543646371692419,0.13886230804957447
1789323688213543000,0.87554296875,-0.07199848376214504,0.08561316761672497,0.2851475691741332
1789323688223505700,0.885505615234375,0.18608254358172416,0.02187105554640293,0.34805849111732096
1789323688233468700,0.89546875,0.36687750214934345,0.16007015044689177,0.437434080007486
1789323688243431700,0.905431640625,0.33936230323612687,0.3899117562562227,0.5294722026377916
1789323688253395000,0.91539501953125,0.11840484562814235,0.40313714853227134,0.47404089586026965
1789323688263358000,0.92535791015625,-0.12040507953464984,0.19702596240043638,0.4002008028194308
1789323688273321000,0.935321044921875,-0.28849077865481376,0.07147825928032397,0.34091742372363804
1789323688283284000,0.945283935546875,-0.36035189977288246,0.1296615681797266,0.37210732909422367
1789323688293246700,0.955246826171875,-0.40775194885134697,0.10225684390366077,0.37708990327976644
1789323688303209700,0.965209716796875,-0.42094051624834533,0.004583820658922195,0.38085561248883604
1789323688313173800,0.975173828125,-0.47720367074012754,-0.07541150707602501,0.3122296738997102
1789323688323136800,0.98513671875,-0.6182090552330016,-0.11799509578347206,0.20522499614814296
1789323688333099800,0.995099853515625,-0.6957447148561478,-0.2603670924544334,0.08028238278171047
1789323688343062800,1.005062744140625,-0.726917851755023,-0.30066520057320595,-0.09068692721705883
1789323688353025800,1.01502587890625,-0.7248843001008033,-0.28310616300702096,-0.270642439285852
1789323688362989000,1.024989013671875,-0.739215607792139,-0.3595557809591293,-0.3802674373373389
1789323688372951800,1.034951904296875,-0.8807371251136064,-0.5034948808163404,-0.434648687072657
1789323688382914800,1.044914794921875,-1.1148901643812656,-0.6036603053987026,-0.38298484306987374
1789323688392877800,1.0548779296875,-1.3449240778923033,-0.6572790828615427,-0.4033217843841761
1789323688402840800,1.0648408203125,-1.6283780314236878,-0.7016834572553634,-0.5714086525481193
1789323688412804900,1.074804931640625,-2.00310975420475,-0.8213648986905813,-0.7544903338134288
1789323688422767900,1.084767822265625,-2.5126976911991834,-0.9294605317503213,-0.9419241458736359
1789323688432731000,1.09473095703125,-2.9744173770815134,-1.0152800355941056,-1.1151891473278404
1789323688442694000,1.10469384765625,-3.4036773933857676,-1.0370669199883937,-1.220922069844231
1789323688452656600,1.11465673828125,-3.7162685940742493,-1.0793962416738272,-1.2621771133616566
1789323688462620000,1.124619873046875,-3.8060172540605066,-1.2695026339441537,-1.2572066314727066
1789323688472583000,1.1345830078125,-3.7505163161128756,-1.423719382187724,-1.0230948009982705
1789323688482546000,1.1445458984375,-3.705270230197906,-1.4630594589293002,-0.6878134834654629
1789323688492509000,1.154509033203125,-3.82646967498064,-2.2607447913467884,0.43174306529164314
1789323688502472000,1.164471923828125,-3.550796292322874,-2.6196383090049027,0.13654197534322737
1789323688512436000,1.17443603515625,-3.3718232884854076,-2.6472593063801524,-2.288444406916201
1789323688522399000,1.18439892578125,-3.0602199297904966,-1.490298178988695,-1.9222507953777908
1789323688532361700,1.19436181640625,-3.0647821231395005,-1.1618529910862445,-1.5499185349538922
1789323688542324700,1.20432470703125,-2.7862615343570707,-1.678173451206088,-1.3266735509306191
1789323688552287700,1.214287841796875,-2.6937428251355886,-1.9157424363970756,-0.7365285606652497
1789323688562250800,1.224250732421875,-3.015151538529992,-1.926963503113389,-0.39962329519242046
1789323688572214000,1.234214111328125,-3.388133202773332,-1.9728560702383517,-0.4391819831207394
1789323688582177000,1.244177001953125,-3.5587013663589953,-1.9170792379587887,-0.43465427656322714
1789323688592140000,1.25414013671875,-3.4243390731424093,-1.7266110266387462,-0.1861713909089565
1789323688602102800,1.264102783203125,-3.013608985263109,-1.4516808635637164,0.2045551888614893
1789323688612066800,1.27406689453125,-2.5782173343360424,-1.1954659223526716,0.66754153367877
1789323688622029800,1.28402978515625,-2.3370962096214294,-1.1994848026052116,1.1352946545064448
1789323688631992800,1.293992919921875,-2.200879228448868,-1.4488339496999978,1.422264507204294
1789323688641955800,1.303955810546875,-2.1513018353313207,-1.8336834541305898,1.467590088096261
1789323688651918800,1.3139189453125,-1.0664397294670342,-2.428283085717261,1.8255203136801719
1789323688661881900,1.3238818359375,-0.6473638380467891,-3.059038903312385,2.5498522405952215
1789323688671844900,1.333844970703125,-0.9810720610439777,-3.2883623304665086,1.419646433660388
1789323688681808000,1.343807861328125,-0.03486380811035633,-2.695601604744792,-0.7188420973271131
1789323688691771000,1.35377099609375,-0.08320844456255436,-2.5692148204520344,-1.4180290615916251
1789323688701734000,1.36373388671875,-0.04193593845367431,-2.890929238794744,-0.5703986717879772
1789323688711698000,1.373697998046875,-0.004922258833050728,-3.283715673704445,-0.03315641967058182
1789323688721661000,1.383660888671875,0.01668868447244167,-3.5530665753424167,0.9350304408371448
1789323688731624000,1.3936240234375,0.2546928462103009,-3.490905010461807,2.0197616137981416
1789323688741587000,1.4035869140625,0.3291010214626789,-2.6595690451160072,2.4345365931540726
1789323688751550000,1.413550048828125,0.21471242573857305,-1.704766566838324,1.7253753473639488
1789323688761512700,1.4235126953125,-0.04908522568643093,-1.450273627114296,1.1747083810061216
1789323688771475700,1.433475830078125,-0.2781684143438935,-1.5480775832623241,0.6478717875689268
1789323688781438700,1.443438720703125,-0.4736737430483102,-1.8548713497184215,0.4887105686604976
1789323688791402000,1.453402099609375,-0.6585910422429442,-2.0777524688653646,0.5583242031127215
1789323688801365000,1.463364990234375,-0.6987672775477171,-2.073339766989648,0.7552648253172636
1789323688811328000,1.473327880859375,-0.6290396613270044,-1.8743008573316036,0.8849357458472251
1789323688821291000,1.483291015625,-0.5630981395162642,-1.7245624235458672,0.8998580051690339
1789323688831254000,1.49325390625,-0.4925298346877098,-1.6658803713440895,0.8401257132619618
1789323688841216800,1.503216796875,-0.3349912485450506,-1.6002110906034708,0.991411084228754
1789323688851179800,1.5131796875,-0.15673611065335571,-1.4544555889740585,1.1825433124154805
1789323688861142800,1.523142822265625,-0.001732595946267247,-1.44911890412122,1.6540566625595092
1789323688871105800,1.533105712890625,-0.06375855174846946,-1.6912091661289332,2.2515742274194954
1789323688881069000,1.543069091796875,-0.08025312015460803,-1.8783109697557985,2.6506775903910396
1789323688891032000,1.553031982421875,0.28985446822345257,-1.9889095255471765,2.764043272808194
1789323688900994800,1.562994873046875,0.7329775901854038,-2.131142698269337,2.832154686003923
1789323688910957800,1.572957763671875,1.2749193982958793,-1.8772277045637369,3.109930593898892
1789323688920921900,1.582921875,1.897448070293665,-1.3508952612563967,3.630040509429574
1789323688930884900,1.592884765625,2.805971612477302,-0.646027767137438,4.386388453808427
1789323688940847900,1.602847900390625,3.25766207177639,-0.003075900314003229,5.238702032992244
1789323688950811000,1.612810791015625,2.699961553519964,0.2430779578708112,5.753964508491754
1789323688960774000,1.62277392578125,2.359879703837633,0.5498683633260428,5.831787752884626
1789323688970737000,1.63273681640625,2.0668214711368083,0.8244770393617451,5.45825605354309
1789323688980700000,1.642699951171875,1.6272236006915568,0.9876480784334242,5.077265270367264
1789323688990663000,1.652662841796875,1.3664075954258441,1.188908609663695,4.770358545055985
1789323689000626000,1.6626259765625,1.30999889498353,1.374306239721179,4.373397454810142
1789323689010589000,1.6725888671875,1.2988099769711494,1.4297835045322775,4.095073849904537
1789323689020552000,1.682552001953125,1.508784268271923,1.391906193819642,3.879676949033141
1789323689030516000,1.692515869140625,1.7663456556558608,1.3549234938591719,3.6469244242131706
1789323689040479000,1.70247900390625,1.8586767333507537,1.3162328209370373,3.359780383992195
1789323689050442000,1.71244189453125,1.894368808978796,1.307169516776502,3.2892303454726934
1789323689060404700,1.72240478515625,1.7503332630097865,1.380061734507978,3.0668560068041084
1789323689070367700,1.73236767578125,1.7252771476864814,1.1412106005519629,2.4658020845115183
1789323689080330800,1.742330810546875,1.8359470151484012,1.6645204811677337,3.073277564284205
1789323689090293800,1.752293701171875,1.4986813919305801,2.0928280190527437,3.130046914732456
1789323689100257000,1.762257080078125,1.194459960180521,1.9220225395798682,2.6351813305735585
1789323689110220000,1.772219970703125,0.9816483996272086,1.8702844612970948,2.7306986370891333
1789323689120183000,1.78218310546875,0.7528876478571445,1.9311267602726816,2.5006518640965223
1789323689130147000,1.79214697265625,0.6476455045323819,1.6166493074461816,2.0077391675710676
1789323689140109800,1.80210986328125,0.20146496776118875,1.2942881156325339,1.9005869528412818
1789323689150072800,1.81207275390625,-0.215613831557706,1.9012036234349012,2.4449147793054578
1789323689160035800,1.822035888671875,-0.06557393060736358,2.1935805958732963,2.395937105646729
1789323689169998800,1.831998779296875,0.19378778419680892,2.109165113608539,2.356522794625163
1789323689179961900,1.8419619140625,0.4952161511622369,1.9789277913674712,2.3648323578089476
1789323689189924900,1.8519248046875,0.8205214336037635,1.8745345199570058,2.2614415414392948
1789323689199888000,1.861887939453125,0.9790250653862953,1.7724889807164668,2.2809230715006588
1789323689209851000,1.871850830078125,1.1596984434008597,1.6664894431531427,2.014220930805802
1789323689219814000,1.88181396484375,1.4992752661705016,1.6388938724800943,1.8028776892393827
1789323689229777000,1.89177685546875,1.1252748533386736,1.55302789914608,1.944065444561839
1789323689239740000,1.901739990234375,0.7130722817540168,1.5381035939976573,1.819261253285408
1789323689249704000,1.911703857421875,0.6775730983495711,1.5875088454186916,1.449061328715086
1789323689259667000,1.9216669921875,0.6129002813003956,1.507950447796285,1.1888467964738607
1789323689269630000,1.9316298828125,0.5288670763514935,1.3688593724921345,1.020298156017065
1789323689279593000,1.941593017578125,0.4336205496013164,1.1993436405688525,0.8844856639921664
1789323689289555700,1.9515556640625,0.37550373006686566,1.0506351343527436,0.8188193058609962
1789323689299518700,1.961518798828125,0.39626492467522617,0.9395783133998513,0.7164695229768753
1789323689309482000,1.97148193359375,0.4410288530964404,0.8505661509945989,0.6832827081680297
1789323689319445000,1.981445068359375,0.5115046573359519,0.7503691622301936,0.6985597722768783
1789323689329408000,1.991407958984375,0.600296966445446,0.711361678443849,0.6060147595703601
1789323689339371000,2.00137109375,0.6600140607833862,0.677140844412148,0.5428168373793363
1789323689349334000,2.011333984375,0.7066670908868312,0.6055494801461696,0.5834919621169566
1789323689359298000,2.021298095703125,0.7745335894107818,0.586228985865414,0.6492144343495369
1789323689369260800,2.0312607421875,0.748847505620867,0.6338517377838492,0.6024538522183894
1789323689379223800,2.041223876953125,0.6500703205265105,0.6511030245751143,0.5958902559190988
1789323689389186800,2.051186767578125,0.5209165557384491,0.530226820397377,0.6466998211801052
1789323689399149800,2.06114990234375,0.3040462213136256,0.39660423963218927,0.6172434250712394
1789323689409112800,2.07111279296875,0.08646839620657265,0.38688305608481166,0.4721639230072498
1789323689419075800,2.081075927734375,-0.027707579680159685,0.4386380855023861,0.2049590934872627
1789323689429039000,2.0910390625,-0.07494505860805512,0.4286781247630715,-0.06271569163203239
1789323689439001900,2.101001953125,-0.06712649381160736,0.37129853346198793,-0.17371464491784572
1789323689448964900,2.11096484375,-0.018000863049551844,0.20962825434207916,-0.23656010040938852
1789323689458927900,2.120927978515625,0.045498160979896785,0.06775923875719309,-0.3194575793266296
1789323689468891000,2.130890869140625,0.13243264032825827,0.01109656355381012,-0.5152659826308489
1789323689478855000,2.14085498046875,0.14084405645132064,-0.00732376701682806,-0.6557254236787557
1789323689488818000,2.15081787109375,0.2076958249747753,-0.02044277630895376,-0.663783642449975
1789323689498781000,2.160781005859375,0.2670797418355942,-0.1311003688111901,-0.536308770659566
1789323689508744000,2.170743896484375,0.18908581705093383,-0.3279366538584232,-0.612193740466237
1789323689518706700,2.180706787109375,0.20216507885456084,-0.48721010096967216,-0.556073793837428
1789323689528670000,2.190669921875,0.2599253400363028,-0.6356871365174651,-0.5818102926403284
1789323689538633000,2.200633056640625,0.09003507571220397,-0.7338768771126866,-0.6054413435965776
1789323689548596000,2.210595947265625,-0.17790128295272586,-0.7300555652588605,-0.7883873427182435
1789323689558559000,2.22055908203125,-0.33588863577619194,-0.7172998363211751,-0.9429214863479137
1789323689568522000,2.23052197265625,-0.4868692516427487,-0.744419021654129,-1.0249410133868455
1789323689578484700,2.240484619140625,-0.5788825686253607,-0.7407105225250125,-1.0443412949055433
1789323689588449000,2.250448974609375,-0.6399661290109158,-0.7626596117436886,-0.9832067349851131
1789323689598411800,2.260411865234375,-0.7152770252566785,-0.7864841394454241,-0.9016250148415565
1789323689608374800,2.270374755859375,-0.7490914704445749,-0.8897706186577677,-0.8039315333306789
1789323689618337800,2.280337890625,-0.7558533657949418,-1.0601716089829802,-0.6834983967453241
1789323689628300800,2.29030078125,-0.7308801795147359,-1.2268965411439536,-0.6262947465330362
1789323689638264000,2.30026416015625,-0.6464777028620242,-1.3631018318787216,-0.6208557703495026
1789323689648227000,2.31022705078125,-0.5101626681424677,-1.4608242472231387,-0.691400548171997
1789323689658189800,2.32018994140625,-0.27169622265510257,-1.5438739940926431,-0.7283037531554698
1789323689668152800,2.33015283203125,-0.12069222591295838,-1.5469973868101834,-0.7277209848314523
1789323689678115800,2.34011572265625,-0.03792838331274688,-1.3485788010075688,-0.7755243540138006
1789323689688078800,2.350078857421875,0.05859598135352134,-1.0215040246754885,-0.7515186245262623
1789323689698043000,2.36004296875,0.033705870246887204,-0.6954106605961918,-0.6219412274986506
1789323689708006000,2.370005859375,-0.04979907304421067,-0.30229893925487994,-0.46546530215144155
1789323689717969000,2.379968994140625,-0.2128968276839703,-0.004109188884496688,-0.2843663922011852
1789323689727932000,2.389931884765625,-0.4116146156288683,0.35731706212162967,-0.058525838726758955
1789323689737894700,2.399894775390625,-0.6256162627495825,0.7669979332089424,0.012093757897615432
1789323689747858000,2.40985791015625,-0.8706899244822561,1.0613719246834517,0.06906710648536682
1789323689757821000,2.419821044921875,-1.12970414102301,1.243643970066309,0.2056353853136301
1789323689767784000,2.429783935546875,-1.2031821958184241,1.4188631743282079,0.32171032668948174
1789323689777747000,2.439746826171875,-1.171572348002717,1.546563671568036,0.40042730505168433
1789323689787710000,2.4497099609375,-1.0782394728541373,1.657022526627779,0.4894312841504812
1789323689797673000,2.4596728515625,-1.0004511536441743,1.7265911528944968,0.6424222899913787
1789323689807635700,2.4696357421875,-0.9818542974628508,1.800316314318776,0.698088647633791
1789323689817599700,2.479599853515625,-0.9624280777852982,1.924326140347123,0.7342898418277501
1789323689827562800,2.489562744140625,-0.9270960676413029,2.024298088183999,0.8260457499831915
1789323689837525800,2.49952587890625,-0.9158594380296766,2.140828956633806,0.90094696944952
1789323689847488800,2.50948876953125,-0.8590743054904043,2.278801841562986,0.8873515748172998
1789323689857452000,2.5194521484375,-0.7964170660473406,2.3000270004212853,0.8379360942631959
1789323689867415000,2.5294150390625,-0.7065395189844071,2.295667636168003,0.8101222046643495
1789323689877377800,2.539377685546875,-0.6000258944191038,2.2666671671330927,0.791941235807538
1789323689887340800,2.5493408203125,-0.5381985299289226,2.2094354598701,0.7751292172163724
1789323689897303800,2.5593037109375,-0.4382032012164592,2.181883436077833,0.8813163863062858
1789323689907266800,2.569266845703125,-0.3536906152527779,2.167635130494833,1.0096896682411431
1789323689917229800,2.579229736328125,-0.2884391945980489,2.0901900717645883,1.1707914998233317
1789323689927193900,2.58919384765625,-0.12887998934797942,2.0418834292352197,1.328736328679323
1789323689937156900,2.599156982421875,0.02526310913749039,1.9862036275893449,1.5536369709551334
1789323689947119900,2.609119873046875,0.18194763573408126,1.9108920737564563,1.8509370790094135
1789323689957082600,2.61908251953125,0.36229952670931814,1.871874653097987,2.25186356575489
1789323689967046000,2.6290458984375,0.5385644406318664,1.7834727315455674,2.6544045019596814
1789323689977009000,2.6390087890625,0.6308440804004669,1.643353482237458,3.0149697522222993
1789323689986972000,2.648971923828125,0.7487948986507952,1.5103607238084078,3.3492198270112272
1789323689996935000,2.658934814453125,0.8117793972868472,1.4124433704137802,3.6884289855122563
1789323690006898000,2.66889794921875,0.799511378800869,1.3230799103528261,3.9240515128105877
1789323690016861000,2.67886083984375,0.7506991979021579,1.2067425186485052,4.182753302401304
1789323690026825000,2.688824951171875,0.697378891929239,1.1263105530619621,4.449917215389013
1789323690036787700,2.69878759765625,0.7157306873083115,1.0511030441254376,4.663711941760778
1789323690046750700,2.708750732421875,0.870465321946144,0.9988853656321763,4.801043606176972
1789323690056713700,2.718713623046875,1.070075894012302,1.0124801757425068,4.851284431639313
1789323690066676700,2.7286767578125,1.2499497922122478,1.1894681432425975,4.911126613661646
1789323690076640000,2.738639892578125,1.5072095663011074,1.3959709590405225,4.782849777838588
1789323690086603000,2.74860302734375,1.7209084310829639,1.7667027985304593,4.575363796222209
1789323690096566000,2.75856591796875,1.8346002767145633,2.2238035924404858,4.249722559824586
1789323690106528800,2.76852880859375,1.8503087179780005,2.737394919857383,3.7742210168272257
1789323690116491800,2.77849169921875,1.7557259158335625,3.1907050893127917,3.2810031998753546
1789323690126455800,2.788455810546875,1.5278724151015282,3.462674356755614,2.8672499647825953
1789323690136418800,2.798418701171875,1.185485211086273,3.4318642079502344,2.574946349841356
1789323690146381800,2.8083818359375,0.9098059832096099,3.204925337845087,2.3555314455002545
1789323690156344800,2.8183447265625,0.6216027162592858,2.9111446360886095,2.0601368788063525
1789323690166307800,2.828307861328125,0.35403899029903113,2.511972299534082,1.77354638081491
1789323690176270800,2.838270751953125,0.12966799792051314,2.058073516535759,1.6322200938045976
1789323690186233900,2.84823388671875,0.0012415975589305161,1.588077000695467,1.6090788721919058
1789323690196196900,2.85819677734375,-0.16032259083800016,1.1693816330254077,1.5814011761933564
1789323690206160000,2.868159912109375,-0.34451369464993475,0.7673796260029077,1.5846663154691456
1789323690216124000,2.8781240234375,-0.48876551371812815,0.3952665612876415,1.5961644455611705
1789323690226087000,2.8880869140625,-0.5147567909996956,0.04414192406535148,1.5911825654953717
1789323690236050000,2.8980498046875,-0.34233459704518315,-0.2736316476970911,1.5521990471065044
1789323690246013000,2.908012939453125,0.004206292583420873,-0.40681437574028967,1.3348632871270179
1789323690255976000,2.917975830078125,0.22459442587085066,-0.4389116417467594,1.1255062509417533
1789323690265938700,2.927938720703125,0.40242220519594846,-0.4177086947202682,0.9159481392264366
1789323690275901700,2.937901611328125,0.561407483015582,-0.35705139692276716,0.6963023487389087
1789323690285864700,2.94786474609375,0.7333984459459781,-0.3534785068720579,0.44036300959885116
1789323690295828000,2.957827880859375,0.9267736307539045,-0.4093307424753904,0.1967822167724371
1789323690305791700,2.967791748046875,1.120081960870698,-0.4257508391395211,-0.00033610008656978605
1789323690315755000,2.977755126953125,1.2358522932767868,-0.4368003486812114,-0.2020575268268585
1789323690325718000,2.987718017578125,1.2641314622998236,-0.4877779639855027,-0.41383799076676364
1789323690335681000,2.997680908203125,1.2177671129446477,-0.50661944257766,-0.6873626709580422
1789323690345643800,3.007643798828125,1.1222715068042277,-0.5345256866350769,-0.9481576334357261
1789323690355606800,3.017606689453125,0.9641232643306255,-0.47837885199934244,-1.2150269473910331
1789323690365569800,3.02756982421875,0.7517397199310362,-0.4326780080541968,-1.5339648867577313
1789323690375532800,3.03753271484375,0.577560160915181,-0.42705841460675,-1.7977105157345532
1789323690385495800,3.047495849609375,0.4679389987885952,-0.44805940932035443,-1.9205723407715558
1789323690395459800,3.0574599609375,0.4629074708947912,-0.5493211047068238,-2.005321585035324
1789323690405422800,3.0674228515625,0.6130664316475392,-0.7406421334639192,-2.1242384718388316
1789323690415385900,3.0773857421875,0.7405658533573151,-0.859335148383677,-2.1669442256212235
1789323690425348900,3.087348876953125,0.7427671627938747,-0.9065504885450005,-2.1800381004720926
1789323690435311900,3.097311767578125,0.6557365295946598,-0.9324345791250467,-2.192031320604682
1789323690445275000,3.10727490234375,0.5199006932267919,-0.975871862052381,-2.1740742236316204
1789323690455238000,3.11723779296875,0.4169441400885582,-1.01638156709522,-2.1729256381183863
1789323690465201000,3.127200927734375,0.34294597040917724,-1.1097875805452466,-2.088084623917937
1789323690475165000,3.1371650390625,0.25555534479115155,-1.2284393866717815,-1.9281097505390643
1789323690485128000,3.1471279296875,0.1543219621837139,-1.3860685737073422,-1.7970529286086558
1789323690495091000,3.157091064453125,0.06400744847562163,-1.561256506048143,-1.6898083594202995
1789323690505053700,3.1670537109375,-0.029325499738194045,-1.8103423260316251,-1.5156822110921144
1789323690515016700,3.1770166015625,-0.045672202372550964,-2.079699072888493,-1.2979384548336266
1789323690524979700,3.186979736328125,-0.1178022766251117,-2.3208318880409,-1.1100520767003297
1789323690534943000,3.19694287109375,-0.16703063710927962,-2.563668876762688,-1.0116326190024614
1789323690544906000,3.206906005859375,-0.20417934128642082,-2.719986396677792,-0.9506722466051578
1789323690554870000,3.2168701171875,-0.2293114444553852,-2.812337640377879,-0.8871756337285042
1789323690564833000,3.2268330078125,-0.3120201228022575,-2.9276950811341402,-0.7298948217391967
1789323690574796000,3.236796142578125,-0.43887072521448134,-3.2073695161268114,-0.4718815989345312
1789323690584758800,3.2467587890625,-0.5336007172772661,-3.6695047970727086,-0.22850714233517647
1789323690594721800,3.2567216796875,-0.5566121384978294,-4.141691224172711,-0.06743278328180313
1789323690604684800,3.266684814453125,-0.4663584515988827,-4.470952404633164,-0.12582885814905165
1789323690614647800,3.276647705078125,-0.3279401609897613,-4.684128999106585,-0.15177403126657008
1789323690624610800,3.28661083984375,-0.11673019041419029,-4.840092883278429,-0.10160217938721179
1789323690634574800,3.296574951171875,0.22320209472961722,-4.841367433258891,-0.13350363056063652
1789323690644537900,3.306537841796875,0.615659443815425,-4.4673388903111215,-0.2125496947467327
1789323690654500900,3.3165009765625,1.095474685293436,-3.732675246734917,-0.35353462097346783
1789323690664464000,3.3264638671875,1.4299451248347759,-2.7938091732576487,-0.4889537297666073
1789323690674427000,3.336427001953125,1.6024328583061693,-1.7362711276486515,-0.5523772774070501
1789323690684390000,3.346389892578125,1.7128934669315814,-0.6674231679961085,-0.396073201495409
1789323690694353000,3.356352783203125,1.6571581357061862,0.20697131009250877,0.0020481647014617918
1789323690704316000,3.36631591796875,1.40022803196311,0.8290437627553939,0.48207916782200333
1789323690714280000,3.376280029296875,0.9506943853717297,1.2385855176329612,0.8833341558694839
1789323690724243000,3.386242919921875,0.3367511708896607,1.4323355271026492,1.1219880136877298
1789323690734206000,3.3962060546875,-0.26642281229682263,1.4578481540217996,1.1583920369774103
1789323690744168700,3.406168701171875,-0.7592074985284358,1.305338501957059,1.0386381148278712
1789323690754131700,3.416131591796875,-1.1576456025242805,1.0098723313316702,0.888785407012701
1789323690764094700,3.4260947265625,-1.4861457354843615,0.634527152827382,0.7526397375106811
1789323690774058000,3.43605810546875,-1.678350561338663,0.2516387193366885,0.5967845744103193
1789323690784021000,3.44602099609375,-1.8193758195757865,-0.13237988722771404,0.46082186025977134
1789323690793984800,3.45598486328125,-1.8574281945943831,-0.4852978376075625,0.3597907587587833
1789323690803948000,3.465947998046875,-1.7544588185071943,-0.729849521292746,0.2484346625983715
1789323690813910800,3.475910888671875,-1.5901310106158255,-0.8067974441558122,0.0632511136829853
1789323690823873800,3.485873779296875,-1.3699182338953018,-0.8198375429928302,-0.07306406716704368
1789323690833836800,3.4958369140625,-1.1176817678611726,-0.7409428699761629,-0.27784195886850355
1789323690843799800,3.5057998046875,-0.7892600338995456,-0.5892497949913144,-0.4808908348202705
1789323690853762600,3.515762451171875,-0.4442390473145991,-0.4025023577600717,-0.6738046857267618
1789323690863725600,3.5257255859375,-0.17684578255042432,-0.21985066540986298,-0.8808768258452415
1789323690873689600,3.535689697265625,0.023015037949755787,-0.0504305028155446,-1.0972738436698912
1789323690883652600,3.545652587890625,0.23447744891643524,0.0751312288299203,-1.2677204267024993
1789323690893615600,3.55561572265625,0.40265141084194184,0.20200667342245576,-1.4269465275406836
1789323690903579000,3.565578857421875,0.5101016586702317,0.33278467841148374,-1.5609119303941725
1789323690913542000,3.5755419921875,0.6302735870361328,0.47989480952024455,-1.6500708077937363
1789323690923505000,3.5855048828125,0.667928633300215,0.6831064748182892,-1.716816193333268
1789323690933467600,3.595467529296875,0.6609609862446785,0.8656208045244217,-1.750903171852231
1789323690943430700,3.6054306640625,0.5484709541508928,1.0056079518854617,-1.7149387090235948
1789323690953394700,3.615394775390625,0.41429632899351415,1.158267241553962,-1.660343780004978
1789323690963357700,3.625357666015625,0.29674422773718834,1.2516089575961231,-1.6434604497432708
1789323690973320700,3.63532080078125,0.1869442019123584,1.314303314179182,-1.532156376031041
1789323690983283700,3.64528369140625,0.02573876382522285,1.3443380946978927,-1.3481740195989609
1789323690993246700,3.655246826171875,-0.06887070713043213,1.377547705860436,-1.2266706234335898
1789323691003209700,3.665209716796875,-0.15430555903818458,1.4310814353883266,-1.1152981606602668
1789323691013172700,3.6751728515625,-0.2916285652238875,1.4744535441249609,-0.9446335509628057
1789323691023135700,3.6851357421875,-0.46027248274870214,1.5446096148908137,-0.8128326326668261
1789323691033099800,3.695099853515625,-0.6206429313164205,1.5359902551054954,-0.6541150658726692
1789323691043062800,3.705062744140625,-0.7340648009002209,1.4757763171613216,-0.45997605708539485
1789323691053025800,3.71502587890625,-0.7381798350036144,1.3725363074392078,-0.23072657195031643
1789323691062988800,3.72498876953125,-0.6973134254775941,1.3110814295232296,0.08540566234588623
1789323691072951800,3.734951904296875,-0.6269909121036529,1.2107178520202635,0.4363742322236299
1789323691082914800,3.744914794921875,-0.5025613628258928,1.0713725096940994,0.7295680740028619
1789323691092877600,3.754877685546875,-0.3497755241682753,0.868322464698553,1.0748819791197777
1789323691102840600,3.764840576171875,-0.08631386323198675,0.627158669885993,1.5164730692088604
1789323691112804600,3.7748046875,0.13951134654283523,0.426204135864973,1.9079612810015678
1789323691122767600,3.784767578125,0.3225298263788223,0.10979425367116928,2.375947041541338
1789323691132730600,3.794730712890625,0.4327542150955647,-0.4414771083205938,3.0614415805399418
1789323691142693600,3.804693603515625,0.6562275279819965,-0.8513315824091434,3.5825077738821505
1789323691152657000,3.814656982421875,0.7660042459964752,-0.9421627769351005,3.9467186871707436
1789323691162620000,3.824619873046875,0.7861269235055893,-0.888639861062169,4.422161777979135
1789323691172582700,3.834582763671875,0.8147848627131432,-0.6685293756723404,4.958111067676544
1789323691182545700,3.844545654296875,0.8397253157675266,-0.31053660624623297,5.684557794788479
1789323691192509700,3.854509765625,0.9365525358378887,0.19720541062057018,6.354593483370542
1789323691202472700,3.86447265625,1.0947287622969597,0.8879127158313989,6.732414988860487
1789323691212435700,3.874435791015625,1.274272917085886,1.688124936378002,6.941432417827844
1789323691222398700,3.884398681640625,1.5170996766746043,2.5413696589320898,6.926752735090255
1789323691232361700,3.89436181640625,1.7263994297146796,3.482091004887223,6.6142620721668
1789323691242324700,3.90432470703125,1.7713456559002398,4.340035283434391,6.1062751406282185
1789323691252287700,3.914287841796875,1.609988388252258,4.872165307104587,5.598668732839823
1789323691262250800,3.924250732421875,1.273903499251604,4.933621354064345,5.119911402916908
1789323691272214500,3.934214599609375,0.846831932902336,4.589717900267243,4.598609647253156
1789323691282177800,3.944177734375,0.4377437670111656,4.156054096046089,3.9747821676164863
1789323691292140800,3.954140869140625,0.027443229655548927,3.701774204775691,3.4995582725167274
1789323691302103800,3.964103759765625,-0.2972060000300407,3.1676801875561473,3.107145347094536
1789323691312066800,3.97406689453125,-0.5583446613788604,2.623095171460509,2.876208931785822
1789323691322029800,3.98402978515625,-0.7122328352551907,2.133619463646412,2.735187765201926
1789323691331992600,3.99399267578125,-0.823674344676733,1.6795470776468515,2.6478116795659066
1789323691341955600,4.00395556640625,-0.8451239599406719,1.258441141703725,2.6169366488307713
1789323691351919600,4.013919677734375,-0.7177799479883163,0.9939081617414951,2.589748782175779
1789323691361882600,4.023882568359375,-0.5448900634568185,0.8509995739758014,2.457876552209258
1789323691371845600,4.033845703125,-0.37518589628934856,0.7499240488111972,2.2752391806453467
1789323691381808600,4.04380859375,-0.11218377915620803,0.6599065087556839,2.073264071404934
1789323691391772000,4.05377197265625,0.2441769320886582,0.5268710802286863,1.8186188637286425
1789323691401735000,4.06373486328125,0.6252150615375489,0.3574088320583105,1.5631909812420606
1789323691411697700,4.07369775390625,0.9947674089193344,0.20769816306233405,1.2621528557032347
1789323691421661700,4.08366162109375,1.304256551939249,0.0884568666100502,0.8970096300005912
1789323691431624700,4.093624755859375,1.5371744964540004,-0.030538346126675605,0.600796732661128
1789323691441587700,4.103587646484375,1.659707820188999,-0.22063100213259457,0.27624387602210043
1789323691451550700,4.11355078125,1.6498282312095165,-0.4076315373420715,-0.05937690259814262
1789323691461513700,4.123513671875,1.46764795576334,-0.5401099165081977,-0.4423211579293012
1789323691471476700,4.133476806640625,1.0652163251519202,-0.6694394762545823,-0.8795873705565929
1789323691481439700,4.143439697265625,0.6158733057618141,-0.7271314945057034,-1.4078338307917118
1789323691491402800,4.15340283203125,0.28609774603843685,-0.8012903711721301,-1.894456487262249
1789323691501366500,4.163366455078125,0.137255092048645,-1.0085247161149977,-2.2485054874986408
1789323691511329500,4.17332958984375,0.18332244948493315,-1.275315119615197,-2.4233856690645217
1789323691521292800,4.183292724609375,0.30453471721662206,-1.5108385704532266,-2.528978379392624
1789323691531255800,4.193255859375,0.4884241529345512,-1.7972788463190197,-2.594226804372668
1789323691541218800,4.20321875,0.6986369291663169,-2.038157102188468,-2.6737697121649977
1789323691551181800,4.213181884765625,0.8232102342963218,-2.1651634796842933,-2.755492886605859
1789323691561144800,4.223144775390625,0.8518097213149071,-2.2279037212356925,-2.8646055877536534
1789323691571107600,4.233107666015625,0.8329542141973972,-2.3332819120302797,-2.8797487963497637
1789323691581071600,4.243071533203125,0.7926841631293297,-2.552103818914294,-2.845947064512968
1789323691591034600,4.25303466796875,0.7095698265910149,-2.8278014592304825,-2.7431694116055962
1789323691600997600,4.26299755859375,0.6101397305458783,-3.1361943314462897,-2.609543031448126
1789323691610960600,4.272960693359375,0.5090560220748186,-3.449263671040535,-2.4165298118203875
1789323691620923600,4.282923583984375,0.47644613037109373,-3.7409953313127158,-2.210938265648484
1789323691630887000,4.292886962890625,0.48979894841909405,-3.9929195895925162,-2.0291145485550164
1789323691640850000,4.302849853515625,0.37625732491314406,-4.23199810256362,-1.849282297539711
1789323691650812700,4.312812744140625,0.14386252748966216,-4.467684342747926,-1.6655255665570496
1789323691660776700,4.322776611328125,-0.12726152130067347,-4.743644433392584,-1.349221482825279
1789323691670739700,4.33273974609375,-0.42389878153204913,-5.218433736467361,-0.9974082788169384
1789323691680702700,4.34270263671875,-0.6296563319206238,-5.7064171598970885,-0.8798889838516711
1789323691690665700,4.352665771484375,-0.7019979300320148,-6.030993981933594,-1.0013304206967353
1789323691700628700,4.362628662109375,-0.737630384427309,-6.241563316518068,-1.220970950487256
1789323691710591700,4.372591796875,-0.6610217765212059,-6.459882242316008,-1.4079033888965844
1789323691720554800,4.3825546875,-0.35630350116491316,-6.53923401145041,-1.5415204167038201
1789323691730517500,4.392517578125,0.12312369997673667,-6.268693900027871,-1.7545780609726904
1789323691740480800,4.402480712890625,0.7338602182388305,-5.5775978877604,-2.005778096631169
1789323691750444500,4.412444580078125,1.2095242583215235,-4.5744773687765,-2.2039713492453097
1789323691760407800,4.42240771484375,1.4067898746967316,-3.4651392855644225,-2.3106945249080657
1789323691770370800,4.432370849609375,1.4745172570109366,-2.3684297977790236,-2.0429431674212215
1789323691780333800,4.442333740234375,1.311979255145788,-1.5062489045754075,-1.4510054485201835
1789323691790296800,4.452296875,0.9295523016870021,-0.9816095289215445,-0.6759422822773457
1789323691800259800,4.462259765625,0.3848024504184723,-0.6071858491763472,-0.05675006122589111
1789323691810222800,4.472222900390625,-0.22572481814026832,-0.38123452880382536,0.32743279598951336
1789323691820185900,4.482185791015625,-0.7646200981616973,-0.3491130051389336,0.43388826062679287
1789323691830150000,4.49214990234375,-1.2157447402715682,-0.4815414076834917,0.48331192448735233
1789323691840113000,4.50211279296875,-1.5132394941151142,-0.6505027205944061,0.48948096851110456
1789323691850076000,4.512075927734375,-1.696560756289959,-0.8225804119601845,0.389773224568367
1789323691860039000,4.522038818359375,-1.8487959753274916,-1.0078457939401269,0.2810205889046192
1789323691870002000,4.532001953125,-1.824402707827091,-1.121243332800269,0.19679682981967925
1789323691879965200,4.541965087890625,-1.7110545610666275,-1.1525319127723574,0.1501741948544979
1789323691889928000,4.551927978515625,-1.5903671574592588,-1.087898989342153,0.1437649123340845
1789323691899891000,4.561890869140625,-1.5016343965172767,-0.9014847295880317,0.08939736233055591
1789323691909855000,4.57185498046875,-1.470100609612465,-0.559813272626698,-0.07865384999811649
1789323691919818000,4.58181787109375,-1.4689724823653698,-0.1880871614024043,-0.28206396047770976
1789323691929781000,4.591781005859375,-1.4640812031924724,0.1328933897078037,-0.5457371087402105
1789323691939744000,4.601743896484375,-1.3316647833466528,0.341186011531949,-0.8539104929864406
1789323691949707000,4.61170703125,-1.171236905503273,0.4353276457801461,-1.1543535752415657
1789323691959670000,4.621669921875,-0.9178361449301242,0.425997215116024,-1.4651479556411504
1789323691969632800,4.6316328125,-0.6463947007536888,0.39649025786370035,-1.7742986604869364
1789323691979595800,4.641595703125,-0.3000596358954906,0.4736605913057923,-1.9882909552574157
1789323691989559800,4.651559814453125,0.08121697848439216,0.6306435893923044,-2.041726192846894
1789323691999522800,4.661522705078125,0.3401496542215347,0.8713935427069663,-1.8736995304375885
1789323692009486000,4.671486083984375,0.5487590869098902,1.1919131983071565,-1.5261995134532451
1789323692019449000,4.681448974609375,0.6872586260616779,1.5908265916645525,-1.036911437165737
1789323692029412000,4.691412109375,0.6554314091682434,2.0307500408023595,-0.48194297422170634
1789323692039375000,4.701375,0.5583206959813833,2.5112445697814225,0.125526075810194
1789323692049337900,4.711337890625,0.4055634988963604,2.9527140793174502,0.6867594443678855
1789323692059300900,4.72130078125,0.2638216168224811,3.2878362607657907,1.1596025818109512
1789323692069265000,4.731264892578125,0.1490220839436166,3.443347724995017,1.5867647490531205
1789323692079228000,4.741227783203125,-0.007827341757947578,3.3887358448415994,1.9248393505662678
1789323692089191000,4.75119091796875,-0.06113282462107017,3.1858985658138987,2.2702684064954517
1789323692099154000,4.76115380859375,-0.05427521381126717,2.966289600205421,2.5285703831136224
1789323692109117000,4.771116943359375,0.0008177278573624789,2.79693139693141,2.772484353417158
1789323692119080200,4.781080078125,0.0562122828210704,2.7061224142372606,2.979848754480481
1789323692129043000,4.79104296875,0.12687164520025251,2.663521289873123,3.2566222073346376
1789323692139006000,4.801005859375,0.22742458952916786,2.6037229469925163,3.6579771486252546
1789323692148969000,4.810968994140625,0.32123923857901243,2.599074244403839,4.072828115826845
1789323692158933000,4.82093310546875,0.4321177072903141,2.6142092696934935,4.379112325325608
1789323692168896000,4.83089599609375,0.594164747300744,2.50930980232656,4.631548624780774
1789323692178859000,4.84085888671875,0.6376040760546923,2.277099129298329,4.995651986041665
1789323692188822000,4.850822021484375,0.5992255378216504,1.7370780601173639,5.487959702411294
1789323692198785000,4.860784912109375,0.6226952607363462,1.0144523525983093,5.991241232737899
1789323692208747800,4.870747802734375,0.6124953172286972,0.3340098362922668,6.095434013140201
1789323692218710800,4.880710693359375,0.5095370105247944,-0.2793307361215353,6.065605276587605
1789323692228674000,4.890674072265625,0.34734570320546626,-0.8137830652594565,6.180283210647106
1789323692238637800,4.900637939453125,0.1616588809430599,-1.031156234639883,6.2181748421460386
1789323692248600800,4.910600830078125,-0.08580839792788028,-0.9155863201767206,6.1025979134202
1789323692258564000,4.920564208984375,-0.3724071522910148,-0.44303485915660856,5.9334548142015935
1789323692268527000,4.930527099609375,-0.45953255110159513,0.27926117801666256,5.473464144068956
1789323692278490000,4.940489990234375,-0.36539113604910667,1.151369006472826,4.90345593290329
1789323692288452900,4.950452880859375,-0.13337627785392106,1.9621832850545644,4.230234015500545
1789323692298415900,4.960415771484375,-0.07876388624384999,2.5313211431264877,3.52348099989593
1789323692308379000,4.97037890625,-0.2915869911044836,2.6893103956460953,2.93742181763947
1789323692318342000,4.980341796875,-0.5817319667071104,2.38670399787724,2.3239164100527763
1789323692328306000,4.990305908203125,-0.8406354163497686,1.8861410788595676,1.7268664627045391
1789323692338269000,5.00026904296875,-1.1232389635968953,1.3712246403187514,1.2368676077991723
1789323692348232000,5.01023193359375,-1.3511702788054942,0.8945879558116197,0.785711986029148
1789323692358195000,5.02019482421875,-1.5217793589234352,0.5624181944280863,0.6037853930830955
1789323692368158000,5.030157958984375,-1.5845318754345177,0.36648996413648127,0.6624854193329811
1789323692378121000,5.040120849609375,-1.5761919171124696,0.2554576931029558,0.7720522939890623
1789323692388084000,5.050083984375,-1.4693658655971287,0.22943302500844,0.8893833729058503
1789323692398047000,5.060046875,-1.2799112152338028,0.29930443361401554,1.0276999567061662
1789323692408010000,5.070010009765625,-1.067024251356721,0.2891770073533058,1.1715227367073298
1789323692417974000,5.07997412109375,-0.6888005948066711,0.22133213613927363,1.2352426369458436
1789323692427937000,5.08993701171875,-0.29365972399162127,0.1783273994103074,1.129945694693923
1789323692437900000,5.099900146484375,0.15205693986117838,0.027063948014378544,0.9736819507926702
1789323692447862800,5.10986279296875,0.632552053362131,-0.10229308426082134,0.7799825024664402
1789323692457825800,5.11982568359375,1.0726163722753523,-0.09523352113813162,0.5025871183216571
1789323692467789000,5.1297890625,1.4564718972325323,-0.11560177090615033,0.28415128814578056
1789323692477752000,5.139751953125,1.724977872478962,-0.13400427355915306,0.1279752225279808
1789323692487715000,5.149715087890625,2.0009376708626747,-0.15238018046617507,-0.17031097395420072
1789323692497678000,5.159677978515625,2.1680220839858055,-0.24646453156918285,-0.548716416811943
1789323692507642000,5.16964208984375,2.2058125931978223,-0.3462354038760066,-0.8388666531115769
1789323692517605000,5.179605224609375,2.208366953855753,-0.416097752392292,-1.1468699414879082
1789323692527568000,5.18956787109375,2.171974621003866,-0.46584056520462036,-1.4932862548887729
1789323692537531000,5.19953076171875,2.0135843864679335,-0.6321767903089522,-1.8431699521392584
1789323692547494000,5.209493896484375,1.836115357452631,-0.8166422540828585,-2.0755606579095125
1789323692557457000,5.219456787109375,1.674193441659212,-0.9950064783722161,-2.29863876093328
1789323692567420000,5.229419921875,1.5917513052940369,-1.2555436666965485,-2.4324346524387597
1789323692577383200,5.239383056640625,1.6328490393579005,-1.5677271633669734,-2.5205904902756213
1789323692587346200,5.24934619140625,1.668988274231553,-1.7697233153954148,-2.6982822221308944
1789323692597310000,5.25931005859375,1.6678163078427313,-1.8765514127373695,-2.7908833489388227
1789323692607273000,5.26927294921875,1.5664274789452552,-1.9784452685475349,-2.7940187243551016
1789323692617236000,5.279236083984375,1.3909633600115776,-2.029529559096694,-2.7768495628893373
1789323692627199000,5.289198974609375,1.1996914310932159,-2.1038350046269594,-2.7597920451045033
1789323692637162000,5.299161865234375,0.9734247611612081,-2.314474043446779,-2.6642577874541282
1789323692647125000,5.309125,0.7693272529393435,-2.606704008629918,-2.5287194361954928
1789323692657088000,5.319087890625,0.5929483572483062,-2.900007740524411,-2.367882393029332
1789323692667051000,5.329051025390625,0.5113987858086824,-3.1579166261717675,-2.15648829805851
1789323692677013800,5.339013671875,0.45602878076434133,-3.374254315024614,-1.9248902039706706
1789323692686977800,5.348977783203125,0.42557577483355996,-3.5729587320312857,-1.7587918792754411
1789323692696940800,5.35894091796875,0.42566286859512326,-3.766702311760187,-1.577953666087985
1789323692706903800,5.36890380859375,0.44770518905520434,-4.024634870544076,-1.3396551975786686
1789323692716867000,5.3788671875,0.36796120573282237,-4.4574762524664395,-1.0324310768812894
1789323692726830000,5.388830078125,0.27560674716234207,-5.091079276186227,-0.716156803765893
1789323692736793000,5.39879296875,0.3072714669704437,-5.590539202398062,-0.7537965063303709
1789323692746756000,5.408756103515625,0.38340427405834193,-5.826415996718406,-1.0857529172241687
1789323692756718800,5.41871875,0.41990532798171043,-5.946558625924587,-1.3569681514292955
1789323692766681900,5.428681884765625,0.5750573112487792,-5.974170855471492,-1.6182342385500668
1789323692776644900,5.438644775390625,0.9623626843988895,-5.640193752405047,-2.036869400465488
1789323692786609000,5.44860888671875,1.4458815296351908,-4.91841267901659,-2.38433551518023
1789323692796572000,5.458572021484375,1.9053098897099494,-4.080290122270584,-2.57378315128088
1789323692806535000,5.468534912109375,2.154621335142851,-3.18011472171545,-2.655240952783823
1789323692816498200,5.478498291015625,2.3196797953963277,-2.2642244501560924,-2.3789298567444086
1789323692826461400,5.48846142578125,2.340140984144807,-1.6429197669953106,-1.767770135501027
1789323692836424400,5.498424560546875,2.2075579755604267,-1.3599974361225962,-0.8798065662652254
1789323692846387200,5.50838720703125,1.8087345985740422,-1.1375076543807983,0.007042904248833656
1789323692856350200,5.51835009765625,1.2520973256349563,-0.9995306777983903,0.4774649520248174
1789323692866313200,5.528313232421875,0.545161939200759,-1.0596835332050918,0.7001286290287971
1789323692876277200,5.53827734375,-0.12748654396189377,-1.1927288986042142,0.7816676790744066
1789323692886240300,5.548240234375,-0.6638081923693419,-1.409642341518402,0.7780453969240189
1789323692896203300,5.558203369140625,-1.1655454158633947,-1.539163039922714,0.713431762716174
1789323692906166300,5.568166259765625,-1.5974720210283995,-1.518238033054769,0.633107933679223
1789323692916129300,5.57812939453125,-1.8659037619948386,-1.4464566991746424,0.6522182923406362
1789323692926092000,5.588092041015625,-1.9826573332846165,-1.3378984170392154,0.8298018876463175
1789323692936055300,5.59805517578125,-1.9052058448135851,-1.1204124349340796,1.014120928686857
1789323692946018300,5.608018310546875,-1.816470745784044,-0.7570444022104144,1.1675322057664395
1789323692955981300,5.617981201171875,-1.8118436705052852,-0.2841191394418478,1.1253344015061855
1789323692965944300,5.6279443359375,-1.9143150339424608,0.2121162717655301,0.9310194516301155
1789323692975908400,5.637908447265625,-2.0401871467113493,0.5850622801735997,0.6984738475590944
1789323692985871400,5.647871337890625,-2.1109306619763375,0.9009817485019564,0.36102643803358075
1789323692995834400,5.65783447265625,-2.175714392054081,1.0924939159169793,0.019553426253795622
1789323693005797000,5.667797119140625,-2.1930033805072306,1.207024550460279,-0.3629278877407312
1789323693015760100,5.677760009765625,-2.0252146185070274,1.242450376367569,-0.6818477069288492
1789323693025723100,5.68772314453125,-1.7954641981124877,1.2339721786186097,-0.9563450315445661
1789323693035686100,5.69768603515625,-1.5265730229407548,1.1628688901305198,-1.2124696641236543
1789323693045649400,5.7076494140625,-1.2573901713460682,1.0661574053943157,-1.4758125575184822
1789323693055612400,5.7176123046875,-1.030673419559002,0.994990111759305,-1.701045792749524
1789323693065576200,5.727576171875,-0.8912672869563102,0.9846998961523175,-1.8872791429787874
1789323693075539500,5.73753955078125,-0.8592179517447948,1.0454188610091806,-1.9697844077080486
1789323693085502200,5.747502197265625,-0.8968686871599405,1.0880065413698554,-1.929072458091378
1789323693095465200,5.75746533203125,-0.9526765721648931,1.1394015053033828,-1.842376171413064
1789323693105428200,5.76742822265625,-1.0366987442631275,1.19768827457726,-1.7654226955920458
1789323693115391200,5.77739111328125,-1.1600357125312089,1.2841302942335604,-1.7253122189998626
1789323693125354200,5.787354248046875,-1.2607657852590084,1.3490040406823158,-1.626574196872115
1789323693135317200,5.797317138671875,-1.3525836527347563,1.2610428486347198,-1.357409465456009
1789323693145280300,5.8072802734375,-1.3369400934010742,1.157391335502267,-1.024718310546875
1789323693155243300,5.8172431640625,-1.2250357157081364,1.1013637433320282,-0.6404775856643915
1789323693165207000,5.82720703125,-1.0816565878212452,0.9726648827046155,-0.10836685121655464
1789323693175170300,5.83717041015625,-0.8508943600356579,0.7836112143576145,0.4856096800357103
1789323693185133300,5.84713330078125,-0.6352355933576822,0.6228600959092379,1.062685929891467
1789323693195096300,5.857096435546875,-0.33980011013150213,0.43598435612320896,1.6719541382998226
1789323693205059300,5.867059326171875,0.03262098848647438,0.38495501063168047,2.310373037868738
1789323693215022300,5.877022216796875,0.3809036894142627,0.48141456643342967,2.9424095429241657
1789323693224985300,5.8869853515625,0.6053431439191103,0.6119044021308422,3.604157880154252
1789323693234948000,5.896947998046875,0.7578571798980236,0.5758703811973332,4.389287682381272
1789323693244911000,5.9069111328125,0.8783575365006924,0.27927579106390477,5.150162748795747
1789323693254874000,5.9168740234375,1.085569377350807,-0.06394611020982265,5.649919612127542
1789323693264838100,5.926838134765625,1.3403542857587336,-0.2834410940498113,5.968425005295872
1789323693274801200,5.93680126953125,1.435788005644083,-0.4570376655459404,6.424172631031275
1789323693284764400,5.946764404296875,1.4978911183357237,-0.5541460406452418,6.9774991719871755
1789323693294727400,5.9567275390625,1.636816773945093,-0.3119984954923391,7.347996033677458
1789323693304690400,5.9666904296875,1.7700258054733276,0.27730127612054345,7.575368619024753
1789323693314653200,5.976653076171875,1.834255408799648,1.142387243115902,7.712959226638079
1789323693324616200,5.9866162109375,1.8422423159003256,2.2795897770702838,7.6067545218914745
1789323693334579200,5.9965791015625,1.7600877643048762,3.470410503965616,7.243363692814111
1789323693344542200,6.006542236328125,1.5023428370475769,4.4269764847844835,6.803436736544966
1789323693354506200,6.01650634765625,1.103068793684244,4.878666359561682,6.335084480780362
1789323693364469200,6.02646923828125,0.7946364662408828,4.858869772201777,5.611823397967219
1789323693374432300,6.036432373046875,0.47202710835244505,4.653894896623492,4.839631403246521
1789323693384395300,6.046395263671875,0.10822771674050018,4.108312101662158,4.1062312037348745
1789323693394358300,6.056358154296875,-0.17410800988329572,3.437501921576261,3.577706511080265
1789323693404321300,6.0663212890625,-0.3317652722358703,2.8201883538782595,3.134181822580099
1789323693414284300,6.0762841796875,-0.4083037375152111,2.268753910279274,2.83952784512043
1789323693424247300,6.086247314453125,-0.35018823315501213,1.7533020496875047,2.7910125282764433
1789323693434210300,6.096210205078125,-0.1875835957944393,1.4056442117929457,2.830853540277481
1789323693444173300,6.10617333984375,0.043920974791049956,1.2579197481781244,2.8501281495898962
1789323693454137300,6.116137451171875,0.2712123115956783,1.2658955493628978,2.7881179758787153
1789323693464100400,6.126100341796875,0.5068190933356062,1.3221113575816155,2.65243057153821
1789323693474063000,6.13606298828125,0.7799789953351021,1.3601912051290272,2.460281859785318
1789323693484026000,6.146026123046875,1.068530564266443,1.3499877910226583,2.1890257090479133
1789323693493989000,6.155989013671875,1.3947194976747035,1.24129185398221,1.8484370788872242
1789323693503952400,6.165952392578125,1.7014976281702519,1.0667167928427457,1.4773907666206358
1789323693513915400,6.175915283203125,2.016960584902763,0.8745733417868614,1.2296528541147709
1789323693523878400,6.18587841796875,2.2762708617806435,0.6721767922639846,1.0330980163574217
1789323693533841400,6.19584130859375,2.3628572583436966,0.5065548529088497,0.8761427830606698
1789323693543804200,6.20580419921875,2.253005721527338,0.32637773397862907,0.6810562642902136
1789323693553767200,6.21576708984375,2.083392666709423,0.14638795431405305,0.4951449856221676
1789323693563731200,6.225731201171875,1.6977368143320082,-0.002518412561714649,0.18323416841328144
1789323693573694200,6.235694091796875,1.0849556293666363,-0.16827888360470533,-0.20133271968364713
1789323693583657200,6.2456572265625,0.36038112586736676,-0.31425124285519124,-0.7225561494141817
1789323693593620200,6.2556201171875,-0.21977208374831825,-0.5377984246954322,-1.2303373292475939
1789323693603583200,6.265583251953125,-0.5980395429074764,-0.7986226132676005,-1.7640291954070328
1789323693613546500,6.27554638671875,-0.7273673490881919,-1.1219126103639603,-2.13470492079556
1789323693623509200,6.28550927734375,-0.6174509303420782,-1.5094287036553025,-2.3735972635447977
1789323693633472300,6.29547216796875,-0.38658641122579573,-1.895305213046074,-2.55666192061007
1789323693643435300,6.305435302734375,-0.06801556073897518,-2.241235934887081,-2.7168951526641845
1789323693653398300,6.315398193359375,0.30623220531689,-2.653367560127377,-2.7648072429180144
1789323693663362300,6.3253623046875,0.6518143877148628,-3.1025451598227023,-2.7694693895101548
1789323693673325300,6.3353251953125,0.9799404266655445,-3.4612802720487115,-2.766135861173272
1789323693683288300,6.345288330078125,1.2339116806030272,-3.783686472047865,-2.68016321259439
1789323693693251300,6.355251220703125,1.4607085118889809,-4.128071864143013,-2.592884157592058
1789323693703214000,6.365214111328125,1.731169128334522,-4.428292828080058,-2.4884897171378135
1789323693713177000,6.375177001953125,1.9785639264911412,-4.691660855916142,-2.3626631970763206
1789323693723140400,6.385140380859375,2.086365545040369,-4.916645084822178,-2.1758406487822533
1789323693733103400,6.395103271484375,2.099789674758911,-5.0941836719423526,-1.8559487696915864
1789323693743066400,6.40506640625,1.9198048635303973,-5.32170121871829,-1.649088811019063
1789323693753029400,6.415029296875,1.459493875402212,-5.6694917430818075,-1.324874392554164
1789323693762993400,6.424993408203125,0.8899065199971199,-6.15144290060997,-1.0160340688318013
1789323693772956400,6.434956298828125,0.4594365433812141,-6.59139732940793,-1.006478304979205
1789323693782919200,6.444919189453125,0.09497779281139374,-6.891410788074135,-1.2361135745614766
1789323693792882200,6.454882080078125,-0.19893502915846184,-7.099288983878493,-1.4626900410950183
1789323693802845200,6.46484521484375,-0.2741395972192287,-7.269937811484932,-1.7114742477834224
1789323693812808400,6.474808349609375,-0.13163783668875695,-7.238510407564044,-1.9813012425005434
1789323693822771500,6.484771484375,0.21612930679917333,-6.76355539253354,-2.2851585171133277
1789323693832734500,6.494734375,0.7543360200345516,-5.848621983307599,-2.397121931517124
1789323693842697700,6.50469775390625,1.0677654251128434,-4.7283650311961765,-2.3445365887552496
1789323693852660500,6.514660400390625,1.2724328421771525,-3.531905129370093,-2.1835019771903754
1789323693862623500,6.52462353515625,1.3445879778057337,-2.5181001347646115,-1.5724439627557991
1789323693872587500,6.53458740234375,1.0834721128106117,-1.8398286788873373,-0.8234288454830646
1789323693882550500,6.544550537109375,0.6876046630203724,-1.39376102790609,-0.17174246806204319
1789323693892513500,6.554513427734375,0.20201836386024952,-1.1691101226076483,0.24038053548038005
1789323693902476500,6.5644765625,-0.37561084370315073,-1.1143699398994444,0.2513660398751497
1789323693912439600,6.574439453125,-0.8995107991665601,-1.274101359911263,0.11734978361725806
1789323693922402600,6.584402587890625,-1.2148311325579881,-1.560547480995953,0.0030745851397514343
1789323693932365300,6.594365234375,-1.4896891071796416,-1.835244858228415,-0.10919511873424052
1789323693942328600,6.60432861328125,-1.6423744080722331,-2.032790460588783,-0.19144787000715732
1789323693952291600,6.61429150390625,-1.6636287930250167,-2.2492034066349267,-0.14244681547284124
1789323693962254600,6.624254638671875,-1.5973732368290423,-2.2926839441820976,-0.013861352092027664
1789323693972217600,6.634217529296875,-1.5240578252494335,-2.125385596047342,0.15791209563016892
1789323693982180600,6.6441806640625,-1.566013637447357,-1.7572428962677715,0.22383564339280126
1789323693992144600,6.65414453125,-1.81198395575881,-1.2322753115728498,0.21372458374500272
1789323694002107600,6.664107666015625,-2.129858649808168,-0.6693778091952204,0.05513502724468708
1789323694012070400,6.6740703125,-2.3952257425069807,-0.2424345454007387,-0.19436989493370055
1789323694022033400,6.684033447265625,-2.5773966656029224,0.06730740333646536,-0.5007113875776529
1789323694031996400,6.693996337890625,-2.6285832474827764,0.24369769720435142,-0.9119120155781507
1789323694041959400,6.70395947265625,-2.458745151737332,0.2963645807698369,-1.2847738528341055
1789323694051922400,6.71392236328125,-2.1128210057675836,0.26699264807403084,-1.4859253707319497
1789323694061885700,6.7238857421875,-1.7488129215747117,0.2135346141308546,-1.6207792468577622
1789323694071848700,6.7338486328125,-1.2542296614885329,0.12535890254974363,-1.7015718624502418
1789323694081811500,6.7438115234375,-0.7392693838059902,0.09088935445398091,-1.7974445582747458
1789323694091774500,6.7537744140625,-0.3373036171406507,0.14008388573378325,-1.8823118759602306
1789323694101737500,6.763737548828125,-0.10880465811192988,0.2541673610314727,-1.887904581400752
1789323694111701500,6.773701416015625,-0.025878501089476046,0.4547796574860811,-1.7838228601574897
1789323694121664500,6.78366455078125,0.01727262184023857,0.7571262352749705,-1.677626923239231
1789323694131627500,6.79362744140625,-0.012276128727197647,1.0149722848191858,-1.4478256494402884
1789323694141590500,6.803590576171875,-0.07186634528245776,1.1793790031656621,-1.1459627635151146
1789323694151553500,6.813553466796875,-0.1081681503066793,1.2994964979305863,-0.826982738572359
1789323694161516500,6.8235166015625,-0.13505670522153376,1.3268985918581484,-0.5131903454005718
1789323694171479600,6.8334794921875,-0.16990122410953043,1.288032854630053,-0.1970388218820095
1789323694181442600,6.843442626953125,-0.22770696840081361,1.2296037542760372,0.20040449892282486
1789323694191405600,6.853405517578125,-0.3092547497421503,1.1769389165371655,0.663658554765582
1789323694201368600,6.86336865234375,-0.4068757505387068,1.1405588586449622,1.1238906324386595
1789323694211331600,6.87333154296875,-0.48284606054127216,1.0919190386384725,1.6134978576779364
1789323694221294300,6.88329443359375,-0.5465864190459251,1.070858130431175,2.1424270394802094
1789323694231257300,6.89325732421875,-0.6367500895738601,1.0841770462095737,2.6697973014026877
1789323694241221400,6.903221435546875,-0.7072761626958847,1.1259066484361886,3.148637048912048
1789323694251184400,6.913184326171875,-0.8595499601781368,1.1427543228626251,3.6415152586460113
1789323694261147400,6.9231474609375,-1.0120984829485415,0.9936223305374383,4.255451458865404
1789323694271110700,6.933110595703125,-1.0716729539453982,0.5644517460823059,5.018673965188861
1789323694281073700,6.94307373046875,-0.9129337598413229,0.03988660470843315,5.673616129535437
1789323694291036700,6.95303662109375,-0.5481260497033595,-0.29664252092838284,6.079612174630165
1789323694300999400,6.96299951171875,-0.2111994491815567,-0.46324353444874283,6.465297253102063
1789323694310962400,6.97296240234375,0.10059155017309822,-0.45033261494934557,6.912469942715764
1789323694320925400,6.982925537109375,0.33218729704022404,-0.19819909783303735,7.3058186876833435
1789323694330888400,6.992888427734375,0.586074379825592,0.39155718537569045,7.494587693870067
1789323694340851500,7.0028515625,0.9360732278883457,1.289662793919444,7.458862300494313
1789323694350814500,7.012814453125,1.2217875275671481,2.348665651383996,7.241339493510127
1789323694360777700,7.02277783203125,1.4905132830440997,3.4469816975831984,6.736780782854557
1789323694370741500,7.032741455078125,1.661242774671316,4.427381558454036,6.192317347311973
1789323694380704500,7.04270458984375,1.6386042418837545,5.046708219540119,5.726010333639383
1789323694390667500,7.05266748046875,1.407223589938879,5.230570748984813,5.254534392896295
1789323694400630500,7.062630615234375,0.9663374332487582,4.940842537489533,4.691015543749928
1789323694410593500,7.072593505859375,0.4270470164299011,4.418191705304384,4.051384930303692
1789323694420556500,7.082556640625,-0.07502104645371437,3.903938699108362,3.431709894171357
1789323694430519600,7.09251953125,-0.5535913293719291,3.383354151803255,2.929698529911041
1789323694440482600,7.102482666015625,-1.0110206245839595,2.7913872068077326,2.5894617819279433
1789323694450445300,7.1124453125,-1.301813250440359,2.2606845855921507,2.4338988797724244
1789323694460408600,7.12240869140625,-1.477504163867235,1.8446107985973357,2.3231401649832724
1789323694470371600,7.13237158203125,-1.5919401058644056,1.4444868604063987,2.2721675181150434
1789323694480334600,7.14233447265625,-1.540593949508667,1.1586720229625702,2.2369600111335513
1789323694490297600,7.152297607421875,-1.2292460268795489,0.9786164845854043,2.111841347080469
1789323694500260600,7.162260498046875,-0.8138777578055858,0.7584615755319595,1.8978332702189682
1789323694510224600,7.172224609375,-0.31169395958781243,0.4819394670903682,1.6290075614988804
1789323694520187600,7.182187744140625,0.23772622157931325,0.2367576688081026,1.25177350050807
1789323694530150400,7.192150390625,0.8064367941498756,-0.043944355666637416,0.8568179048657417
1789323694540113400,7.202113525390625,1.3439292216360568,-0.3131768916219473,0.45725276960134503
1789323694550076400,7.212076416015625,1.8074235159754752,-0.5527633541151881,0.05038169523775577
1789323694560039400,7.222039306640625,2.1267676980555055,-0.7094163895949721,-0.39312545760571954
1789323694570002400,7.23200244140625,2.3184663279533386,-0.8662260769411921,-0.7664829694241285
1789323694579965700,7.241965576171875,2.3391455433666706,-1.0725190493807195,-1.0728665476441384
1789323694589928700,7.2519287109375,2.223633496570587,-1.2818965438321233,-1.3129507305264472
1789323694599891500,7.261891357421875,2.0306758065223693,-1.4699144393905996,-1.6389081932663916
1789323694609854500,7.2718544921875,1.7961095102787017,-1.633571800674498,-1.96616387912333
1789323694619817500,7.2818173828125,1.545409240835905,-1.7905223577961324,-2.2801111705958843
1789323694629780500,7.291780517578125,1.3788193332314491,-2.0266417287006973,-2.536545599776506
1789323694639743500,7.301743408203125,1.2436889782518148,-2.2926713769614695,-2.73033097282052
1789323694649706500,7.31170654296875,1.0666782143980265,-2.541130589479208,-2.8481688322156664
1789323694659670500,7.32167041015625,0.9043126464903354,-2.6712390246436,-2.9989620357513425
1789323694669633500,7.331633544921875,0.7075655010312796,-2.730987975424528,-3.146932583081722
1789323694679596500,7.341596435546875,0.4499947612971067,-2.764422919775545,-3.2506343650966882
1789323694689559600,7.3515595703125,0.20575459124650805,-2.7871500076293945,-3.259143250244856
1789323694699522600,7.3615224609375,0.03004793226122856,-2.8251421768933533,-3.2107424996912477
1789323694709485600,7.371485595703125,-0.015606734454631805,-2.893450281704962,-3.0949539740413425
1789323694719448600,7.381448486328125,-0.0855576563035138,-3.0438229217410084,-2.9293314501643177
1789323694729411600,7.39141162109375,-0.0877443526928313,-3.209887928688526,-2.78161867698729
1789323694739374300,7.401374267578125,-0.01755554870115593,-3.3960534743785855,-2.6284680966705083
1789323694749337300,7.41133740234375,0.03739360058261081,-3.623917642635107,-2.480269585803151
1789323694759300400,7.42130029296875,0.07111348108854144,-3.875573605367541,-2.3468834441423416
1789323694769263600,7.431263671875,0.05992755875084549,-4.04199049449265,-2.204254257839918
1789323694779226600,7.4412265625,-0.07120937921106815,-4.158839342850446,-2.062740923824906
1789323694789189600,7.451189697265625,-0.28436467516813424,-4.225621553269028,-1.9061235441803932
1789323694799152600,7.461152587890625,-0.5873539347747341,-4.382961401969194,-1.6108394521236418
1789323694809116700,7.47111669921875,-1.0223714551597833,-4.706702357703447,-1.221468963137269
1789323694819079400,7.481079345703125,-1.4248083464682102,-5.047928701245785,-1.0251035104721784
1789323694829042400,7.49104248046875,-1.6234978581666946,-5.295858336931467,-1.1350474017471075
1789323694839005400,7.50100537109375,-1.5936615228295326,-5.517204501596093,-1.206129355186224
1789323694848968400,7.510968505859375,-1.3526198930919169,-5.863569961592555,-1.0640420206755399
1789323694858931500,7.520931396484375,-0.8125088075399398,-6.0412821517139665,-0.9294903423666954
1789323694868894500,7.53089453125,0.007571293770801276,-5.7831052627801895,-0.8268266712278127
1789323694878857700,7.540857666015625,0.9707692782163619,-5.066013808512688,-0.6811866126716136
1789323694888820500,7.550820556640625,1.5826409471213816,-4.082742776119709,-0.4553898983389139
1789323694898783500,7.560783447265625,1.9392600901067256,-2.898174095356464,-0.0022165070056915284
1789323694908746500,7.57074658203125,2.033926917272806,-1.7044135156169533,0.5870283195495605
1789323694918709500,7.58070947265625,1.8873335035145282,-0.7735092147991061,1.1880986084550618
1789323694928672500,7.590672607421875,1.64680040782094,-0.12904986602216958,1.8037866207778452
1789323694938635500,7.600635498046875,1.231858839726448,0.23238223020285367,2.294731816622615
1789323694948599600,7.610599609375,0.438979446285963,0.27305034067779776,2.481623338499665
1789323694958562600,7.6205625,-0.5354384175658226,0.27843934023976324,2.4062521634340284
1789323694968525300,7.630525390625,-1.4419149640917777,0.37901480692774053,2.103561009991169
1789323694978488300,7.64048828125,-2.1690473353803155,0.41262189297527074,1.7450778266996145
1789323694988451600,7.65045166015625,-2.5811528032660482,0.3009162527248263,1.3830097706586122
1789323694998414600,7.66041455078125,-2.8024352550446987,0.13232143503874538,1.0336503895431757
1789323695008377600,7.670377685546875,-2.7309797921180725,0.06334668301194905,0.6128267776727676
1789323695018340600,7.680340576171875,-2.434272973781824,0.11500117466449737,0.25955051537454127
1789323695028303600,7.6903037109375,-2.0113819079875945,0.1596422804236412,0.023684242448210716
1789323695038266400,7.700266357421875,-1.5184733031153679,0.22671178335100411,-0.15431670148670673
1789323695048229400,7.7102294921875,-1.1064601896882056,0.26011808612942694,-0.3032540480226278
1789323695058192400,7.7201923828125,-0.7412976747632026,0.33209055866748094,-0.46002281883656976
1789323695068155600,7.73015576171875,-0.5353542829463258,0.4954360775232315,-0.6752274120062589
1789323695078118700,7.74011865234375,-0.5182592826953157,0.6565162817955017,-0.9229477888554334
1789323695088081700,7.75008154296875,-0.48687867705821986,0.7689557892784475,-1.2290589798748492
1789323695098044400,7.76004443359375,-0.4303273532748222,0.7848807959020138,-1.4593237795323133
1789323695108007400,7.77000732421875,-0.309568637996912,0.7955681941330432,-1.695071979036927
1789323695117971500,7.779971435546875,-0.1324035786305554,0.7633817885383963,-1.9489438642531631
1789323695127934500,7.7899345703125,0.04767828149795532,0.7400687174901366,-2.084490983340144
1789323695137897500,7.7998974609375,0.23274960221052168,0.7458841257706285,-2.1172072580277916
1789323695147860500,7.809860595703125,0.3953869727969169,0.8196879053890704,-2.092076323902607
1789323695157823500,7.819823486328125,0.4815232875049114,0.9280138400733471,-2.0216601408958432
1789323695167786500,7.829786376953125,0.5387421352863312,1.074860936331749,-1.9017963286310433
1789323695177749500,7.83974951171875,0.5454091919600963,1.1953060556158424,-1.7350065145403146
1789323695187712500,7.84971240234375,0.47098085070252416,1.3463406666919588,-1.5035206486552952
1789323695197675500,7.859675537109375,0.3620329847276211,1.4897083964020013,-1.2417442739248274
1789323695207638500,7.869638427734375,0.18681436498761175,1.5573019232034682,-0.9446803127139807
1789323695217601500,7.8796015625,-0.02150806745290756,1.6163514935433865,-0.6015092648446559
1789323695227564500,7.889564453125,-0.20380057110190392,1.6518407400757074,-0.24772096137106417
1789323695237527600,7.899527587890625,-0.34561259580254555,1.604453550478816,0.09760054253041743
1789323695247490300,7.909490234375,-0.3747141871243715,1.4578665664613246,0.47387072692513466
1789323695257453600,7.91945361328125,-0.3390080829709768,1.2664110976696015,0.9032003013342619
1789323695267416600,7.92941650390625,-0.2443693128556013,1.0472896233171225,1.4185323349386454
1789323695277380400,7.93938037109375,-0.16106442218124867,0.8270148872762918,1.93365686327219
1789323695287343600,7.949343505859375,-0.06011106209158897,0.7156476851999759,2.4897253964126107
1789323695297306600,7.959306640625,0.05117606048583984,0.6404442679166793,2.9860581305146217
1789323695307269600,7.96926953125,0.17771335916519165,0.677452102318406,3.3870272873580456
1789323695317232600,7.979232666015625,0.3275362563639879,0.836654822281003,3.793476921439171
1789323695327195400,7.9891953125,0.36698446965515613,0.9869242942035198,4.291754944390059
1789323695337158400,7.999158447265625,0.2959282351791859,1.001241573369503,4.757426582768559
1789323695347121400,8.009121337890624,0.2017330989117734,0.8989759616374969,5.171974183109402
1789323695357084400,8.01908447265625,0.1286567567850463,0.775378223541379,5.45434034140408
1789323695367047400,8.02904736328125,-0.051321040180791165,0.7676502596378326,5.6280608315408225
1789323695377010700,8.0390107421875,-0.3181681605705991,0.7292465869635343,5.967741114684939
1789323695386973700,8.0489736328125,-0.5098469167241826,0.6446329517781734,6.4744415135443205
1789323695396936400,8.0589365234375,-0.6106658002465963,0.6920750864326953,6.904965266174077
1789323695406899500,8.0688994140625,-0.6033925578406081,0.9820213245928286,7.112422021695971
1789323695416862500,8.078862548828125,-0.5624333919972181,1.5580214696496724,7.015948437368869
1789323695426825500,8.088825439453124,-0.5467284943977371,2.3610353036135434,6.58369449994564
1789323695436788500,8.09878857421875,-0.4486217193782329,3.264066093599796,6.057312664538622
1789323695446752500,8.10875244140625,-0.3993061555346474,3.9790561916738745,5.5559951277613635
1789323695456715500,8.118715576171875,-0.42132045547664165,4.2340702326625586,5.161393167862296
1789323695466678500,8.128678466796876,-0.38645489380061626,4.07272523997426,4.670414654269814
1789323695476641500,8.1386416015625,-0.4241185617625713,3.552504849806428,4.041850793761014
1789323695486604500,8.1486044921875,-0.48368079433236266,2.9354367813020943,3.350847135952115
1789323695496567600,8.158567626953126,-0.6414584133952855,2.2376316267848013,2.7881489555388685
1789323695506530600,8.168530517578125,-0.7695178070753812,1.5717963125020264,2.338790154057741
1789323695516493600,8.17849365234375,-0.8805208520144223,0.9213625654906034,2.0699901643007994
1789323695526456600,8.18845654296875,-0.9768442142158746,0.3192103265672922,1.923708885231614
1789323695536419600,8.198419677734375,-1.0518880570232867,-0.04778875613510608,1.7620470816791056
1789323695546382300,8.20838232421875,-1.0237842445671559,-0.2064279969960451,1.5612106210798025
1789323695556345300,8.218345458984375,-0.8408511049270629,-0.3576268587231636,1.3382751413971186
1789323695566308600,8.22830859375,-0.489957317318581,-0.5436573798567056,1.1495938134938477
1789323695576271600,8.238271728515626,-0.03947100964486599,-0.7782529021948575,0.9190987122118472
1789323695586234600,8.248234619140625,0.5184440281450748,-0.9594313071221112,0.5087117386817932
1789323695596197600,8.25819775390625,1.0239338821709156,-1.1159610084831715,0.14805004230737684
1789323695606160400,8.268160400390625,1.5402759696006774,-1.2218629308909177,-0.12829670956730843
1789323695616123400,8.278123291015625,1.9182254853844642,-1.2649711279943585,-0.4344043934553861
1789323695626087400,8.28808740234375,2.195984442144632,-1.2752303639411926,-0.7474836699217557
1789323695636050400,8.298050537109376,2.359441312420368,-1.2508341738313435,-1.0218541532874106
1789323695646013400,8.308013427734375,2.406917349344492,-1.2701152128845452,-1.3894400959670543
1789323695655976400,8.3179765625,2.379108135920763,-1.3781962328970432,-1.7457424280881881
1789323695665939500,8.327939453125,2.193705975818634,-1.5399787402197718,-2.0113392378896475
1789323695675902700,8.33790283203125,1.8567746991217136,-1.679275567229092,-2.401452654197812
1789323695685865500,8.347865478515626,1.5245517462462186,-1.8011966042846441,-2.850482369855046
1789323695695828500,8.357828369140625,1.1277864708334207,-1.9189719198375939,-3.188182877358794
1789323695705791500,8.36779150390625,0.767545045697689,-2.0114988123655317,-3.4394729293882844
1789323695715754500,8.37775439453125,0.45630701318383216,-2.1107515060171482,-3.65045084477365
1789323695725717500,8.387717529296875,0.24813304930329322,-2.198769688948989,-3.7552129494965074
1789323695735680500,8.397680419921874,0.1311374859511852,-2.3023399535387754,-3.731042969357967
1789323695745643500,8.4076435546875,0.0665232672214508,-2.4278897024855017,-3.6916163833767173
1789323695755606500,8.4176064453125,0.01728080514669418,-2.574087102663517,-3.6339632358312604
1789323695765569500,8.427569580078124,0.006561842733621597,-2.6863421934902667,-3.4740035600215196
1789323695775532500,8.437532470703125,0.024061295599676666,-2.6959751142323016,-3.196784701487422
1789323695785495600,8.44749560546875,0.13316698248479514,-2.7012004476651548,-2.881316484057903
1789323695795458600,8.45745849609375,0.26452828552080315,-2.8007524165242907,-2.5633786616444585
1789323695805422600,8.467422607421875,0.4182371025085449,-3.002997574877739,-2.2433903364419936
1789323695815384800,8.477384765625,0.538641597521305,-3.2529362122982737,-1.9553262587666511
1789323695825347800,8.487347900390626,0.6574234597682953,-3.451024250972271,-1.747484303319454
1789323695835310800,8.497310791015625,0.6739122377544641,-3.5814445285648104,-1.6358593270897865
1789323695845273900,8.50727392578125,0.5966571486383676,-3.6692283182188867,-1.5726707572489975
1789323695855237000,8.517237060546876,0.39134792653918266,-3.7366964650750156,-1.5370084922373295
1789323695865200000,8.5272001953125,0.10199384558591991,-3.793073601335287,-1.5258715966731309
1789323695875163100,8.5371630859375,-0.23544074099063872,-3.9565237496092913,-1.3535381769806145
1789323695885126000,8.5471259765625,-0.541622111169435,-4.288951285146177,-1.017773021453619
1789323695895089000,8.5570888671875,-0.8107610870897769,-4.6874937993645664,-0.7337070735037327
1789323695905052000,8.567052001953124,-1.013180286835879,-4.986800571066141,-0.7261234865069389
1789323695915015000,8.577014892578125,-1.022870052331686,-5.154042805099487,-0.9207453103750943
1789323695924978000,8.58697802734375,-0.9193097246140242,-5.3745396594583985,-0.9504279164552688
1789323695934941000,8.59694091796875,-0.6611503713369369,-5.624122907570004,-0.8206371689379215
1789323695944904200,8.606904296875,-0.21637012981772422,-5.476527623292803,-0.9095271662682294
1789323695954867000,8.616866943359375,0.35886542407479133,-4.777817921151221,-1.0492202991187571
1789323695964830000,8.626829833984376,0.9238695798754691,-3.719375912439823,-1.0413239929109812
1789323695974794000,8.6367939453125,1.230239714092016,-2.6658085240274665,-0.8794085068583488
1789323695984757000,8.646757080078125,1.3618506627738476,-1.5540142798349261,-0.41606209655702114
1789323695994720000,8.656719970703126,1.3757792348831892,-0.6509332209661602,0.3673644088834524
1789323696004683000,8.66668310546875,1.161001342692971,0.032141981931030746,1.171768235900998
1789323696014646000,8.67664599609375,0.8078969298303127,0.47286564153581856,1.7616998756766318
1789323696024609000,8.686609130859376,0.2513402843793854,0.6402037371590733,2.003150670737028
1789323696034571800,8.69657177734375,-0.38695582906007764,0.5831316043719649,1.9618325719207523
1789323696044535000,8.70653515625,-0.9227315157562493,0.34677871697247026,1.7572803056687116
1789323696054498000,8.716498046875,-1.3372434602618217,0.10469400792270898,1.5567723463714123
1789323696064461000,8.7264609375,-1.6840607556790113,-0.07178717909902334,1.3731190757632254
1789323696074424000,8.736424072265624,-1.8239467807531355,-0.2466875266700983,1.210256664249301
1789323696084387000,8.746386962890625,-1.8217104000031947,-0.34231939947605133,1.022778866916895
1789323696094349800,8.756349853515625,-1.695202911940217,-0.349617739790678,0.8119540962666273
1789323696104312800,8.766312744140626,-1.3955313985794782,-0.27444237955808637,0.7360445765405893
1789323696114275800,8.77627587890625,-1.0116063155174255,-0.05830898110568523,0.6391022056579589
1789323696124238800,8.78623876953125,-0.7752852845609187,0.26086276701688765,0.4763017534643411
1789323696134202000,8.7962021484375,-0.6929553763985633,0.574632656095922,0.20242636013925075
1789323696144165000,8.8061650390625,-0.7623878090649843,0.8513274907559156,-0.1696463725656271
1789323696154129200,8.816129150390625,-0.8604863642454147,1.0284539899438618,-0.5255874701589346
1789323696164092200,8.826092041015626,-0.9183423408865928,1.0963859549194575,-0.8919874179244041
1789323696174055000,8.836054931640625,-0.83341540196836,1.0994476805776356,-1.1477812111139296
1789323696184018000,8.846017822265624,-0.633605946329236,1.0562839538946747,-1.3418804724127054
1789323696193981000,8.85598095703125,-0.40851880503799765,1.021973103491962,-1.5338924060434103
1789323696203944000,8.86594384765625,-0.20496614428255705,1.0029366868495941,-1.6776970658659933
1789323696213907000,8.875906982421874,-0.011873977667093276,1.0163149315997957,-1.7757500283390282
1789323696223870000,8.885869873046875,0.0430996850034222,1.0981962192118166,-1.860624944809079
1789323696233833000,8.8958330078125,0.0431780474692583,1.2065054950222371,-1.8686591981828211
1789323696243796000,8.9057958984375,-0.004139620555378497,1.3248445819377899,-1.7655086203098296
1789323696253759000,8.915759033203125,-0.09260404941737652,1.4518135500326752,-1.5733534788161516
1789323696263722000,8.925721923828124,-0.1893488884339109,1.5528390985757112,-1.319047878357768
1789323696273685000,8.93568505859375,-0.35256080750524993,1.6296511200994253,-1.0067781647086143
1789323696283648000,8.94564794921875,-0.4649175686081871,1.7073381708920001,-0.7156722351193427
1789323696293611000,8.955611083984374,-0.5495160792896524,1.7303998975276946,-0.39999592789709565
1789323696303574000,8.965573974609375,-0.6748410430371761,1.7021832723468542,-0.06322773280739784
1789323696313536800,8.975536865234375,-0.7538210562497377,1.621984530994296,0.31330431739389897
1789323696323500000,8.9855,-0.772420615844801,1.5307225438356398,0.6397784974843264
1789323696333463000,8.995463134765625,-0.7871049016922712,1.4444196403890848,0.9331512029618024
1789323696343426000,9.005426025390625,-0.6852776813775301,1.302954821690917,1.2832494197458029
1789323696353390000,9.01539013671875,-0.5392062456667422,1.1313427020102738,1.6282576199144123
1789323696363353000,9.02535302734375,-0.3244908973187208,0.9625596682757138,2.0289912144362927
1789323696373316000,9.035316162109375,-0.12908992403792216,0.8705863179773091,2.412494857215881
1789323696383279000,9.045279052734376,0.04992633441938087,0.8617927706688642,2.631736158555746
1789323696393241900,9.055241943359375,0.2446089668303728,0.8712199397057294,2.8534061483472586
1789323696403204900,9.065204833984374,0.27229952231049537,0.7546990081280469,3.191577780494094
1789323696413167900,9.07516796875,0.20888298893272875,0.4209808482587337,3.6310955714404582
1789323696423131000,9.085130859375,0.1508388145093806,0.08068214095532894,3.9506893443673845
1789323696433094100,9.09509423828125,0.09997196610318496,-0.1414256557315588,4.2112212719947095
1789323696443057200,9.10505712890625,0.004559270739555359,-0.27275720295011996,4.561104384723305
1789323696453020000,9.11502001953125,-0.14139702329211867,-0.3766092070907354,5.115973478946089
1789323696462983000,9.12498291015625,-0.2839969743669033,-0.3837760299801826,5.649072055387497
1789323696472946000,9.13494580078125,-0.30601942108273505,-0.22350655756890772,6.03353665215373
1789323696482909000,9.144908935546875,-0.2694780351489782,0.23857611640691756,6.204609258130192
1789323696492872000,9.154871826171876,-0.17141338223814964,0.9703227034926414,6.14176263359487
1789323696502835000,9.1648349609375,0.05493336262616794,1.8565771307229995,5.743223918768763
1789323696512798000,9.1747978515625,0.3883364697635174,2.772847926032543,5.243939349123835
1789323696522761000,9.184760986328126,0.6348141530752182,3.4894489664345976,4.749935350230336
1789323696532724000,9.194723876953125,0.7517617856323718,3.7716006051957605,4.368903650522232
1789323696542687000,9.20468701171875,0.7114671846449375,3.586305997121334,3.9957840391129253
1789323696552650000,9.21464990234375,0.5138496860921382,3.153825849726796,3.3810125571131704
1789323696562614000,9.224614013671875,0.2141886941254139,2.638503752994537,2.7132711169481274
1789323696572577000,9.234576904296874,-0.06476151824593544,2.17748783146739,2.2109014407694336
1789323696582540000,9.2445400390625,-0.2773217343866825,1.741719748443365,1.7830863625764846
1789323696592503000,9.2545029296875,-0.5407902999877929,1.2485925323843956,1.5139648857802153
1789323696602465800,9.2644658203125,-0.750769267463684,0.7363835992366075,1.3774620734035967
1789323696612428800,9.2744287109375,-0.869650498431921,0.24664602561593055,1.4343950899809599
1789323696622392000,9.28439208984375,-0.8819839103043079,-0.11635434283912181,1.4791373180270193
1789323696632355000,9.29435498046875,-0.7197603812158108,-0.26494915954768655,1.3419903625279663
1789323696642318000,9.304318115234375,-0.4194517389953136,-0.30645547441244125,1.1552432175576686
1789323696652281000,9.314281005859375,-0.009887772285938262,-0.3744289404422044,0.9681213940560817
1789323696662244000,9.324244140625,0.501593467641808,-0.48129883109927174,0.7172095276892185
1789323696672206800,9.334206787109375,0.9905167657375336,-0.6039437985152005,0.39968320868611334
1789323696682169900,9.344169921875,1.5799042156338692,-0.707448888914287,0.0667015463978052
1789323696692132900,9.3541328125,2.0394588324367997,-0.777377288404107,-0.2541162153661251
1789323696702096000,9.364095947265625,2.3926900865495204,-0.8149851345255971,-0.6044546706467867
1789323696712059100,9.37405908203125,2.615644270932674,-0.8650833366468548,-1.0132114126265048
1789323696722022100,9.384022216796875,2.6743267615258692,-0.9107333271875977,-1.5086398913651704
1789323696731985000,9.39398486328125,2.4942905123710633,-0.9724690678715705,-1.9318261407136916
1789323696741948000,9.403947998046876,2.1282173123419286,-1.00697281049788,-2.3488357472538945
1789323696751911000,9.413910888671875,1.6573253089666367,-1.0546098832026123,-2.655499311459064
1789323696761874000,9.4238740234375,1.1905588610887528,-1.076073234730959,-2.9249457824259997
1789323696771837000,9.4338369140625,0.7368050395190715,-1.1321040417715906,-3.1587352490782736
1789323696781801000,9.443801025390625,0.31558742336239665,-1.155659981665015,-3.392535237124562
1789323696791764000,9.453763916015625,-0.015794950503110885,-1.2297656668394803,-3.617835107851028
1789323696801727000,9.46372705078125,-0.24002923782467842,-1.3368427705064416,-3.7331536779016252
1789323696811690200,9.473690185546875,-0.3769575456043705,-1.459553788895905,-3.7721693449944254
1789323696821653200,9.4836533203125,-0.407175610268116,-1.5765423379853367,-3.8293279870212076
1789323696831616500,9.493616455078126,-0.3799515397885814,-1.7148568759590386,-3.812956113412976
1789323696841579500,9.50357958984375,-0.3703349125942215,-1.8720733905404805,-3.7260230953693387
1789323696851542500,9.51354248046875,-0.27605569650623946,-1.9972350169524549,-3.599522621569037
1789323696861505300,9.52350537109375,-0.14452716541085392,-2.0980089288219808,-3.38226284943521
1789323696871468300,9.53346826171875,-0.052816849962808186,-2.211647290700674,-3.1095898176372048
1789323696881431300,9.543431396484374,0.004400244252942502,-2.339834694674611,-2.873412579065561
1789323696891394300,9.553394287109375,0.1110399063507095,-2.5027836154282093,-2.652006208646297
1789323696901357300,9.563357421875,0.19135551554858685,-2.696364405810833,-2.4588041884481906
1789323696911320300,9.5733203125,0.22523966497182846,-2.8497523020148274,-2.2840607850044963
1789323696921283600,9.58328369140625,0.2607300440153107,-2.9685274422600862,-2.08820971160233
1789323696931246300,9.593246337890625,0.3103898547193035,-3.074634239590168,-1.8821049552112816
1789323696941209300,9.603209228515626,0.2881955585679039,-3.1038968666926023,-1.743129615241289
1789323696951172400,9.61317236328125,0.17366028438210487,-3.161923523725569,-1.591295962741971
1789323696961135400,9.62313525390625,-0.05419043987095356,-3.381968250402808,-1.2632435735493899
1789323696971098400,9.633098388671876,-0.3184352870741859,-3.76178268327564,-0.8339899869859219
1789323696981061400,9.643061279296875,-0.5688427110502496,-4.12290322933346,-0.48487552054226396
1789323696991024400,9.6530244140625,-0.6559452039092779,-4.37379376065135,-0.40220132898688316
1789323697000987400,9.6629873046875,-0.6851794817000627,-4.5523985156983136,-0.3627764965713024
1789323697010951200,9.672951171875,-0.6520218929857016,-4.93142998149991,0.011985036826133727
1789323697020914400,9.68291455078125,-0.38085283600986003,-5.38057893962264,0.40057577361166474
1789323697030877400,9.69287744140625,0.1626262646704912,-5.487403822094202,0.5812573349326848
1789323697040840400,9.70284033203125,0.9011334319323301,-5.04456185516119,0.5183002357602119
1789323697050803500,9.712803466796874,1.6094108806252478,-4.21597635756731,0.48865328551530834
1789323697060766500,9.722766357421875,2.175467723816633,-3.2128549618005753,0.6007219138592481
1789323697070729500,9.7327294921875,2.4751579418778418,-2.1260010975971815,0.8226274659723043
1789323697080692200,9.742692138671876,2.5505811393916606,-0.9809317757904529,1.1664806508868932
1789323697090655200,9.7526552734375,2.226190195316076,-0.060953650395572184,1.6786147652328014
1789323697100618200,9.7626181640625,1.6043091735720634,0.6155234694108367,2.20024093054533
1789323697110581500,9.77258154296875,0.9030816433906554,1.1185367041900753,2.555035780712962
1789323697120544500,9.78254443359375,0.20092706149220466,1.3811720338374376,2.7245599882036444
1789323697130507500,9.792507568359374,-0.4837970776557922,1.351399995908141,2.7149855196505785
1789323697140470500,9.802470458984375,-1.0798971769332886,1.1598796451866626,2.5020108774900436
1789323697150433300,9.812433349609375,-1.6487661549359558,0.825826554274559,2.217010863560438
1789323697160396300,9.822396240234376,-2.052325328272581,0.5089186594307422,1.826545565074682
1789323697170359300,9.832359375,-2.2956869253903625,0.23002514568269253,1.426802150633931
1789323697180322300,9.842322265625,-2.449026890799403,0.11325637682378291,0.9609212534189223
1789323697190285600,9.85228564453125,-2.4844652839273214,0.0811801536053419,0.5428484015613794
1789323697200248600,9.86224853515625,-2.4867536871254443,0.14648527720868587,0.23335633593201635
1789323697210211300,9.87221142578125,-2.3490707250535485,0.3371878818064928,-0.1134662201821804
1789323697220174300,9.88217431640625,-2.0544524034291505,0.5162199223548174,-0.41740357429385183
1789323697230137300,9.892137451171875,-1.728985354554653,0.644260611334443,-0.6516191574037075
1789323697240100400,9.902100341796874,-1.4198416639715432,0.6403390539765358,-0.8895867865234612
1789323697250063400,9.9120634765625,-1.1317916148215532,0.6428653575837612,-1.1117015974730253
1789323697260026400,9.9220263671875,-0.8502204062968493,0.6625251668214798,-1.3767466186106203
1789323697269990400,9.931990478515624,-0.6317302155852318,0.611568886566162,-1.5627771397441625
1789323697279953400,9.941953369140625,-0.4242617696255445,0.5590051711142063,-1.696858862453699
1789323697289916200,9.951916259765625,-0.28230010732114313,0.5535533354490995,-1.8135966516524553
1789323697299879400,9.96187939453125,-0.10490593364033847,0.5723696796000004,-1.8175158709228039
1789323697309842400,9.971842529296875,0.024009163553640245,0.6801373958796262,-1.7837059557795523
1789323697319805400,9.981805419921875,0.14158044443447143,0.8718179055988788,-1.7379501667767763
1789323697329768400,9.9917685546875,0.10668046903219074,1.0775433072835205,-1.6894775200307368
1789323697339731500,10.0017314453125,-0.014390417467430233,1.19006026391685,-1.6181249329566956
1789323697349694500,10.011694580078125,-0.1529723376730457,1.2674760965526104,-1.4704057300388813
1789323697359657200,10.0216572265625,-0.2961561987161636,1.2804448837190865,-1.2859604322701692
1789323697369620200,10.0316201171875,-0.43479945718757806,1.3028162900030613,-1.0844348203629255
1789323697379583200,10.041583251953124,-0.5890653783351183,1.2726491152763366,-0.7827771016210318
1789323697389546500,10.05154638671875,-0.7243348495244979,1.241004853734374,-0.4804045126080513
1789323697399509500,10.061509521484375,-0.8161193992525339,1.2070733580380677,-0.20531506731808186
1789323697409472500,10.071472412109374,-0.8690560396701097,1.1740402724862098,0.06456453436911105
1789323697419435500,10.081435546875,-0.8582307673383504,1.0740724163025617,0.3665010700523853
1789323697429398300,10.091398193359375,-0.8507166653811931,0.9694166945636272,0.6049181965053081
1789323697439361300,10.101361328125,-0.8314005550146102,0.8847650654554367,0.8084913885921239
1789323697449324300,10.11132421875,-0.7670125462561845,0.7809288434058428,1.0433248113393783
1789323697459287300,10.121287353515624,-0.6501601907670498,0.6177502055495977,1.3142518762528896
1789323697469250600,10.13125048828125,-0.39609132167398925,0.5238666377156973,1.5756307760983705
1789323697479213600,10.141213623046875,-0.09719082921836525,0.525552983367443,1.8163187700927257
1789323697489176300,10.15117626953125,0.06535184882190079,0.3992845647573471,2.1623989834070203
1789323697499139300,10.161139404296875,0.1254962286612019,0.023432313513755798,2.7047990566790103
1789323697509103400,10.171103271484375,0.10547463690638542,-0.5025532160520554,3.26443141978085
1789323697519066400,10.18106640625,0.044546376680396495,-0.9429150566071272,3.6895424997121093
1789323697529029400,10.191029296875,-0.08836337964031844,-1.2230676305055617,4.01049060985744
1789323697538992400,10.200992431640625,-0.24242581410501152,-1.4919798484653233,4.3784588298529385
1789323697548955400,10.210955322265624,-0.282611620955728,-1.5592080490857363,4.791952537226677
1789323697558918400,10.22091845703125,-0.015611995151638984,-1.0750707796901464,5.157432447537779
1789323697568881200,10.230881103515625,0.2437836036558263,0.03660685238540173,5.098955124127865
1789323697578844400,10.240844482421876,0.5269657362421974,1.3734335485398768,4.796693594273925
1789323697588807400,10.250807373046875,0.6852607302427292,2.60265327193439,4.652728775453567
1789323697598770400,10.2607705078125,0.8426467561721801,3.5445793175041675,4.554371861597895
1789323697608733400,10.2707333984375,0.9008242198526859,3.9274744729965922,4.6336774535030125
1789323697618696400,10.280696533203125,0.7952379392653703,3.725636726400256,4.651065226155519
1789323697628659500,10.290659423828124,0.4267184785952791,2.9949159752309322,4.4523494109719985
1789323697638622200,10.300622314453125,-0.17312135519981384,2.2177982145458457,4.027304966536164
1789323697648585200,10.310585205078125,-0.7023708549976349,1.6608908924937247,3.8115380633085962
1789323697658548500,10.320548583984374,-1.2566606880277396,1.1486433809012173,3.8012627530097958
1789323697668511500,10.330511474609375,-1.7538024004250763,0.6938257294923067,3.786187348952889
1789323697678474500,10.340474609375,-2.074756940311193,0.46960430165231226,3.6615205203205345
1789323697688437500,10.3504375,-2.1159896989315747,0.3072942633241415,3.425590534508228
1789323697698400500,10.360400390625,-1.7258821278423069,0.13059504963755608,3.2731162460178136
1789323697708363300,10.37036328125,-1.1307435670733452,-0.21503099016845226,3.192485542988777
1789323697718326300,10.380326171875,-0.49978492038249966,-0.6241308464974165,2.9324621494054792
1789323697728289300,10.390289306640625,0.08071253609359264,-1.070558270701766,2.360055060404539
1789323697738252300,10.400252197265624,0.6283265446215868,-1.433258779427409,1.6937603119164704
1789323697748215600,10.410215576171876,1.0055582675248385,-1.6324328597724436,0.9293570713758468
1789323697758178600,10.420178466796875,1.1513339351594447,-1.801629442743957,0.18155600606799124
1789323697768142300,10.430142333984374,1.100455980837345,-1.8916984207257628,-0.5046458044171332
1789323697778105600,10.440105712890626,0.8787333840757607,-1.8450906910687683,-1.1576526167869567
1789323697788068400,10.450068359375,0.5352238980323076,-1.813927198781073,-1.6069757624328136
1789323697798031400,10.46003125,0.0376267700176686,-1.7999138709977267,-1.888634064719081
1789323697807994400,10.469994384765625,-0.5121674320936203,-1.7208455949798225,-2.1903069810301066
1789323697817958000,10.4799580078125,-1.0718952183939516,-1.5979261945366858,-2.5481156260609623
1789323697827921000,10.4899208984375,-1.6637756541498003,-1.4777268667072057,-2.9189649544507263
1789323697837884000,10.4998837890625,-2.230204837784916,-1.3967279148876666,-3.23880714918077
1789323697847847000,10.509846923828125,-2.68282980145514,-1.310828916066885,-3.55818932518363
1789323697857809700,10.5198095703125,-2.9870149928480383,-1.2683043640702962,-3.7439071271061897
1789323697867773000,10.52977294921875,-3.1113100655585524,-1.2380305140987038,-3.783496210172772
1789323697877736000,10.53973583984375,-3.1358851193666455,-1.224712182842195,-3.790348560285568
1789323697887699000,10.549698974609376,-3.1079736146122214,-1.2607052872434257,-3.6645863376319405
1789323697897662000,10.559661865234375,-2.828969041705131,-1.315274058907479,-3.3853339274436234
1789323697907625000,10.569625,-2.4993536409795283,-1.438516261564195,-3.0141935071527954
1789323697917588000,10.579587890625,-2.172686568665504,-1.5277078721895814,-2.653601368883252
1789323697927550700,10.58955078125,-1.8749426623664796,-1.581637030775845,-2.392161678761244
1789323697937513700,10.599513671875,-1.6220521894030273,-1.6776915129080414,-2.1692057408124206
1789323697947476700,10.609476806640625,-1.3727595948010682,-1.7700588309600949,-1.90211956923604
1789323697957440000,10.61943994140625,-1.1365122866678983,-1.8690024586625396,-1.649711326831579
1789323697967403000,10.629403076171876,-0.9700748662114143,-2.0193024718537926,-1.4665771116614341
1789323697977366000,10.639365966796875,-0.8591285198956727,-2.2530087902672586,-1.3430764041990042
1789323697987329000,10.6493291015625,-0.8431247489474714,-2.535128718715906,-1.344796067598462
1789323697997291800,10.659291748046876,-0.8529203859705478,-2.830840388534963,-1.3881214145839214
1789323698007254800,10.6692548828125,-0.9117202923983335,-3.097836251479387,-1.4630331554442644
1789323698017217800,10.6792177734375,-0.9124299750376492,-3.3144349293559787,-1.5761270351827144
1789323698027181800,10.689181884765626,-0.8387959990281612,-3.550605738186836,-1.7065478972971437
1789323698037144800,10.699144775390625,-0.8028199918922037,-3.783522513657808,-1.7471102093100548
1789323698047107800,10.70910791015625,-0.8340042347069829,-4.129475301200151,-1.6756436404675243
1789323698057070800,10.71907080078125,-0.8193208987075835,-4.571211352717876,-1.4736451503515242
1789323698067034000,10.7290341796875,-0.7045107896357774,-4.893771574234962,-1.3557003234505653
1789323698076996900,10.738996826171874,-0.585970407994464,-5.145070394092798,-1.268591948840022
1789323698086959900,10.7489599609375,-0.4394394650131464,-5.385796382009983,-0.9975444724172353
1789323698096923000,10.7589228515625,-0.11753098540306091,-5.563906047016382,-0.6394640247076749
1789323698106886000,10.768885986328126,0.36665947548449035,-5.474847707381844,-0.2820978627473116
1789323698116849000,10.778848876953125,0.8728560895401984,-5.083860430848598,-0.040429625543951984
1789323698126812000,10.78881201171875,1.3332044140040873,-4.381053522521257,0.21290625309944153
1789323698136774700,10.798774658203126,1.6847563367277383,-3.3880320804864166,0.4500964681059122
1789323698146738000,10.808738037109375,1.8358254345953464,-2.3031122530855237,0.71362582398355
1789323698156701000,10.818700927734374,1.687127157512307,-1.1935653494283556,0.9489917461723089
1789323698166664000,10.828663818359376,1.2263807005763052,-0.2713628259822726,1.097241110444069
1789323698176627000,10.838626953125,0.6515473342765122,0.2348945052847266,1.274237261250615
1789323698186590000,10.84858984375,0.12430559410452842,0.49132922672629353,1.4055641322940586
1789323698196553000,10.858552978515625,-0.3753291041523218,0.5668129222556948,1.3721551991671324
1789323698206515700,10.868515625,-0.7766063040316105,0.39467151800394057,1.1893769578278064
1789323698216478700,10.878478759765626,-1.107985207298398,0.15306348655521868,0.9464572592586278
1789323698226442000,10.88844189453125,-1.3402806360006332,-0.10776274784356354,0.6140829152137041
1789323698236405000,10.898405029296875,-1.5612725804001093,-0.3862620015770197,0.3870207109898329
1789323698246368000,10.908367919921876,-1.6849065588533878,-0.7491936887100339,0.24166531459391116
1789323698256331000,10.9183310546875,-1.7238421464473008,-0.9816647662401199,0.07485153510570526
1789323698266294000,10.9282939453125,-1.6579519164323806,-1.012539796975255,-0.1486187821060419
1789323698276256800,10.9382568359375,-1.5277619404643774,-0.8797995520025491,-0.3723398592084646
1789323698286220800,10.948220703125,-1.3217033613026141,-0.5885340479373932,-0.5997042612493038
1789323698296182800,10.958182861328124,-1.0379477944761515,-0.2691299523636699,-0.8010866652935743
1789323698306146800,10.968146728515626,-0.7224123570293187,0.007789923223853111,-0.9160001616746186
1789323698316109800,10.97810986328125,-0.44389702894389627,0.22644261102080343,-0.9782453131854534
1789323698326072800,10.98807275390625,-0.2228185753047466,0.3408735845819115,-1.0364987647116184
1789323698336035800,10.998035888671875,-0.10836217504143714,0.36743250568360086,-1.0835077686458825
1789323698345999000,11.0079990234375,0.010744096854329109,0.3494061428666115,-1.1305337237149475
1789323698355961900,11.0179619140625,0.12354739614836871,0.30154782862663265,-1.1968611761033534
1789323698365924900,11.0279248046875,0.22721301087141035,0.23430676852464674,-1.2959949195504188
1789323698375888000,11.037887939453125,0.30718791687283664,0.19194091422110796,-1.3449158945858477
1789323698385851000,11.047850830078126,0.41201720508038997,0.19889584792554377,-1.3728244767308235
1789323698395814000,11.05781396484375,0.5099316723981872,0.1950783354640007,-1.3124404429167509
1789323698405777000,11.06777685546875,0.4985995099902153,0.2540758833557367,-1.1804226669996976
1789323698415739600,11.07773974609375,0.5384072042435407,0.31532617861032486,-0.9612585225492716
1789323698425703000,11.087702880859375,0.4757850361138582,0.5284539655059576,-0.6480740321427584
1789323698435666000,11.097666015625,0.296196530726552,0.7791466361641883,-0.21536592121124265
1789323698445629000,11.10762890625,-0.047996261405944825,1.130482870310545,0.18201836288273335
1789323698455592000,11.117592041015625,-0.4027823437452316,1.5106962393730878,0.5210533338606357
1789323698465555000,11.127554931640624,-0.7046136654883622,1.8681740450143813,0.8181997126579285
1789323698475518000,11.13751806640625,-0.9866589212656021,2.205485260939598,1.0223808075100183
1789323698485480700,11.147480712890625,-1.1546218707889317,2.437183892792463,1.1767442707479
1789323698495443700,11.157443603515626,-1.2332517553895712,2.4933856724858283,1.3504501478374002
1789323698505407000,11.167406982421875,-1.2081313426584004,2.4768711755365134,1.519847514078021
1789323698515370000,11.177369873046874,-1.0547200655788183,2.425752982717752,1.6941215464442967
1789323698525333000,11.1873330078125,-0.7971171771407127,2.2680624208837745,2.0246943940252065
1789323698535296000,11.1972958984375,-0.3932055371046066,2.0883464897245165,2.5057331128835676
1789323698545259000,11.207259033203124,0.050109910825360565,1.9334306533008814,3.0532214492052794
1789323698555221800,11.2172216796875,0.48389995350837706,1.8247277019977568,3.4434997006863353
1789323698565185800,11.227185791015625,0.755023417776823,1.6260960579663515,3.798974349811673
1789323698575148800,11.237148681640624,0.9440145422816276,1.3886989222109316,4.178908901932835
1789323698585111800,11.24711181640625,0.9953484236776828,0.8832534918487072,4.756519989317655
1789323698595074800,11.25707470703125,0.9993325248777866,0.2513660398751497,5.366990559253097
1789323698605037800,11.267037841796874,1.0892203010737895,-0.2955722613483667,5.895604683756828
1789323698615001000,11.2770009765625,1.191289513450861,-0.52889703309834,6.316089272931218
1789323698624964000,11.286964111328125,1.1176537838757037,-0.6543973899453878,6.757223266902566
1789323698634926800,11.2969267578125,1.0689397295892238,-0.49538113246560095,7.177626607534289
1789323698644889900,11.306889892578125,1.0352537330865859,-0.14597265151143074,7.567204017269611
1789323698654852900,11.316852783203124,1.1271768145024776,0.5613379979759454,7.7044643700152635
1789323698664815900,11.32681591796875,1.30514970138669,1.5335902082264423,7.407029821926355
1789323698674779000,11.33677880859375,1.4022224206507206,2.6740672338068485,6.969349767801165
1789323698684742000,11.346741943359374,1.496553732252121,3.740862352582812,6.411168188029527
1789323698694705000,11.356704833984375,1.4297662611365318,4.528927623739838,5.912013966766
1789323698704668000,11.36666796875,1.196925473511219,4.985231714314222,5.3516205561637875
1789323698714631000,11.376630859375,0.9385282198250293,4.965958274045586,4.747831655949354
1789323698724594000,11.386593994140625,0.5719172596573829,4.463862154111266,4.226171588367223
1789323698734557000,11.396556884765625,0.1742284579251893,3.7167899875998494,3.807919288289547
1789323698744520000,11.40652001953125,-0.1749216826200485,3.1057845801353454,3.423030328631401
1789323698754483000,11.41648291015625,-0.5658370629608631,2.5533997039437293,3.1104987491756675
1789323698764445700,11.42644580078125,-0.988134254515171,1.9082541264683006,3.0207161869198083
1789323698774408700,11.43640869140625,-1.2802946615934372,1.4204676869153976,2.9309172580510374
1789323698784372000,11.4463720703125,-1.402208392125368,1.1188999845445156,2.7319173652291298
1789323698794335000,11.4563349609375,-1.405572900122404,0.8940309064507483,2.608290985560417
1789323698804298000,11.466298095703126,-1.1940227378070354,0.6916121450960636,2.6349498599052428
1789323698814259700,11.476259765625,-0.7905226011812686,0.5059375977933407,2.636853647699952
1789323698824222700,11.48622265625,-0.3579576615801081,0.23005729438662528,2.5579279950231313
1789323698834186800,11.496186767578125,0.18528529225680976,0.0340285263299942,2.340903785210848
1789323698844149800,11.506149658203125,0.8020634013712405,-0.25592063443958757,2.1859294965982436
1789323698854112800,11.51611279296875,1.433626443696022,-0.6209048701882361,1.995877464863658
1789323698864075800,11.52607568359375,2.0004817437887192,-1.0065238976866007,1.711107752558589
1789323698874039000,11.5360390625,2.546003163951635,-1.3432429929375647,1.3451304141193627
1789323698884001800,11.546001708984376,2.854590974217653,-1.6837801851719616,0.9282610928326844
1789323698893964800,11.55596484375,2.89378082883358,-2.0160458081454036,0.4294558311372995
1789323698903927800,11.565927734375,2.8242671476244925,-2.3011390533164144,-0.16977029120624065
1789323698913890800,11.575890869140625,2.54664730707407,-2.5587688297614455,-0.7867454207301139
1789323698923853800,11.585853759765625,2.122317148387432,-2.7154461228996514,-1.3353823425650595
1789323698933816800,11.59581689453125,1.5961246980726718,-2.7598428985089063,-1.858942690810561
1789323698943779800,11.60577978515625,1.02385088006258,-2.779388433717191,-2.23097567602694
1789323698953742800,11.615742919921875,0.46341363031864163,-2.713906492242217,-2.592650933358073
1789323698963705900,11.625705810546876,-0.03130644442234188,-2.655526491726935,-2.838416084486246
1789323698973668900,11.6356689453125,-0.4881166944205761,-2.6632985870331525,-2.943011015948653
1789323698983632000,11.6456318359375,-0.9082494744826107,-2.6624539529025553,-2.9658582230508324
1789323698993595000,11.655594970703126,-1.2343845588117837,-2.5626719746798274,-2.992417144152522
1789323699003558000,11.665557861328125,-1.4564514389663934,-2.413839403692633,-2.9538989051878453
1789323699013521000,11.67552099609375,-1.6301736826688051,-2.2610898053921757,-2.936005521100759
1789323699023483600,11.685483642578125,-1.6880273212224244,-2.2233324677973982,-2.8626749119520185
1789323699033447000,11.695447021484375,-1.6790679158277808,-2.311137300239503,-2.772584891182184
1789323699043410000,11.705409912109374,-1.3575930053293703,-2.3657798677921296,-2.5141432138323783
1789323699053373000,11.715373046875,-1.0828490124762058,-2.420356384371221,-2.0961422581672666
1789323699063336000,11.7253359375,-0.9025058893293142,-2.491972298556566,-1.8091747435569763
1789323699073299000,11.735298828125,-0.7611749261438846,-2.6751784099191425,-1.6047177543729543
1789323699083261700,11.74526171875,-0.6147159524202347,-2.925733425672352,-1.5257979469150305
1789323699093224700,11.755224609375,-0.598430003529787,-3.1796552875101565,-1.6701421204417943
1789323699103187700,11.765187744140626,-0.6420482690472156,-3.4286242031157013,-1.9538035792440176
1789323699113151700,11.77515185546875,-0.7242647068977356,-3.630198622600734,-2.2333032421916723
1789323699123114800,11.78511474609375,-0.9049304861277341,-3.7979990750387307,-2.4959873794168232
1789323699133077800,11.795077880859376,-1.0144266336351633,-3.976723949334025,-2.59088450820744
1789323699143040800,11.805040771484375,-1.147101996678114,-4.331435212871432,-2.5324235514104365
1789323699153004000,11.815004150390624,-1.2887795813441276,-4.7050300405770535,-2.495148590505123
1789323699162966800,11.824966796875,-1.4123901789218187,-4.971871882003546,-2.5528993532061577
1789323699172929800,11.8349296875,-1.4299533081412314,-5.120388372778892,-2.6726754871875045
1789323699182892800,11.844892822265624,-1.4107979412943124,-5.362814150351285,-2.604501530149579
1789323699192855800,11.854855712890625,-1.3136854745417832,-5.66519784528017,-2.458490300193429
1789323699202818800,11.86481884765625,-1.0745464635550974,-5.832181720638275,-2.367224221381545
1789323699212781800,11.87478173828125,-0.549881953459978,-5.735123029899597,-2.3048130656540393
1789323699222744800,11.884744873046875,0.1738245350331068,-5.276031938955187,-2.2126269493877886
1789323699232707800,11.894707763671875,0.8823094889968633,-4.629687507084012,-2.093691942405701
1789323699242670800,11.9046708984375,1.5093004011005162,-3.8379894323825834,-1.9193331543654202
1789323699252633900,11.9146337890625,1.9821797789007425,-3.1143221068561076,-1.551836059013009
1789323699262596900,11.924596923828124,2.2880179981976747,-2.564674254412949,-0.8551642924398183
1789323699272559900,11.934559814453126,2.127510625377297,-2.2409552182495593,0.05904898581802845
1789323699282523000,11.94452294921875,1.6454548384308814,-1.9858833095937967,0.9589373861253261
1789323699292486000,11.95448583984375,0.9609761984765529,-1.7034556303702293,1.5240987417817116
1789323699302448600,11.96444873046875,0.23297288957238196,-1.4654482537619768,1.6833184128791092
1789323699312412000,11.974411865234375,-0.5456722268104552,-1.5097139503374695,1.4768641123980284
1789323699322375000,11.984375,-1.235706162804365,-1.761992136621475,1.1924182252198456
1789323699332338000,11.994337890625,-1.7517957367777823,-1.979801067070663,0.8459539810240269
1789323699342301000,12.004301025390625,-2.1382138056993485,-2.1780068869054316,0.4558510861098766
1789323699352264000,12.014263916015626,-2.372923894327879,-2.333198617660999,0.20307576395869253
1789323699362227000,12.02422705078125,-2.478904727190733,-2.2824477968499064,0.07330898183882235
1789323699372189700,12.034189697265624,-2.445673488718271,-1.9672227405264973,0.021570611295104025
1789323699382153700,12.04415380859375,-2.381517535150051,-1.516207111749053,0.10957388891875743
1789323699392116700,12.05411669921875,-2.2161516163825987,-0.9448241050988435,0.2525046885162592
1789323699402079700,12.064079833984374,-1.9551169999301432,-0.37214901281148194,0.2730921339929104
1789323699412042800,12.074042724609376,-1.71463066598773,-0.02821662518084049,0.2350666469812393
1789323699422006000,12.084006103515625,-1.4193465739309787,0.23830197564065456,0.12236498143076896
1789323699431969000,12.093968994140624,-1.1310988833170383,0.39339024602174755,-0.005838789156079292
1789323699441932000,12.10393212890625,-0.7844482497036457,0.3511313592240214,-0.2052870102673769
1789323699451894800,12.113894775390625,-0.45043731743283566,0.2705348507255316,-0.4358844028800726
1789323699461857800,12.12385791015625,-0.16689846209697423,0.22159166385829449,-0.6648287675887345
1789323699471820800,12.13382080078125,0.05705167452096939,0.20187223338782787,-0.93912384763062
1789323699481783800,12.14378369140625,0.18735913938879967,0.1797127162888646,-1.154608426785469
1789323699491746800,12.153746826171876,0.31959903362393377,0.2611564892664552,-1.228462767547369
1789323699501709800,12.163709716796875,0.34378190977666523,0.39438539453893895,-1.216544950738549
1789323699511672800,12.1736728515625,0.2795008685240522,0.5758177742272615,-1.2092384271174668
1789323699521635800,12.1836357421875,0.21928809962365775,0.7258265493869781,-1.1334919889986514
1789323699531598800,12.193598876953125,0.08054830370889976,0.8851409130305051,-1.0160393295288086
1789323699541561900,12.203561767578124,-0.043335283857584,1.036101874348521,-0.878779561305046
1789323699551524900,12.21352490234375,-0.16898995448350906,1.1520616649121045,-0.734081167513132
1789323699561488000,12.22348779296875,-0.2276396935845725,1.219016309288144,-0.5849211181372403
1789323699571451000,12.233450927734374,-0.2407926234126091,1.222617548650503,-0.38206279632151124
1789323699581413600,12.24341357421875,-0.22314240043163297,1.2228121944397687,-0.16541852573752402
1789323699591377000,12.253376953125,-0.1989595242789015,1.20634212115407,0.12064473350942134
1789323699601340000,12.26333984375,-0.1788789323458448,1.1827572474271058,0.49832303113639353
1789323699611303000,12.273302978515625,-0.11864621663596481,1.1970049684882162,0.8905050704121589
1789323699621266000,12.283265869140624,-0.0891711158266291,1.1801017644822598,1.3409849848777056
1789323699631229000,12.29322900390625,-0.041571196794509886,1.1506313398480414,1.8732114546597003
1789323699641192000,12.30319189453125,0.013136544948816298,1.0547089596629142,2.4504765050858257
1789323699651156000,12.313156005859375,0.05801726815011352,0.9465472756296396,3.076222385564446
1789323699661118700,12.32311865234375,0.07338445822782814,1.0029916319072245,3.6326948233306404
1789323699671081700,12.333081787109375,0.030793818725086748,1.1005693780839443,4.210127631539106
1789323699681044700,12.343044677734374,-0.18013912500739096,1.0924749189555645,4.958088271322846
1789323699691007700,12.3530078125,-0.22631635429263114,0.9944786551058292,5.8140802467584605
1789323699700971000,12.362970947265625,-0.20043489406108855,0.8948457299649715,6.443043335717916
1789323699710934000,12.37293408203125,-0.2055226091215387,0.9580752163380384,6.9191825920969245
1789323699720897000,12.38289697265625,-0.2473007266649976,1.0543792893171309,7.437769243583083
1789323699730859800,12.39285986328125,-0.36005499918553974,1.091151561397314,8.067973857036232
1789323699740822800,12.40282275390625,-0.39824411579370494,1.2101245623022316,8.548203597599267
1789323699750785800,12.412785888671875,-0.35660858505871146,1.6610796930640934,8.81840117919445
1789323699760748800,12.422748779296874,-0.45435123947355893,2.4235423209309577,8.674649710863829
1789323699770711800,12.4327119140625,-0.6248223358929157,3.3723213011354205,8.446755147469043
1789323699780674800,12.4426748046875,-0.6420458578944206,4.263369392383098,8.081204510009288
1789323699790637800,12.452637939453124,-0.5712485300829634,4.962205058991909,7.52554280410409
1789323699800600800,12.462600830078125,-0.554270580340363,5.338239096543193,6.976434757626056
1789323699810563800,12.472563720703125,-0.5384148030281066,5.264321627417207,6.320960093837976
1789323699820527000,12.482527099609374,-0.5186427655875683,4.6869729903608555,5.709757702496647
1789323699830489900,12.49248974609375,-0.6362801339745521,3.8807612371385094,5.036497791171073
1789323699840452900,12.502452880859375,-0.77489131680727,3.127287971413135,4.408456493231654
1789323699850415900,12.512415771484376,-0.8708335707366466,2.4920611458837985,3.760836634597182
1789323699860379000,12.52237890625,-0.9808265618503094,1.7567320241361855,3.3409757302790877
1789323699870342100,12.532342041015625,-0.9963584775030613,1.1120791986137628,3.020840105560422
1789323699880305200,12.54230517578125,-0.9589864859640598,0.5489192459076643,2.8231851976066826
1789323699890268200,12.55226806640625,-0.8681108677744865,0.07433598679900169,2.668454654622078
