time,seconds_elapsed,z,y,x
1789483189915634400,0.054634521484375,-0.08641922330260277,0.2583819099865854,0.08572367878649383
1789483189925683200,0.06468310546875,0.10797755963802337,0.3339570831917226,0.2885777810848318
1789483189935733200,0.074733154296875,0.028179800301790237,0.31880569128915665,0.42229733768478034
1789483189945782500,0.084782470703125,-0.1523836875975132,0.22820479838773608,0.4341768317772075
1789483189955832300,0.094832275390625,-0.39642508367300033,-0.034867315241694445,0.305407024805434
1789483189965882400,0.10488232421875,-0.683683105662465,-0.23988281509131193,0.1307821331748739
1789483189975931400,0.114931396484375,-0.8770990608721971,-0.33103710409179327,-0.015764390968065707
1789483189985981200,0.124981201171875,-1.0971259596318006,-0.4396811648145318,0.07604269938534125
1789483189996030200,0.1350302734375,-0.63822366925776,-0.30765272137299177,0.1774011514108628
1789483190006080500,0.14508056640625,-0.46370939839482306,-0.11475640612319112,0.25723401859309525
1789483190016129300,0.15512939453125,-0.6840916864633559,-0.030164836639165877,0.2166655143014155
1789483190026179300,0.165179443359375,-0.9076631259620189,-0.0038163434177637097,0.26155476786904036
1789483190036228400,0.175228271484375,-1.1056588101774454,0.057709553907811635,0.39438539453893895
1789483190046278100,0.185278076171875,-1.3376087864428758,0.13769143763929606,0.5489349184008315
1789483190056327400,0.195327392578125,-1.4730220500171183,0.14051321706175804,0.7050976496130228
1789483190066377500,0.20537744140625,-1.1486696843862534,-0.007007540674507618,0.9860911313150077
1789483190076426200,0.21542626953125,-0.9654863693773746,-0.24378771357536314,1.1661865633111446
1789483190086476300,0.225476318359375,-1.009458782094717,-0.3953454717427492,1.0866981621850282
1789483190096526300,0.2355263671875,-1.0734949086755514,-0.45338586504012346,0.9005276480589062
1789483190106575400,0.245575439453125,-1.3057283780574798,-0.6703501613587141,0.933641470696777
1789483190116625400,0.25562548828125,-1.6455980462938546,-0.8863096645489335,1.0327888042777775
1789483190126674400,0.26567431640625,-2.06750828435719,-0.66023997849375,1.3246195410102606
1789483190136724200,0.27572412109375,-2.221684700590372,-0.31568127565830945,1.3422875919088721
1789483190146773200,0.285773193359375,-2.391972878190875,-0.090935823944211,1.2993329779319465
1789483190156823300,0.2958232421875,-2.424551205712557,-0.10890022744089364,1.0815006666071711
1789483190166872300,0.305872314453125,-2.243081708884239,-0.2495782796755433,0.8566773273512721
1789483190176922400,0.31592236328125,-1.9386615396916864,-0.2535524440035224,0.6166107531908899
1789483190186971400,0.325971435546875,-2.073129631370306,-0.1969862149119377,0.49572099541183556
1789483190197021200,0.336021240234375,-2.502137134218216,-0.06660188541561365,0.5033782321667298
1789483190207070500,0.346070556640625,-2.6802327706992624,0.1680816074669361,0.18888280529212206
1789483190217120500,0.35612060546875,-2.8337001618802544,0.6736755063891411,-0.5516420950002968
1789483190227169300,0.366169189453125,-2.805158542528748,1.0458628053843975,-1.3759921469815075
1789483190237219300,0.37621923828125,-3.1353444366186856,1.2459966706722974,-2.2435715382277963
1789483190247268400,0.386268310546875,-3.5305244886666536,1.3890388216897844,-2.827319520932436
1789483190257318100,0.396318115234375,-3.375412252888083,1.3060714924067258,-3.0674750154852863
1789483190267368200,0.4063681640625,-3.9757513049095867,0.9400307333424687,-2.7872350555643437
1789483190277417500,0.41641748046875,-4.357440007221698,0.26507337044924495,-2.097408332580328
1789483190287467300,0.42646728515625,-4.50262764583528,-0.7079439789548516,-1.197446720906347
1789483190297516300,0.436516357421875,-4.544136883309483,-1.511063026858866,-0.521218753555417
1789483190307566300,0.44656640625,-4.464234494554996,-1.5096554981485009,0.6444361140318214
1789483190317615400,0.456615478515625,-3.7559851029127835,-1.3514379898309707,1.5127010033242403
1789483190327665400,0.46666552734375,-2.9693104093313214,-1.189606967191398,1.623525038434565
1789483190337714400,0.47671435546875,-2.1202958716928957,-0.9788885795250535,1.4297577855691312
1789483190347764200,0.48676416015625,-1.038297338566184,-0.937881738615036,1.0323555274270475
1789483190357813200,0.496813232421875,0.05616027863919735,-0.918586378775537,0.6387818876624107
1789483190367863300,0.50686328125,0.6517243713438511,-1.0861530224576592,0.6021873102366924
1789483190377912300,0.516912353515625,0.7906377519935369,-1.2950968016669153,0.7147977903723717
1789483190387962400,0.52696240234375,1.201643734204769,-1.2708908734321593,0.9800935714006423
1789483190398011100,0.53701123046875,1.850294689452648,-0.882828544434905,1.4064958601862192
1789483190408061200,0.547061279296875,2.664868028306961,-0.6587475479789078,1.7094940337516367
1789483190418111200,0.557111328125,3.537437629055977,-0.5817402961440384,1.8894854208514094
1789483190428160500,0.567160400390625,4.137563915109634,-0.35505057849436994,2.233285268143564
1789483190438210300,0.577210205078125,4.46512296782732,-0.17638970934599638,2.485821959233284
1789483190448259300,0.58725927734375,4.554048036471009,-0.2440134851552546,2.2954279821932313
1789483190458309400,0.597309326171875,4.0332244197130205,-0.501653417668119,1.6345391844019292
1789483190468358400,0.6073583984375,3.3695272865027186,-0.8359082416974007,0.7656666846051812
1789483190478408400,0.617408447265625,3.7147535133361815,-0.5940388558987528,0.29707886651903387
1789483190488457200,0.627457275390625,4.824605099028348,-0.2757427215669304,0.39249095909446474
1789483190498507300,0.63750732421875,5.8075780252575875,-0.3498695225946605,0.8757622593104839
1789483190508556300,0.647556396484375,5.815255135756731,-0.6373068466737866,1.0245791943371296
1789483190518606300,0.6576064453125,5.525719231963158,-0.7577562037415803,0.9264479059308767
1789483190528655400,0.6676552734375,5.4524529202222825,-0.5914866141326726,0.7096101586014032
1789483190538705400,0.677705322265625,4.924923083823919,-0.3350439285803586,0.44546179404258723
1789483190548754200,0.687754150390625,4.208618980541825,-0.05690335209146142,0.36997137651145456
1789483190558804200,0.69780419921875,3.7320956932812925,0.1362464995279908,0.464809760852158
1789483190568853500,0.707853515625,3.4589404309242964,0.2589482386324555,0.41153263643383975
1789483190578903600,0.717903564453125,3.2224083875656127,0.33459921702016143,0.19696400308012962
1789483190588953300,0.727953369140625,3.1829046446949243,0.31650274810902773,-0.0624842209637165
1789483190599002400,0.73800244140625,2.9182430699169633,0.21605229604020715,-0.2280450777813792
1789483190609052400,0.748052490234375,2.5357307762622834,0.2024118201572448,-0.3790352651938796
1789483190619101200,0.75810107421875,2.1766110486328603,0.20282719602510332,-0.503122832633555
1789483190629151200,0.768151123046875,1.6636457441598176,0.16135924040935934,-0.5685279094800353
1789483190639200300,0.7782001953125,1.0130424858003855,0.1580861370228231,-0.5940440435305238
1789483190649250300,0.788250244140625,0.4386106129735708,0.1707995611887425,-0.6293045958735048
1789483190659299300,0.79829931640625,0.05243628968000412,0.24604517364595083,-0.6026331543080509
1789483190669349400,0.808349365234375,-0.2649550047665834,0.4044187858406454,-0.5414882191240787
1789483190679398400,0.8183984375,-0.5834153897494078,0.45680049578920007,-0.4651955452993512
1789483190689448400,0.828448486328125,-0.851378928682208,0.29782310901507736,-0.43668475947752594
1789483190699497200,0.838497314453125,-0.9966863942831754,0.17893888237215577,-0.4408632142059505
1789483190709547300,0.84854736328125,-1.0645113917529583,0.16845065997503697,-0.4407176682554185
1789483190719596300,0.85859619140625,-1.0046353074610233,0.16629508937634527,-0.2898028841666877
1789483190729646000,0.86864599609375,-0.8987187720060348,0.18548903466798364,-0.12909238998964429
1789483190739696400,0.8786962890625,-1.0358867702931165,0.07126607783436775,-0.02393953238353133
1789483190749745400,0.888745361328125,-1.3138327740579843,-0.0747586691904813,0.04881605335623026
1789483190759795500,0.89879541015625,-1.681687012284994,-0.24452742602676153,0.2843056019246578
1789483190769844200,0.90884423828125,-1.7388672816216946,-0.16311061412133276,0.1422425250723958
1789483190779894300,0.918894287109375,-1.9176678515017032,-0.1349785254187882,0.017491525287926198
1789483190789943300,0.928943359375,-2.1915929291874168,-0.1962598003335297,0.08879092087000608
1789483190799993300,0.938993408203125,-2.425151509693265,-0.25002485439926386,0.1635755282193422
1789483190810042400,0.94904248046875,-2.7328648752123117,-0.26551103121414776,0.14189064289480446
1789483190820092200,0.959092041015625,-2.944056725609302,-0.31433994405195115,0.1811053396910429
1789483190830141200,0.96914111328125,-3.1042116317301987,-0.4095093139126897,0.25048867251873014
1789483190840191500,0.97919140625,-3.4150212096989154,-0.5958868949182331,0.24398498971313237
1789483190850240300,0.989240234375,-4.004826592746377,-0.8243179032772779,0.0930859877154231
1789483190860290300,0.999290283203125,-4.612138990911841,-1.1009992939338087,-0.004262625880539417
1789483190870339300,1.00933935546875,-5.099310513436794,-1.5775167359754443,-0.03612900574058294
1789483190880389000,1.01938916015625,-5.48809706505537,-1.9536353830702602,-0.34923341664820906
1789483190890439200,1.029439208984375,-5.834681720760464,-2.2521251393005253,-0.6429115348130464
1789483190900488400,1.039488525390625,-6.060408876988292,-2.477676938961446,-1.0319909318983553
1789483190910538500,1.04953857421875,-6.321979500013589,-2.8077710631147026,-1.37846335940063
1789483190920587300,1.059587158203125,-6.515495992988348,-3.238152776925266,-1.7193004113644361
1789483190930637300,1.06963720703125,-6.5371092743813985,-3.6308600091189143,-1.9128572363495826
1789483190940686300,1.079686279296875,-6.440958930659294,-3.8408798931270836,-1.8752227944821118
1789483190950736400,1.089736328125,-6.20405396233499,-3.884656198750436,-1.710214018589258
1789483190960785400,1.099785400390625,-5.896542841389775,-3.912433555731177,-1.4986878216713666
1789483190970835200,1.109835205078125,-5.513705553564429,-4.019588985331357,-1.2332160995543002
1789483190980884200,1.11988427734375,-4.896352822899818,-4.133485705885291,-0.9767045134842395
1789483190990934300,1.129934326171875,-4.136719280979037,-4.2565094434857365,-0.9275392082989216
1789483191000983300,1.1399833984375,-3.4900147836238142,-4.5945922283053395,-0.9619196168065071
1789483191011033300,1.150033447265625,-2.821971730163693,-4.942926942548156,-1.0589958432018756
1789483191021082400,1.160082275390625,-2.3135183501571417,-5.056892928946018,-0.9198217657893896
1789483191031132200,1.170132080078125,-1.9468689576752483,-4.872662150710821,-0.5278881483167409
1789483191041181400,1.180181396484375,-1.5794263689890502,-4.624086618337035,-0.11360825900137424
1789483191051231500,1.1902314453125,-1.2046867551624774,-4.361089469639957,0.4878355393916368
1789483191061280300,1.2002802734375,-0.8402860183902084,-3.9748827053815123,1.4007581933170556
1789483191071330300,1.210330322265625,-0.5287910885058343,-3.345870808844268,2.373999414604902
1789483191081380400,1.22038037109375,-0.03855557530038058,-2.784536025738716,3.0460820988446473
1789483191091429000,1.23042919921875,0.6066133099853992,-2.564997202757001,3.3940666844755407
1789483191101479200,1.240479248046875,1.2205202841103076,-2.5511276673585175,3.300555457085371
1789483191111528400,1.250528564453125,1.6429986774504184,-2.7148043178647754,2.836183210867643
1789483191121578200,1.260578125,1.9522832378089428,-2.8805346860304475,2.5122955401390787
1789483191131627300,1.270627197265625,2.0714672511160375,-2.983347117990255,2.3107284271776676
1789483191141677300,1.28067724609375,1.9812065499544143,-2.937440230078995,2.278727607282996
1789483191151726300,1.290726318359375,1.7875312131561338,-2.8629379468023775,2.5545909595549103
1789483191161776400,1.3007763671875,1.776593493425846,-2.83124692350924,2.982482025593519
1789483191171825400,1.310825439453125,1.7861773143291473,-2.677062908491492,3.3975796610325575
1789483191181875200,1.320875244140625,1.787654985666275,-2.3872240762285886,4.190138736477494
1789483191191924200,1.33092431640625,1.9458618264593184,-1.9992890268728136,5.207798945206403
1789483191201974300,1.340974365234375,2.261144750449806,-1.5673011930398641,5.853527291005849
1789483191212023300,1.351023193359375,2.5675544860243797,-1.1297827592171727,6.147423143574595
1789483191222073300,1.3610732421875,2.6930045739889144,-0.8177838253334164,6.174071496525406
1789483191232122400,1.371122314453125,2.6849194672107695,-0.5453520549453794,6.122446523228287
1789483191242172200,1.381172119140625,2.581863581883907,-0.15881079803556203,6.144580613625049
1789483191252222200,1.39122216796875,2.4050737673044202,0.27316578375101086,6.362304496139288
1789483191262271500,1.401271484375,2.3274643117927014,0.6796320767059921,6.844682939168811
1789483191272321300,1.4113212890625,2.402845423730463,1.2511539073050022,7.360281514754891
1789483191282370800,1.421370849609375,2.530034025925398,1.7968109365463256,7.5482076403766865
1789483191292420600,1.431420654296875,2.610120539075136,2.286972873058915,7.384232883706688
1789483191302469600,1.4414697265625,2.7041514064252374,2.607220141458511,7.030178622773289
1789483191312519700,1.451519775390625,2.785466584587097,2.9179215828776357,6.729568367257714
1789483191322568700,1.461568603515625,2.9950305415213108,3.3673499424636364,6.707050830501317
1789483191332618800,1.47161865234375,3.3399230063557623,3.8957629914373157,6.756545221510529
1789483191342667500,1.48166748046875,3.6170424961686134,4.45320456649661,6.751383308702707
1789483191352717600,1.491717529296875,3.6962650859653947,4.839710898223519,6.882538330310583
1789483191362766800,1.501766845703125,3.769361886358261,5.219544912579655,6.959170319092273
1789483191372817000,1.51181689453125,3.85071447392106,5.471909900364279,6.826060656285286
1789483191382865700,1.52186572265625,3.706488373816013,5.4116778422415255,6.396348220038414
1789483191392915700,1.531915771484375,3.471673071247339,5.157834014075994,5.758549498194456
1789483191402964500,1.541964599609375,3.1564976992845533,4.850625090947747,5.163142641878128
1789483191413014500,1.5520146484375,2.6584102304697037,4.428984901997446,4.665917342850566
1789483191423064800,1.56206494140625,2.048763251876831,3.86794793279469,4.378375827744603
1789483191433113900,1.57211376953125,1.5686802263081072,3.336742038232088,4.297262309634685
1789483191443163600,1.58216357421875,1.238786447032541,2.8807360538214444,4.262753890833259
1789483191453212700,1.592212646484375,0.9989677832186221,2.701179697138071,4.237016222986579
1789483191463262700,1.6022626953125,0.871978064596653,2.8325638513267037,4.34292749774456
1789483191473311700,1.612311767578125,0.8199906877279282,3.127556851482391,4.504985022616387
1789483191483361800,1.62236181640625,0.8963116377990692,3.434412138867378,4.654449023374915
1789483191493410600,1.63241064453125,1.0349883601486682,3.9158436564356087,4.592212055170536
1789483191503460600,1.642460693359375,1.1965898848813026,4.494001271787286,4.377641668251156
1789483191513509600,1.652509521484375,1.3258838618576525,5.102736980754137,3.9936856055289502
1789483191523560000,1.662559814453125,1.2625403937160968,5.634135767540335,3.4722055706888435
1789483191533608700,1.672608642578125,0.9941887322485446,5.9098073966324325,3.0684470753878355
1789483191543658800,1.68265869140625,0.6492449025530368,6.0015422619998455,2.747431160703301
1789483191553707500,1.69270751953125,0.2971102115053683,6.000802841809391,2.6269623682826757
1789483191563757600,1.702757568359375,-0.0865220991551876,5.899798628315329,2.4450404515117405
1789483191573806800,1.712806884765625,-0.42419213845543563,5.651260505342483,2.2383085031330583
1789483191583856600,1.722856689453125,-0.653190352243185,5.29909775724411,2.1001631842464206
1789483191593905700,1.73290576171875,-0.7738356702744961,4.798817162299156,1.980377113392949
1789483191603955700,1.742955810546875,-0.7140425880908966,4.262133713108301,1.8098989661782978
1789483191614005800,1.753005859375,-0.5722831338277087,3.7836446787327525,1.7513041538685559
1789483191624054800,1.7630546875,-0.36953937830235806,3.2970138389557597,1.6160978110432624
1789483191634104800,1.773104736328125,-0.2076093157351017,2.882715244939923,1.5277601868987083
1789483191644153600,1.783153564453125,-0.11288403638005257,2.5034464632511138,1.5934148545920848
1789483191654203600,1.79320361328125,0.031195933252573013,2.126297157934308,1.6774731939822434
1789483191664252700,1.803252685546875,0.30606859398670494,1.7283444263026118,1.6449235080331563
1789483191674302500,1.813302490234375,0.6110989309668541,1.3362988728880882,1.6300000796675682
1789483191684351700,1.823351806640625,0.9384544970016926,1.0353612851142884,1.738392649847269
1789483191694401800,1.83340185546875,1.2312158656477927,0.8623129951506853,1.8811738118410108
1789483191704450600,1.843450439453125,1.5303053413368761,0.8620090437680482,2.0234277350902556
1789483191714500600,1.85350048828125,1.7119956413090227,0.8683835472360253,2.0340192717313763
1789483191724550000,1.8635498046875,2.115994959628582,0.9817425076514482,2.285909627741575
1789483191734599700,1.873599609375,2.096229790320247,1.1139093366503714,2.522361007079482
1789483191744648700,1.883648681640625,2.094966200125217,1.3525856985613702,2.96938815074265
1789483191754698800,1.89369873046875,2.4581051002681256,1.525327114532888,3.4438018985033034
1789483191764747500,1.90374755859375,2.162036579835415,1.5097674340903757,3.5515742909580466
1789483191774797600,1.913797607421875,2.300656238235533,1.4697025502055883,3.9149803176045417
1789483191784847600,1.92384765625,2.4314776439748704,1.376825529065728,4.216378508627415
1789483191794896600,1.933896728515625,2.2143043810807166,1.3089718900233507,4.269198829188943
1789483191804946700,1.94394677734375,2.1999590448640287,1.1810787928208708,4.20681923764348
1789483191814995700,1.95399560546875,2.06422137164101,0.9152285927802324,4.038915324831009
1789483191825045500,1.96404541015625,1.8819196617722511,0.5133864524945616,3.8382688338458535
1789483191835094800,1.9740947265625,1.7504454912126064,0.04964388248249888,3.603025661253929
1789483191845144800,1.984144775390625,1.691937188142538,-0.33991219220384955,3.3517057986080645
1789483191855193600,1.994193603515625,1.6890823832333086,-0.6794257404789328,3.090553693255782
1789483191865243600,2.00424365234375,1.6840192546248436,-1.1196699460037052,2.8516975908637043
1789483191875292700,2.014292724609375,1.657450250520557,-1.532353213777393,2.6652900531113146
1789483191885342700,2.0243427734375,1.5567361060142517,-1.8854907982572913,2.3623925634413956
1789483191895391700,2.034391845703125,1.280535484611988,-2.2569759403325618,1.9693588757723568
1789483191905441800,2.04444189453125,1.0264519294064491,-2.621603179337084,1.5905290700227022
1789483191915490600,2.054490478515625,0.8243045323390513,-2.8709532032147047,1.1583405990511177
1789483191925540600,2.06454052734375,0.617066899460554,-3.0829040552854536,0.6554173806428909
1789483191935590000,2.07458984375,0.4427507815182209,-3.279654123353958,0.19086802429258823
1789483191945639700,2.0846396484375,0.3069756988942623,-3.462848544278741,-0.1368675540357828
1789483191955689700,2.094689697265625,0.29095278485417364,-3.600819091120362,-0.33206980814039705
1789483191965738800,2.10473876953125,0.31592005285024644,-3.705578273233771,-0.538561518022418
1789483191975788500,2.11478857421875,0.3409890276551246,-3.7983018573775884,-0.6723381203055382
1789483191985837800,2.124837890625,0.39013087889961895,-3.893420227703452,-0.7883125239163636
1789483191995887900,2.134887939453125,0.4658942681532353,-4.050338636121154,-0.9512737196296452
1789483192005936600,2.1449365234375,0.517604691244103,-4.221359804171324,-1.185925940591097
1789483192015986700,2.154986572265625,0.5526023183345794,-4.388738816326856,-1.4290928919196129
1789483192026035700,2.16503564453125,0.5526760046252981,-4.54572736737132,-1.6677894198358059
1789483192036085500,2.17508544921875,0.5172609558403491,-4.682494383642077,-1.8808540783673524
1789483192046134800,2.185134765625,0.44917350804209705,-4.800588555885851,-2.03891698064506
1789483192056184800,2.195184814453125,0.37930093039274215,-4.939118782436847,-2.067245249506831
1789483192066233600,2.205233642578125,0.3075811905067414,-5.117185777345299,-2.0048755948334933
1789483192076283600,2.21528369140625,0.21253449717760084,-5.375073912465572,-1.9431898307710884
1789483192086332700,2.225332763671875,0.15819040111489593,-5.630362094220518,-1.9475982948631048
1789483192096382700,2.2353828125,0.19727971796579657,-5.82225010921061,-1.922873603451252
1789483192106431700,2.245431640625,0.28091756692156195,-5.909553714132309,-1.9415847336620091
1789483192116481800,2.255481689453125,0.3988169472455978,-5.91455020724535,-1.9802198770046233
1789483192126530600,2.265530517578125,0.5115862712047994,-5.843664068639278,-1.904736473736167
1789483192136580600,2.27558056640625,0.6075919457592069,-5.727629459273815,-1.7571873666882514
1789483192146630000,2.2856298828125,0.6978139223456382,-5.54311518792212,-1.5998352430284022
1789483192156679700,2.2956796875,0.711724520406872,-5.469702161186933,-1.533598391532898
1789483192166729700,2.305729736328125,0.5818599770009517,-5.497624771857262,-1.3729244299739598
1789483192176778800,2.31577880859375,0.38258506662994624,-5.647548791342973,-1.1040303321927785
1789483192186828500,2.32582861328125,0.11711261386051773,-5.926329492366314,-0.7246995911836623
1789483192196877800,2.3358779296875,-0.08812617335096001,-6.1993719419986,-0.2920522705286741
1789483192206928000,2.345927978515625,-0.12203282686695456,-6.414661875364184,0.10620645831227302
1789483192216976600,2.3559765625,-0.08113982159495353,-6.565776565939188,0.4050584719836712
1789483192227026700,2.366026611328125,0.010241992551088333,-6.678048607900738,0.5831207907170057
1789483192237075700,2.37607568359375,0.1737738277591765,-6.619616292676329,0.7080372101962567
1789483192247125500,2.38612548828125,0.4347895933806896,-6.464261480313539,0.7324415836125612
1789483192257174800,2.3961748046875,0.7425484054766595,-6.099499947404861,0.5731260509252548
1789483192267224800,2.406224853515625,0.9628690264858305,-5.523294635164738,0.25974282307624813
1789483192277273600,2.416273681640625,1.0591396355867386,-4.937638188490271,0.018292028015851974
1789483192287323000,2.426322998046875,1.0330934863127768,-4.359307846920192,-0.15239596255719662
1789483192297372200,2.4363720703125,0.8426818274855613,-3.7080893792718648,-0.3121305974394083
1789483192307422000,2.446421875,0.4312285398982465,-3.0365456242144107,-0.4782499649226665
1789483192317471000,2.456470947265625,0.022169892362505196,-2.3339503128111363,-0.645922407066822
1789483192327521000,2.46652099609375,-0.41708778634294863,-1.6982006324514745,-0.724892483407259
1789483192337570000,2.476570068359375,-0.7230418871045112,-1.2504261775523424,-0.7873474782764911
1789483192347620000,2.4866201171875,-0.948517698919773,-0.9539294948354363,-0.7561649890273809
1789483192357670100,2.496670166015625,-1.1520353614270686,-0.8231121076840907,-0.704770901876688
1789483192367719000,2.506718994140625,-1.3425893513344227,-0.914665625135228,-0.7074065110772848
1789483192377769000,2.51676904296875,-1.403242849739641,-1.1685616218794137,-0.6540437542021275
1789483192387818000,2.52681787109375,-1.323639297801256,-1.4682900530591607,-0.43584114826023573
1789483192397868000,2.536867919921875,-1.132067070762068,-1.871141954909265,-0.1200976210206747
1789483192407917000,2.5469169921875,-0.8746284329749643,-2.3160062214501203,0.24268062911629676
1789483192417967000,2.556967041015625,-0.5590497409082948,-2.7527681378170845,0.5409656565546989
1789483192428015900,2.567015869140625,-0.25590149134770035,-3.1707389906048773,0.7275181557357311
1789483192438066000,2.57706591796875,0.10142390021085738,-3.5252725594878194,0.7874491850852966
1789483192448115200,2.587115234375,0.44389892864003777,-3.7349756326317785,0.7554109557896852
1789483192458165000,2.5971650390625,0.767350984430313,-3.7692414748489855,0.7814408845812082
1789483192468214000,2.607214111328125,1.0779672317840159,-3.6458877746418117,0.8515858494311571
1789483192478264000,2.61726416015625,1.3412836755633353,-3.4148850160986184,0.9304466201782225
1789483192488312800,2.627312744140625,1.5645089319728314,-3.151173873913288,0.9296452406674623
1789483192498363100,2.637363037109375,1.7739783424913882,-2.7549223932415243,0.8667401639431714
1789483192508412200,2.647412109375,1.9258159405134616,-2.2697417522728442,0.77966569160223
1789483192518462000,2.6574619140625,1.9939045573554932,-1.8574223493754862,0.6963818437159061
1789483192528511000,2.667510986328125,2.0422448098935186,-1.4813986870877445,0.6587199293196201
1789483192538561000,2.67756103515625,2.0770973659574983,-1.151899313957244,0.6877075388729572
1789483192548610000,2.687610107421875,2.0844610265932975,-0.8853241606429219,0.815587484332919
1789483192558660000,2.69766015625,2.083977042468637,-0.6075473759651183,0.9531903669059276
1789483192568710100,2.707710205078125,2.106388780763,-0.345509135428071,1.1324760899543762
1789483192578759000,2.717759033203125,2.0785598397254943,-0.10675269401818513,1.2963503088593482
1789483192588809000,2.72780908203125,2.030354319483042,0.13824497986882925,1.3095564119130372
1789483192598858200,2.737858154296875,1.973973822221905,0.31571371662318704,1.3054232576310634
1789483192608908000,2.747907958984375,1.9481623584866523,0.5364847117483615,1.4152262791305779
1789483192618957000,2.75795703125,1.9033575865983963,0.8361863279864191,1.5535007773548364
1789483192629007000,2.768007080078125,1.7967700200140475,1.1652739054456354,1.6651958962112665
1789483192639056000,2.778055908203125,1.6688367369316517,1.4799793218091128,1.8438386451810598
1789483192649106000,2.78810595703125,1.5753960905596613,1.7714985083743928,2.0472452485293147
1789483192659155200,2.7981552734375,1.4042717543959617,2.0393138710081575,2.0866887856453658
1789483192669205000,2.808205078125,1.2338437299333511,2.2614555699646472,2.1374773081183434
1789483192679254000,2.81825390625,1.1131319956023245,2.4275690922290085,2.2387708599478007
1789483192689304000,2.828303955078125,1.0088252334315329,2.6063725847184656,2.260370112815499
1789483192699353000,2.83835302734375,0.9368098715998232,2.7541023090302943,2.2962445592731235
1789483192709403100,2.848403076171875,0.9247148715931922,2.8839871645718813,2.3693349299252033
1789483192719452200,2.8584521484375,0.8779493940912186,3.0075305421322582,2.450537295362353
1789483192729502000,2.868501953125,0.8728069166362286,3.1408348507285115,2.470318100631237
1789483192739551000,2.878551025390625,0.8786065428256988,3.2611089973598717,2.445513329720497
1789483192749601000,2.88860107421875,0.8633541017014533,3.456467318809032,2.3954127895116804
1789483192759650000,2.898650146484375,0.7476024009305984,3.7101913199871777,2.2782424541145563
1789483192769700000,2.9087001953125,0.5378115764379501,3.9792461612880228,2.165819605505466
1789483192779750100,2.918750244140625,0.359097515797615,4.253951575696468,2.2143466127872466
1789483192789799000,2.928798828125,0.14588029705286026,4.478716024371981,2.2921827166616917
1789483192799849000,2.938848876953125,-0.0683878189843148,4.673566980820894,2.3344588468551635
1789483192809898200,2.948898193359375,-0.23971710313558578,4.868253102096915,2.318765603160858
1789483192819948000,2.958947998046875,-0.36577165979929266,5.0254327917993065,2.2697937747210264
1789483192829997000,2.9689970703125,-0.49372927360534663,5.11817303481698,2.2056910126447677
1789483192840047000,2.979047119140625,-0.6422504405558109,5.183794969284534,2.1497376547545195
1789483192850095900,2.989095947265625,-0.745336721020937,5.224662401723862,2.213944461727142
1789483192860146000,2.99914599609375,-0.826494078272581,5.223278838410973,2.2615251280695197
1789483192870195000,3.00919482421875,-0.9508347436904907,5.248845825865865,2.184710768458247
1789483192880245000,3.019244873046875,-1.1172142234146594,5.302161236467957,2.2342367236495018
1789483192890294000,3.0292939453125,-1.2777017224907874,5.2932747501790525,2.399872691529989
1789483192900344000,3.039343994140625,-1.3968693691849707,5.191410120463371,2.598150699818134
1789483192910393000,3.04939306640625,-1.4549381117939948,5.068287014141679,2.8766362172871824
1789483192920443100,3.059443115234375,-1.4983435382783412,5.022641115254164,3.056024816188216
1789483192930492000,3.069491943359375,-1.554581558328867,5.02175147293806,3.253767402425408
1789483192940542000,3.0795419921875,-1.686808593082428,4.970179691132903,3.499928274872899
1789483192950591000,3.089591064453125,-1.9516577993869781,4.780291325527429,3.795979259648919
1789483192960641000,3.09964111328125,-2.202415351974964,4.372957894349098,4.188631839045882
1789483192970690000,3.10968994140625,-2.391280219751596,3.7883740453422066,4.553013432726264
1789483192980740000,3.119739990234375,-2.43780465503931,3.1179198390871283,4.853469374462962
1789483192990790100,3.1297900390625,-2.186575977808237,2.4548691870868207,5.126971258300543
1789483193000839000,3.1398388671875,-1.713546962404251,1.9320166948497295,5.287822329992055
1789483193010889000,3.149888916015625,-1.1712450888097286,1.5828198108196259,5.3007613065421575
1789483193020938000,3.15993798828125,-0.6727718355476856,1.5549924772173165,5.184692794907093
1789483193030988000,3.169988037109375,-0.19086280012819914,1.7644126417666672,4.955364399316907
1789483193041037000,3.180037109375,0.21182839473485945,2.0977689825862647,4.748014026778936
1789483193051087000,3.190087158203125,0.49526769868638365,2.41646960606575,4.398068370208144
1789483193061136100,3.20013623046875,0.8215244731664657,2.676370834574103,3.988681513631344
1789483193071186200,3.210186279296875,1.166428628438711,2.791350381928682,3.56380307341218
1789483193081235000,3.22023486328125,1.5270190131425856,2.7877117331653833,3.021352731257677
1789483193091285000,3.230284912109375,1.8506161764919757,2.6776065138489007,2.4183242940217253
1789483193101334000,3.240333984375,2.1423650801599026,2.627114343973994,1.8131687816292046
1789483193111383800,3.2503837890625,2.3100550579607484,2.5743194501146673,1.2921873439610003
1789483193121433000,3.26043310546875,2.3121476463258266,2.4657962392926214,0.960800841909647
1789483193131483100,3.270483154296875,2.3093431102991104,2.284915648268163,0.8009364431679248
1789483193141532000,3.280531982421875,2.173239526373148,1.9852984954431652,0.8250766126900911
1789483193151582000,3.29058203125,2.0048095438599587,1.5570122926071286,0.9546931726843119
1789483193161631200,3.30063134765625,1.8120809863924978,1.0237012424588203,1.1493629273474215
1789483193171681000,3.310680908203125,1.6438766293287277,0.46289165227115153,1.3838432988733051
1789483193181730000,3.32072998046875,1.6043489210605621,-0.17639906169623135,1.619949810296297
1789483193191780000,3.330780029296875,1.688227812230587,-0.8807888553008436,1.8480775979250668
1789483193201828900,3.340828857421875,1.8529846591889858,-1.4962857289656997,1.9489035322427748
1789483193211879000,3.35087890625,2.006289553284645,-1.9213424483612178,1.9389783505558966
1789483193221928200,3.36092822265625,2.2116110503435134,-2.184011095756292,1.9008938268333673
1789483193231978000,3.37097802734375,2.388994739162922,-2.322507127776742,1.8630168083816765
1789483193242028000,3.381028076171875,2.522498369723558,-2.3430995416894556,1.855671706315875
1789483193252077000,3.3910771484375,2.5602479624032974,-2.3254203848749397,1.871134648385644
1789483193262126800,3.401126953125,2.494690325343609,-2.294991928863525,1.8245768953502177
1789483193272176000,3.411176025390625,2.398780950770527,-2.2331275933638213,1.8487614885360002
1789483193282227000,3.42122705078125,2.3002187236011027,-2.1358190195173026,1.9187936406612396
1789483193292276200,3.431276123046875,2.161031202185154,-1.9543093368090687,1.9104238717228172
1789483193302326300,3.441326171875,2.0044472864188254,-1.7303440756872295,1.8758716137796638
1789483193312375000,3.451375,1.831238106805086,-1.5269081001140177,1.8445389024049044
1789483193322425000,3.461425048828125,1.660058533322811,-1.4185229825884103,1.7841963696449994
1789483193332474000,3.47147412109375,1.5192333277024328,-1.3081959372147918,1.7038830620020626
1789483193342524200,3.481524169921875,1.4226935462713242,-1.1760912136666477,1.6417670898288488
1789483193352573200,3.4915732421875,1.3883879565656185,-1.0136178014703094,1.5823966169714927
1789483193362623200,3.501623291015625,1.377728615385294,-0.9077936935391276,1.474794320386648
1789483193372672000,3.511672119140625,1.327635235569626,-0.8961815086133778,1.3762071049064397
1789483193382722000,3.52172216796875,1.2446725824616849,-1.0159027706023305,1.2763830411076544
1789483193392771300,3.531771240234375,1.2130934951104222,-1.2579909137181937,1.2036492288082838
1789483193402821000,3.541821044921875,1.2253930047132073,-1.5441272382013498,1.1081599793434143
1789483193412870100,3.5518701171875,1.267977762464434,-1.8488164335936308,0.9649281509727239
1789483193422920200,3.561920166015625,1.332528852830082,-2.1957461033441126,0.8006593797922134
1789483193432969200,3.57196923828125,1.439764946451038,-2.5036460774764415,0.6399567766606807
1789483193443019300,3.582019287109375,1.5335961995758116,-2.8048019841760397,0.46262335672378535
1789483193453068300,3.592068359375,1.6038031237460673,-3.1105992869406935,0.30660686558187006
1789483193463118000,3.6021181640625,1.6373112794637679,-3.420073816913366,0.07808920185267924
1789483193473167000,3.6121669921875,1.551865869629383,-3.7202591250151396,-0.20489070442616938
1789483193483217200,3.622217041015625,1.3510976519607008,-3.980102485856414,-0.49959728885591026
1789483193493266200,3.63226611328125,1.1270973195254803,-4.219401655840874,-0.8334691779822111
1789483193503316200,3.642316162109375,0.9595102906424552,-4.366030725434422,-1.1664981865435837
1789483193513366300,3.6523662109375,0.815566003153473,-4.463347774848342,-1.490182443654537
1789483193523415000,3.6624150390625,0.6300329101480543,-4.546108475643396,-1.7375678894609212
1789483193533465000,3.672465087890625,0.4983937582850456,-4.653177688264846,-1.8394488857895135
1789483193543514400,3.682514404296875,0.457826697031781,-4.738959782707691,-1.9505454542309044
1789483193553564200,3.692564208984375,0.4014017030417919,-4.77907785808444,-2.0999095017462968
1789483193563613200,3.70261328125,0.3502583027165383,-4.898276484438776,-2.2062562453120944
1789483193573663200,3.712663330078125,0.3430476406853646,-5.028535433989763,-2.2837883978039026
1789483193583712000,3.7227119140625,0.31866036453433333,-5.130978740376234,-2.350660624593496
1789483193593762000,3.732761962890625,0.23201909597888587,-5.23318765348494,-2.391170914158225
1789483193603811300,3.742811279296875,0.10169639700930565,-5.382466945326328,-2.4334797775775194
1789483193613861000,3.752861083984375,-0.0098772143593058,-5.551618227851391,-2.45701496694386
1789483193623910100,3.76291015625,-0.09601469811107963,-5.648491040629148,-2.4414982488602397
1789483193633960200,3.772960205078125,-0.14273319466616957,-5.75962443394959,-2.4254303266346455
1789483193644009200,3.78300927734375,-0.1374642778199166,-5.906933887022733,-2.4752029500633475
1789483193654059300,3.793059326171875,-0.14687741833142937,-6.001209669044614,-2.5181530339956284
1789483193664108000,3.80310791015625,-0.25079839605502785,-6.112573363989592,-2.463848612356186
1789483193674158000,3.813157958984375,-0.4080068003952503,-6.364664795529842,-2.214236138150096
1789483193684207000,3.82320703125,-0.5411573797345162,-6.69322688781023,-1.866321110624075
1789483193694257200,3.833257080078125,-0.6240192028164864,-7.012710186100006,-1.531083778363466
1789483193704306200,3.84330615234375,-0.6372738211870194,-7.321983056020736,-1.1336994942694902
1789483193714356200,3.853356201171875,-0.5500140554070473,-7.596017439299821,-0.6658037501007318
1789483193724405000,3.863405029296875,-0.3924128888895735,-7.7399547855913635,-0.2901443910807371
1789483193734455000,3.873455078125,-0.30174302240516987,-7.6692364047676325,-0.11919745731055736
1789483193744504300,3.88350439453125,-0.31227610685732216,-7.489289587461948,-0.000623100334405899
1789483193754554400,3.893554443359375,-0.31545122976209966,-7.289480131822824,0.18087971424162386
1789483193764603100,3.90360302734375,-0.3445347374379635,-7.088002450710535,0.421869906052947
1789483193774653200,3.913653076171875,-0.3556944293558597,-6.766732853525877,0.6607803689807653
1789483193784703200,3.923703125,-0.40413492739796636,-6.2498500833481545,0.9309761970102787
1789483193794752000,3.933751953125,-0.529572155880928,-5.6109764257490635,1.1458271544367074
1789483193804802300,3.94380224609375,-0.6120785896539688,-4.870505849459767,1.3200094168663024
1789483193814851000,3.95385107421875,-0.5235480732858181,-4.11327060085237,1.5066799894690512
1789483193824901000,3.963901123046875,-0.3546692510265857,-3.3409698850601908,1.6969348502993582
1789483193834950100,3.9739501953125,-0.24298224241137503,-2.553843940579891,1.9017945750653742
1789483193845000200,3.984000244140625,-0.21569325346946716,-1.6301419723562895,2.2241005295604466
1789483193855049200,3.99404931640625,-0.35284890373162925,-0.6827582459025084,2.422591888338327
1789483193865099300,4.004099365234375,-0.762859372099489,0.19270625430410726,2.358493217915296
1789483193875148000,4.01414794921875,-1.1365395400010048,0.9220208832688629,2.087179784032702
1789483193885198000,4.024197998046875,-1.3828525342702864,1.3672650890380142,1.6717460485070943
1789483193895247000,4.0342470703125,-1.6498761620044706,1.2120814685236663,1.464585645583272
1789483193905297200,4.044297119140625,-2.0343793372154235,0.7320614982537925,1.501844824397564
1789483193915346200,4.05434619140625,-2.3675439548552033,0.19733882774189113,1.5587468613147735
1789483193925396200,4.064396240234375,-2.2962464589692653,-0.35548064047470684,1.5110791012108324
1789483193935445000,4.074445068359375,-2.0844261014103886,-0.937444370111078,1.5154858117371797
1789483193945495000,4.0844951171875,-1.8731648390389979,-1.5799885329164565,1.70319800234735
1789483193955544300,4.09454443359375,-1.516433467850834,-2.2411209302052852,1.9304735570609568
1789483193965594000,4.104593994140625,-0.9707084879398346,-2.8050317012786863,2.0657915435671805
1789483193975643100,4.11464306640625,-0.40228082396388054,-3.1292998957574367,2.2145950345903636
1789483193985693200,4.124693115234375,0.17039762932434677,-3.174033063714206,2.528039637237787
1789483193995742200,4.1347421875,0.6331928354837,-3.0091426535040138,2.8270623313009735
1789483194005792300,4.144792236328125,1.0923765731476247,-2.6287790623158216,2.7096763073265553
1789483194015841300,4.15484130859375,1.3560545437157154,-2.0615724645674227,2.277597726470232
1789483194025891000,4.16489111328125,1.5029482555948197,-1.4977018793739378,1.86823249720335
1789483194035940000,4.174940185546875,1.5660161216653883,-1.0038536555640398,1.4177566743910313
1789483194045990100,4.184990234375,1.5976269193291663,-0.5790880280695855,1.0771925941497087
1789483194056039200,4.1950390625,1.579850439620018,-0.31352161340638995,0.8478308808118105
1789483194066089200,4.205089111328125,1.5340356139063833,-0.10048837292641401,0.6258703836411237
1789483194076138200,4.21513818359375,1.6020201858520506,0.15640490593761205,0.5248579868406057
1789483194086188000,4.22518798828125,1.748808829921484,0.5010363817483187,0.4578910675048828
1789483194096237000,4.235237060546875,1.9288158529818056,0.8365899403512478,0.35186055028140545
1789483194106287400,4.245287353515625,2.0559094703696665,1.0185551117420195,0.19981763894557952
1789483194116337200,4.255337158203125,2.0567723708093166,1.14125327064991,0.04854220485091209
1789483194126386200,4.26538623046875,1.9991829361498354,1.2349646967872976,-0.0359410819530487
1789483194136436200,4.275436279296875,1.9772071050547062,1.3321964060053229,-0.013097966504096984
1789483194146485000,4.285485107421875,1.9651297137700021,1.470245571041107,-0.017225275567173955
1789483194156535000,4.29553515625,1.9189467853963373,1.6236586016863583,0.05785831472873688
1789483194166584300,4.305584228515625,1.89928463807106,1.761438594391942,0.2531406483322382
1789483194176634000,4.315634033203125,1.8567255992829799,1.8533415098026393,0.4371674284279346
1789483194186683100,4.32568310546875,1.819657705257088,1.9309537417933345,0.5287836358517408
1789483194196733200,4.335733154296875,1.8385785326957702,2.100864025992155,0.6278869841605424
1789483194206782200,4.3457822265625,1.8047243400193749,2.3151634870156643,0.7323544898509979
1789483194216832300,4.355832275390625,1.8002515785194932,2.506170919778943,0.8474275607079267
1789483194226881300,4.36588134765625,1.7515223266638815,2.67140619790405,0.9305161782830953
1789483194236931000,4.37593115234375,1.7862417578674852,2.8744734862953423,1.0336620799809693
1789483194246980000,4.38597998046875,1.8305274743176996,3.1029832589790223,1.1216986753523348
1789483194257030100,4.396030029296875,1.8637363548278807,3.255248580893874,1.2178940272599459
1789483194267079200,4.4060791015625,1.944621324878931,3.3686367674037814,1.3147709316909313
1789483194277129200,4.416129150390625,2.0691747562646863,3.5135464658588167,1.3618033165007828
1789483194287177500,4.426177490234375,2.1650423375226557,3.689427933421731,1.3705775745868682
1789483194297227300,4.436227294921875,2.256294387809187,3.8648376918196674,1.4279337850123643
1789483194307276500,4.446276611328125,2.33874120034948,4.101249323669076,1.5336550901561974
1789483194317326600,4.45632666015625,2.369617692389339,4.305491208797693,1.7174363710582254
1789483194327375400,4.466375244140625,2.397832710134983,4.40837056851387,2.007878283780813
1789483194337425400,4.47642529296875,2.3691570891402662,4.553775064748526,2.149702583441138
1789483194347474400,4.486474365234375,2.2043476352117954,4.758098198419809,2.2217922526180742
1789483194357524500,4.4965244140625,1.9794000850543378,4.8925762269705535,2.2825948041051625
1789483194367573500,4.506573486328125,1.7428667265214024,4.993893159675598,2.392129530057311
1789483194377623600,4.51662353515625,1.521600787486136,5.080866509729623,2.526823831707239
1789483194387672300,4.52667236328125,1.3712895222485064,5.232413161981105,2.6397996380239723
1789483194397722400,4.536722412109375,1.189882130870968,5.337710688754916,2.800715007123351
1789483194407771400,4.546771484375,1.0203097003243864,5.342742837703228,3.0321324839472767
1789483194417821400,4.556821533203125,0.7896130851209163,5.321653287923335,3.3329274483799933
1789483194427870500,4.566870361328125,0.5006733936548233,5.2559787464857095,3.758613697850704
1789483194437920300,4.576920166015625,0.19802534870132804,5.101738032844662,4.269811992651224
1789483194447969500,4.586969482421875,-0.07886603144407271,4.88778840817213,4.713697915679216
1789483194458019600,4.59701953125,-0.2860147439301014,4.607495549020171,5.078260711145401
1789483194468069600,4.607069580078125,-0.3795311589520424,4.281032474845648,5.331912816131115
1789483194478118400,4.617118408203125,-0.32555640765838323,4.023791989979148,5.491401951819658
1789483194488167400,4.62716748046875,-0.2027696206189692,3.9385090772300955,5.5964849590599535
1789483194498217500,4.637217529296875,-0.09941891706399619,4.012874290123581,5.696058847489953
1789483194508267500,4.647267578125,0.018764394767954943,4.158355358725786,5.7492918405056
1789483194518316500,4.657316650390625,0.0551345157880336,4.3197985510915515,5.775170378127694
1789483194528366300,4.667366455078125,-0.049735725484415884,4.404045691052079,5.692466375955939
1789483194538415400,4.677415283203125,-0.1749789657652378,4.394077839267253,5.437747518521547
1789483194548465400,4.68746533203125,-0.19277531921863555,4.26155737452507,5.0896489511221645
1789483194558514400,4.697514404296875,-0.10018705189228057,4.057418949770927,4.722388587135076
1789483194568564500,4.707564453125,0.043677813684940336,3.781678347095847,4.355081461396813
1789483194578613500,4.717613525390625,0.28567462525554,3.442071713709831,3.967226053148508
1789483194588663300,4.727663330078125,0.5887913106340915,3.1537323262244463,3.5922242812544107
1789483194598712300,4.73771240234375,0.973836776028201,2.9404174923241135,3.2219477843165394
1789483194608762600,4.7477626953125,1.3557856636464596,2.798653982940316,2.912576130196452
1789483194618811400,4.757811279296875,1.6388064864575862,2.570269005680084,2.6666531581580637
1789483194628861400,4.767861328125,1.8601590808629989,2.2684616493344305,2.461719783633947
1789483194638910500,4.777910400390625,1.9620751485049723,1.925363082179427,2.288411381429434
1789483194648960300,4.787960205078125,1.9864473732173442,1.5327461586177349,2.141751916697621
1789483194659009500,4.798009521484375,1.9418074365019797,1.0349056503012777,2.1223446209162473
1789483194669059600,4.8080595703125,1.8904244552671907,0.4162248859032988,2.2124983545720576
1789483194679108400,4.8181083984375,1.9025602987408636,-0.2661708102971315,2.36777425647974
1789483194689158400,4.828158447265625,1.9834405926167964,-0.9058505235821008,2.4837042364269495
1789483194699207400,4.83820751953125,2.0981378158986566,-1.4905039306938648,2.5832652653753754
1789483194709257500,4.848257568359375,2.2470739933907984,-2.024136175620556,2.6977883011341093
1789483194719306500,4.858306396484375,2.4362661934256553,-2.4922332875803113,2.8282436500400303
1789483194729356500,4.8683564453125,2.5821371381282803,-2.832332380658388,2.9355221214979887
1789483194739405300,4.8784052734375,2.664538357961178,-3.0339535618945956,2.95066299200654
1789483194749455400,4.888455322265625,2.7175498171806334,-3.182503954939544,2.8507611867964266
1789483194759504600,4.898504638671875,2.7381775946676727,-3.229124251817167,2.6948762130796906
1789483194769554400,4.908554443359375,2.692768427145481,-3.21304171654433,2.5502555606991053
1789483194779603500,4.918603515625,2.5926725606679915,-3.1950285054698586,2.4557360330492255
1789483194789653500,4.928653564453125,2.4771090759456156,-3.166839645078778,2.3022084361135957
1789483194799702500,4.93870263671875,2.2392554285943507,-3.1200252869337795,1.9860721101641654
1789483194809752600,4.948752685546875,1.9784791708171368,-3.0496301467150446,1.6082546963274478
1789483194819801300,4.95880126953125,1.6763935820519924,-3.0037717741206285,1.311557814863324
1789483194829851400,4.968851318359375,1.4019336668372153,-2.9462814159214497,1.0475304463356732
1789483194839900400,4.978900390625,1.1937771655481308,-2.9163866283953186,0.7874182054251432
1789483194849950500,4.988950439453125,1.013604138271138,-2.901564614577591,0.5477677377849817
1789483194859999500,4.99899951171875,0.9413363360483199,-2.883333084577322,0.30051790105700493
1789483194870049500,5.009049560546875,0.9114368723470717,-2.83048236887753,0.06169628545641899
1789483194880098300,5.019098388671875,0.8797427803140133,-2.900587878499925,-0.0931014775454998
1789483194890148400,5.0291484375,0.8688590557932854,-3.1028266071125863,-0.18319325188100338
1789483194900198400,5.039198486328125,0.8709165728449821,-3.326962110234797,-0.32463235161602494
1789483194910247400,5.049247314453125,0.8601309749364853,-3.5384494364470243,-0.45981122191250323
1789483194920297500,5.05929736328125,0.8675297799509019,-3.7726743719071147,-0.6004775837093591
1789483194930346500,5.069346435546875,0.8655552650075405,-4.004134518828987,-0.7780769611060618
1789483194940396500,5.079396484375,0.9171217861156911,-4.192821107429266,-0.9053776453733444
1789483194950445300,5.0894453125,0.9926023398399353,-4.393735309439897,-1.0376303990900515
1789483194960495400,5.099495361328125,1.0218882016874848,-4.565517232729494,-1.210222761979699
1789483194970544400,5.10954443359375,0.998719945937395,-4.770399169327319,-1.427865395951271
1789483194980594400,5.119594482421875,0.9216671744603663,-4.929234517282247,-1.667694142767787
1789483194990643500,5.1296435546875,0.8401601269882172,-5.026960147497058,-1.9892104081898927
1789483195000693500,5.139693603515625,0.7320587217748165,-5.14238042435646,-2.281751339018345
1789483195010742500,5.149742431640625,0.6013070202708244,-5.268802572223544,-2.5085230358630417
1789483195020792600,5.15979248046875,0.5054688477704301,-5.376604190772771,-2.6890672345399853
1789483195030841300,5.16984130859375,0.43967623291108754,-5.461648618590831,-2.8166636868834494
1789483195040891400,5.179891357421875,0.37146249185204505,-5.51387214230299,-2.899571687194705
1789483195050940400,5.1899404296875,0.32896767740659416,-5.573239108029008,-2.9571763194233176
1789483195060990200,5.199990234375,0.29109657723903654,-5.667198079186678,-3.0305460915386675
1789483195071039500,5.21003955078125,0.18566862901858985,-5.704236308726668,-2.9822832881510255
1789483195081089500,5.220089599609375,-0.000992481636069715,-5.725312999024987,-2.8724457798600196
1789483195091138300,5.23013818359375,-0.21973577032592145,-5.821138933098315,-2.6718507268011567
1789483195101188400,5.240188232421875,-0.4103905171940103,-5.911660331022739,-2.4724223794341085
1789483195111237600,5.250237548828125,-0.544361728733778,-5.918474102690816,-2.3903917464792728
1789483195121287400,5.260287353515625,-0.6202186414897441,-5.864863508534431,-2.364693241599202
1789483195131336400,5.27033642578125,-0.6755354550421238,-5.813072531020641,-2.343818211352825
1789483195141386500,5.280386474609375,-0.7086801842749119,-5.721942061287164,-2.297760809054971
1789483195151435300,5.290435302734375,-0.725666390389204,-5.670377878266573,-2.234993679496646
1789483195161485300,5.3004853515625,-0.7527788537204265,-5.720615196597576,-2.05225226303637
1789483195171534600,5.31053466796875,-0.867382553499937,-5.883457734367251,-1.7744810313165187
1789483195181584400,5.32058447265625,-1.0325929894447325,-6.123871003073454,-1.3864631259828806
1789483195191633400,5.33063330078125,-1.210462927411124,-6.380909827888011,-0.9145347652971744
1789483195201683500,5.340683349609375,-1.2923814052283764,-6.653845310014486,-0.4993085350424051
1789483195211732500,5.350732421875,-1.2472481320381164,-6.93679599019885,-0.10380524238944053
1789483195221782500,5.360782470703125,-1.0218610944848507,-7.225455695679783,0.2872732195585966
1789483195231831600,5.37083154296875,-0.6945336585659533,-7.429637959575652,0.5723673415124416
1789483195241881300,5.38088134765625,-0.3206839062511921,-7.479768310400843,0.78647303352952
1789483195251930400,5.390930419921875,0.05704809432439506,-7.384671275123954,0.9247107068747281
1789483195261980400,5.40098046875,0.36636421886496245,-7.184597615590691,1.0056132125824688
1789483195272029400,5.411029541015625,0.6042612304339186,-6.986708898881077,1.159006369483471
1789483195282080300,5.421080322265625,0.8378864099025726,-6.659833152252435,1.3351993872135877
1789483195292129000,5.43112890625,0.9285714739561081,-6.134038176822662,1.4617127204954623
1789483195302179000,5.441178955078125,0.834717132216692,-5.475679482030868,1.5972253527909517
1789483195312228000,5.45122802734375,0.6973392175059765,-4.7129532347917555,1.792134761428833
1789483195322278100,5.461278076171875,0.5080781169533729,-3.921226518517732,1.9453397022813557
1789483195332327200,5.4713271484375,0.31785715839266776,-3.134845839446783,2.133908217459917
1789483195342377200,5.481377197265625,0.12347911668512969,-2.323747190965712,2.308724686139822
1789483195352426000,5.491426025390625,-0.06906126126646996,-1.4700173152431846,2.3970097033143043
1789483195362476000,5.50147607421875,-0.30943887413740157,-0.5526258453406393,2.366588846087456
1789483195372526000,5.511526123046875,-0.5636684867501258,0.3375828724734485,2.308414889538288
1789483195382575000,5.5215751953125,-0.7865338968712836,1.1126154974475502,2.273331885719299
1789483195392625200,5.531625244140625,-1.086393480150029,1.7488357179284095,2.29037654402256
1789483195402674200,5.541674072265625,-1.2617314154207706,2.1342428562417624,2.4907109003186223
1789483195412724200,5.55172412109375,-1.100895468233153,2.150960182286799,2.7141087368160486
1789483195422773200,5.561773193359375,-0.7239770490627735,1.8800562059879302,2.9634996772259474
1789483195432823300,5.5718232421875,-0.29560207196474075,1.5205995014891027,3.2994185620099303
1789483195442872000,5.5818720703125,0.1573896791912615,1.1902350359618663,3.521654953512549
1789483195452922000,5.591922119140625,0.5967466535527258,0.8733870546117425,3.5954297992974515
1789483195462971100,5.60197119140625,0.8464627342637627,0.5376709989234805,3.4454672013670202
1789483195473021200,5.612021240234375,0.9674749859113245,0.27126579534858464,3.1981858004570007
1789483195483070200,5.6220703125,0.9763433520216495,0.037983693696558476,2.9057284562587737
1789483195493120300,5.632120361328125,0.9812707984864711,-0.06746902363896369,2.6007775411903857
1789483195503169000,5.6421689453125,0.9687048930324613,-0.09155980106145142,2.2502824340432883
1789483195513219000,5.652218994140625,0.9522960484147072,-0.049693420712649816,1.879420830693841
1789483195523268000,5.66226806640625,0.9735236184258014,0.06510872424840927,1.5591495968967675
1789483195533318100,5.672318115234375,0.9809763455845415,0.2210875137284398,1.29218792848289
1789483195543367200,5.6823671875,0.984678561103344,0.36673166393786666,1.0798241116970777
1789483195553417200,5.692417236328125,1.0086229888577014,0.5053521991208195,0.9106330816835164
1789483195563466000,5.702466064453125,1.0215899493932723,0.5790554409742354,0.6398235056698321
1789483195573516000,5.71251611328125,1.0507410789452492,0.6548711449369787,0.3941267436027527
1789483195583565300,5.7225654296875,1.0896236942429094,0.7159092587456106,0.15173428377807138
1789483195593615000,5.732614990234375,1.0507307767469436,0.744430127570033,-0.1675666436821222
1789483195603664100,5.7426640625,0.9965513697266578,0.7508762349694967,-0.44930444094538685
1789483195613714200,5.752714111328125,0.9805098240513354,0.7644298362866043,-0.6615759032726287
1789483195623763200,5.76276318359375,0.9475088872034102,0.783308139757812,-0.9037298781663179
1789483195633813200,5.772813232421875,0.9029142509344965,0.8421127954259514,-1.0747148058593272
1789483195643862300,5.7828623046875,0.896903173951432,0.9104583096385002,-1.1264531764030457
1789483195653912000,5.792912109375,0.9256430192887782,0.984829367750883,-1.0686936458736658
1789483195663961000,5.802961181640625,0.9602736031651496,1.118190374970436,-0.9510323120892047
1789483195674011100,5.81301123046875,0.9735715492207556,1.2766647806584834,-0.8003314630120992
1789483195684060200,5.82306005859375,1.0225825406271964,1.4549994865924119,-0.5655448020160198
1789483195694110200,5.833110107421875,1.0758335807561874,1.6458277633965015,-0.20313246258199213
1789483195704159200,5.8431591796875,1.2125661833006889,1.903864951598644,0.13549275855123996
1789483195714209000,5.853208984375,1.3178722587071359,2.1744711139947173,0.3950783452391624
1789483195724258300,5.86325830078125,1.3550924206852912,2.397242927548289,0.666006579196453
1789483195734308400,5.873308349609375,1.325474696534872,2.5487019015163184,0.9174526985704898
1789483195744357000,5.883357177734375,1.3027283194586634,2.7338199839800597,1.1320330223619937
1789483195754407200,5.8934072265625,1.2830033360302449,2.9825346325635906,1.3616852430790662
1789483195764456200,5.903456298828125,1.2461141595721243,3.221508808377385,1.6453209829181432
1789483195774506000,5.913506103515625,1.2116016491174697,3.452031382188201,1.9170225393354892
1789483195784555300,5.92355517578125,1.2118507285077125,3.7455256682187317,2.2101374706596135
1789483195794605300,5.933605224609375,1.1737187854468822,4.09657957829237,2.4664649323344228
1789483195804654000,5.943654052734375,1.1391875702917575,4.444770500150323,2.8286031310021875
1789483195814704000,5.9537041015625,1.072899427000433,4.759723753795027,3.2032547742843627
1789483195824753200,5.963753173828125,0.9818857155144214,4.9833092218190425,3.4765251874536274
1789483195834803200,5.97380322265625,0.855133312779665,5.1178942178756,3.66908189548552
1789483195844852200,5.983852294921875,0.7141137536309659,5.163796137350797,3.8092496601104733
1789483195854902300,5.99390234375,0.6040998658597468,5.226366283032298,3.894775733965635
1789483195864951000,6.003950927734375,0.4769615325473249,5.284678186747431,3.8642853186339137
1789483195875001000,6.0140009765625,0.4054712175030261,5.30485997403264,3.8923669192582366
1789483195885050000,6.024050048828125,0.3397147699356079,5.26675849917531,3.941918008890748
1789483195895100200,6.03410009765625,0.297550941010192,5.246583141630888,3.9938504407018423
1789483195905149200,6.044149169921875,0.21393384258151052,5.198473482978343,4.171588349786401
1789483195915199000,6.054198974609375,0.12215323837622999,4.9755309890329835,4.4962481739312405
1789483195925248300,6.064248291015625,0.04162833380922675,4.473139101022482,4.937724697729945
1789483195935298300,6.07429833984375,-0.04277165862545371,3.8356057521164413,5.384658902412653
1789483195945348400,6.084348388671875,-0.08734276788830757,3.2064071008354422,5.719392961326241
1789483195955397000,6.094397216796875,0.016354922473430632,2.746206002822518,5.973662321427464
1789483195965447200,6.104447265625,0.24506416325196623,2.5249399176567793,6.08372311708033
1789483195975496000,6.114495849609375,0.47176995525360105,2.6503257082134484,6.008351942014694
1789483195985546200,6.124546142578125,0.5536018507659435,3.108668026617169,5.74119738137722
1789483195995595300,6.13459521484375,0.5823543363891541,3.699897889509797,5.506010907408594
1789483196005645000,6.14464501953125,0.5011129541158675,4.104633120888471,5.389088993814587
1789483196015694000,6.154694091796875,0.3876723798315972,4.335321114394069,5.25181870419681
1789483196025744100,6.164744140625,0.37066878419108684,4.526491336503625,5.090308291813731
1789483196035793200,6.174793212890625,0.4281191026408225,4.587476258820295,4.730777060773969
1789483196045843200,6.18484326171875,0.5190893403112888,4.4925183397531505,4.228282881432771
1789483196055892200,6.194892333984375,0.6164169841844588,4.330480688625574,3.7202006728261705
1789483196065942000,6.20494189453125,0.710625546189025,4.073338987958431,3.195876354470849
1789483196075991000,6.214990966796875,0.7686334985215216,3.80975994772017,2.7650176707983016
1789483196086041000,6.225041015625,0.8970259966135025,3.5451053872048854,2.415270167148113
1789483196096090000,6.235090087890625,1.0292156219661235,3.2173002507716415,2.1635539986610413
1789483196106140200,6.24514013671875,1.131851820576191,2.83654386087358,1.9655027848660944
1789483196116189200,6.255189208984375,1.2046610361993313,2.414733283792436,1.8066577922999858
1789483196126239000,6.265239013671875,1.255946986800432,1.9415020238146186,1.7148446009993552
1789483196136288300,6.275288330078125,1.2623977703750133,1.4296326978847385,1.6522399685263633
1789483196146338300,6.28533837890625,1.296114162015915,0.8620330091655254,1.709378736808896
1789483196156387000,6.295386962890625,1.3702233543217182,0.227226747135818,1.8765508282154797
1789483196166437000,6.30543701171875,1.4594143804252147,-0.4198357698768377,2.0056728826910257
1789483196176486100,6.315486083984375,1.596232250100374,-1.035749699909985,2.126248642617464
1789483196186536200,6.3255361328125,1.7695032429039477,-1.590643051791191,2.247254026132822
1789483196196585200,6.335585205078125,1.9480571445465087,-2.065337370058894,2.369137946048379
1789483196206635300,6.34563525390625,2.184631858003139,-2.4713179253235458,2.51001824285686
1789483196216684000,6.35568408203125,2.4223101487874983,-2.675692204660177,2.636159820216894
1789483196226734000,6.365734130859375,2.6232173365354536,-2.7105656573817134,2.7267145358890295
1789483196236783400,6.375783447265625,2.7372061192870136,-2.6560323954224585,2.8474533774226902
1789483196246833200,6.385833251953125,2.8343513192653655,-2.496334877680242,3.038973143622279
1789483196256882200,6.395882080078125,2.925770542812347,-2.205263873273879,3.1277842304974794
1789483196266932200,6.40593212890625,3.012261077785492,-1.8874433936297892,3.1252994279444217
1789483196276981000,6.41598095703125,2.9902374620258807,-1.6332776400335132,3.0801480345755814
1789483196287030500,6.426030517578125,2.837968340718746,-1.4421779989421366,3.101497696596384
1789483196297079300,6.436079345703125,2.579366504371166,-1.3629140542216598,3.196648507887125
1789483196307129300,6.44612939453125,2.1812382700420914,-1.4958661883793771,3.267015006533265
1789483196317178400,6.456178466796875,1.847220250443369,-1.713281443335861,3.196457369229197
1789483196327228400,6.466228515625,1.549349064502865,-1.8628136870250105,2.9622470468163487
1789483196337277400,6.47627734375,1.2724012779951095,-1.9931407333761453,2.6991549133121966
1789483196347327500,6.486327392578125,1.1308218930065632,-2.211692591147125,2.4502625700742007
1789483196357376300,6.496376220703125,1.1436335899151862,-2.4738570884123443,2.268602519109845
1789483196367426300,6.50642626953125,1.2680771311856807,-2.774778894095123,2.0555214939653874
1789483196377475600,6.5164755859375,1.3834372022904455,-3.1129288989320396,1.896865886491537
1789483196387525400,6.526525390625,1.5293917336232958,-3.5066710271313783,1.7306284455865621
1789483196397574400,6.536574462890625,1.662068996362388,-3.8936005527064204,1.4374918869525193
1789483196407624400,6.54662451171875,1.773715599901974,-4.244723436363041,1.099417285439372
1789483196417673500,6.556673583984375,1.8531636690177022,-4.529700361678004,0.7170289104253054
1789483196427723500,6.5667236328125,1.8793828367710113,-4.832438569132983,0.18680501263737678
1789483196437772500,6.5767724609375,1.8374340388357637,-5.06938474625051,-0.34336627818048
1789483196447822300,6.586822265625,1.7471897042870521,-5.239882182687521,-0.765745302799344
1789483196457871400,6.596871337890625,1.7144120548009871,-5.402899492502212,-1.203297931152582
1789483196467921400,6.60692138671875,1.7485332278504966,-5.527575673484802,-1.644950396040082
1789483196477970400,6.616970458984375,1.7809879289925097,-5.668455385771393,-2.017906925842166
1789483196488020500,6.6270205078125,1.7788066394306719,-5.849910269552469,-2.2882184892058373
1789483196498069200,6.6370693359375,1.7326880084648728,-6.042804831236601,-2.5538912868529557
1789483196508119300,6.647119384765625,1.6634056517936289,-6.157903036534786,-2.7712638717114926
1789483196518168600,6.65716845703125,1.5576586276866495,-6.245639772176742,-2.926878796315193
1789483196528218600,6.667218505859375,1.3856597006455063,-6.370602368885279,-3.103020960640907
1789483196538267400,6.677267333984375,1.2516764698743819,-6.529788722234964,-3.223285754922032
1789483196548317400,6.6873173828125,1.1652340118266642,-6.667841102141142,-3.34317177901864
1789483196558366200,6.6973662109375,1.0356640674531459,-6.774695210707187,-3.4917730254679915
1789483196568416300,6.707416259765625,0.8705437209445983,-6.82428137165308,-3.672632865965366
1789483196578465500,6.717465576171875,0.7011445280730724,-6.808873374640942,-3.7680081336617466
1789483196588515600,6.727515625,0.565847438224405,-6.769077955347299,-3.8043092810988424
1789483196598564400,6.737564453125,0.4415769154332578,-6.751222565183043,-3.7483664446026084
1789483196608614400,6.747614501953125,0.323703546333313,-6.783568252992629,-3.6616917852342126
1789483196618663400,6.757663330078125,0.13099727376289666,-6.877179433625936,-3.5241064383178946
1789483196628713500,6.76771337890625,-0.166124482049793,-7.064607546597719,-3.3140099819421764
1789483196638762500,6.777762451171875,-0.5016425309479237,-7.3880743615657085,-3.029331455051899
1789483196648812300,6.787812255859375,-0.8146902432322501,-7.773758855515718,-2.6826550294101237
1789483196658861300,6.797861328125,-0.9904267493665218,-8.13996941818893,-2.283465157198906
1789483196668911400,6.807911376953125,-1.0619406644821165,-8.511932845300436,-1.9548487043827771
1789483196678960400,6.81796044921875,-1.0438966198779642,-8.808201272219419,-1.7196914565086363
1789483196689010400,6.828010498046875,-0.9628912383176386,-8.937157322478294,-1.4765946478068828
1789483196699059500,6.8380595703125,-0.8431624506093561,-8.907891480505466,-1.1054366918593646
1789483196709109200,6.848109130859375,-0.65439329829216,-8.753084365153311,-0.654482730141282
1789483196719158500,6.858158447265625,-0.47055195776596664,-8.496756318956614,-0.13795534927248954
1789483196729208600,6.86820849609375,-0.36586627928018567,-8.175637528419495,0.4141501254558563
1789483196739257300,6.87825732421875,-0.2544201667487621,-7.814750206595659,0.9736492175668477
1789483196749307400,6.888307373046875,-0.13819967942237854,-7.388013571289181,1.5820593478411435
1789483196759356400,6.8983564453125,-0.03795198338404297,-6.8419812789946794,2.0710382120490074
1789483196769406200,6.90840625,0.015488734098151324,-6.16656915807128,2.484587449002266
1789483196779455500,6.91845556640625,0.11417451458200811,-5.419387685966491,2.8805022450655695
1789483196789505500,6.928505615234375,0.2865266389749944,-4.613385191580653,3.1942689192742106
1789483196799554300,6.93855419921875,0.4555401204645633,-3.8395933604478834,3.3569764324873685
1789483196809604400,6.948604248046875,0.5382758329488336,-3.102586368615925,3.430008935472369
1789483196819653600,6.958653564453125,0.6074842476010323,-2.383227846199274,3.490353221797943
1789483196829703400,6.968703369140625,0.6118342595040798,-1.6290125299349427,3.5085318525671956
1789483196839752400,6.97875244140625,0.6193989956699312,-0.9369877854499965,3.5237095479547977
1789483196849802500,6.988802490234375,0.6258451030693948,-0.3361031553097069,3.5472412301898
1789483196859851300,6.998851318359375,0.6610521716594696,0.08676759834885597,3.5913054128438233
1789483196869901300,7.0089013671875,0.6948306687511503,0.28922800688818096,3.657737494650483
1789483196879950300,7.018950439453125,0.7736250962637364,0.3932758258618414,3.802387373125553
1789483196890000400,7.02900048828125,0.9807678174003958,0.43026393264979124,4.066112543836236
1789483196900049400,7.03904931640625,1.2349169121228158,0.3716061381064355,4.2549060999423265
1789483196910099500,7.049099365234375,1.4119630395509302,0.19132877367213366,4.206844372084737
1789483196920148500,7.0591484375,1.5264134484648704,-0.07443477099835873,3.9783763927161693
1789483196930198500,7.069198486328125,1.5546423486053942,-0.3719274790152907,3.6093601249724623
1789483196940247300,7.079247314453125,1.4771569578647612,-0.6620107875585556,3.145129333052039
1789483196950297300,7.08929736328125,1.372795250636339,-0.930098829653859,2.6429724228411913
1789483196960346400,7.099346435546875,1.3355600372195242,-1.1040309167146682,2.179768635880947
1789483196970396400,7.109396484375,1.328156482964754,-1.1646800312057137,1.7357582096904516
1789483196980445400,7.119445556640625,1.351164287456125,-1.1494044284015894,1.3230009998977184
1789483196990495500,7.12949560546875,1.3985257580898702,-1.0733037700176238,1.0498369697123766
1789483197000544300,7.139544189453125,1.4492927993834017,-1.0011085946395992,0.8215098601192236
1789483197010594300,7.14959423828125,1.5099977357149124,-0.903752089998126,0.5817243679225444
1789483197020643600,7.1596435546875,1.5172209649667143,-0.7843070876672863,0.4670300672501325
1789483197030693400,7.169693359375,1.5029904873013495,-0.6865034237802028,0.3892968392282724
1789483197040742400,7.179742431640625,1.4352736263811587,-0.6217512578845024,0.2546867087304592
1789483197050792400,7.18979248046875,1.3052899866402148,-0.5322235471725464,0.1250210488975048
1789483197060841200,7.19984130859375,1.2071453272957353,-0.3867483237892389,0.03488426637649536
1789483197070891300,7.209891357421875,1.1010907716095446,-0.26538112122416496,-0.007638532054424285
1789483197080940500,7.2199404296875,0.9758264885406941,-0.1591211791589856,0.06612813042402267
1789483197090990300,7.229990234375,0.8742974474549293,0.06538403405845165,0.18402093487679957
1789483197101039400,7.240039306640625,0.7584883904736489,0.40649902618080375,0.34866672267615795
1789483197111089400,7.25008935546875,0.5741361047506333,0.778666159170866,0.6007955636173486
1789483197121138400,7.260138427734375,0.405493356269598,1.1199226055905223,0.8832581680238246
1789483197131188500,7.2701884765625,0.20590835703611374,1.5303148398175834,1.1519307320088148
1789483197141238500,7.280238525390625,0.06726561002135277,2.0227660563111303,1.4373556933522225
1789483197151287300,7.290287353515625,-0.03437339424490928,2.4458166965812445,1.6939929516285657
1789483197161337300,7.30033740234375,-0.06171148302555084,2.7686042971134186,1.890994948631525
1789483197171386400,7.310386474609375,-0.018027751056477425,3.1231770289629694,2.0159657286465165
1789483197181436400,7.3204365234375,0.061252048820257185,3.4885178230643272,2.088220817518234
1789483197191485400,7.3304853515625,0.17888474103212357,3.8357425302386283,2.0969272710651157
1789483197201535500,7.340535400390625,0.2625941208541393,4.129523816516995,2.1297557739555835
1789483197211584300,7.350584228515625,0.3659352528631687,4.354018800601363,2.178235434964299
1789483197221634300,7.36063427734375,0.432453843909502,4.536965384244919,2.2401269507318733
1789483197231683600,7.37068359375,0.5137655880052596,4.66581505151987,2.300324522063136
1789483197241733400,7.3807333984375,0.5533704531628638,4.768737081333994,2.315875142416358
1789483197251782400,7.390782470703125,0.61927522315979,4.812044308140874,2.3437556675106284
1789483197261832400,7.40083251953125,0.6716765145916491,4.782393850764632,2.399828267866373
1789483197271881200,7.410881103515625,0.7111317421454936,4.758482229301333,2.4666560709923506
1789483197281931500,7.420931640625,0.7462954099852591,4.771850244918466,2.540596920993924
1789483197291980800,7.430980712890625,0.765434775545448,4.84196423010826,2.6548890706062314
1789483197302030800,7.44103076171875,0.8291219425581395,4.996408941888809,2.807816363561153
1789483197312079600,7.45107958984375,0.8392927695691585,5.1750920228689905,2.9769068558096885
1789483197322129700,7.461129638671875,0.7802338468790054,5.2965422275424,3.116191407859325
1789483197332179000,7.471178955078125,0.6598411153692751,5.3600061071932315,3.232512432950735
1789483197342229000,7.48122900390625,0.4667408750452101,5.362928132119775,3.332394948938489
1789483197352277800,7.49127783203125,0.2541583009421825,5.295743186119198,3.4979987681150435
1789483197362327800,7.501327880859375,0.024689181707054374,5.084225757029652,3.877576761883497
1789483197372376600,7.51137646484375,-0.1294914723098278,4.743859829708933,4.456726310881972
1789483197382426600,7.521426513671875,-0.1838881022773683,4.360363201192021,4.95285913849771
1789483197392476000,7.531475830078125,-0.09387772261500359,3.9970805086642502,5.3215206014543766
1789483197402525700,7.541525634765625,0.021321020448207852,3.624389351800084,5.673056157565116
1789483197412574700,7.55157470703125,0.1867255176603794,3.4048324086397885,5.7968163927465675
1789483197422624800,7.561624755859375,0.42364751018472013,3.465167927137017,5.770695278540253
1789483197432673800,7.571673828125,0.6631282472811639,3.802096281224489,5.522253601679205
1789483197442723800,7.581723876953125,0.8513033792279661,4.377819362905622,5.157182856690883
1789483197452772900,7.59177294921875,0.9351824165284633,4.841434653276205,4.992364050412178
1789483197462822700,7.60182275390625,0.8801509227234869,5.032856219798326,4.938006437280774
1789483197472871700,7.61187158203125,0.8893185640413314,5.1004222740709775,4.862962009951472
1789483197482921700,7.621921630859375,0.959500865226984,5.028171276852488,4.744999647393822
1789483197492970800,7.631970703125,1.0473720409035683,4.814160861903429,4.633996602454781
1789483197503020800,7.642020751953125,1.1444050126790999,4.433621914148331,4.478895472592115
1789483197513069800,7.65206982421875,1.2844776463665066,3.9457758533626794,4.316825672760605
1789483197523119600,7.66211962890625,1.458835703754425,3.4771745912730694,4.104163749811053
1789483197533169000,7.6721689453125,1.6359947900377212,3.086960052677989,3.9035628515332936
1789483197543219000,7.682218994140625,1.8156405785702168,2.7939287079840898,3.7397494229048487
1789483197553267700,7.692267822265625,1.941150433897972,2.543181676790118,3.576434006926417
1789483197563317800,7.70231787109375,2.0571710147380826,2.3238737399548293,3.3918495929479597
1789483197573366800,7.71236669921875,2.0644915668845174,2.134920609372854,3.147795921912789
1789483197583416600,7.72241650390625,2.016536222010851,2.0003309371411797,2.8409043941706416
1789483197593467000,7.732466796875,1.9291350019335745,1.8019547291755675,2.563588505002856
1789483197603516000,7.742515869140625,1.8280197292804716,1.5330495254784822,2.333982461515069
1789483197613565700,7.752565673828125,1.6939175483047961,1.210735972198844,2.1584487844765183
1789483197623614700,7.76261474609375,1.6087328352332115,0.8336462881147861,2.080833045354485
1789483197633664800,7.772664794921875,1.585859324645996,0.37730829527080056,2.0901637682795524
1789483197643713800,7.7827138671875,1.584383991396427,-0.163505093331635,2.158330126532912
1789483197653763800,7.792763916015625,1.6225146923482416,-0.7093909628927707,2.2590175291627643
1789483197663812900,7.802812744140625,1.6971078687787056,-1.2257310044959187,2.3696219301730395
1789483197673862700,7.812862548828125,1.7981857320308685,-1.72458010533303,2.51837398326993
1789483197683911700,7.82291162109375,1.9449252762615679,-2.219922659353912,2.6523545836925506
1789483197693962000,7.8329619140625,2.0963667145729064,-2.6794638321533797,2.770357862782478
1789483197704010800,7.8430107421875,2.266526881879568,-3.0325568468391895,2.831578347420692
1789483197714060800,7.853060791015625,2.3892379002690314,-3.2263010110899804,2.786203082168102
1789483197724109800,7.86310986328125,2.412175708264112,-3.3489310731977224,2.644893746292591
1789483197734159600,7.87315966796875,2.3707483038544654,-3.398215620848536,2.445493455976248
1789483197744209000,7.883208984375,2.26529237164855,-3.3361940489605066,2.237602985212207
1789483197754259000,7.893259033203125,2.101249810439348,-3.2135926284253595,2.03151342639029
1789483197764307700,7.9033076171875,1.9820377400815485,-3.052270432090759,1.7826468021154402
1789483197774357800,7.913357666015625,1.9548212318539617,-2.900492601431906,1.5761550922334193
1789483197784406800,7.92340673828125,1.93606275537014,-2.765253233119845,1.4213093984365461
1789483197794456800,7.933456787109375,1.927851391863823,-2.659429928906262,1.2682920891106129
1789483197804505900,7.943505859375,1.8574772944331168,-2.585475342640281,1.1473042412519454
1789483197814556000,7.953555908203125,1.7948467968665063,-2.5842200818821786,1.022647934013605
1789483197824604700,7.963604736328125,1.752518205833435,-2.60362240922749,0.8443395315647124
1789483197834654700,7.97365478515625,1.6638777993500231,-2.6831378444910046,0.6697709001660347
1789483197844703700,7.983703857421875,1.5696777129128574,-2.882052981638908,0.49105450143814083
1789483197854753800,7.99375390625,1.464779122328758,-3.2104768344923853,0.35931846507191656
1789483197864802800,8.003802734375,1.4314241113461552,-3.545652207432687,0.2032172182559967
1789483197874852900,8.013852783203125,1.4136452935494481,-3.8014579833209514,0.003418284010887146
1789483197884902700,8.023902587890625,1.4189631275713444,-4.009126920288801,-0.20880466299951075
1789483197894952000,8.033951904296876,1.4336943943656981,-4.2150364463686945,-0.39981764872074127
1789483197905002000,8.044001953125,1.464002731128782,-4.431266290932894,-0.5901748008817433
1789483197915050800,8.05405078125,1.4920901769720016,-4.599817269477248,-0.8065542830497026
1789483197925100800,8.064100830078125,1.511074425035715,-4.701006484149396,-1.1053221255689858
1789483197935149600,8.074149658203124,1.48762223777771,-4.824432080549001,-1.385396958056092
1789483197945199600,8.08419970703125,1.3998400555588304,-4.970636202728748,-1.5886135917901991
1789483197955249000,8.094248779296874,1.339921885690838,-5.091098565408587,-1.802580752119422
1789483197965299000,8.104298828125,1.3014905943572521,-5.16526445633769,-2.06081317063272
1789483197975347700,8.11434765625,1.2457961796641348,-5.209409887534379,-2.3504180480092765
1789483197985397800,8.124397705078126,1.168981820052862,-5.265868272337317,-2.609710204708576
1789483197995446800,8.13444677734375,1.1136604764558373,-5.350047023236751,-2.8320792826801537
1789483198005496800,8.144496826171874,1.0734243276573716,-5.434712680870295,-3.018489158520102
1789483198015545900,8.1545458984375,0.9998292223535478,-5.495179132270812,-3.137283295726776
1789483198025595600,8.164595703125,0.9349790029108523,-5.504318716537952,-3.172442287391424
1789483198035644700,8.174644775390625,0.8577950793348252,-5.523424399024248,-3.1336732885360714
1789483198045694700,8.18469482421875,0.7196971067212522,-5.607378693518042,-3.1072949846982953
1789483198055743700,8.19474365234375,0.5666975522477179,-5.707594386982917,-3.093986590313911
1789483198065793800,8.204793701171875,0.43236485045179723,-5.782293361875414,-3.1316467511445283
1789483198075842800,8.2148427734375,0.3315712840337306,-5.810477838352322,-3.163277568683028
1789483198085892600,8.224892578125,0.24115853411555288,-5.828751746189594,-3.166682993212342
1789483198095942000,8.23494189453125,0.17791808795705435,-5.908042140525579,-3.1492069577544926
1789483198105992000,8.244991943359375,0.10592691071853041,-6.037320846867561,-3.080799191960692
1789483198116040700,8.255040771484374,0.041863457739353176,-6.174197753253579,-2.9267122075766325
1789483198126090800,8.2650908203125,-0.030160160464048385,-6.320886444079876,-2.6236843695253134
1789483198136140800,8.275140869140625,-0.14636793443933127,-6.49270197737813,-2.119115137475729
1789483198146189600,8.285189453125,-0.34232056851983067,-6.766741036832332,-1.3866642015129327
1789483198156240000,8.295239990234375,-0.4868295772194862,-7.092471705079078,-0.5981178688406944
1789483198166289000,8.305288818359376,-0.5172457582712173,-7.457407425510883,0.19960019680261612
1789483198176338700,8.315338623046875,-0.48182482773475344,-7.816078240329027,0.8646575124502182
1789483198186387700,8.3253876953125,-0.2974934386692941,-8.006873199385405,1.2701572984606027
1789483198196437800,8.335437744140625,-0.07297521983981133,-8.048443811658025,1.4662725757569073
1789483198206486800,8.34548681640625,0.23693375602737068,-8.004041775351762,1.483839796629548
1789483198216536800,8.355536865234376,0.5847723573163152,-7.8748028164982795,1.4711720382362603
1789483198226585900,8.3655859375,0.8974551818110048,-7.633257328891753,1.5512965453088283
1789483198236635600,8.3756357421875,1.1783167807616293,-7.206423078429698,1.5617308455616234
1789483198246684700,8.3856845703125,1.346701170567423,-6.640292000958323,1.5042577307581901
1789483198256735000,8.39573486328125,1.4863012183070181,-5.998586919325589,1.4339146129876374
1789483198266783700,8.40578369140625,1.4934253710985184,-5.230723893719912,1.4403221419423817
1789483198276833800,8.415833740234374,1.3528747446358202,-4.370649617406726,1.374317345637083
1789483198286883000,8.425883056640625,1.1045640006780624,-3.515530625413358,1.303234807676077
1789483198296933000,8.43593310546875,0.8038308494351804,-2.6894270077630877,1.2754706024378537
1789483198306982100,8.445982177734376,0.4181716360569,-1.851406450086832,1.2590046208053827
1789483198317032200,8.4560322265625,-0.09809329448342323,-1.0815475744888186,1.193458089661598
1789483198327081200,8.466081298828126,-0.5026573340136558,-0.4609072004556656,1.1316051523387431
1789483198337131300,8.47613134765625,-0.7863888623774051,-0.02527209616154432,1.1533446904599667
1789483198347180000,8.486179931640624,-0.965051558156684,0.15673749889284372,1.346170863083005
1789483198357230000,8.49622998046875,-0.9390076008398085,0.0808601278707385,1.7341157031804322
1789483198367279000,8.506279052734374,-0.7431156109053642,-0.18417729448229073,2.2211481094956396
1789483198377329200,8.5163291015625,-0.5508453185994178,-0.4936445179313421,2.6023107421070337
1789483198387379200,8.526379150390625,-0.26920279840417205,-0.871534120221436,2.9534020615816114
1789483198397428000,8.536427978515626,0.08583229026012122,-1.317977034255862,3.338355318647623
1789483198407478000,8.54647802734375,0.4865197806179523,-1.7143325598239898,3.69629255849421
1789483198417527300,8.55652734375,0.9973511418022215,-1.967932057839632,3.8285447276890276
1789483198427577300,8.566577392578125,1.4446516955792903,-1.9547882063671946,3.643397419130802
1789483198437626000,8.576626220703124,1.8777530436120926,-1.7260487165808676,3.4576550672888753
1789483198447676200,8.58667626953125,2.225597490119934,-1.3789581571802496,3.2754625168830156
1789483198457725000,8.596724853515624,2.4384556662939487,-0.9262111745655536,3.1518980965346097
1789483198467775200,8.606775146484376,2.4840286460757253,-0.4069268962040543,2.9812574522346256
1789483198477824300,8.61682421875,2.4035109019018708,0.08721563437730073,2.81007846327424
1789483198487874300,8.626874267578126,2.1996599157869814,0.5563502726912498,2.7036329355090856
1789483198497923000,8.636923095703125,1.9510406904019415,0.9749570852950215,2.577564423385262
1789483198507973000,8.64697314453125,1.7223077764868735,1.2958970121338962,2.4608687197625634
1789483198518022100,8.657022216796875,1.5090648387789725,1.4945140431180595,2.4408628735661506
1789483198528072200,8.667072265625,1.3267816874802112,1.6055454373687505,2.4777637404620645
1789483198538121200,8.677121337890625,1.1959225800789892,1.7083201676666735,2.478876670140028
1789483198548171000,8.6871708984375,1.058150697614625,1.8640145872473715,2.461220017418265
1789483198558220000,8.697219970703125,0.9267501037478446,2.0586501473799346,2.375038694524765
1789483198568270000,8.70727001953125,0.8435480889260768,2.195567093515396,2.2600778518706557
1789483198578319000,8.717319091796876,0.7433983003042638,2.3373212505489587,2.1744985865235327
1789483198588369200,8.727369140625,0.703148269110918,2.4996464864462613,2.0250462762027976
1789483198598418200,8.737418212890624,0.7057518757380544,2.651322318035364,1.864593848440051
1789483198608468000,8.747468017578125,0.7563175492405891,2.7220553119063378,1.6606073993772268
1789483198618517200,8.757517333984374,0.8569042679749429,2.6714912458389994,1.4877835658192633
1789483198628567300,8.7675673828125,1.0245910309053956,2.5603748036533593,1.3958183988273143
1789483198638616000,8.777615966796875,1.2343982950761914,2.4578695379465816,1.3308154730409383
1789483198648666000,8.787666015625,1.437110194158554,2.454204001176357,1.2057564302206039
1789483198658715100,8.797715087890625,1.6090334256149827,2.4939187564492222,1.0926438457816838
1789483198668765200,8.80776513671875,1.7038707870423793,2.577757315608859,0.9594833295702934
1789483198678815200,8.817815185546875,1.7828550380386412,2.7061978175610304,0.778843269303441
1789483198688864300,8.8278642578125,1.8554139321625231,2.897290298259258,0.683103259947896
1789483198698914000,8.8379140625,1.958120273399353,3.0786914060264823,0.6456611257821321
1789483198708963000,8.847963134765624,2.048143658673763,3.2938907384991643,0.5956412495940924
1789483198719013000,8.85801318359375,2.1088602854430674,3.499056752735376,0.5826444053769111
1789483198729062100,8.868062255859375,2.1741279996454717,3.695009532946348,0.5810293713957071
1789483198739112200,8.8781123046875,2.1598295713104307,3.873964416605234,0.5644008926779032
1789483198749161200,8.8881611328125,2.113103914362192,4.080350328025221,0.6266758548051119
1789483198759211000,8.8982109375,2.037823340189457,4.227972500309348,0.7731447654008865
1789483198769260300,8.90826025390625,1.9527930870272219,4.289907270696759,0.9959241777390241
1789483198779310300,8.918310302734374,1.853668549799919,4.277416037914157,1.237977614867687
1789483198789359000,8.928359130859375,1.7299090452708303,4.311796446421742,1.4567249952107668
1789483198799409200,8.9384091796875,1.6278618985950946,4.411459182178974,1.6741858428746461
1789483198809458200,8.948458251953125,1.533233503743261,4.529555400249362,1.87089967058599
1789483198819508000,8.958508056640625,1.4568914378188549,4.6507092523247,2.0702830097675324
1789483198829557200,8.96855712890625,1.3916354140542446,4.8084728793948885,2.2679040154516694
1789483198839607300,8.978607177734375,1.3381506382346153,4.94256570802033,2.478895374840498
1789483198849656000,8.988656005859376,1.2872890505254269,5.0542427066981785,2.6469816584825514
1789483198859706000,8.9987060546875,1.2586895635068416,5.180391298320889,2.8807641108721493
1789483198869755400,9.00875537109375,1.1546842685006558,5.205985758304595,3.225393540856242
1789483198879805200,9.01880517578125,0.9860720612883567,5.033037421584129,3.7723967240095138
1789483198889854200,9.028854248046875,0.7849147712368517,4.66512531569004,4.356528153073787
1789483198899904300,9.038904296875,0.6684919662714004,4.203267682641744,4.815903906178474
1789483198909953000,9.048953125,0.6761656427044421,3.7438960211902854,5.243976174002886
1789483198920003000,9.059003173828126,0.783224260866642,3.3560569795548916,5.759517466443777
1789483198930052000,9.069052001953125,0.9724353847976773,3.109968587821722,6.188152044326067
1789483198940102100,9.07910205078125,1.3241631755448877,3.117532301074266,6.409011886778473
1789483198950151200,9.089151123046875,1.6589445807315408,3.347749169936776,6.513221618315577
1789483198960201200,9.099201171875,1.9544576592385767,3.7573850328385827,6.42576603770256
1789483198970250200,9.109250244140625,2.2519547511696816,4.163344253054261,6.176631117880344
1789483198980300300,9.11930029296875,2.3887901565015315,4.380772367492318,5.842005780038237
1789483198990349000,9.12934912109375,2.3759822589851916,4.420606365230679,5.370410596829652
1789483199000399000,9.139399169921875,2.309373505437374,4.343701404726505,4.802143091851472
1789483199010448100,9.1494482421875,2.108279270684719,4.066053507125377,4.057353483319282
1789483199020498000,9.159497802734375,1.8779530962288378,3.58892407066524,3.2616941037714478
1789483199030547200,9.169547119140624,1.6967349438130854,3.1066081714779137,2.602547473472357
1789483199040597200,9.17959716796875,1.6071382595181465,2.6079244903355834,2.0161469304323196
1789483199050647300,9.189647216796875,1.6052584371209144,2.0643799232035875,1.5857821677565573
1789483199060696000,9.199696044921875,1.6996517080426214,1.5127449885964392,1.3712094427496193
1789483199070746000,9.20974609375,1.8152724759101866,0.9539835631102322,1.246001346847415
1789483199080795100,9.219795166015626,1.9453192440152167,0.434986577257514,1.2171984462112189
1789483199090845200,9.22984521484375,2.090475902968645,-0.052930502937734124,1.3223831602603195
1789483199100894200,9.239894287109376,2.203942123150825,-0.5284305846303701,1.494235518437624
1789483199110944300,9.2499443359375,2.2186159606695175,-1.012868006016314,1.5705460201799868
1789483199120993000,9.259992919921874,2.1774702958106995,-1.5010489978447557,1.56235277685225
1789483199131043000,9.27004296875,2.1017618516147136,-1.9290923318356274,1.5946972956180572
1789483199141092000,9.280092041015624,2.091814458096027,-2.264547690761089,1.6356114898085594
1789483199151142100,9.29014208984375,2.1358172659516335,-2.5013655653238294,1.6525865900069474
1789483199161191200,9.300191162109375,2.1583903322875497,-2.688586757546663,1.6830799279481172
1789483199171241000,9.310240966796876,2.173431249552965,-2.750719680854678,1.8267507322579621
1789483199181290200,9.320290283203125,2.220920145958662,-2.7113457018435,2.033952636235952
1789483199191340300,9.33034033203125,2.2149287965893745,-2.550397307257354,2.2744284487843514
1789483199201389000,9.34038916015625,2.11307001209259,-2.3239885985061526,2.517845575481653
1789483199211439000,9.350439208984374,2.0627298179090023,-2.054838772398233,2.6836884641110896
1789483199221488000,9.360488037109375,1.9553566539049148,-1.796804506805539,2.9057343014776706
1789483199231538200,9.3705380859375,1.8285984059512614,-1.4833271709322928,3.100800361981988
1789483199241587200,9.380587158203125,1.7252034979283808,-1.2093395494043826,3.2466502638965844
1789483199251637200,9.39063720703125,1.5933739380598066,-1.042881451486051,3.334718423449993
1789483199261686000,9.40068603515625,1.4435972180902956,-0.9976339042663573,3.2875118511170145
1789483199271736000,9.410736083984375,1.3248363986313343,-1.0396611742652953,3.1549791114151478
1789483199281785300,9.420785400390624,1.2267594707608223,-1.187842149475962,2.978762712809443
1789483199291835100,9.430835205078125,1.250334553746134,-1.4084883491776883,2.7721400700241325
1789483199301884200,9.44088427734375,1.3312509418487548,-1.660299794732779,2.5686919656217095
1789483199311934000,9.450933837890625,1.4171733215451239,-1.9210152622334657,2.373792493855953
1789483199321983000,9.46098291015625,1.5181412946820259,-2.1797958161488173,2.1712802089989185
1789483199332033300,9.471033203125,1.6131845539450644,-2.4277500017538665,2.014993668743968
1789483199342082000,9.48108203125,1.7428852850914,-2.6722695367351172,1.9041998826414346
1789483199352132000,9.491132080078126,1.9250036012172698,-2.8754914311662314,1.8676333622664212
1789483199362181000,9.50118115234375,2.17899823603034,-3.0218758783489466,1.8274942441016435
1789483199372231000,9.51123095703125,2.335258618930727,-3.2895524170339105,1.6792612464427947
1789483199382280200,9.5212802734375,2.416790070191771,-3.6197803966999054,1.3255115214139221
1789483199392330200,9.531330322265624,2.3608020793795585,-3.9038244250789282,0.9405161787718533
1789483199402379000,9.54137890625,2.1770916717566546,-4.170586187006533,0.5461123717933893
1789483199412429000,9.551428955078125,1.9431798938989637,-4.414154997134208,0.1680418599784374
1789483199422478000,9.56147802734375,1.670719043546915,-4.577266999495029,-0.2143663887798786
1789483199432528100,9.571528076171875,1.4242448673665522,-4.695112165413796,-0.5751163479596376
1789483199442577200,9.5815771484375,1.1642986306726932,-4.745086741155386,-0.890016410112381
1789483199452627200,9.591627197265625,0.9683400052428245,-4.791793547272682,-1.1957400631189345
1789483199462676000,9.601676025390624,0.7659001280348747,-4.824062954975664,-1.4963935732543467
1789483199472726000,9.61172607421875,0.6305553996521979,-4.853120414894819,-1.7961954349964857
1789483199482775000,9.621775146484374,0.5484708445530384,-4.883752869045734,-2.067323575440049
1789483199492825000,9.6318251953125,0.5558066673338413,-4.960521635949611,-2.2835738782703876
1789483199502874000,9.6418740234375,0.621765359475091,-5.045491829487681,-2.4483412466228005
1789483199512924000,9.651923828125,0.7087853982150554,-5.100234058022499,-2.5238860246896744
1789483199522973200,9.66197314453125,0.7479787599623203,-5.146059405130147,-2.5340198806911705
1789483199533023200,9.672023193359376,0.7720131310224533,-5.275209516656399,-2.5741063918858766
1789483199543072000,9.682072021484375,0.7177462649144232,-5.388790303128958,-2.6313188099265097
1789483199553122000,9.6921220703125,0.6875999868452548,-5.468814856958389,-2.697287365874648
1789483199563171000,9.702171142578125,0.640563364251703,-5.562987178605795,-2.792898195892572
1789483199573220900,9.712220947265624,0.6211771112583577,-5.590369691050053,-2.9017987155944107
1789483199583270100,9.722270263671875,0.5946328032039105,-5.651504835492372,-2.9952772097587586
1789483199593320200,9.7323203125,0.5614600169204175,-5.760298387688398,-3.1129069793611763
1789483199603369000,9.742368896484376,0.5461201167084276,-5.810634490218758,-3.185581170427799
1789483199613419000,9.7524189453125,0.5362706306062639,-5.881048919659853,-3.2105414241611956
1789483199623468300,9.76246826171875,0.5014753576874733,-5.941492574706674,-3.2119723337471484
1789483199633518000,9.77251806640625,0.46668797581419347,-6.0028831552147865,-3.1255946114987134
1789483199643567000,9.782567138671874,0.3403624932546168,-6.151772570955753,-2.874940519285202
1789483199653617200,9.7926171875,0.16514511562362313,-6.420985817688703,-2.4731559544056654
1789483199663666000,9.802666015625,-0.03917567996010184,-6.691128454226255,-2.01905492683351
1789483199673716000,9.812716064453125,-0.29057744873575864,-7.019091411569714,-1.5980419298708437
1789483199683765200,9.82276513671875,-0.4543700537718832,-7.408762929329276,-1.2223761411100624
1789483199693815000,9.83281494140625,-0.572635052537918,-7.870738051277399,-0.9137439071804284
1789483199703864000,9.842864013671875,-0.6345743529699742,-8.289370290583372,-0.7250462126642465
1789483199713914000,9.8529140625,-0.5826620140988379,-8.532511522948742,-0.5783130981743335
1789483199723963100,9.862963134765625,-0.49007959199137985,-8.648817350471019,-0.4275122958540916
1789483199734013200,9.87301318359375,-0.3142283734362572,-8.551653445792198,-0.368458049339056
1789483199744062200,9.883062255859375,-0.07678973662666976,-8.308963464325666,-0.3454448380202055
1789483199754112000,9.893112060546875,0.128314245223999,-7.909327601912617,-0.2190291198939085
1789483199764161000,9.9031611328125,0.06196523859091103,-7.30105074262917,0.2068120278775692
1789483199774211000,9.913211181640625,-0.1289643066305667,-6.421834543472528,0.6647364131301641
1789483199784260000,9.923260009765626,-0.23150800465159116,-5.506733376464247,0.7810340573459863
1789483199794310100,9.93331005859375,-0.28818909229449924,-4.793790858569741,0.8697627266347407
1789483199804359000,9.94335888671875,-0.39665187816619873,-4.3004514610648155,1.0582347957015037
1789483199814409000,9.953408935546875,-0.45308973163776095,-3.8134102869212625,1.274915891164541
1789483199824458200,9.963458251953124,-0.5278968430798501,-3.3473253915667533,1.3924720110088586
1789483199834508300,9.97350830078125,-0.6139630882263183,-2.891637679325044,1.426496445685625
1789483199844557000,9.98355712890625,-0.6463689817905426,-2.455248834054172,1.5426421142101288
1789483199854607000,9.993607177734376,-0.6643207450013607,-2.0541120655588805,1.6794342649221419
1789483199864656000,10.00365576171875,-0.5239326886892318,-1.663706534436345,1.8635726886987685
1789483199874706000,10.013705810546876,-0.31524785267710687,-1.3883654524728655,2.1462644256860015
1789483199884755200,10.023755126953125,-0.10122143644131719,-1.275438453733921,2.491588267675042
1789483199894805000,10.033804931640624,0.05756722282767295,-1.3063020862922072,2.8878222126901147
1789483199904854000,10.04385400390625,0.23271672285422682,-1.4239448615066705,3.295159150999784
1789483199914904000,10.053904052734374,0.4163910362504422,-1.5198036749362944,3.566343990066647
1789483199924953000,10.063953125,0.6502011072993278,-1.6171974428482352,3.7530829517304896
1789483199935003100,10.074003173828125,0.8988998276613652,-1.7209034626469015,3.925509310403466
1789483199945052200,10.08405224609375,1.127187335896492,-1.873029083830118,3.977065894639492
1789483199955102000,10.09410205078125,1.3270399000249802,-2.006013366691768,3.9052287389189004
1789483199965151000,10.10415087890625,1.5556464110814034,-2.0166721233502027,3.727482646527886
1789483199975201000,10.114200927734375,1.7836508645914495,-1.8431687830954788,3.49824777444005
1789483199985250000,10.12425,1.9695161121606826,-1.547770124748349,3.2532553612500426
1789483199995300000,10.134300048828125,2.0702514455854892,-1.1963935585916041,2.990647211870551
1789483200005349000,10.14434912109375,2.0955624124526975,-0.7942427907481789,2.713853300750255
1789483200015399000,10.15439892578125,2.0235775188244878,-0.42859833752512927,2.4149574479371307
1789483200025448200,10.1644482421875,1.9299755444109439,-0.08972527911067009,2.1596423781752585
1789483200035498200,10.174498291015626,1.867498483840376,0.21665333067327736,1.9105220714002846
1789483200045547000,10.184547119140625,1.7347195142924785,0.4781655015096068,1.6543600294202565
1789483200055597000,10.19459716796875,1.5482359886944292,0.7289987496823072,1.4423194532394408
1789483200065646000,10.20464599609375,1.3027286117196082,0.9117056793510914,1.3284160106837748
1789483200075695900,10.21469580078125,1.1282896711152046,1.0427420430153607,1.2840782717853785
1789483200085745200,10.2247451171875,1.0112954229373485,1.1731553063452242,1.2208961316853761
1789483200095795200,10.234795166015624,0.9512392328381538,1.2953218425944446,1.1745604969680308
1789483200105844000,10.244843994140625,0.8966308598160743,1.4664733590260146,1.2132505853682756
1789483200115894000,10.25489404296875,0.8251181137442588,1.6049088930308817,1.2717226480811834
1789483200125943300,10.264943359375,0.6946692676443607,1.7439081983983515,1.1843629290580748
1789483200135993000,10.2749931640625,0.5707715967535972,1.9164348025754092,1.1500047323822975
1789483200146042000,10.2850419921875,0.45811208984442053,2.0185709427088496,1.171077915549278
1789483200156092200,10.295092041015625,0.36922603803686793,2.0869445139721035,1.2486819642335176
1789483200166141000,10.305140869140626,0.3690623719077557,2.1218290726095437,1.3311147482484578
1789483200176191000,10.31519091796875,0.4045275799773633,2.198421898424625,1.373280403804779
1789483200186240000,10.325239990234374,0.5183598569929599,2.3081267202466726,1.4855074375808237
1789483200196290000,10.3352900390625,0.6327110433161258,2.4308318934172393,1.6607757416814564
1789483200206339000,10.345339111328125,0.7385586051881313,2.614343125206232,1.7337404401272534
1789483200216389000,10.35538916015625,0.8424887891314923,2.85323546795547,1.7657734087258576
1789483200226438100,10.365438232421875,0.9309387876093387,3.1316333071410654,1.8616379212439058
1789483200236488200,10.37548828125,1.0203856881700455,3.335201823052764,1.882695322319865
1789483200246537000,10.385536865234375,1.07666827801466,3.486859534463286,1.8772820650994777
1789483200256587000,10.3955869140625,1.1632967601537705,3.647752107208967,2.041310597783327
1789483200266636000,10.405635986328125,1.2434195136606692,3.794386437499523,2.1234031900584696
1789483200276686000,10.41568603515625,1.2647194913208484,3.975973423227668,2.166485960459709
1789483200286734600,10.425734619140625,1.3359960905492305,4.132766159439087,2.289236726337671
1789483200296784600,10.43578466796875,1.3867862204574049,4.2530239394575355,2.381027121284604
1789483200306833700,10.445833740234375,1.3959446555554866,4.430518102914094,2.4281927770853042
1789483200316883500,10.455883544921875,1.46310169063583,4.6233501207560295,2.5027006133198735
1789483200326932700,10.4659326171875,1.5131928784944115,4.817849195027351,2.617566178905964
1789483200336982800,10.475982666015625,1.567894482757896,4.994398771110177,2.766870605188608
1789483200347031600,10.486031494140626,1.5907260538995265,5.160417600828409,2.8886007958471773
1789483200357081600,10.49608154296875,1.6112322508335113,5.319713259771466,3.002497224140167
1789483200367131000,10.506130859375,1.598113095410913,5.449533233383297,3.0672628340393304
1789483200377180700,10.5161806640625,1.5622748893104492,5.584474787792563,3.18293094817996
1789483200387229700,10.526229736328125,1.462181507050991,5.679293006128073,3.3268794003874063
1789483200397279700,10.53627978515625,1.2385060226559639,5.624256178560852,3.6128228326469656
1789483200407328500,10.54632861328125,1.0024049180604517,5.304546670299768,4.1261984714865685
1789483200417378600,10.556378662109376,0.8050643367528915,4.831789457574486,4.610138757005334
1789483200427427800,10.566427734375,0.7048562420725822,4.3408495224267245,4.964043964856863
1789483200437477600,10.5764775390625,0.6681086660422384,3.921623993402719,5.207163569912314
1789483200447526700,10.586526611328125,0.7098468899667263,3.6335260134577747,5.40695139824152
1789483200457576700,10.59657666015625,0.8431329322539269,3.539525541245937,5.565975839027762
1789483200467625700,10.606625732421875,0.881794379081577,3.6436966943383213,5.668662306520343
1789483200477675800,10.61667578125,0.9555272854208946,3.8783120904207227,5.68123654141128
1789483200487724500,10.626724609375,1.0574071127057074,4.234592210710049,5.721116716378927
1789483200497774600,10.636774658203125,1.0697228427909313,4.4562090090096,5.755697031372785
1789483200507823600,10.64682373046875,1.0622105674646793,4.532883083367348,5.684905000790954
1789483200517873700,10.656873779296875,1.1144202087819575,4.456649153992533,5.519924281948804
1789483200527922700,10.666922607421874,1.1898493245799093,4.249097121402621,5.203960974478721
1789483200537972700,10.67697265625,1.2605812224723398,3.924142113703489,4.8024610717594625
1789483200548021500,10.687021484375,1.3642694143533707,3.5321430297791956,4.386138278439641
1789483200558071600,10.697071533203125,1.4810077880740165,3.1660973022788763,3.9455981587082145
1789483200568120800,10.707120849609375,1.6531015537917613,2.8541759636759756,3.562641043895483
1789483200578170600,10.717170654296876,1.84029468896389,2.6464947517484423,3.2542887959510085
1789483200588219600,10.7272197265625,1.9763047493875026,2.4713556269854307,2.9879490588277577
1789483200598269700,10.737269775390626,2.053666221487522,2.320444350028038,2.761283160445094
1789483200608318500,10.747318359375,2.0305261689186094,2.1565625323385,2.572352241694927
1789483200618368500,10.757368408203124,1.908303810828924,1.934156629487872,2.3968244098752733
1789483200628417800,10.767417724609375,1.7420915043652057,1.6796961307287215,2.207609413486719
1789483200638467600,10.777467529296874,1.5484616141438483,1.3478069398522377,2.0222569377452135
1789483200648516600,10.7875166015625,1.3705471794486046,0.9841738264515996,1.854381081983447
1789483200658566700,10.797566650390625,1.294636490678787,0.577819761699438,1.7216408370107412
1789483200668615700,10.80761572265625,1.2734569245278835,0.19099457328170538,1.6151315963596105
1789483200678665700,10.817665771484375,1.3074386891067027,-0.1821343904778361,1.5453472815155982
1789483200688714800,10.82771484375,1.3405378256320952,-0.5510194330573082,1.5759323893934487
1789483200698764500,10.8377646484375,1.3899053753912447,-0.9850605461582541,1.6685633268177509
1789483200708813600,10.8478134765625,1.4629530759453773,-1.4672332374826074,1.8326620021283626
1789483200718863600,10.857863525390625,1.5402794767320156,-1.9811364073276518,2.00173028254509
1789483200728912600,10.86791259765625,1.6646084517121313,-2.4271549584701657,2.1874369785517453
1789483200738962700,10.877962646484375,1.792425853329897,-2.782638959945738,2.3414222561269997
1789483200749011700,10.88801171875,1.9530220734775066,-3.0783672886386513,2.452605918329954
1789483200759061500,10.8980615234375,2.1121932292580605,-3.2375416592895983,2.4725883836507796
1789483200769110800,10.90811083984375,2.215544882661104,-3.2820211447462437,2.429230303439498
1789483200779160800,10.918160888671874,2.2500281670212745,-3.2018282486125824,2.3254613014072176
1789483200789209600,10.928209716796875,2.2128993365883827,-3.051179421983659,2.14781516225934
1789483200799259600,10.938259765625,2.155879226249456,-2.855076127386093,1.925057377231121
1789483200809308700,10.94830859375,2.071738469272852,-2.684959799221158,1.6935919696122408
1789483200819358500,10.9583583984375,1.991656632298231,-2.5910069655433294,1.4820610965192318
1789483200829407700,10.96840771484375,1.9735738631188868,-2.5431717399179936,1.2642957129508257
1789483200839457800,10.978457763671875,1.99557526704669,-2.513216746637225,1.0707248594403267
1789483200849506600,10.988506591796876,2.0520028183199464,-2.5693022064745423,0.8922942919164896
1789483200859556600,10.998556640625,2.1298753086820246,-2.650134569555521,0.6701578536570072
1789483200869605600,11.008605712890626,2.138379663785547,-2.7771646201878784,0.4777928688049316
1789483200879655700,11.01865576171875,2.162103215330839,-2.9706191538423297,0.2672393163114786
1789483200889704700,11.02870458984375,2.108413710719347,-3.225055979464948,0.06078326226472854
1789483200899754800,11.038754638671875,2.119394392808527,-3.5147809760898348,-0.15156184982061385
1789483200909803500,11.048803466796874,2.091759659168869,-3.732048347008228,-0.4291524642765522
1789483200919853600,11.058853515625,2.039580266859382,-3.900418708288669,-0.7725964838683604
1789483200929902600,11.068902587890625,1.9732957768298685,-4.067506044021249,-1.0179840338557957
1789483200939952600,11.07895263671875,1.8514545270122587,-4.264325085672736,-1.2694435972332954
1789483200950001700,11.089001708984375,1.6640670383118092,-4.474464504407346,-1.521688173508644
1789483200960051500,11.099051513671874,1.4838449111960827,-4.671453934189677,-1.7426351097226143
1789483200970100700,11.109100830078125,1.342311118914932,-4.862969608736038,-1.9659061049699782
1789483200980150800,11.11915087890625,1.2742964440919458,-5.073471138781309,-2.122625191423297
1789483200990199600,11.129199462890625,1.241913931403309,-5.260002595174313,-2.2793407707452773
1789483201000249600,11.13924951171875,1.2965619057834148,-5.3894578271269795,-2.4241747736155985
1789483201010298600,11.149298583984375,1.4043524184167384,-5.540103731146455,-2.5151632045298813
1789483201020348700,11.1593486328125,1.547242301481962,-5.5678609221220015,-2.6546558463722465
1789483201030397700,11.169397705078126,1.5793641174077986,-5.532234312945604,-2.7885242185920474
1789483201040447700,11.17944775390625,1.7140987510681152,-5.4318871020555495,-2.902375638699531
1789483201050496500,11.18949658203125,1.775286502480507,-5.307506689149141,-2.938965539950132
1789483201060546600,11.199546630859375,1.6554840650141238,-5.266158779716491,-2.9510429312348365
1789483201070595800,11.209595947265624,1.4941910947740078,-5.251805260193348,-2.952542814403772
1789483201080645600,11.219645751953125,1.3103424477241932,-5.295251603209972,-2.95724704657197
1789483201090694700,11.229694580078124,1.1138462813515215,-5.3955818629652255,-2.952546906057
1789483201100744700,11.23974462890625,0.9850935716450214,-5.439114715221524,-2.928530655175447
1789483201110793500,11.24979345703125,0.8705202670037746,-5.406325959819555,-2.8930583597779274
1789483201120843800,11.25984375,0.7585586061656474,-5.3270116000860925,-2.8400603445619343
1789483201130892800,11.269892822265625,0.6245617852605879,-5.25467292458415,-2.7535551965415475
1789483201140942600,11.279942626953124,0.487693500572443,-5.207341849088668,-2.6469448336035013
1789483201150991600,11.28999169921875,0.3325532808084041,-5.2630467851758,-2.458316697192192
1789483201161041700,11.300041748046874,0.182795265539363,-5.388168371838331,-2.1318220588356254
1789483201171090700,11.310090576171875,0.011578282656148076,-5.586928026163577,-1.6114876868993042
1789483201181140700,11.320140625,-0.1882465897478163,-5.81788723782599,-1.0563491280853747
1789483201191189800,11.330189697265626,-0.4921451462190598,-6.0628171071738,-0.43226504333913324
1789483201201239600,11.340239501953125,-0.7629905972637235,-6.502229099658131,0.39800037016570566
1789483201211288600,11.35028857421875,-0.9678374625481665,-7.052139694690704,1.0174106178820133
1789483201221338600,11.360338623046875,-0.7625019369639456,-7.442443665134906,1.3956085554689168
1789483201231387600,11.3703876953125,-0.5971558919407427,-7.702947535711527,1.5838579216957092
1789483201241437700,11.380437744140625,-0.40932431273460385,-7.6712956753849975,1.5379291142135858
1789483201251486500,11.390486572265624,-0.0919686741232872,-7.365794725218414,1.5038777915298938
1789483201261536500,11.40053662109375,0.20073891850896178,-6.968942356044054,1.6039888555765152
1789483201271585800,11.410585693359375,0.4617440896712243,-6.491662697458267,1.7501918087124824
1789483201281635800,11.4206357421875,0.6337501771055162,-5.844504611116648,1.8418401648402214
1789483201291684900,11.430684814453125,0.6160987850807607,-5.1018929311454295,1.861018328040838
1789483201301735000,11.44073486328125,0.500771739462763,-4.257618866032362,1.8023001816123723
1789483201311783700,11.45078369140625,0.33141090584024785,-3.3985534745007753,1.7028519653886556
1789483201321833700,11.460833740234374,0.1729017210997641,-2.572244105145335,1.5471113685786724
1789483201331882800,11.4708828125,-0.016440335734561086,-1.7547814745903014,1.409297473603487
1789483201341932800,11.480932861328125,-0.26395481474809346,-1.0021573730401694,1.2617068655014037
1789483201351981800,11.49098193359375,-0.49848603967837984,-0.2711357392281294,1.1457371380656958
1789483201362031900,11.501031982421875,-0.7169242810070514,0.38235461887493727,1.0922644910752772
1789483201372081000,11.511080810546876,-0.8651625393629073,0.9281558788925409,1.0465484495609998
1789483201382131000,11.521130859375,-0.9075801238536835,1.328452104910463,1.048978307056427
1789483201392179700,11.5311796875,-0.8468424542963504,1.5721179456718266,1.1617015999168157
1789483201402229800,11.541229736328125,-0.7468214066207408,1.580351667140424,1.371377785053849
1789483201412278800,11.55127880859375,-0.6557282732229679,1.2866606894940138,1.6676666702389715
1789483201422328800,11.561328857421875,-0.5240378295641392,0.8348547871217131,1.8953619116693734
1789483201432377900,11.5713779296875,-0.37758017101474106,0.3627981238812208,2.025066149947047
1789483201442428000,11.581427978515626,-0.1253613137025386,-0.09703355629742146,2.2377958774358033
1789483201452476700,11.5914765625,0.1948738258678466,-0.5219786320120096,2.4246786314845084
1789483201462526700,11.601526611328126,0.4864438658375293,-0.8863955892667174,2.4363977108508346
1789483201472576800,11.61157666015625,0.7524562707025557,-1.118955221863091,2.3168425261437893
1789483201482625800,11.621625732421874,1.0016473046261816,-1.2021408700719476,2.121194281837344
1789483201492675800,11.63167578125,1.2048867347139864,-1.1622151023969054,1.8722247817099094
1789483201502724900,11.641724853515624,1.3016133439540862,-1.0324278620108962,1.6775497663497925
1789483201512774700,11.651774658203125,1.3287107558466493,-0.8757391706958413,1.6628461182147263
1789483201522824000,11.661823974609375,1.2623065849602222,-0.6274351487398148,1.595689813786745
1789483201532874000,11.6718740234375,1.168515298519656,-0.3245709768176079,1.4573147777974604
1789483201542922800,11.6819228515625,1.1199697326678781,-0.02560936529189348,1.2561363718926906
1789483201552972800,11.691972900390626,1.0888134007733314,0.22474340588748454,1.0133090277820824
1789483201563021800,11.702021728515625,1.1310007567048073,0.42260728041678663,0.8295651562809944
1789483201573071600,11.712071533203124,1.2641712097883224,0.5463239687174558,0.7128641919612884
1789483201583121000,11.722120849609375,1.4016846605122089,0.6596484423413872,0.5449918433308601
1789483201593171000,11.7321708984375,1.5370026470184326,0.7619079165935516,0.3596516425490379
1789483201603219700,11.7422197265625,1.6363292826890945,0.8463491178214549,0.2539239076644182
1789483201613269800,11.752269775390625,1.7156325365066527,0.8873524516001343,0.20375556291639804
1789483201623318800,11.76231884765625,1.7804384784162044,1.0048705775216222,0.19728373655378817
1789483201633368800,11.772368896484375,1.8030127137959002,1.2113304309606552,0.16088731204867363
1789483201643417900,11.78241796875,1.8014169690370558,1.4392378538370132,0.22179916912913322
1789483201653468000,11.792468017578125,1.7803601524829864,1.6035758908614515,0.4160743715167045
1789483201663516700,11.8025166015625,1.7567489752709864,1.7976918110340832,0.5377998860001564
1789483201673566700,11.812566650390625,1.6735048748731611,2.0221207441449165,0.6318710853606462
1789483201683616000,11.822615966796874,1.5808827052772043,2.224800786784291,0.7640203787028789
1789483201693665800,11.832665771484375,1.4750807361125946,2.367110824134946,0.890635418793559
1789483201703714800,11.84271484375,1.3957377348065376,2.4397300701439377,0.9726748195767402
1789483201713764900,11.852764892578126,1.3864403296291827,2.5198458093881606,0.9768325237780808
1789483201723814000,11.86281396484375,1.3964226483307778,2.682726341080665,0.9720487966328859
1789483201733864000,11.872864013671874,1.3673857928082347,2.880630839881301,0.9851695594906806
1789483201743913000,11.882912841796875,1.295616149365902,3.025798604750633,1.1045873815536498
1789483201753962800,11.892962646484374,1.2322528074800967,3.1445968336105343,1.2911989174455403
1789483201764011800,11.90301171875,1.1548036570966242,3.297009747302532,1.4516004918038845
1789483201774061800,11.913061767578125,1.0879110451061278,3.495858248955011,1.6463678616225719
1789483201784110800,11.92311083984375,1.0212379210852085,3.70563672542274,1.784409720134735
1789483201794161000,11.933160888671875,0.8718260889053344,3.861322961696982,1.9091782555758952
1789483201804209700,11.943209716796876,0.7182732844632118,3.942988268470764,2.121203634187579
1789483201814259700,11.953259765625,0.6117243693888187,4.008331385996938,2.3489234255373477
1789483201824309800,11.963309814453124,0.5008815565127879,4.1619039911180735,2.517933253765106
1789483201834359000,11.973359130859375,0.39941323263831435,4.3795922177970406,2.6589789702683686
1789483201844408800,11.983408935546874,0.3270915082711726,4.580800434318185,2.7976030125826594
1789483201854457900,11.993457763671875,0.2882218985855579,4.7701504552632565,2.971631545755267
1789483201864508000,12.0035078125,0.2499800654094666,4.9438048944264645,3.12116218200922
1789483201874556700,12.013556640625,0.17230178244523703,5.137963776957989,3.1942116361290216
1789483201884606700,12.023606689453125,0.045887379493191834,5.273112252116203,3.3090567434489726
1789483201894655700,12.03365576171875,-0.16672785477042198,5.281693033456802,3.6127561971515414
1789483201904705800,12.043705810546875,-0.48934886656403537,5.169733710706233,4.014270712918043
1789483201914754800,12.0537548828125,-0.7502057883620261,4.854637833720445,4.405582399100065
1789483201924804900,12.063804931640625,-1.0029835216660052,4.3755350513607265,4.90369792496562
1789483201934854000,12.07385400390625,-1.12206224796772,3.7670372428029775,5.281867220979929
1789483201944904000,12.083904052734376,-1.0431612182755023,3.249316268235445,5.34426785531342
1789483201954952700,12.09395263671875,-0.8826467581272125,2.903278725019097,5.352178190046549
1789483201965002800,12.104002685546876,-0.6455553273200988,2.741646147561073,5.314039890310168
1789483201975051800,12.1140517578125,-0.22678861144687978,2.9077245985120532,5.118711963999271
1789483201985101800,12.124101806640626,0.11616086609363556,3.2769261596947907,4.905678285127878
1789483201995150800,12.13415087890625,0.3642156259963289,3.6509827596932647,4.748517300125957
1789483202005201000,12.144200927734374,0.5534042093019932,3.9023932232320306,4.663621340867877
1789483202015249700,12.154249755859375,0.6686988870203494,4.018073027810454,4.492323693963885
1789483202025299700,12.1642998046875,0.7795768442749976,4.095657202750444,4.137556316325068
1789483202035349000,12.174348876953125,0.8419453299045562,4.057489676919579,3.692409579581022
1789483202045398800,12.184398681640625,0.8679705825209617,3.9020688135832544,3.224402776253223
1789483202055447800,12.19444775390625,0.8371136719644069,3.6632904526025056,2.803742245990038
1789483202065497900,12.204497802734375,0.7733668837189674,3.3960178185433145,2.4223253463566303
1789483202075546600,12.214546630859376,0.7666190899591893,3.1494080332845447,2.1544261048316953
1789483202085596700,12.2245966796875,0.790777452725172,2.9427304454416037,1.9842665220469236
1789483202095647000,12.23464697265625,0.8437386430621147,2.7789415667325255,1.8638947602599858
1789483202105695700,12.24469580078125,0.8761270009696484,2.568726452413201,1.787224193033576
1789483202115745800,12.254745849609375,0.927502967941761,2.3310510842382905,1.7697662777543066
1789483202125794800,12.264794921875,0.9512859945893287,2.0559259831130503,1.796923749271035
1789483202135844600,12.2748447265625,0.9463292489647864,1.6807254737764596,1.821603432497382
1789483202145894000,12.284893798828126,0.9046060764789581,1.2204980722784995,1.8812924697846174
1789483202155944000,12.29494384765625,0.950979705119133,0.7129872338190675,1.9735113192766904
1789483202165992700,12.30499267578125,1.0477952347517012,0.1797214841172099,2.0589614052861926
1789483202176042800,12.315042724609375,1.2008183892965316,-0.3391127123892307,2.181417572131753
1789483202186091800,12.325091796875,1.4138707728683948,-0.8346466973289847,2.345788050121069
1789483202196141800,12.335141845703125,1.6613351291298866,-1.3136983340233563,2.5895523828208447
1789483202206190800,12.34519091796875,1.96513804320693,-1.6926853761613367,2.8163129737496373
1789483202216241000,12.355240966796876,2.279748913154751,-1.9126152442872524,2.9931951427876946
1789483202226289700,12.36528955078125,2.5569746398210524,-1.9915268684387206,3.1324896317094564
1789483202236339700,12.375339599609376,2.7022750911593434,-1.9511559873446822,3.2597809636265036
1789483202246389000,12.385388916015625,2.6744717229545114,-1.832851679481566,3.3363977548390626
1789483202256438800,12.395438720703124,2.51093185057044,-1.6873296943470835,3.357332990840077
1789483202266487800,12.40548779296875,2.271615729451179,-1.5357619993075728,3.2165994090259074
1789483202276537900,12.415537841796874,2.005992616164684,-1.3369054604791104,2.934448939308524
1789483202286587000,12.4255869140625,1.7593734785556792,-1.1404013299956917,2.522310738196969
1789483202296636700,12.43563671875,1.5123510208427906,-0.95917718623057,2.103812354403734
1789483202306685700,12.445685791015626,1.2096270611088722,-0.9940081149846315,1.8635744422644376
1789483202316735700,12.45573583984375,0.9172386904936284,-1.2106537007428706,1.7109686363488434
1789483202326785500,12.46578564453125,0.7107716766614467,-1.438340466605872,1.5710218209981917
1789483202336834600,12.47583447265625,0.5920939323760569,-1.6119380610153078,1.378418351215124
1789483202346884600,12.485884521484374,0.5144881301261485,-1.7526842100501059,1.2142103703111409
1789483202356933600,12.49593359375,0.47611061480641365,-1.9808289488136768,1.1377367869615553
1789483202366983700,12.505983642578125,0.5045207897979765,-2.263242745642364,1.110474686026573
1789483202377032700,12.51603271484375,0.5773394308365881,-2.5318922210127113,1.0811784489154814
1789483202387082500,12.52608251953125,0.7073932132042944,-2.822084542888403,0.9659721070677041
1789483202397131800,12.5361318359375,0.7960287973821163,-3.1168337974160907,0.7728215247958898
1789483202407181800,12.546181884765625,0.904967164876312,-3.403706911741197,0.5976105038404464
1789483202417230600,12.556230712890626,1.0047266390062868,-3.657800623014569,0.35619419557154175
1789483202427280600,12.56628076171875,1.078324959180504,-3.829484054365754,0.04411386701464653
1789483202437329700,12.57632958984375,1.1924655714929102,-3.9625554309889672,-0.2971241669654846
1789483202447379700,12.586379638671875,1.2776269036889076,-4.051949870710074,-0.6096060620605945
1789483202457428700,12.5964287109375,1.3532979384839534,-4.188459405088424,-0.8622773393154144
1789483202467478800,12.606478759765626,1.441212222649902,-4.329175451245904,-1.0808715749233961
1789483202477527600,12.616527587890625,1.503695566830784,-4.414903185153007,-1.287640932703018
1789483202487577600,12.62657763671875,1.5264426745593547,-4.498805749459565,-1.4756079748570918
1789483202497626600,12.636626708984375,1.5742286542154849,-4.567111516183615,-1.675418599539995
1789483202507676700,12.6466767578125,1.548046603602171,-4.686628706967831,-1.7562404412269592
1789483202517725700,12.6567255859375,1.516090645762533,-4.840898646703362,-1.8621037851899862
1789483202527775700,12.666775634765624,1.5389738009609282,-4.935412913656235,-2.0694559112936255
1789483202537824500,12.676824462890625,1.5366706385850906,-4.95804384765923,-2.2659295005083084
1789483202547874800,12.686874755859375,1.4823768844701348,-5.0012528747886416,-2.38953892904222
1789483202557924900,12.6969248046875,1.4737142700649797,-5.033083598813414,-2.44824947668612
1789483202567973600,12.7069736328125,1.4809564962781965,-5.079824891722202,-2.439858080437779
1789483202578023700,12.717023681640624,1.5007412470698356,-5.145133522456884,-2.4080741181641816
1789483202588072400,12.727072509765625,1.532328956118971,-5.220235232931375,-2.3555127407997847
1789483202598122500,12.73712255859375,1.6045837527297435,-5.323535448408126,-2.2588789974749086
1789483202608171800,12.747171875,1.6245860917948185,-5.465540365332365,-2.2953496562600133
1789483202618221800,12.757221923828125,1.6421544817112386,-5.57328996143341,-2.231839014858007
1789483202628270600,12.7672705078125,1.569936802240461,-5.860527525156736,-2.220529685336351
1789483202638320600,12.777320556640625,1.512222279896587,-6.211259948191047,-2.242678973302245
1789483202648369700,12.78736962890625,1.4790693673573434,-6.483773405513167,-2.1194559137374163
1789483202658419700,12.797419677734375,1.4473133160039782,-6.750794110637903,-1.8526684328466654
1789483202668468700,12.80746875,1.3989455909371376,-7.032075396305323,-1.4523504333883523
1789483202678518800,12.817518798828125,1.2822621622741222,-7.303909054669737,-0.9169342276543379
