time,seconds_elapsed,z,y,x
1789845435570323500,0.079323486328125,0.8648211785793304,0.45121758109033105,1.2084044605113564
1789845435580380700,0.089380615234375,0.9055635233342647,-0.13271920218467712,1.4540812027037142
1789845435590437600,0.099437744140625,1.2320131535053251,-0.5711842692077159,1.1326130872722715
1789845435600494600,0.10949462890625,1.160841183695197,-0.3514969776660204,0.524685151024349
1789845435610551600,0.119551513671875,1.3025012327045202,-0.5618430248886347,0.8046900235477834
1789845435620608500,0.1296083984375,1.9270839146226644,-0.8714590091586113,0.8756412632793188
1789845435630665500,0.13966552734375,1.4623516029208898,-1.1462222912341355,-0.30972211152557283
1789845435640722400,0.149722412109375,0.14134791432023047,-1.4486808049649,-0.13509703723192215
1789845435650779400,0.159779296875,-1.191916120916605,-0.8878986873060465,0.341518714085035
1789845435660836600,0.169836669921875,-2.727278599512577,-1.4041799844592808,-0.6275311564601957
1789845435670893600,0.1798935546875,-3.43153629117012,-2.43241594773829,-0.45544846012573686
1789845435680950500,0.189950439453125,-0.7204916180998087,-0.5470569591671228,0.6615349867403507
1789845435691007500,0.200007568359375,1.4423089318454265,-1.0400222626626492,-0.43872247585020957
1789845435701064700,0.210064697265625,2.6752228335827586,-1.1704074689418076,-1.087336094762385
1789845435711121700,0.22012158203125,2.8635534483522176,-1.2938614146530627,-1.5511745263643562
1789845435721178600,0.2301787109375,1.8016952014565466,-1.0505255364984274,-1.4923707474790513
1789845435731236600,0.240236572265625,0.4480091404378414,-0.6647627166152,-1.1565414406746626
1789845435741293600,0.25029345703125,-0.5329881018042564,-0.645970922383666,-0.27616701139360667
1789845435751350500,0.2603505859375,-1.1516349639326333,-1.080371808707714,0.9964425025247037
1789845435761407500,0.270407470703125,-1.1654448780983686,-0.6259048704326152,0.8928807135023176
1789845435771464700,0.280464599609375,-1.8513263705879448,0.7698603369027376,0.12185717803910374
1789845435781521700,0.290521728515625,-3.7394419643908736,2.1336071886867285,1.066891857148707
1789845435791578600,0.30057861328125,-2.952836244392395,3.8251428102910516,2.1446324405699966
1789845435801635600,0.310635498046875,-1.195603284996748,2.310941777667403,2.546682086126506
1789845435811692500,0.320692626953125,0.9424895246714353,0.4037152406811714,2.354332444974035
1789845435821749800,0.330749755859375,2.364711946299672,-2.8585347434073687,2.6216955337956547
1789845435831806700,0.340806640625,2.6777929763317108,-3.412557449933886,1.32307713387385
1789845435841863700,0.35086376953125,-0.12315583954751491,-0.5282260019689798,0.5703609701260924
1789845435851920600,0.360920654296875,1.8345646208792923,4.667423655760288,-1.0457277808278798
1789845435861977600,0.3709775390625,0.8702461262375116,4.102330104643106,-0.6917227658636868
1789845435872034600,0.38103466796875,-0.8673053966104983,1.2400187653064727,0.03837225462272763
1789845435882091500,0.391091552734375,-1.1941162613093852,0.7726853311955928,-0.5191235348418355
1789845435892148500,0.4011484375,-2.415274258801341,-0.3273287510931492,-1.0680633851461112
1789845435902205400,0.411205322265625,-2.831088518077135,-0.3587760287582874,-0.34385800722017884
1789845435912263700,0.421263671875,-1.5481483104109763,1.7502882548242806,0.4280455259479582
1789845435922320600,0.431320556640625,-0.36717736187875266,2.678868496608734,1.3564809524342416
1789845435932377600,0.441377685546875,0.8445067048251629,2.023954973834753,1.2395477867938578
1789845435942434600,0.4514345703125,4.311455670160055,0.8762409827381372,1.6526396353684365
1789845435952491500,0.461491455078125,6.792774472755194,0.16195406449735164,2.3819183710359035
1789845435962548500,0.471548583984375,1.9476631767928598,-1.6480688203215599,1.2957440135292708
1789845435972605400,0.48160546875,1.662520539522171,-1.4292495437860488,1.7704253261849283
1789845435982662700,0.49166259765625,1.123987078550458,-0.9788684135198592,1.2121071144215763
1789845435992719600,0.5017197265625,0.42163434373140335,-0.863520032852888,0.5841385894574225
1789845436002776600,0.511776611328125,0.5556576142519712,-0.796363143903017,0.2892622014187276
1789845436012833500,0.52183349609375,0.9027905514895915,-0.33399697681069374,-0.2615162624895572
1789845436022890500,0.531890380859375,0.554583847540617,-0.16012217289507388,-0.8376287818796933
1789845436032947500,0.541947509765625,-0.4069599216908216,-0.9568348608881234,-0.6686587011404335
1789845436043004400,0.55200439453125,-1.4285989709228277,-0.9617997898191213,-0.31827099989056584
1789845436053061400,0.562061279296875,-1.4624901346087456,-0.19471768545806406,-0.7397384626224637
1789845436063118600,0.57211865234375,-0.6629074441373348,0.5104489377379418,-0.8718795726582408
1789845436073175600,0.582175537109375,0.7669792285084724,1.083244149273634,-0.5492001086756587
1789845436083233500,0.592233642578125,2.0548650758832694,0.7103145074784756,-0.3139899615705013
1789845436093290500,0.60229052734375,2.527263976690173,-0.5846124905794858,-0.12343407196700572
1789845436103347500,0.612347412109375,2.45522457639575,-1.3035247305333613,-0.14049611979648471
1789845436113404400,0.622404296875,1.909419078594446,-1.2329215005218983,-0.4070104828342795
1789845436123461400,0.63246142578125,0.9575824643850326,-1.103054180637002,-0.6861467192970215
1789845436133518600,0.6425185546875,0.43267362414002414,-1.0207447307407855,-0.9204802296981215
1789845436143575600,0.652575439453125,0.21014263360500335,-0.9417419211745262,-0.9689734808407723
1789845436153632800,0.6626328125,-0.30123861654698847,-0.772729754859209,-0.8026732038326561
1789845436163689700,0.672689697265625,-0.4291115477442741,-0.6083563542604447,-0.5339161764346063
1789845436173746700,0.68274658203125,-0.3095885117411613,-0.4498369403868913,-0.2808423097282648
1789845436183803600,0.6928037109375,-0.2656090847611427,-0.051610360249876974,-0.23106559464633464
1789845436193860600,0.702860595703125,-0.49953416049182414,0.05484335082173347,-0.1799590922653675
1789845436203917600,0.71291748046875,-0.6520014347195625,-0.061627896395325656,-0.2096764773979783
1789845436213974500,0.722974609375,-0.7236340077787637,-0.17460136462450027,-0.3307753844156861
1789845436224031700,0.73303173828125,-0.7417132698267698,-0.2761053443342447,-0.559700679097697
1789845436234089700,0.74308984375,-0.6025041211009026,-0.3778133221834898,-0.7947397074196487
1789845436244146700,0.753146728515625,-0.5766735142737627,-0.5480068072378635,-0.8914869941215962
1789845436254203600,0.76320361328125,-0.5655266818374395,-0.7067378180354833,-1.020744876871258
1789845436264260600,0.773260498046875,-0.28779402856230735,-0.9032955784022808,-1.1286419186189771
1789845436274317600,0.783317626953125,-0.0034510172367095944,-1.0875807171732186,-1.138362590709701
1789845436284374500,0.79337451171875,0.053767830544710155,-1.1601192991614342,-1.1215180580884219
1789845436294431700,0.803431640625,-0.19400866040587425,-1.2281167305886744,-1.0767630436260252
1789845436304488700,0.81348876953125,-0.4698153140544891,-1.1087678821086884,-0.9575061112131923
1789845436314545700,0.823545654296875,-0.5103448928415775,-0.7333195354908705,-0.8298909541692584
1789845436324602600,0.8336025390625,-0.24817864201068876,-0.5454349109232426,-0.8467728961914778
1789845436334659600,0.84365966796875,0.2923071220725775,-0.6751958478242158,-0.871236744710058
1789845436344716500,0.853716552734375,0.4007341790437698,-0.7836918783783913,-0.6817267839629203
1789845436354773500,0.8637734375,0.3705307639598846,-0.7202285832494497,-0.660422933845222
1789845436364830500,0.87383056640625,0.3006096709936857,-0.6191016201585531,-0.5568183285944164
1789845436374887400,0.883887451171875,0.2319254263460636,-0.5474883363217115,-0.3048348874732852
1789845436384945700,0.893945556640625,0.1707435201525688,0.04656768990755081,-0.202376894974336
1789845436395002600,0.904002685546875,-0.055682724255323404,0.6465314788758755,-0.3803383836816996
1789845436405059600,0.9140595703125,-0.37826398856043814,0.8365817570447921,-0.625241803414002
1789845436415116500,0.924116455078125,-0.5652537101149558,0.5717705446630716,-0.6318432475056499
1789845436425173500,0.934173583984375,-0.2989315086483955,0.2226882269233465,-0.6828640443645417
1789845436435230500,0.94423046875,0.22619944991469382,0.04357259974479675,-0.7689278783582151
1789845436445287400,0.954287353515625,0.2825105352014303,0.19876900667548178,-0.68254321491234
1789845436455344600,0.9643447265625,-0.24672785868048666,0.5236328289598227,-0.5787519279830158
1789845436465401600,0.974401611328125,-1.035456562182307,0.6618553047358989,-0.4548007002741098
1789845436475458800,0.984458740234375,-1.3083715860426426,0.6241255858004093,-0.5631073457360267
1789845436485515800,0.994515869140625,-1.3148574409306049,0.41448447197675703,-0.6010737229716032
1789845436495572700,1.00457275390625,-1.1937579493910073,0.41295770080089567,-0.5053778450187295
1789845436505629700,1.014629638671875,-1.1929799507558345,0.6339531523317098,-0.3469846148081124
1789845436515687000,1.02468701171875,-1.0929659173429012,0.8458522742152214,-0.034829759710282085
1789845436525745000,1.034744873046875,-0.5547299780130386,0.8780477398991584,0.15922127853259443
1789845436535801900,1.0448017578125,-0.14201543831825256,0.6648574091613292,0.13936258572191
1789845436545858800,1.05485888671875,-0.04666647410690784,0.23514438839256763,0.0369145300950855
1789845436555915800,1.064915771484375,-0.20388532677590845,0.002945405802130699,0.09224734493419527
1789845436565972700,1.07497265625,-0.33634500124156474,0.15284838249981403,0.4919567840401083
1789845436576029700,1.08502978515625,-0.056040451651811596,0.4330862965941429,0.8307358805608004
1789845436586087000,1.0950869140625,0.1792190875530243,0.38043665642440316,1.0166873451087624
1789845436596143900,1.105143798828125,-0.03412555696368217,0.2947206129550934,0.9709825556408613
1789845436606200800,1.115200927734375,-0.30462299828827377,0.03082826898396015,0.8551902305986732
1789845436616257800,1.1252578125,-0.683828651612997,-0.3950041109591722,0.5943117545560002
1789845436626314800,1.135314697265625,-1.507172741422057,-0.5456774875074625,0.33187326265498995
1789845436636372000,1.1453720703125,-2.1378256831645963,-0.7290075175106525,0.3679179511129856
1789845436646429000,1.155428955078125,-2.2257903823435305,-1.1497767688453198,0.5398430822655558
1789845436656486000,1.16548583984375,-2.1556629531502725,-1.5469921261131763,0.48495706134587524
1789845436666543900,1.1755439453125,-2.2418144654273986,-1.674240203410387,0.38318361704498527
1789845436676600800,1.185600830078125,-2.9012720613718033,-2.0323761806994676,0.34382293590679763
1789845436686657800,1.19565771484375,-3.8468870245873927,-2.653784324234724,0.24124533561617134
1789845436696714800,1.20571484375,-4.48047134360671,-3.3079058198481794,-0.1267958034850657
1789845436706772000,1.21577197265625,-4.823712534102797,-4.112419536980986,-0.17387027387097476
1789845436716829000,1.225828857421875,-5.142813555076718,-4.611052949240803,-0.034370617765933274
1789845436726886000,1.235885986328125,-6.135087978136539,-4.447832225808501,-0.3150736651539802
1789845436736942800,1.24594287109375,-6.712855132865905,-4.311899906796217,-0.6847495658501982
1789845436747000000,1.256,-6.99019206482172,-4.609302306181192,-1.0784990005731583
1789845436757057000,1.26605712890625,-7.397395732140541,-5.619756529054046,-1.3072978193312883
1789845436767114000,1.276114013671875,-7.563174907884001,-6.811386818766594,-1.260574354340136
1789845436777171000,1.2861708984375,-6.531808829885721,-7.591986576348543,-1.0961354872897267
1789845436787228000,1.296227783203125,-5.522819418868422,-8.300736318728328,-1.264228200672567
1789845436797286000,1.306285888671875,-5.469264938813447,-8.580158824786544,-1.746206830729544
1789845436807342800,1.3163427734375,-6.716246528869867,-8.382622574776411,-1.8946815281897782
1789845436817400000,1.326400146484375,-8.28726718082428,-8.06872438314259,-2.1042793873935937
1789845436827457000,1.33645703125,-8.872008850741386,-8.87153421896696,-2.4437480736136434
1789845436837514000,1.346513916015625,-9.429085099619627,-10.486229177474975,-2.9540082107812164
1789845436847571000,1.356571044921875,-10.120498507273197,-12.200292857229709,-3.751676007542014
1789845436857628000,1.3666279296875,-9.492254380238055,-13.832733900308607,-3.636062253937125
1789845436867684900,1.376684814453125,-8.412852877867222,-15.272051249122619,-3.479526707357168
1789845436877741800,1.386741943359375,-7.649840214902162,-16.174812574517727,-3.1504584191203118
1789845436887798800,1.396798828125,-6.883595145887136,-16.44900127157569,-2.5850948188900946
1789845436897855700,1.406855712890625,-6.853562995716929,-16.94928303556442,-2.0441659872144458
1789845436907913000,1.416912841796875,-6.338757031813263,-17.277137856358287,-1.0788497137069701
1789845436917971000,1.426970947265625,-4.556273895826935,-17.75663168386221,-0.2385427986592054
1789845436928028000,1.43702783203125,-2.884118097475171,-18.765295516186953,0.4223462913930416
1789845436938084900,1.4470849609375,-1.7902987781733273,-20.233849480879307,1.7531307847738264
1789845436948141800,1.457141845703125,0.17479834850132464,-21.498934882903097,4.405338653472065
1789845436958198800,1.46719873046875,3.062858753861487,-22.02346144583225,7.32068892455697
1789845436968255700,1.477255859375,5.59680878418684,-21.67241864167452,10.352075558573008
1789845436978313000,1.48731298828125,7.819512890952825,-20.22487356274128,13.879666331875324
1789845436988370000,1.497369873046875,10.165795446592568,-18.412452384608983,16.981927414059637
1789845436998427000,1.507427001953125,11.179333022433518,-17.3892421405375,17.98815262106061
1789845437008483800,1.51748388671875,11.59571251437664,-17.797164769780636,18.134564833033085
1789845437018540800,1.527540771484375,11.674537629288434,-18.15829174557924,17.77686783168316
1789845437028597800,1.53759765625,11.148439871519804,-17.341117284315825,17.014202374720572
1789845437038655700,1.54765576171875,9.998008438158035,-15.958574546647071,16.483472865498065
1789845437048713000,1.557712890625,9.466289917898177,-14.377508301496505,16.544461879467963
1789845437058770000,1.56777001953125,9.255805923509596,-12.380232075750827,16.819031684798002
1789845437068827000,1.577826904296875,8.850476233369111,-10.83693529702425,16.889890935397148
1789845437078883800,1.5878837890625,8.323872279644013,-9.334985843208432,16.552979532444475
1789845437088940800,1.59794091796875,7.209224107325077,-7.780720511221885,16.171493659228087
1789845437098997800,1.607997802734375,5.437276393878459,-6.532025687506795,15.777524736535549
1789845437109054700,1.6180546875,3.381427567654848,-5.524737819710373,15.342574984157084
1789845437119111700,1.628111572265625,2.068287452036142,-4.581560897296667,14.84134512566328
1789845437129169000,1.6381689453125,0.8620019564401358,-3.2351953884243962,14.415167877805231
1789845437139225900,1.648225830078125,0.00032725919298827645,-1.7367729396909475,14.309074816739558
1789845437149283800,1.658283935546875,-0.0037532150536775588,0.15432313122749328,14.566063372671604
1789845437159340800,1.6683408203125,0.8695475495140998,1.7712287515223024,14.933874940800665
1789845437169397800,1.678397705078125,1.5423761567503214,2.869678653234243,15.176491272509097
1789845437179454700,1.688454833984375,2.2596388759315014,3.6998745086342093,15.16889716411829
1789845437189511700,1.69851171875,2.6725299412369727,4.569063234773278,15.159279440945387
1789845437199569000,1.70856884765625,2.792367450016737,5.224865815341472,15.219526112115382
1789845437209625900,1.7186259765625,2.477609426683187,6.122378134167194,15.652295597845315
1789845437219682800,1.728682861328125,2.151780558758974,7.044891038736701,16.154225713562965
1789845437229740000,1.738739990234375,1.544124461722374,7.546927537438273,16.342363436108826
1789845437239797000,1.748796875,1.0723667814284563,7.379198981192707,16.81399778228402
1789845437249854000,1.75885400390625,1.2248416544407605,7.797472324058413,17.046572027927635
1789845437259911000,1.768910888671875,1.2515589809745549,8.65075562505722,16.87188999928236
1789845437269969000,1.778968994140625,1.1253507681190966,8.640448750576377,16.67582148373723
1789845437280025900,1.78902587890625,0.53393268917799,8.336398583739996,15.824624341362714
1789845437290082800,1.799082763671875,-0.1993950296193361,7.379762460294366,14.865066192990541
1789845437300140000,1.80914013671875,-0.938968949329853,5.849662432271241,14.492860189294815
1789845437310197000,1.819197021484375,-1.8198364228248596,5.1249049734205006,14.19249192584157
1789845437320254000,1.82925390625,-2.589732415562868,4.9495811397403475,13.874929366481304
1789845437330311000,1.839310791015625,-2.9716379754960536,4.887423081991076,13.917191468149422
1789845437340368000,1.849367919921875,-2.941588289669156,4.908893155521154,14.319991347551346
1789845437350424800,1.8594248046875,-2.753434785032272,5.0093251220852135,14.81751066108942
1789845437360482000,1.86948193359375,-2.534948101451993,4.148604949083924,14.87107390897274
1789845437370539000,1.8795390625,-2.7968682685673234,2.8508570483863354,14.699605581676959
1789845437380597000,1.889596923828125,-3.2585248260855675,1.6652496722251175,14.616167420011758
1789845437390654000,1.899654052734375,-3.750493519759178,0.9144891725897788,14.405504561924934
1789845437400711000,1.9097109375,-3.86363942194581,-0.058818099671602245,14.144866251313685
1789845437410768000,1.919767822265625,-3.8392110831320285,-2.1260376302152872,14.17027775594592
1789845437420824800,1.929824951171875,-3.4523411787897347,-5.264177835032344,14.16902921718955
1789845437430882000,1.939882080078125,-3.0490239975154396,-8.239283778899907,13.892287328517437
1789845437440939000,1.94993896484375,-2.883592027774453,-10.789759704351425,13.060215742373465
1789845437450996000,1.959995849609375,-3.1280098559468983,-12.747847244524955,12.080658762067555
1789845437461053000,1.970052978515625,-3.4094168138206005,-14.32783329322338,10.682425118792056
1789845437471109600,1.980109619140625,-2.805189522188902,-16.30430638491511,9.935436538910865
1789845437481166600,1.99016650390625,-0.8732476461410522,-16.926055304712055,8.635610078373551
1789845437491223800,2.000223876953125,-0.3256324685692787,-17.403869216305015,7.201174071860313
1789845437501281800,2.01028173828125,-1.3100164306402207,-17.074347339081765,5.893671669867635
1789845437511338800,2.0203388671875,-3.4943747323989864,-15.763603763210773,4.691475562477112
1789845437521395700,2.030395751953125,-5.939993276059627,-13.941997408103942,3.866295489412546
1789845437531452700,2.04045263671875,-7.568755338364839,-12.346200042289494,3.0900679555654524
1789845437541509600,2.050509521484375,-7.790279782205819,-9.2561174736768,2.036737883040309
1789845437551566600,2.060566650390625,-6.369848335647583,-8.256880225867032,2.2176590983361004
1789845437561623800,2.070623779296875,-3.511598838922381,-8.920426552429795,3.582669686445594
1789845437571680800,2.0806806640625,-0.641522710803151,-8.072960997799038,3.923321444970369
1789845437581737700,2.09073779296875,2.164986077290773,-5.848794417265057,2.1609330025076865
1789845437591794700,2.100794677734375,5.3829976912021635,-6.026324821078777,1.2919991279125214
1789845437601852700,2.110852783203125,9.126218589609861,-6.92336952239275,0.15631518182754517
1789845437611909600,2.12090966796875,12.186585818916559,-7.337475224184989,-1.401652511808276
1789845437621966600,2.130966552734375,14.357894084966182,-8.055561534708739,-2.1928116573274132
1789845437632023800,2.14102392578125,16.061587177354095,-9.14349004240632,-2.8645898056626318
1789845437642080800,2.151080810546875,16.690827329689263,-9.75183704431653,-4.236469695019721
1789845437652137700,2.1611376953125,15.744438459491729,-9.871964475953579,-5.85119621770978
1789845437662194700,2.171194580078125,14.30484054017067,-9.97105145764947,-7.344734986054897
1789845437672251600,2.181251708984375,12.748665575170516,-9.258626241627335,-8.456204528337716
1789845437682308600,2.19130859375,11.891994969820976,-8.295784833800791,-8.448562489151954
1789845437692365600,2.201365478515625,11.657996828854083,-7.0724331256568425,-7.413651285892724
1789845437702422500,2.211422607421875,11.528078655564784,-5.473058485877513,-5.977206277644634
1789845437712479500,2.2214794921875,11.762297745805977,-3.3219612332075834,-3.944565893051028
1789845437722537700,2.231537841796875,11.803292604017257,-0.3275227392952889,-1.720855824112892
1789845437732594700,2.2415947265625,10.848632749080657,1.3769982552841304,-0.32620588454306126
1789845437742651600,2.251651611328125,9.18574980598688,0.4021693264134228,-0.2450578796416521
1789845437752708600,2.26170849609375,6.092224403443932,-3.3963147556632753,-1.7959575345873833
1789845437762765600,2.271765625,1.7863339661955833,-9.033111266845465,-4.9220636027395726
1789845437772822500,2.281822509765625,-0.34804771399497986,-12.621326312458514,-7.309157476717234
1789845437782879500,2.29187939453125,-1.116495261490345,-11.148852543973922,-7.407384042191505
1789845437792936700,2.301936767578125,-2.12963185531497,-6.648514470380544,-9.017479397949575
1789845437802993700,2.31199365234375,-1.5973472256049512,-5.755815104794502,-9.480150100946426
1789845437813050600,2.322050537109375,0.6097106914788484,-7.250576692932844,-9.377295875671505
1789845437823107800,2.33210791015625,3.0987434294521807,-8.624848445862531,-8.763518665406107
1789845437833165600,2.34216552734375,4.467731396760046,-9.389517643862963,-8.122058498445153
1789845437843222500,2.352222412109375,4.968302791345119,-10.936197635287046,-7.526736397802829
1789845437853279500,2.362279541015625,4.7953731593251225,-13.07784842969775,-7.384908006489276
1789845437863336700,2.372336669921875,3.80778251016736,-13.238796532022953,-7.88460992476344
1789845437873393700,2.3823935546875,2.5151535599187014,-11.92255377421379,-8.400796529370545
1789845437883450600,2.39245068359375,2.2130203326195477,-11.227097813171147,-8.27374426690638
1789845437893507800,2.4025078125,2.048575912611186,-11.312248623973131,-7.466412569743395
1789845437903564800,2.412564697265625,1.8657997170984744,-11.36266129887104,-5.906423599413037
1789845437913621800,2.422621826171875,1.9724878214478492,-11.172181981635093,-4.361079825028777
1789845437923678700,2.4326787109375,2.264866839712858,-10.730712472099064,-2.6095418624043463
1789845437933735700,2.442735595703125,2.5646178480505943,-10.557309377348423,-1.0700292783915997
1789845437943793700,2.452793701171875,2.3358123072907326,-10.526406874084472,0.26209201655089853
1789845437953850600,2.4628505859375,2.226507590702176,-10.676844103789328,1.7353280015796422
1789845437963907800,2.472907958984375,1.4719102893829346,-11.440368807929753,2.956141131156683
1789845437973964800,2.48296484375,0.6813584621071815,-11.622441531348228,3.881232361781597
1789845437984021800,2.493021728515625,0.030991204460710284,-11.272101322501896,4.6035278144329785
1789845437994078700,2.50307861328125,-0.6065853990651667,-11.125496218305825,5.35502890330255
1789845438004135700,2.5131357421875,-0.7362836459934711,-10.928193192529678,6.054251523402333
1789845438014193000,2.52319287109375,-0.6250128900289535,-9.990011009663343,6.695649146521091
1789845438024249900,2.533249755859375,-0.6952827964328229,-8.767444898939132,7.412163093161583
1789845438034306800,2.543306884765625,-0.7468192146636545,-7.5007380331933495,7.899477823549509
1789845438044363800,2.55336376953125,-1.0320881086625158,-6.161157069894671,8.156109821128844
1789845438054421800,2.563421875,-0.8817280358470976,-5.028819511628151,8.224385484975576
1789845438064478700,2.573478759765625,-0.24495690348520874,-4.01438703277409,8.261778519302606
1789845438074535700,2.58353564453125,0.3674854049146175,-3.240548439890146,8.162288802024722
1789845438084593000,2.593593017578125,0.42857042660489675,-2.526954180088639,8.0217054423362
1789845438094649900,2.60364990234375,0.29325010201111434,-1.6219728405565021,8.027893775582314
1789845438104706800,2.613706787109375,-0.07140066399946808,-0.36127193722724915,8.003406984579563
1789845438114763800,2.623763671875,-0.33025004536733027,0.7406190448492765,8.17087133693099
1789845438124820700,2.63382080078125,-0.23388138271942732,0.9201800777077674,8.872462439727782
1789845438134877700,2.643877685546875,-0.2597100898504257,1.440650058722496,9.063188425201178
1789845438144934700,2.6539345703125,-0.2983797199845314,1.7942022153526545,9.109912766975164
1789845438154991600,2.66399169921875,0.22001871545314788,1.4609516729950904,9.035637570452689
1789845438165049900,2.6740498046875,0.3541385782159865,1.4203607194095849,8.698624460691214
1789845438175106800,2.68410693359375,-0.4391643013335764,1.8678326842308044,8.569605282068252
1789845438185163800,2.694163818359375,-1.3227287588275969,1.9662953965485095,9.004158144083618
1789845438195220700,2.704220703125,-1.9521650182567536,2.1641461193352938,9.737852942627669
1789845438205277700,2.714277587890625,-2.459209846639633,2.9985441026002166,10.57995492439866
1789845438215334700,2.724334716796875,-2.8338042067766187,3.9449510929763316,11.703673707401752
1789845438225391600,2.7343916015625,-2.722173385328054,4.655985146901012,12.761605720764399
1789845438235448600,2.744448486328125,-2.144375835460424,5.439934214910864,13.819102849841117
1789845438245505800,2.754505859375,-1.1200189055718481,6.329730260270834,14.725868150180577
1789845438255562800,2.764562744140625,-0.09727956694774328,6.990801721152663,15.083231974053382
1789845438265619700,2.77461962890625,0.5647932529963553,7.122844631510972,15.28353593521118
1789845438275677700,2.784677734375,0.7574947763264179,7.112464107272029,15.325784008353947
1789845438285734700,2.794734619140625,0.4900888712763786,6.9207719071149825,15.271372034686802
1789845438295791600,2.80479150390625,0.029965953066200018,6.623499271589517,14.982587826043366
1789845438305848600,2.8148486328125,-0.5202712435722351,6.297591493210196,14.756389545172452
1789845438315905800,2.82490576171875,-0.9642214640080928,5.834108889308571,14.623521874427794
1789845438325962800,2.834962646484375,-1.3348762927390634,5.089934782326221,14.561506440019606
1789845438336019700,2.845019775390625,-1.298292090576887,4.523284649416804,14.293379234957694
1789845438346076700,2.85507666015625,-1.5713129128992556,4.391607649761438,13.91941849654913
1789845438356133600,2.865133544921875,-1.94549927675724,3.677538173663616,14.351534486806392
1789845438366190600,2.875190673828125,-2.0316075344145297,3.055703913670778,14.810308182364702
1789845438376247600,2.88524755859375,-1.9721441225767133,3.3185341813683507,14.695657720834015
1789845438386305800,2.895305908203125,-1.735225710248947,3.7308781341850756,14.457425303298233
1789845438396362800,2.90536279296875,-1.0875637660384176,3.8652375047922134,13.932584267592429
1789845438406419700,2.915419677734375,-0.16323120829369872,3.5873756721794603,13.020848193103074
1789845438416476700,2.9254765625,0.8759621657967567,2.747404857218265,11.911201190072298
1789845438426533600,2.93553369140625,1.6979986801385878,1.4714584539622066,10.689705923449992
1789845438436590600,2.945590576171875,2.189615491634607,-0.06803367178440094,9.477602754551171
1789845438446647600,2.9556474609375,2.4977882913589475,-1.6506734498620033,8.347795591545104
1789845438456704500,2.96570458984375,2.548912913918495,-3.1915041307359933,7.526361719271541
1789845438466761500,2.975761474609375,2.6671441565454006,-4.2900756130009885,7.032221526777744
1789845438476819500,2.9858193359375,2.714942849552631,-4.570547920373082,6.543536677080392
1789845438486876700,2.995876708984375,2.3764883088111874,-4.3714270315200086,6.1385284739792345
1789845438496934700,3.0059345703125,2.1098224084734913,-4.089362486520409,5.785588311767578
1789845438506991600,3.01599169921875,2.16085233848691,-4.083744646638632,5.43004001288414
1789845438517048600,3.026048583984375,2.4505472322344777,-4.480556683802605,4.976780112311244
1789845438527105500,3.03610546875,3.135880443191528,-5.149408715558052,4.7414562756985426
1789845438537162500,3.04616259765625,3.686877664417028,-4.600620402553678,3.850806243857741
1789845438547219500,3.056219482421875,4.122244765424728,-3.966336410832405,2.946957123225927
1789845438557276700,3.066276611328125,5.143547130048275,-3.989216351160407,2.619634217351675
1789845438567333600,3.076333740234375,5.9581286522090435,-3.622704759714007,2.0627859320104123
1789845438577390600,3.086390625,6.300782398205995,-3.2950673810631033,1.549430166915059
1789845438587447600,3.096447509765625,6.28439824963808,-3.2745489091694355,1.2591297084897757
1789845438597504500,3.10650439453125,5.982873801887035,-3.3717858790844675,0.8183838370531797
1789845438607562500,3.1165625,5.500675976121426,-3.754931794467568,0.300081263205409
1789845438617619500,3.126619384765625,4.9429275270700455,-4.845861237546801,-0.15138883134126663
1789845438627676700,3.1366767578125,4.816795009799302,-5.631603618714213,-0.7212748774319887
1789845438637733600,3.146733642578125,4.820938977736234,-5.923468257716298,-1.3985861099749803
1789845438647790600,3.15679052734375,4.655928448277711,-5.745743792635202,-2.3538638045489786
1789845438657847600,3.16684765625,4.584163188749551,-5.615000858959555,-3.0952637706428763
1789845438667904500,3.176904541015625,4.475176452068984,-5.453515581017732,-3.4426322702020404
1789845438677961500,3.18696142578125,4.301766343055665,-5.42699933001399,-3.682596626096964
1789845438688018700,3.197018798828125,4.23103568727225,-5.681264013940096,-3.652154141560197
1789845438698075600,3.20707568359375,4.254178370189667,-5.875175643712282,-3.545905597671866
1789845438708132600,3.217132568359375,4.345233144338429,-5.94696311507225,-3.6460581627726554
1789845438718190600,3.227190673828125,4.6449368064031,-6.236942086458206,-3.7294863875657316
1789845438728247600,3.23724755859375,4.910380179208516,-6.457034451669454,-3.760796302586794
1789845438738304500,3.247304443359375,5.113951617729663,-6.617814211690425,-3.7459476930230853
1789845438748361500,3.257361572265625,5.165001421487331,-6.824059837856888,-4.077340040293335
1789845438758418700,3.267418701171875,5.351354014182091,-6.942358885022998,-4.826967736506462
1789845438768475600,3.2774755859375,5.799139867258072,-7.028099478411674,-5.5535208466023205
1789845438778532600,3.28753271484375,6.013824820467829,-7.311134914270043,-6.146316643637419
1789845438788589800,3.29758984375,6.067790219411253,-7.863346771982312,-6.395687125781178
1789845438798646800,3.307646728515625,5.921228954356908,-8.751303911477327,-6.33460458830893
1789845438808703700,3.317703857421875,5.561370975580811,-9.820256500548124,-6.347609031310677
1789845438818761500,3.327761474609375,5.2560295998901125,-10.419681360334158,-6.70126464831531
1789845438828818400,3.337818359375,4.977913500255346,-11.023622236239909,-7.104063943195342
1789845438838875600,3.347875732421875,5.286848516523838,-11.871549563163518,-7.5002312527149915
1789845438848932600,3.3579326171875,5.686022606644034,-12.243293794566393,-7.937164872387051
1789845438858989800,3.36798974609375,5.927406181687116,-11.911422139346598,-8.276147236394882
1789845438869046800,3.378046875,5.865204869318008,-11.253827999186516,-8.192623150011897
1789845438879103700,3.388103759765625,5.621396112954616,-10.60703465450406,-7.5895760080754755
1789845438889160700,3.39816064453125,5.426265755042434,-9.834569103538989,-6.707160720616579
1789845438899217700,3.4082177734375,5.092675020945072,-8.932831860494613,-5.635919143825769
1789845438909274600,3.418274658203125,4.717968724866211,-8.041864433267712,-4.594730175471305
1789845438919331600,3.42833154296875,4.258084729978442,-7.432529004842042,-3.5351983256965873
1789845438929389800,3.438389892578125,3.804702079808712,-7.089673014271259,-2.789275329220295
1789845438939446800,3.44844677734375,3.1574910942360757,-6.569653115111589,-2.418003391504288
1789845438949503700,3.458503662109375,2.5783175798401237,-6.2401020117938515,-2.100682824206352
1789845438959560700,3.468560791015625,2.4504651069089767,-6.293267200270295,-1.8549416384756563
1789845438969617700,3.47861767578125,2.136786549375206,-6.176231304907798,-1.642969451355934
1789845438979674600,3.488674560546875,1.4504117204107343,-5.646751503485441,-1.4647598331063985
1789845438989731600,3.498731689453125,0.7535375631332397,-5.018035667285323,-1.1997890462487935
1789845438999788500,3.50878857421875,0.22850232002958654,-4.390357941961288,-0.7857002955913543
1789845439009845800,3.518845703125,-0.3250070301473141,-3.579553015729785,-0.2534159581422806
1789845439019902700,3.52890283203125,-0.8281611347019672,-2.5634686780154703,0.22655600826740263
1789845439029959700,3.538959716796875,-0.9349065221965313,-1.8488029895901679,0.746276632219553
1789845439040017700,3.549017578125,-0.8789865551192313,-1.4985522125929593,1.2076409287929535
1789845439050074600,3.55907470703125,-0.894039089757204,-1.2721873429834842,1.6426567321449517
1789845439060131600,3.569131591796875,-0.919235490334034,-1.042786466678977,2.140961058580875
1789845439070188500,3.5791884765625,-1.0345581520378588,-0.6995821010619402,2.458592591524124
1789845439080245800,3.589245849609375,-1.2736369572699069,-0.283479087972641,2.8455671252846715
1789845439090302700,3.599302734375,-1.1861749469161034,0.2936415855467319,3.4909289758592843
1789845439100359700,3.609359619140625,-1.214447101676464,0.8465016780346631,4.099054443973302
1789845439110416600,3.619416748046875,-1.5563836393147705,1.0683534541338682,4.539231575611233
1789845439120473600,3.6294736328125,-1.7667308555811643,0.949651671385765,5.066563259088992
1789845439130530600,3.639530517578125,-1.619843427312374,0.5335515809059143,5.6120449317634105
1789845439140587500,3.64958740234375,-1.1653449248552321,0.15685411100983618,5.991225450646877
1789845439150645800,3.659645751953125,-0.6874310600191355,0.13881401192843912,6.4958782693266865
1789845439160702700,3.66970263671875,-0.31363807939291,0.03270575329363346,7.100912785688042
1789845439170759700,3.679759765625,-0.2473398530989885,0.2571756029367447,7.662159013727307
1789845439180816600,3.689816650390625,-0.14828034393191336,0.8689356281608343,8.191416112309694
1789845439190873600,3.69987353515625,-0.158657945561409,1.359382226833701,8.801829983621834
1789845439200930600,3.7099306640625,-0.3578244271218777,1.8268840032488107,9.335073521491884
1789845439210987500,3.719987548828125,-0.47882396541833877,2.2439123144894837,9.676243166410922
1789845439221044500,3.73004443359375,-0.2690507496476173,2.3514468065351246,10.038564904952048
1789845439231101400,3.740101318359375,-0.03522093271864578,2.3084587286800144,10.565505543285608
1789845439241158700,3.75015869140625,0.49066637890338893,2.1833505860209463,11.042785201871395
1789845439251216600,3.760216552734375,1.0536895534873008,2.1520067687302826,11.229398491328954
1789845439261273600,3.770273681640625,1.3816004883825779,2.181808617275953,11.201197648239136
1789845439271330600,3.78033056640625,1.4873451744019985,1.971122962835431,11.34790913541913
1789845439281387500,3.790387451171875,1.3395078980624675,2.1613433368742463,11.36413429403305
1789845439291444500,3.800444580078125,0.9683400052428245,2.0975024406045675,11.505046155023575
1789845439301501400,3.81050146484375,0.9211270031690597,1.183316634875536,11.871597493958472
1789845439311558700,3.82055859375,0.6405833841264248,0.29173779775202274,11.78849952403307
1789845439321615600,3.83061572265625,-0.2268365787744522,-0.28733634792268276,11.597413473075628
1789845439331672600,3.840672607421875,-1.1922972291886806,-1.1109212607502936,12.10107260454297
1789845439341729500,3.8507294921875,-2.263788981348276,-1.3666308827877043,13.344855690819024
1789845439351786500,3.860786376953125,-2.745097164797783,-0.2021925513833761,14.464588034534453
1789845439361844500,3.870844482421875,-2.5815835958987474,2.241858304569125,14.769308647978304
1789845439371901400,3.8809013671875,-2.200164942699671,4.539556569781899,14.380661212569475
1789845439381958700,3.890958740234375,-1.6109581100672483,5.438461219748854,13.627327063053846
1789845439392015600,3.901015625,-0.7375584882348776,5.0819613192290065,12.672109574234485
1789845439402072600,3.911072509765625,-0.03788052558302879,3.804354289284348,11.522476597774029
1789845439412129500,3.921129638671875,0.317231683438085,2.012811648529768,10.414003314697743
1789845439422186500,3.9311865234375,0.6158645379334687,0.20955928075909613,9.520337149906158
1789845439432243700,3.94124365234375,0.544126787466742,-1.0006401003450154,8.656361189979314
1789845439442300700,3.95130078125,0.10883507151650264,-1.4244219774991274,7.987479932129383
1789845439452357600,3.961357666015625,-0.20683482423126695,-1.447379074716568,7.476204480439424
1789845439462415600,3.97141552734375,-0.11951951060546562,-1.34976099652946,7.161949145931005
1789845439472472300,3.981472412109375,1.0321160195827483,-1.1296949348032475,7.058161439198255
1789845439482529300,3.991529296875,2.4351450804412362,-1.371640819904208,6.677958591529727
1789845439492586500,4.00158642578125,3.567161736190319,-2.020440828233957,6.265315363505482
1789845439502643500,4.0116435546875,4.162764991861581,-2.3114649247586727,5.6348290105015035
1789845439512700400,4.021700439453125,4.4966684451699255,-2.577906368690729,4.828454175671935
1789845439522757400,4.03175732421875,4.560622154164314,-2.8237580290585753,3.8234424361139534
1789845439532814300,4.041814453125,4.38114120080471,-3.2694629842072724,2.9506548087000843
1789845439542871600,4.05187158203125,4.316889385646581,-3.843046131250262,2.2932868785113096
1789845439552928500,4.061928466796875,4.46922514244914,-4.48437068913281,1.8023539576262235
1789845439562985500,4.0719853515625,4.741919509296119,-5.160496511283516,1.4335101238399743
1789845439573043500,4.08204345703125,4.920589438533782,-5.658492210161685,1.043789506241679
1789845439583100400,4.092100341796875,5.069415141388774,-6.2597559758126735,0.689404990440607
1789845439593157400,4.102157470703125,5.273244354063272,-7.028804996332526,0.2661287247210741
1789845439603214300,4.11221435546875,5.308108746695519,-7.609592375665903,-0.22707857083678243
1789845439613271600,4.122271484375,5.160432798397541,-8.129136474007367,-0.7442150235146283
1789845439623328500,4.13232861328125,4.692226965366304,-8.778596407550573,-1.3662754934787749
1789845439633385500,4.142385498046875,4.282916681157053,-9.752837161269783,-2.0084429319262505
1789845439643442400,4.1524423828125,4.107170238150656,-10.213168607664107,-2.8288346016705033
1789845439653499400,4.16249951171875,3.2687165497541426,-10.020050758618115,-4.532641675826907
1789845439663556400,4.172556396484375,2.875416027842462,-10.169518851029872,-6.7477452444612975
1789845439673613300,4.18261328125,2.718429230363667,-10.720858602082728,-8.473054540851711
1789845439683671600,4.192671630859375,2.5649454725697636,-11.251983248102665,-10.02155297987461
1789845439693728500,4.202728515625,2.674792917732894,-11.479968996912241,-11.261265455710888
1789845439703785500,4.212785400390625,3.0247964419707656,-11.531897921591996,-12.215958043873309
1789845439713842400,4.222842529296875,3.744845869261026,-11.858999878191947,-12.916339186358451
1789845439723899400,4.2328994140625,4.464026404762268,-12.139722360932826,-13.6108482219398
1789845439733956400,4.242956298828125,4.869993808284401,-12.243292625522614,-14.14890412852764
1789845439744013300,4.253013427734375,5.213619614183902,-13.117898700535296,-14.027069892972706
1789845439754070300,4.2630703125,5.5351019773364065,-14.462123690247536,-13.372511759507656
1789845439764127200,4.273127197265625,5.7705327814549205,-15.101208360248803,-12.617950114023685
1789845439774184400,4.283184326171875,5.752491513329744,-14.824635982924699,-11.94717149811983
1789845439784242400,4.293242431640625,5.672551130652427,-14.251971704292297,-11.105361777293682
1789845439794299400,4.30329931640625,5.943930615508556,-13.714876751691103,-9.899586642372608
1789845439804356400,4.3133564453125,5.999529168611764,-13.141850069487093,-8.336606089010834
1789845439814413300,4.323413330078125,5.63198180437684,-12.781840699541569,-6.567761602276564
1789845439824470300,4.33347021484375,5.071765503907203,-12.33156829034686,-4.89122072070837
1789845439834527200,4.34352734375,4.476047681945562,-11.845180611675977,-3.3410067099392413
1789845439844584400,4.35358447265625,3.9896626336231824,-11.086655907779932,-1.9859429308265446
1789845439854641400,4.363641357421875,3.44195276350528,-9.776354230457544,-1.0176303981125354
1789845439864698400,4.373698486328125,2.902487866902351,-8.585756790924071,-0.22627134610712527
1789845439874755300,4.38375537109375,2.4933950248360635,-7.68367467996478,0.301136909738183
1789845439884813300,4.393813232421875,2.24849335866943,-6.974360873961448,0.6961994728863239
1789845439894870300,4.403870361328125,2.0338113280691203,-6.523014698055386,0.924020971044898
1789845439904927200,4.41392724609375,1.6642355267465114,-6.082675653854012,0.968941478267312
1789845439914984400,4.423984375,1.2743582572817802,-5.686748582831025,1.0079214895248412
1789845439925041400,4.43404150390625,0.9422716441370547,-5.255254523864388,1.1687106018960476
1789845439935098400,4.444098388671875,0.6572456189833581,-4.753780335220695,1.29627256744802
1789845439945155300,4.4541552734375,0.4077015338383615,-4.438952169260382,1.5136825617074965
1789845439955212300,4.46421240234375,0.19604060462489722,-4.016124816352129,1.5664415074706077
1789845439965269200,4.474269287109375,0.01165872748121619,-3.517932133597135,1.7619845378369092
1789845439975326200,4.484326171875,0.04553432827182114,-3.108619511300325,2.2212825495302675
1789845439985383200,4.494383056640625,0.16583119819164274,-2.613747497400641,2.5886557262420653
1789845439995441400,4.50444140625,0.23760244906917213,-2.1710990072131158,3.0312054322302338
1789845440005498400,4.514498291015625,0.25355741243958474,-1.7741548681020736,3.4853999833047387
1789845440015555300,4.524555419921875,0.09451127127818763,-1.331550801578164,3.925173794838786
1789845440025612300,4.5346123046875,-0.12571896803379057,-0.8714888197749853,4.42342142265141
1789845440035669200,4.544669189453125,-0.2929940083581954,-0.7256611296921968,5.04551228775382
1789845440045726200,4.554726318359375,-0.5252069464087485,-0.6959756010025739,5.718190599799156
1789845440055783200,4.564783203125,-0.599940371560119,-0.5031815770834684,6.376629958611726
1789845440065840400,4.57484033203125,-0.7032032141685486,-0.09969605350494384,6.957535995888709
1789845440075897300,4.5848974609375,-1.079087029594183,0.22468144656717776,7.73544753729999
1789845440085954300,4.594954345703125,-1.4550620304346085,0.5602811823993921,8.403950609487294
1789845440096012300,4.60501220703125,-1.567513520616293,1.045341411858797,8.951098169547318
1789845440106069200,4.6150693359375,-1.5455775831401348,1.596422804236412,9.439363332527876
1789845440116126200,4.625126220703125,-1.7202841617047786,2.021799257105589,9.869058233118057
1789845440126183200,4.63518310546875,-1.8281939168035983,2.003853266048431,10.182630846059322
1789845440136240400,4.645240478515625,-1.9523346757352351,1.8473206420779227,10.420083511394262
1789845440146297300,4.65529736328125,-2.182382033249736,1.9293249715477228,10.640350064128636
1789845440156354300,4.665354248046875,-2.4510738864570856,2.1962451389074324,10.898027186846733
1789845440166411500,4.67541162109375,-2.733802448323369,2.349724805048108,11.133933207261562
1789845440176468500,4.685468505859375,-2.9581179841876026,2.6266777061223983,11.289786616796254
1789845440186525400,4.695525390625,-3.1935861977070568,2.972400192040205,11.468477296561002
1789845440196582400,4.70558251953125,-3.3285482103824613,3.299785057234764,11.58495263543129
1789845440206640400,4.715640380859375,-3.518171787571907,3.6122196060568093,11.625856308227776
1789845440216697300,4.725697265625,-3.6949504962354895,3.5053134750425814,11.786701534700393
1789845440226754300,4.73575439453125,-3.8184868595331904,2.615672327983379,12.116250299930572
1789845440236811500,4.7458115234375,-3.821697053751349,1.5405588781952857,12.379646384817361
1789845440246868500,4.755868408203125,-4.302072340264917,0.5673901376217604,12.631588178753852
1789845440256925400,4.765925537109375,-5.09650188575685,-0.4675713345199823,13.281893330949543
1789845440266982400,4.775982421875,-5.665948371386528,-0.85331486518085,14.225361929786205
1789845440277039400,4.786039306640625,-5.6929813397407525,-0.20974457419812678,14.876714545208214
1789845440287096300,4.796096435546875,-5.284170821747184,1.3789005817741156,14.683422508639095
1789845440297153500,4.806153564453125,-4.383290487793087,2.7232471520394084,13.773942688643931
1789845440307210500,4.81621044921875,-3.4602225796893236,3.055142188134789,12.51372518491745
1789845440317268500,4.8262685546875,-2.558974581466615,2.8462913479059933,10.983865395390987
1789845440327325400,4.836325439453125,-1.6741557399973273,2.0409102002888915,9.426842873650788
1789845440337382400,4.84638232421875,-1.0649322475135325,1.072320604199171,8.07150261568427
1789845440347439400,4.856439453125,-0.6125169810712338,-0.05319383004903793,7.156987724131345
1789845440357496300,4.866496337890625,-0.1244236675262451,-0.9913573082149029,6.462048480439186
1789845440367553500,4.876553466796875,0.3149199358969927,-1.6686416527509689,5.969340951097011
1789845440377610500,4.886610595703125,0.6630097354680299,-2.1264052944839,5.688738879865408
1789845440387667500,4.89666748046875,0.9111900579791515,-2.3106115227997304,5.457317311388254
1789845440397724400,4.906724365234375,1.3008312536656856,-2.5122587152600286,5.292819407626986
1789845440407781400,4.916781494140625,1.9218167878746986,-2.8582734621226784,5.0362096218794585
1789845440417839400,4.92683935546875,2.6550012988090512,-2.918221442607045,4.63454020781219
1789845440427896300,4.936896240234375,3.5387586485266684,-3.00042158690989,4.147095713564753
1789845440437953500,4.94695361328125,4.246975891464948,-3.1945839765727517,3.775078510439396
1789845440448010500,4.957010498046875,4.85587935821414,-3.332992914831638,3.466242862892151
1789845440458067500,4.9670673828125,5.444502253478765,-3.3605817635029553,3.1011218490213155
1789845440468123600,4.97712353515625,5.868415063536167,-3.233941588971019,2.585972186246514
1789845440478180600,4.9871806640625,6.14810411157608,-3.0228806714773175,2.0234037696927785
1789845440488237600,4.997237548828125,6.217698456805944,-3.0682138511538506,1.5722452253133057
1789845440498294500,5.00729443359375,6.390913920029997,-3.81328403019309,1.3117641510903835
1789845440508351500,5.0173515625,6.669779376727342,-5.078569338703155,0.986207670366764
1789845440518409700,5.02740966796875,6.874473097276687,-6.259501708790659,0.540195256704092
1789845440528466700,5.037466796875,6.99920071618557,-6.298752353683113,-0.42870822764039035
1789845440538523600,5.047523681640625,6.937320890855789,-6.192608439213037,-1.5412310783684253
1789845440548580600,5.05758056640625,6.434393580794334,-5.992247194910049,-2.3702274948507545
1789845440558637600,5.067637451171875,5.713783304750919,-5.76120848827064,-3.158877872419357
1789845440568694500,5.077694580078125,5.052978970372677,-5.7216205742478365,-3.8973523064553737
1789845440578751500,5.08775146484375,4.355201288384199,-6.139633220350742,-4.246219520139694
1789845440588808400,5.097808349609375,3.7201685241222378,-6.599118863570689,-4.701403082251549
1789845440598865400,5.107865478515625,3.0134941267117856,-6.799753664118051,-5.635093798917532
1789845440608922600,5.117922607421875,2.7112346426844596,-7.162638881760835,-6.652757514777779
1789845440618979600,5.1279794921875,2.71415228369683,-7.537847574403882,-7.504675372642279
1789845440629037600,5.13803759765625,2.732632820022106,-7.889166857415438,-8.506234341397882
1789845440639094500,5.148094482421875,2.3348799948766827,-8.061279912355541,-9.510020923075079
1789845440649151500,5.1581513671875,2.00307234480381,-8.434949558863043,-10.229919835978746
1789845440659208400,5.16820849609375,2.0618878141269086,-8.678532105255126,-10.755274081903696
1789845440669265400,5.178265380859375,2.1570678515121338,-8.26939834665656,-11.111849970269203
1789845440679322600,5.188322509765625,2.3385192281618714,-7.7395333453088995,-11.061166077214478
1789845440689379600,5.198379638671875,2.7301532781660556,-7.388363699901103,-10.702273144078253
1789845440699436500,5.2084365234375,3.122790659993887,-7.36054513412714,-10.194604192447661
1789845440709493800,5.21849365234375,3.397674938100576,-8.005936795318126,-9.539836800146102
1789845440719550700,5.22855078125,3.6014649878084657,-8.721443026220799,-9.082064390584826
1789845440729607700,5.238607666015625,3.7853693105682726,-9.562488192415238,-8.53624544878006
1789845440739665400,5.24866552734375,4.02031934543252,-10.447942993700504,-7.983995012623071
1789845440749722600,5.25872265625,4.192906739886105,-10.699604217129945,-7.343108261635899
1789845440759779600,5.268779541015625,4.454551012669503,-10.404635766893625,-6.5507578605055805
1789845440769836500,5.27883642578125,4.8725312178075315,-9.982629667240381,-5.515712801733613
1789845440779893800,5.288893798828125,4.913024556237459,-9.300221988341212,-4.409028155639767
1789845440789950700,5.29895068359375,4.561554174317419,-8.34909089205265,-3.2683956472367046
1789845440800007700,5.309007568359375,4.133331099845469,-7.353716749411821,-2.035051537388563
1789845440810064600,5.319064697265625,3.8004146117478608,-6.260365047621726,-0.9931371773689984
1789845440820121600,5.32912158203125,3.3999814614772794,-5.170684143298864,-0.27388533019721506
1789845440830178800,5.3391787109375,3.011372896774113,-4.388420836418867,0.3429822472989559
1789845440840236500,5.349236572265625,2.6883830516681075,-4.1146518260777,0.8750573259115219
1789845440850293800,5.359293701171875,2.387548485877365,-4.213319121056795,1.0672159745365382
1789845440860350700,5.369350830078125,1.9819019848726689,-4.22987161192894,0.9851830034941434
1789845440870407700,5.37940771484375,1.4189913307525217,-4.05252591703236,0.9124100282281636
1789845440880464600,5.389464599609375,0.801676447880268,-3.721893448218703,0.9786047941476106
1789845440890521600,5.399521484375,0.15924714362621306,-3.324567031791806,1.0731161384910344
1789845440900578800,5.409578857421875,-0.5708791487812995,-2.7461872981220483,1.2141221075057982
1789845440910635800,5.4196357421875,-1.1644027486342936,-2.0757056193381547,1.440318050289154
1789845440920692700,5.429692626953125,-1.52501527210474,-1.5242437032103537,1.67141813172698
1789845440930749700,5.439749755859375,-1.87897484049201,-0.8271995961934328,1.8741957895219326
1789845440940806700,5.449806640625,-2.21152454110384,-0.15208499691188335,2.116405293995142
1789845440950864600,5.45986474609375,-2.1644038934886454,0.11515022774636745,2.2618723340719935
1789845440960921600,5.469921630859375,-2.1561504444062707,0.4968225634455681,2.1157395235627887
1789845440970978800,5.479978759765625,-2.024901899296045,0.749585026115179,2.133768516728282
1789845440981035800,5.490035888671875,-1.8756266991078852,0.8098352044165134,2.137751448884606
1789845440991092700,5.5000927734375,-1.9619436310797929,0.9844622880041599,2.152035702563822
1789845441001149700,5.510149658203125,-2.0412445468097924,1.1358002659410238,2.2937065652281046
1789845441011206700,5.52020654296875,-1.9707856937050818,1.206787526834011,2.7070012428984045
1789845441021263600,5.530263671875,-1.9155524667829273,1.4184727137058972,3.1205922731667757
1789845441031320600,5.540320556640625,-1.7752596144735813,1.454780875405669,3.564460952799022
1789845441041377500,5.55037744140625,-1.3160954582929612,1.0990379307329654,4.172482376016676
1789845441051435800,5.560435791015625,-0.9520862050563097,0.6648468877673148,4.628810431988537
1789845441061492700,5.57049267578125,-0.780693281084299,0.2430968087017536,4.892247433407604
1789845441071549700,5.5805498046875,-1.0230026657354085,0.17512509623765946,5.140839624655246
1789845441081606700,5.590606689453125,-1.3245014675885438,0.34921968038380147,5.579815563809872
1789845441091663600,5.60066357421875,-1.4183160618394612,0.3548684999257326,6.190189103111624
1789845441101720600,5.610720458984375,-1.6611574344754219,0.23974866731762884,6.908240342321991
1789845441111777500,5.620777587890625,-2.1330881332486866,0.5524965198725461,7.547955126920342
1789845441121834500,5.63083447265625,-2.704675722560286,0.92056703119874,8.300559208595752
1789845441131891700,5.6408916015625,-3.0205443374842402,1.1119938584178686,9.007572920963167
1789845441141948700,5.65094873046875,-3.206120685109496,1.1604489695072173,9.590206220424175
1789845441152005600,5.661005615234375,-2.926767152634263,1.0650187567532061,10.158546206116675
1789845441162063600,5.671063720703125,-2.6743822911053896,1.1055500891059638,10.418114841669798
1789845441172120600,5.68112060546875,-2.610508077087998,1.49599551384747,10.615160677814483
1789845441182177500,5.691177490234375,-2.631892810422182,2.106242796421051,10.695573354178666
1789845441192234500,5.701234375,-2.846400653499365,2.4604881960123777,10.700535945022105
1789845441202291700,5.711291748046875,-3.023442981535196,2.0097405705213545,10.769696575009823
1789845441212348700,5.7213486328125,-2.997463906148076,0.5842208609133959,10.852482410246132
1789845441222405600,5.731405517578125,-2.889568764096498,-0.8370908756107092,10.79734095326066
1789845441232462600,5.741462646484375,-2.756745517015457,-1.568154741129279,10.761189443427323
1789845441242519600,5.75151953125,-2.530181325441599,-1.8764438607096672,10.715006368923186
1789845441252576500,5.761576416015625,-2.0661457638323304,-1.6665835511773823,10.563589480531215
1789845441262634500,5.771634521484375,-1.2772491564176975,-0.7004045233607292,9.960014515328407
1789845441272691700,5.781691650390625,-0.45727454304173587,0.0704664518892765,9.017027562528849
1789845441282748700,5.791748779296875,0.1532661695204675,0.687711630526185,7.9118112354218955
1789845441292805600,5.8018056640625,0.9430212934605777,0.7816273470640182,6.797471690660715
1789845441302862600,5.811862548828125,1.5522959316097198,0.6697358288526535,5.799219946756959
1789845441312919600,5.82191943359375,1.751194263753295,0.6695633948951959,4.886512104626
1789845441322976500,5.8319765625,1.6972271112442017,0.5781394951730966,4.199820172536373
1789845441333033500,5.842033447265625,1.5585129064284264,0.36883974213302134,3.7708588469177484
1789845441343090400,5.85209033203125,1.4375439094007014,0.35172318763732907,3.380015947291255
1789845441353147400,5.8621474609375,1.4696271468818187,0.39806232948601245,3.048872606346011
1789845441363204600,5.87220458984375,1.6073317362636326,0.5877016887664794,2.9118700277537104
1789845441373262600,5.8822626953125,1.801232990772277,0.7061743389338254,2.9794653081208464
1789845441383319600,5.892319580078125,2.149223129361123,0.7338005970060825,3.045043695707619
1789845441393376500,5.90237646484375,2.5903186910182234,0.7609528078258037,3.0592426091909406
1789845441403433500,5.91243359375,2.8904449624091386,1.2421803272545338,3.06954802236706
1789845441413490400,5.922490478515625,3.1262060213953253,1.6761808160841465,3.1552512063547966
1789845441423547400,5.93254736328125,3.4595746371746063,1.6290782886475323,3.3449703528732058
1789845441433604600,5.9426044921875,4.0367900032401085,1.652945486447215,3.423028575065732
1789845441443661600,5.95266162109375,4.7190416147947305,1.8944249230802057,3.382006828847527
1789845441453718800,5.96271875,5.43000143443942,1.771330458331108,3.395894484424591
1789845441463775700,5.972775634765625,5.973328559428453,1.6900263860851525,3.2979204324066638
1789845441473834000,5.982833984375,6.351391472458839,1.8371867860764264,3.06665697710067
1789845441483891000,5.992890869140625,6.615334669834375,1.8191823428303002,2.9121655035689473
1789845441493948200,6.0029482421875,6.688170773464441,1.2345938176482916,2.9928406302616
1789845441504005000,6.013005126953125,6.849397108209133,0.5806769046962261,2.875091618193686
1789845441514062000,6.02306201171875,7.0846133927941315,0.5398422054827213,2.421911212597787
1789845441524119000,6.033119140625,7.502385215878486,0.076370122975111,2.153785176579654
1789845441534176000,6.043176025390625,7.8538932994604105,-0.5005453833609819,1.8739146344929933
1789845441544233000,6.05323291015625,7.848219929999113,-0.6621124943673611,1.2597948944002388
1789845441554290200,6.063290283203125,7.538568289893865,-0.8779875341445207,0.4758060789018869
1789845441564347100,6.07334716796875,7.262260700985789,-1.6310592333316802,-0.1985375360071659
1789845441574404400,6.083404296875,7.565617624861002,-3.5875913607567544,-0.36616496996581555
1789845441584462000,6.093462158203125,8.87856718634367,-5.962167698466778,-0.46522973982989785
1789845441594519000,6.10351904296875,10.376879160439968,-7.083845915552973,-0.777787622770667
1789845441604576000,6.113575927734375,11.303905158519743,-6.70967533378601,-1.0391349584341047
1789845441614633000,6.123633056640625,11.257987456953526,-5.743615548434853,-1.2273743877887726
1789845441624690200,6.133690185546875,10.481849939477444,-4.083384581154585,-2.2245190472334624
1789845441634747100,6.1437470703125,10.289018506157397,-3.0509494126200676,-3.761224757131934
1789845441644804400,6.153804443359375,10.251745883339643,-3.5181367162585255,-5.031048878115415
1789845441654861300,6.163861328125,10.210016865634918,-4.869541972863674,-5.902873213455081
1789845441664918300,6.173918212890625,10.61248122947216,-6.107005208468437,-6.613301118180155
1789845441674975200,6.183975341796875,10.621348426538706,-6.9698115400940175,-6.900238237652182
1789845441685032200,6.1940322265625,9.85232220237255,-7.450095641192793,-6.742973792275786
1789845441695090200,6.204090087890625,8.689097922933101,-7.279559041789174,-6.205443955388665
1789845441705147100,6.214147216796875,7.705117280966043,-6.830265122237801,-5.39699172976315
1789845441715204400,6.224204345703125,6.884739639747142,-6.273015270358323,-4.515663653019071
1789845441725261300,6.23426123046875,6.314923151761293,-5.83398087901473,-3.573703705179691
1789845441735318300,6.244318359375,5.903932951641083,-5.24105882525146,-2.8783786770403386
1789845441745375200,6.254375244140625,5.42397852088809,-4.43904978441596,-2.382610006561875
1789845441755432200,6.26443212890625,4.732477727212012,-3.8865462502807375,-1.876934274575114
1789845441765489200,6.2744892578125,3.7889559368833896,-3.614692718172073,-1.3107459139585493
1789845441775546000,6.284546142578125,2.661215935540199,-3.3260862041831016,-0.6441349391281604
1789845441785603000,6.29460302734375,1.635135835120827,-3.133953859043121,0.007506137846410274
1789845441795661300,6.304661376953125,0.773564305987209,-2.752044207456708,0.45822424498200415
1789845441805718300,6.31471826171875,0.1728747600276023,-2.1160276928544044,0.6626829877316951
1789845441815775200,6.324775146484375,-0.333826223353669,-1.5164327371984718,0.8003539671048522
1789845441825832200,6.334832275390625,-0.5408066666007042,-1.2921791606545447,0.8260632856398821
1789845441835889200,6.34488916015625,-0.5459387322595343,-1.2140209852188826,0.8451812430858612
1789845441845946000,6.354946044921875,-0.6576888327062129,-1.1531857005059718,0.9799047708302736
1789845441856003000,6.365003173828125,-0.8807382941573858,-1.104808915349841,1.2172805715367196
1789845441866060000,6.37506005859375,-1.1130880833953618,-1.0366162536114454,1.4961621025860308
1789845441876117200,6.3851171875,-1.2422872947603463,-0.8821662811338901,1.7218647088944912
1789845441886174200,6.39517431640625,-1.4468237789213656,-0.514353543961048,1.951363200354576
1789845441896231200,6.405231201171875,-1.708134874227643,-0.1480956350147724,2.2584598952800032
1789845441906289200,6.4152890625,-2.0192934117645023,0.20193068557679653,2.5392516438648105
1789845441916346000,6.42534619140625,-2.2058729450829326,0.4510772958368063,2.7237176921606063
1789845441926403000,6.435403076171875,-2.2188521075129506,0.36523207302987576,2.997500731027126
1789845441936460000,6.4454599609375,-2.558687288957834,0.48699675047993657,3.1773201225608587
1789845441946517200,6.455517333984375,-3.146863024976849,1.2122563136339186,3.2518051624417303
1789845441956574200,6.46557421875,-3.6988311370611187,1.7544173174530266,3.230432411806285
1789845441966631200,6.475631103515625,-4.49092522534281,2.268456388637423,3.268979000082612
1789845441976688000,6.485688232421875,-5.249202384218573,2.6569682149678466,3.2812478222861885
1789845441986745000,6.4957451171875,-5.794024716201425,2.6401427523732184,3.3440511922016736
1789845441996802000,6.505802001953125,-6.339767085638642,2.387826864427328,3.5157121194601055
1789845442006859000,6.51585888671875,-7.049222345939278,2.164869172912836,3.648832303661108
1789845442016917200,6.525917236328125,-7.557255454707145,1.7043138546347618,3.717202952314913
1789845442026974200,6.53597412109375,-7.79143479745984,1.2453934440821408,3.800311151373386
1789845442037031200,6.54603125,-7.9941317912340155,1.110605618929863,3.8110324518740173
1789845442047088000,6.556088134765625,-8.298352053940295,1.210678104531765,3.996227106705308
1789845442057145000,6.56614501953125,-8.573997964069246,1.3111714458942412,4.164438478031754
1789845442067202000,6.5762021484375,-8.54281079864502,1.207632745486498,4.309606242901086
1789845442077259000,6.586259033203125,-7.844123600596189,0.6495452737390994,4.467614784643054
1789845442087316000,6.59631591796875,-7.583945893234014,0.39114159031212326,5.09778783391416
1789845442097373000,6.606373046875,-7.419594704467058,-0.06848316911756992,5.25403813381195
1789845442107430100,6.61643017578125,-6.443990261179208,-0.8422820145130157,5.4720852569311855
1789845442117488000,6.626488037109375,-5.555276165837049,-1.2419921112060546,5.85932633267343
1789845442127545000,6.636545166015625,-5.010090261238813,-1.2554974894672633,6.127239018201828
1789845442137602000,6.64660205078125,-4.691451012557745,-1.0655033253997563,6.4721034259855745
1789845442147659000,6.656658935546875,-4.186483136579394,-0.911518047824502,6.825701175323128
1789845442157716000,6.666716064453125,-3.654409811532497,-0.8478618604719639,7.226156537425518
1789845442167773000,6.67677294921875,-3.3260034943357106,-1.0665817682862282,7.83328598023951
1789845442177830100,6.686830078125,-2.4148745919592676,-2.00663383667767,8.362765781661867
1789845442187887000,6.69688720703125,-1.1393054975830017,-2.804672220316529,8.635529998874663
1789845442197944000,6.706944091796875,-0.25949104027226566,-3.2040479704886673,8.858413456109165
1789845442208001000,6.7170009765625,0.1087426257263869,-3.605761223697662,9.149396051579714
1789845442218058000,6.72705810546875,0.13887662883587182,-3.753407361379266,9.482592233401537
1789845442228116000,6.737115966796875,0.06724164462387561,-3.5572084974527356,9.744910459923744
1789845442238173000,6.7471728515625,0.030247327290847895,-2.754412690153718,9.851468800413608
1789845442248230100,6.757230224609375,0.10868541564643383,-1.4600696294635533,9.626251347273588
1789845442258287000,6.767287109375,0.25877427030503747,-0.17719956442415713,9.256668093296884
1789845442268344000,6.777343994140625,0.4745446806639433,0.5744950011909008,8.967121083587408
1789845442278401000,6.787401123046875,0.6838064397811889,0.7965157041162252,8.494223585608601
1789845442288458000,6.7974580078125,0.9153168555855751,0.5682388634055853,7.876465196752548
1789845442298515200,6.80751513671875,1.2383598921835421,0.09968611663281916,7.3470572915226215
1789845442308572200,6.817572265625,1.6968880885481834,-0.5150222370028495,6.797432527694106
1789845442318629000,6.827629150390625,2.1439292607367038,-1.043519457128644,6.265716930043697
1789845442328687000,6.83768701171875,2.4760429080188273,-1.295856387862563,5.725473742544651
1789845442338744000,6.847744140625,2.6996213617801663,-1.3640239151597022,5.269007154884934
1789845442348801000,6.857801025390625,2.8572458726406094,-1.3139941020995378,4.896460667188466
1789845442358858000,6.86785791015625,2.938479217737913,-0.9700263508945703,4.459934167012572
1789845442368915200,6.877915283203125,3.0953344977915287,-0.5494014764666557,4.1244112958088515
1789845442378972200,6.88797216796875,3.419298740887642,-0.4219312808513641,3.776232648910582
1789845442389029000,6.898029052734375,3.6701425104543564,-0.24544249504506588,3.3747382991492745
1789845442399086300,6.90808642578125,4.067258206740021,-0.2383820551395416,3.06573372477591
1789845442409143300,6.918143310546875,4.469336786130071,-0.4428764537245035,2.80230198405385
1789845442419200300,6.9282001953125,4.668152846817672,-0.7570604765623807,2.6028493790283798
1789845442429257200,6.93825732421875,4.993730662590265,-1.223828093484044,2.4168995219156146
1789845442439315200,6.948315185546875,5.396740969872474,-1.4364321487665175,1.9825281539469957
1789845442449372200,6.9583720703125,5.6748132303655145,-1.569675082564354,1.6096329989433287
1789845442459429000,6.96842919921875,5.770152257704734,-1.8429548480838536,1.3275351361960173
1789845442469486300,6.978486328125,5.736638695159554,-2.1305793652981517,1.139074757567048
1789845442479543600,6.98854345703125,5.804300611022114,-2.5305150874406097,0.9330348831057548
1789845442489600500,6.9986005859375,5.977592062091827,-2.9278046789884566,0.6871347074210643
1789845442499657500,7.008657470703125,6.1197033619999885,-3.1664936081200836,0.20538871707618236
1789845442509714400,7.01871435546875,6.28479046382606,-3.4440964975357056,-0.271908477166295
1789845442519771400,7.028771484375,6.4692790162146085,-3.7108670272916555,-0.8713988034039736
1789845442529828400,7.038828369140625,6.540555615442991,-3.864305192378163,-1.4687836817950009
1789845442539886300,7.04888623046875,6.645918024146557,-4.115250376492739,-1.709229683727026
1789845442549943600,7.058943603515625,6.919145182695984,-4.158055498996377,-2.188042543229461
1789845442560000500,7.06900048828125,7.123142153152823,-4.1828327973783015,-2.90711494218111
1789845442570057500,7.079057373046875,7.270548052337765,-4.546709948667884,-3.502511277103424
1789845442580114400,7.089114501953125,7.405778945082425,-4.966956637433171,-4.348270027816295
1789845442590171400,7.09917138671875,7.336776136004924,-5.157826999813318,-5.445781771895289
1789845442600228400,7.109228271484375,7.122061956700683,-5.543404526257515,-6.5357824096918105
1789845442610285300,7.119285400390625,6.953351403680443,-6.409714482089877,-7.499902166891098
1789845442620342300,7.12934228515625,6.681840985921025,-7.173682838344574,-8.126621860837936
1789845442630399200,7.139399169921875,6.356888316309452,-7.647932919976115,-8.29757756243646
1789845442640456400,7.14945654296875,5.855756657493114,-8.178016532510519,-7.771486234408616
1789845442650514400,7.159514404296875,5.6504754924446345,-8.87530263158977,-6.931346492621302
1789845442660571400,7.1695712890625,5.757689666494727,-9.00087488462925,-6.37069296977818
1789845442670628400,7.17962841796875,5.740832055196166,-8.552869835844636,-6.048289984649419
1789845442680685300,7.189685302734375,5.655718069273233,-8.193442065179347,-5.660195506948233
1789845442690742300,7.1997421875,5.468392832154035,-8.07780726878643,-5.201330041453242
1789845442700799200,7.20979931640625,5.21582618431747,-7.864871789592504,-4.816785365188122
1789845442710856400,7.2198564453125,4.87374526977241,-7.5011366771221155,-4.476461523443461
1789845442720913400,7.229913330078125,4.409905522996187,-6.986197442227602,-3.978820629352331
1789845442730970400,7.239970458984375,3.929682796695828,-6.385208401864767,-3.6166964592099187
1789845442741027300,7.25002734375,3.5116032228365537,-6.044506958979368,-3.0962685637712477
1789845442751084300,7.260084228515625,3.1951641145482657,-5.672888399782776,-2.611663092342019
1789845442761142300,7.270142333984375,2.8090055733457207,-5.308911879771948,-1.9731290419608354
1789845442771199200,7.28019921875,2.253445281988382,-4.817238954174519,-1.6064537843853235
1789845442781256400,7.29025634765625,1.8989447385922074,-4.187348228976131,-1.5174667564213276
1789845442791313400,7.3003134765625,1.5499518527016043,-3.8155402846872803,-1.3301654846996067
1789845442801370400,7.310370361328125,1.1948393148869276,-3.56426893735826,-1.3273895902454853
1789845442811427300,7.32042724609375,0.8438032327309251,-3.411247536379099,-1.2974591468840837
1789845442821484300,7.330484375,0.49690088937878607,-3.610461364212632,-1.1109095703125
1789845442831541200,7.340541259765625,0.23284312571287155,-3.722747434699535,-0.8046925808310508
1789845442841598200,7.35059814453125,-0.09896657018661499,-3.322075214976072,-0.4907523036211729
1789845442851655200,7.3606552734375,-0.47383127169758077,-2.555360774883628,-0.32522096515893933
1789845442861713400,7.37071337890625,-1.0502937735691666,-1.9440344649016856,0.04082768495082855
1789845442871770400,7.380770263671875,-1.8348830391786992,-1.5822797125935553,0.4069833025664091
1789845442881827300,7.390827392578125,-2.226045233887434,-1.0616256071835755,0.5784364322930574
1789845442891884300,7.40088427734375,-2.372858427876234,-0.981041665905714,0.7916215023338794
1789845442901941200,7.410941162109375,-2.450767012465,-0.9242308144032955,0.9073524525776505
1789845442911998200,7.420998291015625,-2.5196929569140076,-0.7347235570698976,0.9843506443232297
1789845442922055200,7.43105517578125,-2.422521745711565,-0.7618564786672591,1.1448019030421972
1789845442932112100,7.441112060546875,-2.530443191248178,-0.8248924882948399,1.522514395199716
1789845442942169300,7.45116943359375,-2.7396634493112564,-0.5970768353551625,2.1436530741438267
1789845442952226300,7.461226318359375,-3.032213147968054,0.03836860136091709,2.6269629528045653
1789845442962284300,7.4712841796875,-3.3665959092259405,0.561991493448615,3.186574857640266
1789845442972341200,7.48134130859375,-3.576363279777765,0.8471504973322153,3.5515453571245073
1789845442982398200,7.491398193359375,-3.635500528401136,0.8878507565110921,3.8446936061963437
1789845442992455200,7.501455078125,-3.7428199163913725,0.9333592927545309,4.148865938107669
1789845443002512100,7.51151220703125,-3.891922098100185,1.0290046095639467,4.536213689094781
1789845443012569300,7.5215693359375,-3.9351182657480237,0.9489777176469564,4.984370129048824
1789845443022626300,7.531626220703125,-3.8944542469263075,0.9627133975327015,5.34652352528572
1789845443032683300,7.541683349609375,-4.117058887219429,1.3309773856043814,5.751320131462812
1789845443042740200,7.551740234375,-4.343072459173202,1.6625065109968185,6.2359647658586495
1789845443052797400,7.56179736328125,-4.409067318606376,1.841519846844673,6.772150202399492
1789845443062854400,7.5718544921875,-4.458254835623502,1.8312907137751577,7.3539593259960405
1789845443072912100,7.581912109375,-4.404994370079041,1.7247043162345885,7.879933165124058
1789845443082969300,7.59196923828125,-4.273966774243116,1.564769774866104,8.639973534280061
1789845443093026300,7.6020263671875,-3.9574785661160945,1.292770112285018,9.467239765968918
1789845443103083300,7.612083251953125,-3.7825311645329,1.1955144376695155,10.291976186919213
1789845443113140200,7.62214013671875,-3.883274096742272,1.3425626094579697,11.185544152033328
1789845443123197400,7.632197509765625,-4.0239755298525095,1.5842887143284081,12.118905198353529
1789845443133254400,7.64225439453125,-3.993997740218043,1.936708067536354,12.969789036995172
1789845443143311400,7.652311279296875,-3.898867387193441,2.2651275364756582,13.650504525023697
1789845443153368300,7.662368408203125,-3.856336405456066,2.4262580096304416,14.15778301603198
1789845443163425500,7.672425537109375,-3.732701257959008,1.726210629144311,14.642417129033802
1789845443173483300,7.682483154296875,-3.327622327709198,0.3822171101003885,14.861924972355364
1789845443183540200,7.692540283203125,-2.7261896352320907,-0.9553811549484729,14.962285042726993
1789845443193597400,7.702597412109375,-2.2154326544582843,-2.2893945472478867,15.225241567152738
1789845443203654400,7.712654296875,-1.6441712283611296,-3.000736644208431,15.251492445218561
1789845443213711400,7.72271142578125,-0.763634009733796,-2.4988661497235296,14.721985755789278
1789845443223768300,7.732768310546875,0.32890696019530297,-1.139074757567048,13.741310000586509
1789845443233825500,7.742825439453125,1.366036424025893,0.2603980721145868,12.562025397706032
1789845443243882500,7.752882568359375,2.3815701421201227,1.063074052426219,11.494198597794771
1789845443253939500,7.762939453125,3.2999873018085957,1.2087667179524897,10.588636243504284
1789845443263996400,7.772996337890625,4.004871016409993,1.0642390045523642,9.731696173563599
1789845443274053400,7.783053466796875,4.36969041698575,0.4910124158620834,9.161063693019747
1789845443284111400,7.793111328125,4.433776812449097,-0.4403197549790144,8.685366919711232
1789845443294168300,7.803168212890625,4.501971812275052,-1.2495938183814286,8.429245794263482
1789845443304225500,7.8132255859375,5.004524443805217,-1.735790942916274,8.166036171859503
1789845443314282500,7.823282470703125,5.765992799937725,-1.8793045108377933,7.720866638761758
1789845443324339500,7.83333935546875,6.445102021813392,-1.8303344359636307,7.357091778802872
1789845443334396400,7.843396484375,7.067409744536876,-1.5738427236378192,6.927467020839452
1789845443344453400,7.853453369140625,7.771047842991352,-0.9537801494926214,6.574273760649562
1789845443354510300,7.86351025390625,8.397064941626788,-0.5719757118463515,6.599941870391368
1789845443364567300,7.8735673828125,8.719086233961582,-0.930018750154972,6.7216311445176595
1789845443374624300,7.883624267578125,8.742852893996238,-0.798045397901535,6.367687358221412
1789845443384681200,7.89368115234375,8.47926976210475,-0.6081400811612606,5.927987196445465
1789845443394739500,7.903739501953125,8.122582814580202,-1.3625830687016247,5.815715739005804
1789845443404796400,7.91379638671875,8.273640806531906,-1.7506863142311573,5.121663799542189
1789845443414853400,7.923853271484375,8.357440202724932,-1.7937024491369724,4.190943623119592
1789845443424910300,7.933910400390625,8.037889099895954,-2.2037030536979434,3.458830540809035
1789845443434967300,7.94396728515625,7.626151296278834,-2.78643046118319,2.6634879721254108
1789845443445024300,7.954024169921875,7.28124304935336,-3.5500995422303676,1.8875626360952853
1789845443455081200,7.964081298828125,6.701915221178531,-4.847482701268792,1.4036942467689513
1789845443465138400,7.974138427734375,6.250265678411722,-5.599347947275638,0.6217348912715911
1789845443475195600,7.984195556640625,5.842756890666484,-6.141772570466995,-0.2777466818004846
1789845443485252600,7.994252685546875,5.481161128312349,-6.923231575226783,-1.0164467412859202
1789845443495310600,8.004310546875,4.953433723515272,-7.640141827708482,-1.8629571871489286
1789845443505367600,8.014367431640625,4.388546216364205,-8.08049256234765,-2.747680167028308
1789845443515424500,8.024424560546874,3.7569934031724928,-8.54530904520154,-3.273835207942128
1789845443525481500,8.0344814453125,3.5354385641932486,-9.122295863208175,-3.698465226358175
1789845443535538700,8.04453857421875,3.3872657722890374,-9.627000119814277,-4.104546611648797
1789845443545595600,8.054595703125,3.231911544448137,-10.44161028354764,-4.255755410248041
1789845443555652600,8.064652587890626,3.604864567118883,-10.878515846168995,-4.706027819442749
1789845443565709600,8.07470947265625,3.9259795582637187,-10.754297930347919,-5.353783287155628
1789845443575766500,8.0847666015625,4.248245765270292,-10.503681832057238,-5.717148981791734
1789845443585823500,8.094823486328124,4.368703451775014,-9.9481300162673,-5.944761221113801
1789845443595881500,8.104881591796875,4.392373373436928,-9.087748865962029,-6.228841782110929
1789845443605938700,8.114938720703124,4.300840752643347,-8.539223003286123,-6.417295730999112
1789845443615995600,8.12499560546875,3.9386490702226755,-9.18509923312366,-5.937223811346292
1789845443626052600,8.135052490234376,3.724378250771761,-10.577149219328165,-5.404021190008521
1789845443636109600,8.145109619140625,3.7933354671418664,-10.936033969157933,-5.962275250494479
1789845443646166500,8.15516650390625,3.5410955670416353,-10.794902327936887,-6.677227939167619
1789845443656223500,8.165223388671874,3.4079970101505515,-10.639966617769002,-7.209325814133882
1789845443666280400,8.175280517578125,3.1818767629519105,-10.057898550975322,-7.472175371053814
1789845443676337400,8.18533740234375,2.463942135858536,-9.602221067866683,-7.190207856687903
1789845443686394600,8.19539453125,1.3721055148065089,-9.02252557542324,-6.736059482842683
1789845443696451600,8.20545166015625,0.11914090481773018,-8.5061823189497,-6.149140468886494
1789845443706509600,8.215509521484375,-1.15990302606225,-8.178430374008416,-5.251724011650682
1789845443716566500,8.22556640625,-2.1089749978639185,-8.198591703027486,-4.369674634894729
1789845443726623500,8.23562353515625,-2.9130396560549734,-7.8076973654747,-3.553813594317436
1789845443736680400,8.245680419921875,-3.6070600313365455,-7.007668100279569,-2.6508196292102335
1789845443746737400,8.2557373046875,-3.981278836159408,-5.842184059214592,-2.049525468420982
1789845443756794600,8.265794677734375,-3.872962546086311,-4.706991696038842,-1.7910773613303899
1789845443766851600,8.2758515625,-3.3878687066182493,-3.7896465494960543,-1.7810206622183322
1789845443776908500,8.285908447265625,-2.4765222159683704,-3.168416100615263,-1.830531419840455
1789845443786965500,8.295965576171875,-1.3354115686595438,-2.801998032671213,-1.8906050725311039
1789845443797022500,8.3060224609375,-0.6367581998150795,-2.742069925931096,-1.799628332054615
1789845443807080400,8.31608056640625,-0.41165070985555646,-2.2658938446730374,-1.844246641460061
1789845443817137400,8.326137451171874,-0.25789441873058677,-1.6490210064798592,-1.836579467833042
1789845443827194600,8.336194580078125,-0.1090470885656774,-1.078210246759653,-1.7530208946585655
1789845443837251600,8.34625146484375,-0.03629530221819877,-0.5544961692571639,-1.9201310267448424
1789845443847308500,8.35630859375,0.006603928309679031,-0.16146189706623554,-2.1905255922168494
1789845443857365500,8.366365478515625,0.10030972842387854,0.1500222191631794,-2.3507237529575824
1789845443867422500,8.37642236328125,0.23060440687537193,0.5320318239927292,-2.3787673596590757
1789845443877479700,8.386479736328125,0.30135376735925673,0.862669553503394,-2.162948433983326
1789845443887536600,8.39653662109375,0.4498936390101909,0.6775228294670581,-1.7670237010478973
1789845443897593600,8.406593505859375,0.47285369536969807,0.6776601921111345,-1.3870394645661115
1789845443907650600,8.416650634765626,0.5640940552184358,0.8398457272768021,-0.9337824866026639
1789845443917708500,8.42670849609375,0.5696037220180035,0.9291028043538332,-0.5246785386204719
1789845443927765500,8.436765625,0.3163514300048351,0.793496648555994,-0.09125964907109736
1789845443937822500,8.446822509765624,0.04025251084479969,0.5157832845032215,0.4120639668315649
1789845443947879700,8.456879638671875,-0.16758008768558502,0.22555706035792827,0.8557628428548574
1789845443957936600,8.4669365234375,-0.3647235389858484,-0.33380525363087654,1.4150462463885545
1789845443967993600,8.47699365234375,-0.4685854799985885,-1.3056675877809525,2.1898051689878106
1789845443978050600,8.487050537109376,-0.3292079889684915,-2.111995660859346,3.0130671334713695
1789845443988107800,8.497107666015625,-0.2797346407473087,-2.4966134023606776,3.799543381871283
1789845443998164700,8.507164794921875,-0.4197913827458396,-2.2619021446883676,4.643424063752591
1789845444008221700,8.5172216796875,-0.4622054235726595,-1.7670213629603384,5.5127381698369975
1789845444018279700,8.52727978515625,-0.5792242947351187,-1.2757412360727787,6.387391006600857
1789845444028336600,8.537336669921874,-0.6465244646131992,-0.7415420049130916,7.179176175063848
1789845444038393600,8.5473935546875,-0.5092927534401417,-0.41591713512837886,7.947031017363071
1789845444048450600,8.557450439453126,-0.22009473983142525,-0.2506061614185571,8.724974122956395
1789845444058507800,8.5675078125,0.18978074051253496,-0.2364209841996431,9.439133615425229
1789845444068564700,8.577564697265625,0.6166379334587604,-0.19160393735170364,10.138418779367209
1789845444078621700,8.58762158203125,0.5504377607118338,0.26796412345468995,10.748590658617019
1789845444088678700,8.5976787109375,-0.020394626318290827,0.9274135360926389,11.319010373193025
1789845444098735600,8.607735595703126,-0.7395441090941429,1.2864356485664843,11.810103453075886
1789845444108792600,8.61779248046875,-1.690892647525668,1.0653110176980496,12.420213373005389
1789845444118849500,8.627849609375,-2.5303064131259916,0.4673112222790718,12.959240754973887
1789845444128907800,8.63790771484375,-2.7800363762319087,-0.49707098524868487,13.34342595027685
1789845444138964700,8.64796484375,-2.9186867220312354,-1.2377233478456735,13.904573978638648
1789845444149021700,8.658021728515624,-3.6042724464446305,-1.6026795265436171,14.636163913857937
1789845444159078700,8.66807861328125,-4.159594545131921,-1.1189596057772635,15.202479115724563
1789845444169135600,8.678135498046874,-4.112932747200131,0.6318325069159269,15.197343506401776
1789845444179192600,8.688192626953125,-3.622445816516876,2.8444822526574134,14.5111276673913
1789845444189249500,8.69824951171875,-2.933516042372584,4.239770490130782,13.761516922312975
1789845444199306500,8.708306396484375,-2.2187657444037496,4.540205389079452,12.93583065329194
1789845444209363500,8.718363525390625,-1.8708160839557646,4.162977757829427,12.055479897147416
1789845444219420700,8.728420654296874,-2.0220310200348495,3.0764661311924457,11.374349398577213
1789845444229477600,8.7384775390625,-2.0082783890143037,1.3917974727481603,10.800805999022721
1789845444239535600,8.74853564453125,-1.8374957058951258,-0.08731880249083042,10.047965185981989
1789845444249592600,8.758592529296875,-1.627819813019037,-1.0198083266735076,9.080425975728035
1789845444259649500,8.7686494140625,-1.4095476489722727,-1.603573260512948,8.194674237322808
1789845444269706500,8.77870654296875,-1.060328553110361,-1.9357032744079827,7.505648601588606
1789845444279763500,8.788763427734375,-0.42781916984617707,-2.1080600749760863,6.947785001724958
1789845444289820700,8.798820556640624,0.14733049586117267,-2.339998945325613,6.591776099592447
1789845444299877600,8.808877685546875,0.8222696655105799,-2.5610440812170503,6.332393342000246
1789845444309934600,8.8189345703125,1.8355384343475103,-2.8605191952228544,6.127331372660398
1789845444319991600,8.828991455078125,3.0533827772468327,-3.1744162178128956,5.733835912698507
1789845444330048500,8.839048583984376,3.8280993220090864,-3.2138667691916227,5.2583817159742114
1789845444340106500,8.8491064453125,4.103659307420253,-3.4259166977226734,5.01095476911366
1789845444350163700,8.859163818359375,4.3863516289293765,-3.7903520674169062,4.47940751376748
1789845444360220700,8.869220703125,4.419589881664514,-4.03503293043971,3.8628023865997787
1789845444370277600,8.879277587890625,4.389338535785675,-4.631061133524775,3.3313211822271347
1789845444380334600,8.88933447265625,4.51368855355382,-5.491732206687331,2.7035674690574405
1789845444390391600,8.8993916015625,4.734015604303777,-6.492405624780059,1.6885837860614061
1789845444400448500,8.909448486328126,4.692245962327719,-7.216739889782667,0.7202887890040874
1789845444410505500,8.91950537109375,4.715361464977264,-7.503603944018483,-0.22923545660972594
1789845444420562400,8.9295625,5.02288895253539,-7.259366148588061,-1.8367051400393246
1789845444430619400,8.939619384765624,5.944018293792009,-7.375767837700248,-3.52129956420362
1789845444440676600,8.949676513671875,6.547656387358903,-7.490638079461455,-5.489845954549312
1789845444450734600,8.959734619140624,6.769498811107874,-7.966367585995793,-7.99242732540369
1789845444460791600,8.96979150390625,6.828017635571956,-9.473531559589505,-10.227471858304739
1789845444470848000,8.979847900390626,6.758862850803136,-11.044557472240925,-11.806056223511694
1789845444480905000,8.989905029296875,6.63981269300878,-11.863056460106373,-13.023732224106787
1789845444490962000,8.9999619140625,6.7277066650390625,-12.049030282616615,-13.738438829064368
1789845444501019000,9.010018798828124,7.072174766981601,-12.098148826050757,-13.872664928680658
1789845444511076000,9.020076171875,7.0687541448831555,-11.520344261920451,-13.676963492882251
1789845444521133000,9.030133056640626,6.388758787822723,-11.330082386827469,-13.048098603600263
1789845444531190000,9.04018994140625,4.879176062649488,-11.692317616128921,-12.12822715345025
1789845444541247000,9.0502470703125,3.3504268647134303,-12.060718382322788,-11.294742193377017
1789845444551305000,9.060304931640625,1.9800141252994536,-12.517381953859328,-10.707758297491074
1789845444561362000,9.07036181640625,0.9208230517864227,-12.81490242666602,-10.068866519713401
1789845444571419000,9.0804189453125,0.41815870351009066,-12.969960886430739,-9.492823120036721
1789845444581476000,9.09047607421875,-0.22839842126369475,-13.049217378497122,-8.768796898069978
1789845444591533000,9.100532958984376,-0.6197019241392612,-12.715116356790064,-7.997690360498428
1789845444601590000,9.110590087890625,-0.5481617055386304,-12.064590255320072,-7.057865671122074
1789845444611647000,9.12064697265625,-0.599454085880518,-11.441613839554787,-6.055193188166618
1789845444621704200,9.1307041015625,-1.0030576828807591,-10.625241342324017,-5.382882540389895
1789845444631761200,9.14076123046875,-1.5840250949561594,-9.593919103467464,-4.728737079378962
1789845444641818000,9.150818115234374,-1.94591925573498,-8.519711662608385,-4.073908312278986
1789845444651875000,9.160875,-2.102012611505389,-7.696297430172562,-3.3328836092382668
1789845444661933000,9.17093310546875,-1.9648297079101205,-7.08064507368505,-2.6016601692438126
1789845444671990000,9.180989990234375,-1.5134646811731158,-6.591441168549657,-1.9373311678707599
1789845444682047000,9.191046875,-1.064599654558301,-6.306476225933432,-1.4351134673833845
1789845444692104200,9.201104248046875,-0.6523264288902282,-6.048520870795846,-1.0602923127532005
1789845444702161200,9.2111611328125,-0.13507204892113803,-5.718544235542416,-0.6522258911252021
1789845444712218000,9.221218017578124,0.36104046655893324,-5.2586090949893,-0.1083206739872694
1789845444722275000,9.231275146484375,0.8025503081053494,-4.579076679265499,0.3925993879050016
1789845444732332000,9.24133203125,1.1867020395301282,-3.9641847857564687,1.107733278363943
1789845444742389000,9.251388916015625,1.587505192156881,-3.2817344367593524,1.9271540572494268
1789845444752446000,9.261446044921875,1.780477495252341,-2.5084300968825817,2.5798990038126703
1789845444762504200,9.271504150390625,1.7899258532077074,-1.8366496104598045,3.2029414705514907
1789845444772561200,9.28156103515625,1.9559495052315294,-1.0855927582263947,3.7044828792124984
1789845444782618000,9.2916181640625,2.1808599382489917,-0.3358668623358011,4.2641842158973216
1789845444792675000,9.301675048828125,2.3797423421710726,0.23452245710194108,4.970187289917469
1789845444802732000,9.31173193359375,2.255131627640128,0.8400280981063842,5.690470233702659
1789845444812789000,9.3217890625,2.009011087203026,1.3435486978858708,6.491114415925741
1789845444822846000,9.331845947265625,2.0904661122269927,1.3748913461327552,7.532355991250276
1789845444832903000,9.34190283203125,2.573604287582636,1.557132411855459,8.630275731608272
1789845444842960000,9.3519599609375,3.428020976525545,2.095547214883566,9.871342544662951
1789845444853017000,9.36201708984375,4.277662706151604,2.8138346009373665,11.338285567027329
1789845444863074000,9.372073974609375,4.615028867134452,4.174129266440868,12.788838595604895
1789845444873132000,9.382132080078126,4.773253097453713,5.55111436998248,14.289932893896102
1789845444883189000,9.39218896484375,5.143530763435363,6.677856884720921,15.960953550738095
1789845444893246000,9.402245849609375,5.911052428257465,7.199508184474706,17.520018391960857
1789845444903303000,9.412302978515624,7.258456048005819,7.133490528687834,18.78458824567795
1789845444913360000,9.42235986328125,8.580996444654465,7.2708327144980425,19.426729965162277
1789845444923417000,9.4324169921875,9.407043948203325,7.388996737107634,19.581003996551036
1789845444933474000,9.44247412109375,9.876561156094073,7.05024584376812,19.49391608020663
1789845444943531000,9.452531005859376,9.606033904153108,6.776010384958982,18.87525811216235
1789845444953588000,9.462587890625,9.05374722763896,6.051327160388231,18.07459639428258
1789845444963645000,9.47264501953125,8.356965570950507,5.082848623457551,17.137283979988098
1789845444973703000,9.482702880859375,7.122965043020248,4.093959751182794,16.047732839524745
1789845444983760000,9.492759765625,5.612653419050574,2.759386971434951,15.200662421691417
1789845444993817000,9.502817138671874,4.160353254544734,1.1923702944248915,14.541381351357698
1789845445003874000,9.5128740234375,3.212673760014772,-0.3091980511188507,13.90087980029583
1789845445013931000,9.522930908203126,2.4057576579153537,-1.68268303758502,13.298987089091538
1789845445023988000,9.532988037109375,1.8597680357187985,-2.637586053627729,12.601730800628662
1789845445034045000,9.543044921875,1.711710540757328,-3.3768291339486836,11.84666880440712
1789845445044102000,9.553101806640624,1.7385159839659927,-4.257462798687816,11.188422337818144
1789845445054158800,9.563158935546875,2.005087630148977,-4.895410573613644,10.242194795662163
1789845445064215800,9.5732158203125,2.385374210578203,-5.347628856179118,8.966531885522603
1789845445074273000,9.58327294921875,2.4292045844763517,-5.874381278464198,7.793999679511785
1789845445084331000,9.5933310546875,2.235886828944087,-6.032969665920734,6.638809068924188
1789845445094388000,9.603387939453125,1.96724524461925,-6.147029760342836,5.871978308975696
1789845445104445000,9.61344482421875,1.99275904058218,-6.4510945402264595,5.346813448143005
1789845445114502000,9.623501953125,2.323047810524702,-6.8064411790579555,4.907369891476631
1789845445124558800,9.633558837890625,3.067351096844673,-7.377952780523896,5.002563957387209
1789845445134615800,9.64361572265625,4.430170312389731,-7.636722374653816,5.265373182296752
1789845445144673000,9.653673095703125,5.593684514686465,-7.691196307641268,4.8315258382022375
1789845445154730000,9.66372998046875,6.553404575622081,-8.362287642756105,4.4694642119020225
1789845445164787000,9.673786865234375,7.106197448092699,-7.9843989172488445,3.3808015447109936
1789845445174844000,9.683843994140625,7.142000582879781,-7.370827458688616,2.364057281783223
1789845445184902000,9.69390185546875,6.78457479968667,-7.378992060443759,1.7942963233768938
1789845445194958800,9.703958740234375,6.658591627758741,-7.54598061197698,1.139652849715948
1789845445205015800,9.714015869140624,7.004294239932298,-6.541947946584225,-0.010392799198627472
1789845445215073000,9.724072998046875,7.48201345897913,-6.239555483826995,-0.8189671898990869
1789845445225130000,9.7341298828125,7.522123351049423,-6.2008092813253395,-1.3335837687104939
1789845445235187000,9.74418701171875,7.301389180803299,-5.942044363370537,-1.8427426666378974
1789845445245244000,9.754243896484375,7.039317622518539,-5.62002716268897,-2.402564414831996
1789845445255301000,9.764301025390624,6.690678372371196,-5.275273229542374,-2.791208927631378
1789845445265358000,9.774358154296875,6.283653568750619,-5.021709387362003,-3.124310416907072
1789845445275415000,9.7844150390625,5.933247893452644,-4.946100311887264,-3.3827100086808204
1789845445285472000,9.794471923828125,5.485138215249776,-4.936908705171942,-3.7788013303548094
1789845445295530000,9.804530029296876,5.047560452455282,-5.3536108531981705,-4.1483343154489996
1789845445305587000,9.8145869140625,4.796039514279365,-6.3077908156633375,-4.412418967121839
1789845445315644000,9.824643798828125,4.96434674719572,-6.886293298929929,-5.0321360888302324
1789845445325701000,9.834701171875,5.151143576526642,-6.821566851997375,-5.811422425726056
1789845445335758000,9.844758056640625,5.4353954024374485,-6.8574623412430284,-6.465538660642505
1789845445345815000,9.85481494140625,5.516342331808805,-6.878367766627669,-7.145932077109813
1789845445355872000,9.8648720703125,5.229374817198515,-6.791666219252347,-7.892514998799562
1789845445365929000,9.874928955078126,4.858036243987083,-6.570149958717822,-8.72669963157475
1789845445375986200,9.884986083984375,4.722981000070273,-6.424753645789623,-9.363516941165923
1789845445386043100,9.895043212890625,4.679862573833764,-6.559582971996068,-9.842958161699771
1789845445396101000,9.90510107421875,4.475350347331166,-6.784317610055208,-10.329586663389206
1789845445406158000,9.915157958984375,4.199179828806221,-7.016814698809385,-10.7359813524127
1789845445416215000,9.925215087890624,4.053800759273767,-7.198666472953557,-11.004362239974737
1789845445426272000,9.93527197265625,4.085846587353944,-7.174225274658203,-11.08154952455163
1789845445436329000,9.945328857421876,4.160512536759675,-7.0505784367233515,-10.822948857247829
1789845445446386200,9.95538623046875,4.0411961292445655,-7.311107441741227,-10.157031125378609
1789845445456443100,9.965443115234375,3.9074309251382946,-7.763866991576552,-9.47473392111659
1789845445466500000,9.9755,3.884244110818207,-7.903029378551245,-9.116554689207673
1789845445476556800,9.985556884765625,4.050990085767209,-7.6995923800647255,-8.718783451622723
1789845445486613800,9.99561376953125,4.254260203254223,-7.220452772825956,-8.177132735413313
1789845445496670700,10.005670654296875,4.501648863931,-6.661497870594263,-7.453322786545753
1789845445506728700,10.015728759765626,4.764644843584299,-6.246945594078302,-6.61198769749403
1789845445516786000,10.025785888671875,4.890580084717273,-6.133120477455854,-5.777189316734671
1789845445526843000,10.0358427734375,4.775163607250153,-6.380132413774729,-5.0126832003414625
1789845445536899800,10.04589990234375,4.425149853879213,-6.698907271534204,-4.305278442829847
1789845445546956800,10.055956787109375,4.118328468763828,-7.1824085811138145,-3.753451785042882
1789845445557013800,10.066013671875,3.7136402913972733,-7.664717466038465,-3.1206290980458258
1789845445567070700,10.07607080078125,3.2909096768617627,-8.022641261881589,-2.430963995364308
1789845445577127700,10.086127685546876,2.8741935003101826,-8.088629107052087,-1.7418033350735902
1789845445587184600,10.0961845703125,2.736985170012712,-8.07067960886359,-0.9003601094722747
1789845445597241600,10.10624169921875,2.7228689663767813,-8.026527163404225,-0.07318681676387787
1789845445607299800,10.1162998046875,2.4935449547007678,-7.950496063125133,0.7039478950560093
1789845445617356800,10.126356689453125,2.0466496207237244,-7.834286097192764,1.4667904621511696
1789845445627413800,10.136413818359374,1.4093056569099425,-7.510913390249013,2.154012847855687
1789845445637470700,10.146470703125,0.6064169106304645,-6.823294114181399,2.9134803855597973
1789845445647527700,10.156527587890626,-0.18934307974763215,-5.761591350108385,3.7797768973886963
1789845445657584600,10.166584716796875,-0.7333738960266113,-4.538830009073019,4.305582978734374
1789845445667641600,10.1766416015625,-1.2878303177952766,-3.7026696923106908,4.7335395112246275
1789845445677698800,10.18669873046875,-1.7020950095415115,-3.1162983753651377,5.0109015776216985
1789845445687755800,10.196755859375,-2.18692435285449,-2.402260463449359,5.306171641153097
1789845445697812700,10.206812744140626,-2.4875030441880224,-1.5747750360518693,5.593301068326831
1789845445707870700,10.21687060546875,-2.7705624454438684,-1.1590350110560654,5.788453638070822
1789845445717927700,10.226927734375,-3.4105133768856524,-0.4227291532307863,6.0222787605583665
1789845445727984600,10.236984619140625,-4.1484816149652,0.6465794096708297,6.227467571148276
1789845445738041600,10.24704150390625,-4.573227953237295,1.368405491244793,6.48016865901947
1789845445748098800,10.257098876953124,-4.521511210003495,1.53393039996624,6.665292586702108
1789845445758155800,10.26715576171875,-4.289989980544149,1.2299018604397773,6.606155338078737
1789845445768212700,10.277212646484376,-4.181795271024107,1.0938438692212105,6.374865871548653
1789845445778269700,10.287269775390625,-3.95400855191797,1.059856843945384,6.507246635559201
1789845445788326700,10.29732666015625,-3.8299861586689947,0.9815443547308444,6.9164423534780735
1789845445798383600,10.307383544921874,-3.9860640246093273,0.968081646567583,7.315090373897552
1789845445808440600,10.317440673828125,-4.327760031490028,0.9345704221099614,7.631882533407211
1789845445818498800,10.327498779296874,-4.72995405395329,0.8653910874217748,8.02543527651429
1789845445828555800,10.3375556640625,-4.981124278995394,1.164185233426094,8.380673778796195
1789845445838612700,10.34761279296875,-5.157120312848686,1.6946043615251778,8.935348227229714
1789845445848669700,10.357669677734375,-5.008090611854195,2.3376275400191546,9.591560557642579
1789845445858726700,10.3677265625,-4.972879597741366,3.0487714840590954,10.09182653954029
1789845445868783600,10.37778369140625,-5.277644050326943,3.587715279397368,10.521685106259584
1789845445878840600,10.387840576171875,-5.474457831281423,3.848182325094938,10.694829842334984
1789845445888897500,10.3978974609375,-5.592498519772291,3.894247910699248,10.675783781081437
1789845445898954800,10.407954833984375,-5.718413302639126,3.3477743043780324,10.786160218554734
1789845445909012000,10.418011962890626,-5.910347494858503,1.9907108758807182,10.994476805776356
1789845445919069700,10.428069580078125,-6.025063422840834,0.2618810041487217,11.124991191393136
1789845445929126700,10.438126708984376,-6.003391104736924,-1.431315828666091,11.519458126735687
1789845445939183600,10.44818359375,-5.761959598898887,-2.882827473142743,12.237939574056863
1789845445949240600,10.458240478515625,-4.909646019715071,-3.3669133046120403,12.603634003901481
1789845445959297500,10.468297607421874,-3.378423125141859,-2.920491725626588,12.350011125010251
1789845445969354800,10.478354736328125,-1.4451041155219078,-1.5577093349605797,11.555135004794597
1789845445979412000,10.488411865234376,0.6360106693834066,0.2619277658998966,10.6363905128479
1789845445989469000,10.498468994140625,2.4604843966200947,1.6108376985579729,9.64109469614029
1789845445999526000,10.50852587890625,3.623231413936615,2.5058470946520566,8.679124810451269
1789845446009582800,10.518582763671875,4.227085488341748,2.6201024193853137,7.915993489542603
1789845446019640600,10.528640625,4.591790030366182,2.148361690226197,7.168463057869673
1789845446029697500,10.538697509765624,4.716342877230048,1.3047685931146145,6.52030368553102
1789845446039754800,10.548754638671875,4.946607676887512,0.10040157142579555,6.066445234543084
1789845446049812000,10.55881201171875,5.317307367673516,-0.5414835429489612,5.407346535038948
1789845446059869000,10.568868896484375,5.045650234919786,0.08130407224595547,3.7365330912068484
1789845446069926000,10.57892578125,4.842171735379099,-1.13590021918416,2.725171105839312
1789845446079982800,10.58898291015625,4.561571417713165,-2.219756362876296,2.1758833188802003
1789845446090039800,10.599039794921875,4.4004713396966455,-2.7879893810629843,1.77554135402441
1789845446100096800,10.6090966796875,4.429218126231432,-3.4174119042277336,1.6740315290957688
1789845446110153700,10.61915380859375,4.373798436826467,-3.6534172933638094,1.4256804531276226
1789845446120211700,10.629211669921874,4.451917449295521,-3.508464632549882,0.8987316314876079
1789845446130269000,10.63926904296875,4.493792597472668,-3.7011879293203354,0.5675701703637838
1789845446140326000,10.649325927734376,5.016389069122075,-3.9770091960161924,0.13376257375776768
1789845446150382800,10.6593828125,5.364008913093805,-3.896944894698262,-0.28002514812648294
1789845446160439800,10.669439697265625,5.471529376614093,-3.667885379177332,-0.4288222094088793
1789845446170496800,10.679496826171874,5.3118859271466725,-3.6183208455413576,-0.3327612975358963
1789845446180553700,10.6895537109375,5.089758256715536,-3.5083424674749373,-0.2585240949362516
1789845446190610700,10.699610595703126,4.976938517743349,-3.6836072644442317,-0.08755962550938129
1789845446200668000,10.70966796875,5.218501541006565,-4.0248032128483056,-0.17337620674371718
1789845446210724900,10.719724853515626,5.327373419135808,-4.1005414676606655,-0.6213526139557362
1789845446220782800,10.729782958984375,4.990465523314476,-4.304382955294847,-1.0078571921169757
1789845446230839800,10.73983984375,4.146288488835096,-4.643312127810717,-1.6536603567183017
1789845446240896800,10.749896728515624,2.9244705661296844,-4.799007131913304,-2.74592309422791
1789845446250953700,10.75995361328125,1.3881167384088038,-4.857589084741473,-3.8051995079368353
1789845446261010700,10.7700107421875,-0.023261633121967315,-4.941976509955525,-4.735609887757897
1789845446271068000,10.78006787109375,-1.2074585579633712,-5.256112017476559,-5.575578364631533
1789845446281124900,10.790124755859376,-2.1291184989653527,-5.658548324263095,-6.3678013399899
1789845446291181800,10.800181884765625,-2.5804525460422036,-5.9136874529361725,-6.627067777726054
1789845446301238800,10.81023876953125,-2.4702035343408584,-5.589181942570209,-6.671898268577456
1789845446311295700,10.820295654296874,-2.063465146446228,-5.04128034927249,-6.8020823993265624
1789845446321353700,10.830353759765625,-1.890273794750124,-4.5142844736203545,-6.7557040945112705
1789845446331410700,10.84041064453125,-2.024286982268095,-4.031883818759024,-6.756389154165983
1789845446341468000,10.850468017578125,-2.0716610201224683,-3.8725957586005326,-6.581880144000053
1789845446351524900,10.86052490234375,-2.2611083639621734,-3.9763372881039976,-5.92790302529335
1789845446361581800,10.870581787109375,-2.677139188598096,-3.663421970027685,-5.597887227073311
1789845446371638800,10.880638671875,-3.564183012640476,-3.317968071918189,-5.859376017034053
1789845446381695700,10.89069580078125,-4.824531449270248,-3.4623996314674614,-5.9420683287680145
1789845446391752700,10.900752685546875,-5.469927786636352,-4.39701213915348,-5.594077313396334
1789845446401809700,10.9108095703125,-5.265789361882209,-5.708598011067509,-5.159836001548171
1789845446411866600,10.92086669921875,-4.214451047696173,-7.20183107446432,-4.869274846360087
1789845446421924900,10.9309248046875,-2.004194919092953,-9.253865310835838,-4.5223114204704755
1789845446431981800,10.94098193359375,0.5835018989890813,-10.863898122751712,-4.256565557587146
1789845446442038800,10.951038818359375,3.173645233440399,-11.529156513929367,-3.877927475017309
1789845446452095700,10.961095703125,5.4084395909726615,-12.258805836474895,-3.644962184229493
1789845446462152700,10.971152587890625,7.402559398514032,-12.213968331360816,-4.316554454603791
1789845446472209700,10.981209716796876,8.202596847015618,-12.157774734973907,-4.916390233278274
1789845446482267000,10.991266845703125,8.050347599452733,-12.124622991478443,-5.459256755018234
1789845446492323800,11.00132373046875,6.723536685878038,-11.411136868226528,-6.074519235405326
1789845446502380800,11.011380859375,4.985726219832897,-11.300282291847466,-6.565854891872406
1789845446512438000,11.02143798828125,4.0798707278147335,-11.550889037787913,-6.963352573212981
1789845446522496000,11.03149609375,3.9414536062493917,-11.715076560425757,-6.5651335918605325
1789845446532553000,11.041552978515625,3.9373873797237873,-11.689767931646108,-5.528788556405901
1789845446542610000,11.05160986328125,3.6202085589841007,-11.12597435721159,-4.528297509142757
1789845446552667000,11.0616669921875,3.3636917122170327,-10.631284129619598,-3.6160388720840215
1789845446562723800,11.071723876953126,3.070868457315862,-10.835687927311659,-2.774891999080777
1789845446572780800,11.08178076171875,2.1017747110962866,-11.058438698077202,-1.4320073180615902
1789845446582838000,11.091838134765625,0.6006218144856393,-10.351101745104788,0.3041214785069227
1789845446592895000,11.10189501953125,-0.9913631534337997,-8.689652634206414,1.8926520681887864
1789845446602952000,11.111951904296875,-1.891734953343868,-6.743125767967104,3.3653350955098866
1789845446613010000,11.122010009765624,-2.3439140729427335,-4.780657236230373,4.978942843303084
1789845446623067000,11.13206689453125,-2.899464719688892,-2.523642863583565,6.240866566425561
1789845446633123800,11.142123779296876,-3.091088530784845,-0.8147089479327201,7.054730880227685
1789845446643180800,11.152180908203125,-2.5249708973169325,0.01819558190405369,7.3086571259796616
1789845446653238000,11.162238037109375,-1.7310978166639803,0.47731297633349895,7.281856212815642
1789845446663295000,11.172294921875,-1.0652081418454646,1.1411977410703897,7.2055913037806745
1789845446673352000,11.18235205078125,-0.7881037765365093,1.9002268873572348,7.32762661486566
1789845446683409000,11.192408935546876,-0.8417175124980508,2.6283026769757267,7.2448279201477765
1789845446693465900,11.2024658203125,-0.5386111293178052,2.818420759683847,7.115055292809009
1789845446703523800,11.21252392578125,0.13907996938824652,2.789566421121359,6.8894099696457385
1789845446713580800,11.222580810546875,0.8078362126190215,2.9019425079792738,6.5957251294791694
1789845446723638000,11.232637939453125,1.3756664221584796,3.020446722328663,6.348139192664623
1789845446733695000,11.242695068359374,1.2462626281321048,3.331260391950607,6.112115098828077
1789845446743752000,11.252751953125,0.36383455425687133,3.6764147225916384,5.972979015338421
1789845446753809000,11.262808837890624,-0.2802092725217342,3.834914847242832,5.991682546764612
1789845446763865900,11.272865966796875,-0.42278818994164463,3.998102837449312,6.222633575120568
1789845446773922800,11.2829228515625,-0.7051390776019543,4.615195455873012,6.604047552144527
1789845446783979800,11.292979736328125,-1.1151297452908009,5.287783167025447,7.185991700297594
1789845446794037000,11.303037109375,-1.3643898258626461,5.884316981545091,7.894418786594271
1789845446804095000,11.313094970703125,-1.4381623335599898,6.445937303593754,8.537053258031607
1789845446814152000,11.32315185546875,-1.3822680123806,6.7642755235016345,9.105002198579907
1789845446824209000,11.333208984375,-1.2265747618436813,6.9308204229205845,9.496664597895741
1789845446834265900,11.343265869140625,-1.0206570524573326,6.84824560008645,9.764354580584168
1789845446844322800,11.35332275390625,-0.935915333912894,6.451665618112683,10.10680432844162
1789845446854379800,11.3633798828125,-0.6866016234576702,5.966043663117289,10.27825278199315
1789845446864437000,11.37343701171875,-0.6205319452226161,5.504625590530037,10.085186370873451
1789845446874494000,11.383493896484374,-1.427285550236702,5.4093555367738,9.947654215449095
1789845446884551200,11.39355126953125,-2.5555308707535267,5.639560130676627,9.666589202880859
1789845446894609000,11.40360888671875,-3.3272786288380622,5.619377174347639,9.209998696580529
1789845446904665900,11.413665771484375,-3.6540368865668773,5.294244471994042,8.661264744111895
1789845446914722800,11.423722900390626,-3.5867934883773325,4.699779280441999,8.065638692086935
1789845446924779800,11.43377978515625,-3.3612942956864833,3.688672731140256,7.563106518822908
1789845446934837000,11.4438369140625,-3.2316333120286465,1.9170628713458775,7.4519175959229464
1789845446944894000,11.45389404296875,-3.4286160198092457,-0.34170682053565976,7.581016269522905
1789845446954951200,11.463951171875,-3.937674964493513,-1.734539481550455,7.39901836490631
1789845446965008100,11.474008056640624,-4.6242426856815815,-2.3129630543619393,7.1412132318943735
1789845446975065000,11.484065185546875,-5.168612597721815,-2.6613766790598627,7.342253106111287
1789845446985122000,11.4941220703125,-5.192311453217267,-2.7967022643506527,7.861449998450278
1789845446995179800,11.5041796875,-4.865753101974725,-2.4443659132510422,8.293902673316001
1789845447005237000,11.514237060546876,-4.516770152956247,-1.6072212616264818,8.211223221063614
1789845447015294000,11.5242939453125,-4.116189118647575,-0.6830331173211336,7.885892950311303
1789845447025351200,11.53435107421875,-3.2379835578382012,-0.39621933196783066,7.567680402609706
1789845447035408100,11.544408203125,-2.2287129917919635,-0.8819318878561258,7.253689271995425
1789845447045465000,11.554465087890625,-1.206627367836237,-1.898402594539523,6.723819009950756
1789845447055522000,11.56452197265625,-0.3174094146251678,-3.107583153989911,6.147049634087085
1789845447065579000,11.5745791015625,0.16504793885946273,-4.307438251212239,5.442997109612822
1789845447075636000,11.584635986328125,0.10390344206690788,-5.4264469568282365,4.687943881219625
1789845447085694000,11.59469384765625,-0.32970432111807163,-6.290784735804796,4.0496249348938465
1789845447095751200,11.604751220703125,-0.7914110744535923,-6.682230862021446,3.28940394847393
1789845447105808100,11.61480810546875,-1.037610452280566,-6.841179899483919,2.5734055501401425
1789845447115865000,11.624864990234375,-1.282997490811348,-7.019308853712677,2.049792010402679
1789845447125922000,11.634922119140626,-1.3630980324864386,-6.951517173990607,1.334607851061225
1789845447135979000,11.64497900390625,-1.3049848662137984,-6.889348010325431,0.7422638894468545
1789845447146036000,11.655035888671875,-1.0019965564552693,-6.969701649978757,0.20426468148231505
1789845447156093000,11.665093017578124,-0.6880981456257402,-7.18821755965352,-0.38574411518275736
1789845447166150000,11.67514990234375,-0.4227427433647215,-7.184023615095019,-0.7306342419296503
1789845447176208100,11.6852080078125,-0.22540318497046827,-7.30119979571104,-1.2160358321726321
1789845447186265000,11.69526513671875,-0.4729134262003004,-7.471863820886612,-1.9833622666835784
1789845447196322000,11.705322021484376,-0.7171065057061612,-7.042786759933829,-2.752944371166825
1789845447206379000,11.71537890625,-0.8927787144325673,-6.6349827886343,-3.7675913695544003
1789845447216436000,11.72543603515625,-1.1578747351050376,-6.386499026197194,-5.04489795524776
1789845447226493000,11.735492919921874,-1.327961398784071,-6.421984181076287,-6.648413348093628
1789845447236550000,11.7455498046875,-1.4520936821483075,-7.258577628558874,-8.258667109283804
1789845447246607000,11.755607177734374,-1.6338415575265883,-8.486103992038965,-9.811419698619842
1789845447256664000,11.7656640625,-1.941969056804478,-9.67438321775794,-11.355082388049363
1789845447266721000,11.775720947265626,-1.9786615416467188,-10.424909324115514,-12.58507894103527
1789845447276779000,11.785779052734375,-1.6924956988081334,-10.302360802811384,-13.143244738715886
1789845447286836000,11.7958359375,-1.4978572160661219,-9.865634103888272,-13.140150279831886
1789845447296893000,11.805892822265625,-1.2688904933951795,-9.874697700309753,-12.723998751425743
1789845447306950000,11.815949951171875,-1.1516109985351561,-10.18617889392972,-12.355090620231628
1789845447317007000,11.826007080078124,-1.28849068140015,-10.425662188309431,-11.884728193688392
1789845447327064000,11.83606396484375,-1.1676948489822447,-10.621422076296806,-11.047124692380427
1789845447337121000,11.84612109375,-0.5280993068493902,-11.254293278610705,-10.097494063782692
1789845447347178000,11.856177978515625,0.15517404896840453,-11.765983740842342,-9.373786990767718
1789845447357236000,11.866236083984376,0.7744003184199333,-11.905384028226136,-8.796238447225093
1789845447367293000,11.87629296875,1.5116976715005934,-12.140706695795059,-8.141926397475599
1789845447377350000,11.886349853515625,2.220285355186462,-12.288487858033179,-7.58510909179449
1789845447387407000,11.896406982421874,2.6583576234996316,-11.984404373449086,-7.2518012662917375
1789845447397464000,11.906464111328125,2.7381226496100424,-11.738161667937039,-6.79214611172378
1789845447407521000,11.91652099609375,2.6623347104370594,-12.008985856997967,-6.037563423451781
1789845447417578000,11.926577880859375,2.561397424699366,-12.475814264196156,-5.062407308453321
1789845447427635000,11.936635009765626,2.4914029742360113,-12.885365371423958,-4.216691227838397
1789845447437692000,11.94669189453125,2.4020763390541076,-13.191789281654357,-3.41665377933681
1789845447447750000,11.95675,2.549899586868286,-13.273328916221857,-2.6783243067294356
1789845447457807000,11.96680712890625,2.9676398457705973,-13.15522977554202,-2.0001789614498615
1789845447467864000,11.976864013671875,3.532833934652805,-13.057905711865425,-1.3382967687070368
1789845447477921000,11.986921142578124,4.131443970924615,-12.937469652670622,-0.439986577501893
1789845447487978000,11.99697802734375,4.51335186894536,-12.31791385900378,0.6841349410831928
1789845447498035000,12.007034912109376,4.8708477947652336,-11.220189933478832,1.852609396135807
1789845447508092000,12.017091796875,5.186502474677562,-9.883350962364673,3.133796038132906
1789845447518148900,12.02714892578125,5.442464610171318,-7.649891652828455,4.281247578901052
1789845447528205800,12.037205810546874,5.842096380931139,-5.605361508476734,5.001737443435192
1789845447538264000,12.04726416015625,6.0935460074365135,-4.833045595115423,5.551066439187526
1789845447548321000,12.057321044921874,6.095151104545593,-4.538319721463322,5.742195160242915
1789845447558378000,12.0673779296875,5.856489647942781,-4.4874347528785465,5.769193057283759
1789845447568435000,12.07743505859375,5.378142652386426,-4.807244214382767,5.764837784683704
1789845447578492000,12.087491943359375,4.872641107922792,-4.819029344722629,5.8298477247327565
1789845447588548900,12.097548828125,4.461529327249527,-4.483236716666817,6.114186644405126
1789845447598605800,12.107605712890624,4.306705845284462,-3.5985435474038123,6.515792930108309
1789845447608662800,12.117662841796875,4.36586647478342,-2.0285621753692626,6.87170713969469
1789845447618720000,12.127719970703126,4.647250636303425,-0.25044834050834175,7.159675940302014
1789845447628778000,12.137778076171875,5.123222134900093,1.1625690304011105,7.437074831578135
1789845447638835000,12.1478349609375,5.606242967486382,2.285855851727724,7.524710444933175
1789845447648892000,12.157891845703125,5.67653640089631,3.310844795909524,7.547969155445695
1789845447658948900,12.167948974609375,5.304098926532268,4.4281326690822835,7.385657948073744
1789845447669005800,12.178005859375,4.864758245718479,5.406989392164349,6.926150677543879
1789845447679062800,12.188062744140625,4.51413512827754,5.705999226745963,6.296300284355879
1789845447689120000,12.1981201171875,4.217472733604907,5.366596006977558,5.630971750551462
1789845447699177000,12.208177001953125,3.983686189562082,4.920541507738829,4.954117614126205
1789845447709234000,12.21823388671875,3.788944538706541,4.50221789599061,4.293004067668319
1789845447719292000,12.2282919921875,3.579342003327608,4.112144227170944,3.7004938095763324
1789845447729348900,12.238348876953125,3.409087143474817,3.856975872403383,3.221987531805038
1789845447739405800,12.24840576171875,3.357240051859617,3.698877314290404,2.89784617857635
1789845447749462800,12.258462890625,3.5890462357401844,3.5720413249254226,2.708913213999569
1789845447759520000,12.26852001953125,4.099048598754406,3.4020027381718156,2.613766494362056
1789845447769577000,12.278576904296875,4.4897944677472115,3.4103123013556003,2.5107863046199084
1789845447779634000,12.288634033203126,4.665346264964342,3.368905939733982,2.621931096117198
1789845447789691000,12.29869091796875,4.708592701494694,3.360270797857642,3.0101918702960013
1789845447799747800,12.308747802734375,4.721343461996317,3.3954233597815033,3.462499292449653
1789845447809804800,12.3188046875,4.585205099017918,2.876630372068286,4.129977405503392
1789845447819862800,12.32886279296875,4.3159260935723776,2.7240976313889025,4.66770861018151
1789845447829920000,12.338919921875,3.888981076212227,2.6251994502633806,5.293923569476604
1789845447839977000,12.34897705078125,3.366676573246717,2.2327245655208823,6.037793140554427
1789845447850034000,12.359033935546876,3.006622779637575,1.9221593177020548,6.522696133625507
1789845447860091000,12.3690908203125,2.9708418566823003,1.8176766144424676,6.941564519774913
1789845447870147800,12.37914794921875,2.920826656669378,1.099978426453471,7.823543169382214
1789845447880204800,12.389204833984374,2.6432293202117085,-0.3340501683026552,8.54364958755672
1789845447890262000,12.399261962890625,2.0864041234850883,-1.1169634635239838,8.500143038785458
1789845447900319000,12.409319091796876,1.4185878645181655,-1.806558423578739,8.121403249406814
1789845447910377000,12.419376953125,0.7856850980222225,-2.444897828170657,7.987768685942887
1789845447920434000,12.429433837890626,0.10116773349270224,-2.811970560631156,8.24849467483759
1789845447930491000,12.439490966796875,-0.5173089597005397,-2.4285464128285645,8.400979484722018
1789845447940547800,12.4495478515625,-0.9134696933489292,-1.114603748655319,7.873035222303867
1789845447950604800,12.459604736328124,-1.1359446428477764,0.14146306513249873,7.00850630466938
1789845447960662000,12.469662109375,-1.240517947000265,0.6623375352948904,6.133302848285436
1789845447970719000,12.479718994140624,-1.316343295574188,0.7888380090951919,5.09036615948081
1789845447980776200,12.489776123046875,-1.5793325532257556,0.9131979637354611,3.765460202744603
1789845447990834000,12.499833984375,-1.9524656086385248,0.4217483254998922,2.413146014600992
1789845448000891000,12.509890869140625,-2.3958418285787104,-0.6000345161169767,1.0695008706033229
1789845448010947800,12.51994775390625,-2.8183786741077896,-1.751783461818099,-0.3533183478742838
1789845448021004800,12.5300048828125,-3.128582687398791,-2.8184190061181784,-1.6658862165629862
1789845448031061800,12.540061767578125,-3.2358582362473007,-3.1366929286181926,-2.729736514058709
1789845448041119000,12.550118896484374,-3.455050437748432,-2.9672195745319128,-3.734685709774494
1789845448051176200,12.56017626953125,-3.9059091223984956,-2.299982576757669,-4.43145918315649
1789845448061233200,12.570233154296876,-4.073037374663353,-1.4052940831810234,-4.513246070483326
1789845448071290000,12.5802900390625,-3.5142595825642347,-0.6535872426062822,-4.543427273735404
1789845448081347800,12.590347900390626,-3.0059406425923108,-0.35540976719558237,-4.502278101745247
1789845448091404800,12.60040478515625,-2.4707868871867653,-0.8248217611461878,-4.411028389546275
1789845448101461800,12.610461669921875,-1.5321417629837988,-1.0182961685448884,-4.561898749971389
1789845448111519000,12.62051904296875,-0.8669827405273914,-1.031656000855565,-4.698391040953994
1789845448121576200,12.630576171875,-0.5121802915751934,-1.1984592589497565,-4.946252287578583
1789845448131633200,12.640633056640626,-0.4413946542015299,-1.3813006286531686,-5.143004693734645
1789845448141690000,12.650690185546875,-0.8317793251991271,-1.6253952162206171,-5.264139841109514
1789845448151747000,12.6607470703125,-1.2578969518244265,-1.7139345004171131,-5.304065024262666
1789845448161804000,12.670803955078124,-1.6584592814326284,-1.6772300328761338,-5.172791929233074
1789845448171861800,12.68086181640625,-1.7016192087233066,-1.6055787551164626,-4.939217566636205
1789845448181919000,12.6909189453125,-1.2161327166758478,-2.0802011771917344,-4.6978211321115495
1789845448191976200,12.70097607421875,-0.10059512123651802,-2.920994414451718,-4.874959906259178
1789845448202033200,12.711033203125,0.9571744681060314,-3.8599727161318063,-5.145906844916939
1789845448212090000,12.721090087890625,1.768980680334568,-4.354999628332257,-5.575688254746795
1789845448222147000,12.73114697265625,2.4877882908701894,-4.283735304063558,-5.8222951173961155
1789845448232204000,12.7412041015625,2.6952947307527064,-4.575579484799504,-6.116949679377675
1789845448242261000,12.751260986328125,2.3914123216986654,-4.9412593015968795,-6.778337951123714
1789845448252318000,12.76131787109375,1.9346108029961584,-5.643157278385758,-7.161988308897614
1789845448262376200,12.771376220703125,1.8338357220828532,-6.865360985538363,-7.357495098906755
1789845448272433200,12.78143310546875,1.9862100573301313,-7.647569347360729,-7.693816719272732
1789845448282490000,12.791489990234375,2.0125603041172027,-7.717623126795887,-7.628268434563279
1789845448292547000,12.801547119140626,2.3525182351589202,-7.876129096665978,-6.975930899757146
1789845448302604000,12.81160400390625,2.76451732006073,-7.852432579258084,-6.445334077003598
1789845448312661000,12.821660888671875,2.7951895217001437,-7.646706593051553,-5.979647241055965
1789845448322718000,12.831718017578124,2.8085400016605853,-7.438533213692903,-5.467825845921039
1789845448332775000,12.84177490234375,3.0159377204716202,-7.396152454081177,-4.9098552785515786
1789845448342831900,12.851831787109376,3.0778982098221777,-7.387458860015869,-4.107966064703464
1789845448352890000,12.86189013671875,2.9123440750062466,-7.979884070172905,-2.6619161927640436
