time,seconds_elapsed,z,y,x
1789911558320193000,0.058193115234375,-1.2198597743749617,0.4124588113680482,0.03952412807159125
1789911558330200300,0.068200439453125,-1.5419003559321165,0.2730398192837834,0.12015183542594313
1789911558340208400,0.07820849609375,-0.8375959025233983,0.5758440777122974,-0.11999796003848313
1789911558350216400,0.088216552734375,0.011425649377703666,0.6726845956556499,0.297293093791604
1789911558360224300,0.098224365234375,0.548179241195321,0.5490878804728389,0.6942423474691808
1789911558370232300,0.108232421875,0.7819201925307512,0.4268319123744964,0.850591504631564
1789911558380240100,0.118240234375,0.8385504267692565,0.3937508960276842,0.7042617833107709
1789911558390247400,0.128247314453125,0.8851958580881356,0.3666140289075672,0.3281804725516587
1789911558400255200,0.138255126953125,0.980277111274004,0.2912958992034197,0.06935089186280965
1789911558410263300,0.14826318359375,0.8911907145887613,0.11158581326305865,-0.021110665633156896
1789911558420271400,0.158271240234375,0.5601636934995651,-0.09336962696239352,0.012510522004961966
1789911558430279200,0.168279052734375,0.12997954808771608,-0.19758578824028372,0.03084163992218673
1789911558440287200,0.178287353515625,-0.19218612115383146,-0.19541282811537383,0.010088847815990447
1789911558450295300,0.18829541015625,-0.4033125050991773,-0.14497458038479089,-0.031590923919528724
1789911558460303400,0.198303466796875,-0.5836398461550474,-0.06896510741561651,-0.09302329774275421
1789911558470311400,0.2083115234375,-0.6302104586720466,0.007209931378811598,-0.13079334868863224
1789911558480319200,0.2183193359375,-0.5936708263039588,0.08859685960263013,-0.09997859677337109
1789911558490326500,0.228326416015625,-0.5196849681168795,0.1478181332476437,-0.03632167876847088
1789911558500334300,0.238334228515625,-0.2842489033013582,0.19190116673260926,0.02071625948809087
1789911558510342400,0.24834228515625,-0.12492226469814777,0.14672624635770917,0.11540975546538829
1789911558520350200,0.25835009765625,-0.002018354085087776,0.09185176974534988,0.10929309921599924
1789911558530358300,0.268358154296875,0.1902332335203886,0.04719312832951546,0.10970854814909398
1789911558540366000,0.278365966796875,0.38508009831607337,-0.09711977327615022,0.16092917842902243
1789911558550374100,0.2883740234375,0.575717820984125,-0.18921207377910612,0.14684914208501576
1789911558560382500,0.298382568359375,0.6776543468922376,-0.2610914612062275,0.10756649461910128
1789911558570390300,0.308390380859375,0.570423221707344,-0.3341265945397317,0.08079758402854204
1789911558580398300,0.3183984375,0.3726806354701519,-0.33938597637265916,-0.006809533884376287
1789911558590405000,0.328405029296875,0.20189795235097407,-0.33685967276543377,-0.15042612378895281
1789911558600413400,0.338413330078125,-0.0047428106129169464,-0.4903999830521643,-0.2840410327043384
1789911558610421200,0.348421142578125,-0.06258534325063228,-0.7616679703578353,-0.4222248569704592
1789911558620429300,0.35842919921875,0.14254209254086017,-0.706736648991704,-0.3672792878832668
1789911558630437400,0.368437255859375,0.3728103993296623,-0.38678602545112367,-0.13294431617744265
1789911558640445200,0.378445068359375,0.4376256935894489,-0.15090893886983395,0.016275281365960837
1789911558650453200,0.388453369140625,0.3381850761502981,-0.05678279445171356,0.12686353495903313
1789911558660461300,0.39846142578125,0.27666590082645415,0.01902414168268442,0.3369961586266756
1789911558670469400,0.408469482421875,0.16195289545357228,0.03548573940098285,0.523720288047567
1789911558680477400,0.4184775390625,0.06732347768843173,-0.020036533595621586,0.5787665410302579
1789911558690485200,0.4284853515625,0.04492752148509025,-0.10030103366076945,0.5312351206570863
1789911558700492300,0.4384921875,0.07176233691871166,-0.17397621846348046,0.4468383430927992
1789911558710500400,0.448500244140625,0.1844686786442995,-0.25716566606462,0.2113204452127218
1789911558720508400,0.45850830078125,0.26755846526324745,-0.3300178440466523,-0.00920855785012245
1789911558730516200,0.46851611328125,0.28788112232387064,-0.36749767987430093,-0.2511823538713157
1789911558740524300,0.478524169921875,0.25348668529093266,-0.4190981032520532,-0.40080695201903577
1789911558750532400,0.488532470703125,0.2662117268294096,-0.4838619595855474,-0.4968396607108414
1789911558760540200,0.4985400390625,0.32453356741666795,-0.49519145511239765,-0.5565476949594914
1789911558770548200,0.50854833984375,0.32568273745179177,-0.5116477921336889,-0.48946460189819335
1789911558780556300,0.518556396484375,0.23347265578806398,-0.5080281403318048,-0.36453941459059713
1789911558790563300,0.528563232421875,0.13590192387402056,-0.4121148202359676,-0.24874898924455044
1789911558800571100,0.538571044921875,-0.009635258829593658,-0.33613369657844305,0.07184080898240208
1789911558810579200,0.5485791015625,-0.20805939759016034,-0.29433161363750693,0.28014848224520683
1789911558820587500,0.55858740234375,-0.3287503083288669,-0.1892968294531107,0.3181384595520794
1789911558830595300,0.56859521484375,-0.5254126981139182,-0.01664572211354971,0.2679112242236733
1789911558840603400,0.578603271484375,-0.6417623647779226,0.09417378295212983,0.024767361509799957
1789911558850611200,0.588611083984375,-0.6633388212919235,0.1937044167622924,-0.2576015732638538
1789911558860619300,0.598619384765625,-0.6098416243821382,0.2920271360874176,-0.430627066873759
1789911558870627300,0.60862744140625,-0.5039420400619506,0.3348670376434922,-0.5664487651184201
1789911558880635100,0.61863525390625,-0.3698170627325773,0.31937749982774255,-0.5486018505215644
1789911558890643500,0.6286435546875,-0.26785306429564953,0.20877602142691612,-0.345428033015877
1789911558900650200,0.638650146484375,-0.19997312176823615,0.1248097442343831,-0.08951616640463471
1789911558910658300,0.648658203125,-0.22364392021298407,0.1019268812969327,0.037379298062622544
1789911558920666000,0.658666015625,-0.24728549256324767,0.17048779182583093,0.07775280950516462
1789911558930674400,0.66867431640625,-0.18705284991860388,0.34000732314139603,0.18584844256490468
1789911558940682200,0.67868212890625,-0.12379764458239077,0.5059852363273502,0.2610151810996234
1789911558950690300,0.688690185546875,-0.09740823482871055,0.5488014647468924,0.24803061184212563
1789911558960698400,0.698698486328125,-0.050556467282772063,0.4808972645610571,0.18091522394642232
1789911558970706200,0.7087060546875,-0.008478490009903908,0.3348261211112141,0.13717223607078194
1789911558980714200,0.71871435546875,-0.06467968518137931,0.18466273991167545,0.10004925085678697
1789911558990722300,0.728722412109375,-0.17750526937246322,0.041895898704230786,0.0130123340472579
1789911559000729300,0.738729248046875,-0.3265338013231754,-0.02361293077766895,-0.03697042500078678
1789911559010737200,0.748737060546875,-0.3854489316284656,-0.008945230738818645,-0.03549655305594206
1789911559020745200,0.7587451171875,-0.2979652939647436,0.03871814545094967,0.007217091771960258
1789911559030753300,0.768753173828125,-0.1990250272631645,0.046378889337182046,0.045671617850661275
1789911559040761300,0.77876123046875,-0.3808306241780519,-0.034114158786833285,0.18410656733363867
1789911559050769400,0.788769287109375,-1.0025175846546888,0.16338585086613894,0.03843611363917589
1789911559060777200,0.798777099609375,-0.31486031466424463,0.3972343542292714,0.0761041655153036
1789911559070785300,0.808785400390625,-0.31688159135878086,0.3810220550969243,0.03162029614448547
1789911559080793300,0.81879345703125,0.047376668202877045,0.2900836008042097,0.28070436256229875
1789911559090801200,0.82880126953125,0.3734270699232817,0.17425240505635736,0.3191093504108488
1789911559100808400,0.838808349609375,0.47769408460557455,0.13287263918071984,0.20271715977936983
1789911559110816300,0.848816162109375,0.3150058606147766,0.0997977603137493,0.12533815202265977
1789911559120824300,0.85882421875,-0.17108955711126325,-0.16137421878278255,0.07810936785787344
1789911559130832100,0.86883203125,-0.7524637964218854,-0.3013707184940576,-0.08237243212983011
1789911559140840200,0.878840087890625,-1.023700073415041,-0.2681444484576583,-0.21638445060402153
1789911559150848500,0.8888486328125,-0.4029734824031591,0.08130787163823842,0.007838292410224676
1789911559160856300,0.898856201171875,-0.4187906447380781,0.1092354507446289,-0.02190130455419421
1789911559170864400,0.908864501953125,-0.003925649011135101,0.25074323180168867,0.11096826588660479
1789911559180872200,0.9188720703125,0.2953594953805208,0.25387773043513295,0.074645929531008
1789911559190880300,0.92888037109375,0.475897264316678,0.17147767964601515,0.028153204555809497
1789911559200887300,0.93888720703125,0.5382651654243469,0.07256839260458946,0.03734568805396556
1789911559210895400,0.948895263671875,0.5002975460797549,0.034980712488293646,0.06678571754992008
1789911559220903400,0.9589033203125,0.35070144337415693,-0.036383857284486294,0.1222740882769227
1789911559230911200,0.9689111328125,0.1638596058577299,-0.019318156193196774,0.13388941500782967
1789911559240919300,0.978919189453125,-0.010549451065063477,0.016596914535760877,0.07963058607578277
1789911559250927000,0.988927001953125,-0.18163959269821642,0.025649697302281855,-0.06645429363846779
1789911559260935400,0.998935302734375,-0.35707390101552006,0.02190641912072897,-0.17087854470908642
1789911559270943500,1.008943603515625,-0.45574879477918145,-0.001202361527085304,-0.15044906627312302
1789911559280951300,1.018951416015625,-0.4232523003220558,0.025905133368074894,-0.05544993841275572
1789911559290959400,1.02895947265625,-0.3120429191559553,0.07604805141389369,0.027626550333201882
1789911559300966100,1.038966064453125,-0.09375614206194877,0.1335927701488137,0.027996552689373493
1789911559310974500,1.048974365234375,0.06407002885043621,0.08373919043838977,0.003350041080266237
1789911559320982300,1.058982177734375,0.14321137010455132,-0.014321955341100692,-0.059023412985354656
1789911559330990300,1.068990234375,0.15898469329774378,-0.13289046709835528,-0.1082545499484986
1789911559340998400,1.078998291015625,0.1596983945250511,-0.2362771918147802,-0.15576332009844482
1789911559351006500,1.08900634765625,0.18950667281150818,-0.28485008406490087,-0.17671214623339473
1789911559361014300,1.09901416015625,0.23497312347888946,-0.28560061017125843,-0.09135821407474577
1789911559371022300,1.109022216796875,0.21114041247069834,-0.26330869886428115,0.008610884217917919
1789911559381030400,1.119030517578125,0.158657945561409,-0.1846267918154597,0.06909954745024442
1789911559391037400,1.129037353515625,0.05540040018260479,-0.09648264441639184,0.03290916691124439
1789911559401045200,1.139045166015625,-0.037513445836305614,-0.028462124374508856,-0.03201389857195318
1789911559411053300,1.14905322265625,-0.05578150845468044,0.018464461973309514,-0.117981213388592
1789911559421061600,1.1590615234375,-0.010870353582501411,-0.0170142631649971,-0.19130042436048386
1789911559431069400,1.1690693359375,0.08620704185664653,-0.09478490058779716,-0.20740458694323896
1789911559441077500,1.179077392578125,0.10784604221284388,-0.17236323030889034,-0.22601306049712
1789911559451085300,1.189085205078125,0.10166706131696701,-0.193703247718513,-0.16553754900731146
1789911559461093400,1.19909326171875,0.06667875004410743,-0.19296908822506664,-0.14781981374807654
1789911559471101400,1.209101318359375,0.016559505134820938,-0.15454437276273966,-0.15742577341794967
1789911559481109500,1.219109619140625,-0.017535072168707845,-0.0975152023345232,-0.10098192859701811
1789911559491116500,1.229116455078125,-0.09144026633501053,-0.04867343001514673,-0.05272730851583182
1789911559501124400,1.239124267578125,-0.1533119083583355,-0.02475596333295107,-0.029405688834935426
1789911559511132400,1.24913232421875,-0.17637421951591967,0.01896276688426733,-0.05987856850996613
1789911559521140200,1.25914013671875,-0.17839374264478683,0.053989656601846216,-0.07430179226845503
1789911559531148500,1.2691484375,-0.12363280940949917,0.07806874358654022,-0.07124788459055126
1789911559541156400,1.27915625,0.001519172391295433,0.09781126267164945,-0.09638225278183818
1789911559551164400,1.289164306640625,0.10070260019898414,0.06615238808244467,-0.08474164547920227
1789911559561172500,1.29917236328125,0.18984744907319545,0.049177287884056564,-0.10252550477720797
1789911559571180300,1.30918017578125,0.19733634352385995,0.06004851824939251,-0.13639255693517624
1789911559581188400,1.319188232421875,0.18480127159953116,0.03965221143066883,-0.12892455914206802
1789911559591195400,1.3291953125,0.15501169801354409,0.031221067693829534,-0.0638506139460951
1789911559601203500,1.339203369140625,0.07656827589571476,0.05524024118483066,0.08097980872765183
1789911559611211300,1.349211181640625,0.03223462865054607,0.13453355813026427,0.2064408564776182
1789911559621219300,1.35921923828125,-0.27641864806711675,0.09352584043741226,0.40432672364301975
1789911559631227400,1.369227294921875,-0.9704396078705787,-0.04518821824789047,0.294312908937037
1789911559641235500,1.3792353515625,-0.5832780271053314,0.3923006972193718,-0.3465108598165214
1789911559651243500,1.389243408203125,-0.3066290774136782,0.5227691978678107,-0.11563516171909868
1789911559661251300,1.399251220703125,-0.2315034015417099,0.3006216536924243,-0.054106049523130056
1789911559671259400,1.40925927734375,-0.05783610289692878,0.16545067444145678,0.10970482182204723
1789911559681267500,1.419267333984375,0.09694996966719627,0.1490831847473979,0.18009996204078196
1789911559691274500,1.4292744140625,-0.03831307178139686,0.08984744418561458,0.18908311363719402
1789911559701282600,1.439282470703125,-0.1789262420862913,0.06313420930504798,0.1005504783771932
1789911559711290400,1.449290283203125,-0.13783669132888315,0.1715150890469551,0.09105302058309316
1789911559721298400,1.45929833984375,-0.09177636642158031,0.19224398882091046,0.1988663295701146
1789911559731306200,1.46930615234375,-0.08192015831768512,0.14330781621634958,0.28109401946701107
1789911559741314300,1.479314208984375,-0.10143091447353363,0.091209964710474,0.2644303233053535
1789911559751322600,1.489322509765625,-0.12138240013420581,0.039296822121739385,0.08693331030458211
1789911559761330400,1.499330322265625,-0.09602174890637397,0.0011696283012628554,-0.12552556435354054
1789911559771338500,1.50933837890625,0.01834697307348251,-0.003262801188230514,-0.24222689399942754
1789911559781345300,1.51934521484375,0.216148596021533,-0.030444238102436065,-0.2709503727238625
1789911559791353300,1.529353271484375,0.4116957180410623,-0.08416413785219191,-0.15854184490106998
1789911559801361400,1.539361328125,0.5384522124290466,-0.14531506438553332,-0.015006138212978838
1789911559811369500,1.549369384765625,0.5684130509287119,-0.16197013884931802,0.044064328784495586
1789911559821377500,1.55937744140625,0.48946986259520053,-0.1661974011555314,0.05825717785321176
1789911559831385300,1.56938525390625,0.3382984733968973,-0.13995909031033515,0.012402969977259636
1789911559841393400,1.579393310546875,0.1528846228569746,-0.10546528455615042,-0.03880721197389066
1789911559851401200,1.589401123046875,-0.03277881852984428,-0.08447802610695361,-0.03594999591186642
1789911559861409500,1.599409423828125,-0.1306757136583328,-0.04572013316750526,-0.039550650752335784
1789911559871417600,1.60941748046875,-0.137029466599226,-0.000180032742023468,-0.09683986035622656
1789911559881424400,1.61942431640625,-0.10284195031523703,0.04875497081875801,-0.1476883693881333
1789911559891432400,1.629432373046875,-0.1033405474871397,0.05156652110815048,-0.13377061093375087
1789911559901440300,1.639440185546875,-0.07791559885144234,0.07839549132287502,-0.1051113565519452
1789911559911448600,1.649448486328125,-0.09054887045323848,0.09084463852941989,-0.07129464634172618
1789911559921456400,1.659456298828125,-0.1618511886447668,0.10770137304514646,-0.0511251340162009
1789911559931464400,1.66946435546875,-0.23727730876803396,0.1288441143169999,-0.0546525044247508
1789911559941472500,1.679472412109375,-0.28727555764615537,0.11386544863283633,-0.049206513978540894
1789911559951480300,1.689480224609375,-0.2842401354730129,0.09010200346857308,-0.05887640573009848
1789911559961488400,1.69948828125,-0.21101064861118793,0.051341772441565986,-0.09129515877589583
1789911559971495400,1.709495361328125,-0.15606149932742117,0.024078210201859473,-0.08322437278404832
1789911559981503500,1.71950341796875,-0.1405401050686836,-0.05118365927040577,-0.0744251263871789
1789911559991511300,1.72951123046875,-0.11605156050026416,-0.10294044225364923,-0.07262932901158928
1789911560001519400,1.739519287109375,-0.1087345154851675,-0.1420017020538449,-0.08664433729536831
1789911560011527400,1.74952734375,-0.0977589479625225,-0.15253215615749358,-0.05178491309918463
1789911560021535500,1.759535400390625,-0.10029285035431384,-0.14000234493017197,-0.017007687293738125
1789911560031543600,1.76954345703125,-0.09725275200605392,-0.09476444232165813,0.00741173756122589
1789911560041551400,1.77955126953125,-0.09984101493358612,-0.036758243554830546,0.007693184851109981
1789911560051559400,1.789559326171875,-0.11509937434196471,0.005652326673269271,0.006946312006562948
1789911560061566500,1.79956640625,-0.10059855530261992,0.028141221857070922,-0.03550385957956314
1789911560071574500,1.809574462890625,-0.08285013264417648,0.03401157519519329,-0.07000431427024305
1789911560081582300,1.819582275390625,-0.01624269427061081,0.02504033323228359,-0.07454071559086442
1789911560091590400,1.82959033203125,0.03175941235423088,0.011002747790515422,-0.06559490033015608
1789911560101598500,1.839598388671875,0.028532851523160933,-0.01402443369925022,-0.009318228769674896
1789911560111606300,1.849606201171875,-0.006506313154101371,-0.05102057766318321,0.026391017188876865
1789911560121614300,1.8596142578125,-0.08110767289102078,-0.08689619316458702,0.032702465358003974
1789911560131622400,1.869622314453125,-0.26312135959863664,-0.16011282054483889,0.08969196136295796
1789911560141630500,1.87963037109375,-0.37795243839323517,-0.1828767332777381,0.18289609556533395
1789911560151638500,1.889638427734375,-0.4414613262295723,-0.26834464720487594,0.142863652645424
1789911560161645300,1.899645263671875,-0.355652928301692,-0.3736003806635737,0.06609086715355515
1789911560171653600,1.909653564453125,0.018980010280013084,-0.43722821870446205,0.06414638202227652
1789911560181661400,1.919661376953125,0.3769119894295931,-0.7271250647649169,0.1446452022999525
1789911560191669500,1.92966943359375,0.7018383555561304,-0.9248471927359699,0.3395087259694934
1789911560201677300,1.93967724609375,1.4267647412329911,-0.7375149413540959,0.49843189833834767
1789911560211685400,1.949685302734375,1.7500094378829,-0.4539747708439827,0.9813105459749698
1789911560221693400,1.959693359375,2.3978555064886806,-0.1029895420923829,1.4402242345258593
1789911560231701200,1.969701171875,3.284118701547384,0.15025515113621948,1.727351908133924
1789911560241709600,1.97970947265625,3.632352878025174,0.010399521200358867,1.7746647173203527
1789911560251716400,1.98971630859375,2.3966151510387657,-1.1572726775586604,1.6182828999973833
1789911560261724400,1.999724365234375,0.8388082009226083,-1.870099167858064,1.6848912151537834
1789911560271732200,2.009732177734375,-2.6673025619775057,-0.3715194827362895,0.9658018650673329
1789911560281740500,2.019740478515625,-6.197778535327315,2.1471453001737593,0.9093712450541556
1789911560291748600,2.02974853515625,-3.899673442879319,2.5240078975036737,1.9268731944814323
1789911560301756400,2.03975634765625,-2.070395237970352,1.2837962399736047,1.6309354608215392
1789911560311764500,2.049764404296875,-5.5484653167784215,-0.32503684076368805,0.9325180926900356
1789911560321772300,2.059772216796875,-9.06286460007429,-1.5096911539837716,0.19616751894019543
1789911560331780400,2.0697802734375,-8.366124444440008,-2.009156048631668,-0.40524080628063525
1789911560341787400,2.079787353515625,-5.706000980311631,-1.9391028537183999,-0.4820586730232462
1789911560351795200,2.089795166015625,-2.1836761647135017,-1.9037787346199153,-0.5744318728268146
1789911560361803300,2.09980322265625,3.7937095611512657,-1.887483141118288,-0.2909429210472852
1789911560371811300,2.109811279296875,4.316628104361891,-0.8862123416543006,-0.36300109910741446
1789911560381819100,2.119819091796875,6.038084232455492,1.0112515107303857,-2.553040222981572
1789911560391827500,2.129827392578125,2.251198379844427,1.3943199769631027,-1.8185707868032157
1789911560401835300,2.139835205078125,1.074793716314435,0.26820290064662694,-0.6972919442981481
1789911560411843300,2.14984326171875,2.122702932834625,-0.4048024513959884,-0.43902956903800366
1789911560421851400,2.159851318359375,2.454668696078658,-1.0213605245515704,-0.29497999454364177
1789911560431858200,2.169858154296875,2.3553841459840537,-0.7325044197157025,0.1262638885654509
1789911560441866500,2.179866455078125,1.701383061879873,-0.05206044210493564,0.7176037146385759
1789911560451874300,2.189874267578125,1.4159195220917462,0.6748737762629985,0.7144508035656064
1789911560461882400,2.19988232421875,1.262785892909765,0.9484852579548955,0.055456879610195756
1789911560471890200,2.20989013671875,0.9621633624345064,0.9118228759899735,-0.8028779326245188
1789911560481898200,2.219898193359375,0.3671902213603258,0.8952163168430328,-1.3996619225129485
1789911560491906300,2.22990625,-0.1630921286165714,0.9064578418254852,-1.6707459315538404
1789911560501914400,2.239914306640625,0.11593991681933402,0.9678829091250896,-1.2986527405828237
1789911560511922400,2.24992236328125,0.3968757500499487,0.936048385708034,-0.6813937526162713
1789911560521930200,2.25993017578125,0.5658259570449591,0.8138535001471638,-0.18526377454474569
1789911560531937300,2.269937255859375,0.9270674991339445,0.6749816205516457,-0.027203721811249852
1789911560541945300,2.2799453125,1.3028086912184953,0.5630494780689478,-0.12101349375657737
1789911560551953400,2.289953369140625,1.21133978331089,0.1687155214563012,-0.3479671230394393
1789911560561961200,2.299961181640625,0.919364085149765,0.09926730669885873,-0.5282120465088636
1789911560571969300,2.30996923828125,0.5412719460248947,0.33460634088069197,-0.5729957756090909
1789911560581977300,2.319977294921875,0.358998731598258,0.5364338583439588,-0.46198951579965647
1789911560591985200,2.329985107421875,0.3365799790412187,0.5953115792483091,-0.246253519167006
1789911560601993200,2.3399931640625,0.5509370154708624,0.5473863372519612,0.043188568863272665
1789911560612000300,2.350000244140625,0.9005985944032668,0.5434451984107495,0.3147643069438636
1789911560622008300,2.36000830078125,0.9495096325665712,0.4533209831103682,0.4018284040212631
1789911560632016100,2.37001611328125,0.6686994715422392,0.26848113306611776,0.36373153227381405
1789911560642024200,2.380024169921875,0.29759879873991013,0.22577274893522262,0.25678565377108753
1789911560652032300,2.3900322265625,-0.07266542323827743,0.2543687288224697,0.11940854277797043
1789911560662040300,2.400040283203125,-0.347642640325427,0.2663274621635675,0.03990151001662016
1789911560672048400,2.41004833984375,-0.41348610858917234,0.19971271726638076,0.07381736975237727
1789911560682056200,2.42005615234375,-0.4027729913949966,0.07404518715888261,0.11171674616634845
1789911560692064300,2.430064208984375,-0.3973988971412182,0.03150105367898941,0.07171060673147439
1789911560702071300,2.4400712890625,-0.36767537452876564,-0.06468669944405556,0.07215747371613979
1789911560712079400,2.450079345703125,-0.2308756250321865,-0.25456629722118373,0.10209653877541422
1789911560722087400,2.46008740234375,-0.2742050636708736,-0.37481969332545995,0.19773440293073652
1789911560732095200,2.47009521484375,-0.5640671306788921,-0.30291590210944414,0.264846722086519
1789911560742103300,2.480103271484375,-0.557862430819869,-0.22493103741407394,0.1901218821004033
1789911560752111000,2.490111083984375,-0.5531669664800167,-0.1830488749742508,0.09630509589239955
1789911560762119200,2.500119140625,-0.6084568920254707,-0.07591185781359672,0.20609394273608922
1789911560772127500,2.51012744140625,-0.664020373815298,-0.2386108954593539,0.5132194253645836
1789911560782135300,2.52013525390625,-0.2830804440438747,-0.21611381696909665,0.33678938400819897
1789911560792142300,2.530142333984375,-0.05706161139309406,-0.33079262781143187,0.0937421135365963
1789911560802150100,2.540150146484375,-0.08589666073322295,-0.8066136120215058,0.04267667381837964
1789911560812158500,2.550158447265625,-0.1438128431290388,-0.7756795445755124,0.18286153570860622
1789911560822166300,2.560166259765625,-0.576870498150587,-0.6319754225179552,0.09538549682945012
1789911560832174300,2.57017431640625,-1.161732579576969,-0.7480556245908141,0.20391367608755825
1789911560842182400,2.580182373046875,-1.2064075876057148,-0.7626336005195975,0.36472733837813137
1789911560852190200,2.590190185546875,-0.6763993783950806,-0.5685302475675941,0.5222177014648914
1789911560862198300,2.6001982421875,0.28157646922171115,-0.25619506746679543,0.31741087592989203
1789911560872206300,2.610206298828125,0.1751572449415922,-0.13466361425071954,0.18815525820255277
1789911560882213400,2.62021337890625,-0.8628566005080938,-0.37654315611720085,0.5356175735250115
1789911560892221200,2.63022119140625,-1.853782531568408,-0.6628729573458433,0.6500400715187191
1789911560902229200,2.640229248046875,-2.1299539268761873,-0.5039300573632121,0.6432546491622925
1789911560912237000,2.650237060546875,-1.6569015305966137,-0.2897837410748005,0.4340840754598379
1789911560922245400,2.660245361328125,-1.4845155039340256,-0.06823503957539796,0.5131549818262457
1789911560932253400,2.67025341796875,-1.6393576905995606,-0.09547375963479279,0.6989055169746279
1789911560942261200,2.68026123046875,-1.897127167776227,-0.5049643688470125,0.6672644703030586
1789911560952269300,2.690269287109375,-2.7076784115076062,-1.2969687330186366,0.7341375738754868
1789911560962277000,2.700277099609375,-3.462758527907729,-2.060799726629257,0.8750558646067976
1789911560972284400,2.710284423828125,-3.870193081372976,-2.2359081639930602,0.5536667326956987
1789911560982292200,2.720292236328125,-4.098240789502859,-2.330503971749544,0.3297290902331471
1789911560992300300,2.73030029296875,-4.914225748720765,-2.918103953707218,0.6527773875281214
1789911561002308400,2.740308349609375,-5.451373892813921,-3.462628179526329,0.5555871793642639
1789911561012316200,2.750316162109375,-5.5310588394254445,-3.7523259958833455,0.11314210279434919
1789911561022324200,2.76032421875,-5.476314857324957,-4.0877193954885005,0.17032149534821509
1789911561032332300,2.770332275390625,-5.13984418387711,-4.253246057775616,0.29667087024003264
1789911561042340400,2.78034033203125,-4.6087616234332325,-3.995143403121829,-0.3549368889868259
1789911561052348400,2.790348388671875,-4.180702799612283,-3.855099557137489,-0.9845482127219438
1789911561062355200,2.800355224609375,-2.616571322649717,-3.8103012149900195,-2.9276608866035936
1789911561072363300,2.81036328125,-1.6294453683942556,-3.523414072139561,-5.336693620666861
1789911561082371300,2.820371337890625,-2.838428943967819,-3.977033161413669,-5.81171234858334
1789911561092379400,2.83037939453125,-3.9730046365499496,-6.082329032373428,-5.442530076622963
1789911561102387200,2.84038720703125,-4.845160395801067,-8.74473271639347,-4.084906091633439
1789911561112395300,2.850395263671875,-5.0096729126095765,-9.25138109280467,-3.649068450504541
1789911561122403300,2.8604033203125,-4.92419476954937,-9.071416739842295,-4.444679899257421
1789911561132411100,2.8704111328125,-4.631566744959354,-9.68266413936913,-5.79209404039979
1789911561142419500,2.88041943359375,-4.0347143660098315,-10.933339323246479,-6.428168422669172
1789911561152426200,2.89042626953125,-3.774904615177214,-11.89146422394514,-5.032984230092167
1789911561162434300,2.900434326171875,-3.393541199296713,-12.134390352255105,-4.185208294337988
1789911561172442000,2.910442138671875,-3.258037334829569,-11.63692715281844,-3.2770331272006032
1789911561182450200,2.9204501953125,-3.6133211375579237,-11.165634167426823,-1.2579057196527719
1789911561192458500,2.93045849609375,-2.7455875786632298,-10.97233511659503,0.15185352624356746
1789911561202466300,2.94046630859375,-1.5736720432460307,-11.080815365058182,0.9559685994476079
1789911561212474400,2.950474365234375,-0.1114618946224451,-10.921589264219998,1.494953311318159
1789911561222482200,2.960482177734375,1.4197154072433709,-10.493923823630809,3.495415181362629
1789911561232490200,2.970490234375,2.6250784542322156,-9.931284095406532,7.3682292588889595
1789911561242497300,2.980497314453125,4.182442336755991,-8.941628914934396,10.221160190939903
1789911561252505300,2.99050537109375,5.628655874824523,-7.260648005092143,12.738653884243964
1789911561262513400,3.000513427734375,6.294519830679893,-5.09909424033761,15.615397069036959
1789911561272521200,3.010521240234375,6.921067675191163,-3.0515915099158883,17.122828753656147
1789911561282529300,3.020529296875,7.054747831362485,-0.9552557750031352,18.13464549705386
1789911561292537000,3.030537109375,5.48061752295494,0.8300406648382544,17.723304583799838
1789911561302545400,3.04054541015625,3.341408276477456,1.3288500181868672,16.404748288351296
1789911561312553200,3.05055322265625,0.9051941054999828,1.093249410459399,15.206975258100032
1789911561322560300,3.060560302734375,-1.1124749199330806,1.385275962024927,13.529174147337674
1789911561332568000,3.070568115234375,-1.1634200942724942,1.873029083830118,11.837443879944086
1789911561342576400,3.080576416015625,-0.35916126521620895,1.7874223459541796,10.454503667390346
1789911561352584400,3.09058447265625,0.7522089448779821,1.9699036501735447,9.715572721758484
1789911561362592500,3.100592529296875,1.2654472210735082,2.3429636403501033,9.32866774610281
1789911561372600600,3.1106005859375,2.0083248585045337,3.3346395129948854,9.11605492299199
1789911561382608400,3.1206083984375,2.5152538054227827,4.1109389430344105,8.70702345572412
1789911561392616400,3.130616455078125,1.8657821814417839,3.967600147157907,8.181120928266644
1789911561402624300,3.140624267578125,2.254914770019054,4.116453322541713,7.126457561311125
1789911561412631600,3.150631591796875,2.7535271394908425,4.307583212640881,6.335318874058127
1789911561422639400,3.160639404296875,2.603503751283884,4.099454841467738,5.680025996577739
1789911561432647400,3.1706474609375,3.1283588155150412,2.6278812366932627,5.933523787784576
1789911561442655500,3.180655517578125,4.047340623348951,2.1759908709079028,6.042617784231901
1789911561452663300,3.190663330078125,4.076896388179064,2.2878537475466727,5.945034192836284
1789911561462671600,3.200671630859375,3.561310672074556,2.059834096467495,5.252728220257163
1789911561472679400,3.210679443359375,2.5753613603830336,1.6423200475364923,4.377217889881134
1789911561482687500,3.2206875,0.8733107745051384,1.6842466336399315,3.2397739483863113
1789911561492695600,3.230695556640625,-1.0587690487086772,2.3747312360107897,2.6871125933408737
1789911561502702600,3.24070263671875,-2.7832857334166765,3.6148780116111037,2.177061130487919
1789911561512710700,3.250710693359375,-3.535620935022831,4.82702677321732,1.8051690150469542
1789911561522718500,3.260718505859375,-3.3746675720006225,4.669333873295784,3.7849353030651804
1789911561532726500,3.2707265625,-3.2156501454770563,4.432010971820354,6.128293495690822
1789911561542734300,3.280734375,-3.7925843565136192,4.29827937772274,7.900577893745899
1789911561552742400,3.290742431640625,-4.231371495097875,4.334660020136833,7.993871094471216
1789911561562750500,3.30075048828125,-4.994304663085937,4.217819355085492,5.054636089929938
1789911561572758500,3.310758544921875,-6.6530597125947475,2.8254665865421296,1.6883429630428552
1789911561582766600,3.3207666015625,-6.842087077456712,0.9441302776157855,-0.8781149599164724
1789911561592773400,3.3307734375,-6.829668909910321,1.3039116840243339,-1.9468208807498215
1789911561602781400,3.340781494140625,-6.53994245198071,2.393313771405816,-1.3501508726298808
1789911561612789500,3.35078955078125,-5.929872864061593,2.4897581296384335,-2.4971201828390357
1789911561622797600,3.360797607421875,-7.395509480002522,1.0276485187798738,-2.5271102474331855
1789911561632805400,3.370805419921875,-8.735188058456778,0.6372440105706453,-0.9653758947402238
1789911561642813400,3.3808134765625,-8.371909457582236,0.2833557538539171,1.4871131192117928
1789911561652821500,3.390821533203125,-6.411202090299129,-0.2799801399409771,-0.17574001326560973
1789911561662829300,3.400829345703125,-2.910000726750493,-1.4721376683980225,-2.7220260858118532
1789911561672837400,3.41083740234375,-0.03957737436247989,-2.756827642340958,-2.8593483978778123
1789911561682844400,3.420844482421875,0.8229296637892722,-1.4851882886290548,-1.2293547479510307
1789911561692852500,3.4308525390625,0.6438181282639504,0.1908294458478689,0.18382862717509268
1789911561702860300,3.4408603515625,0.4610860641539097,0.8513076170116662,0.4822469256043434
1789911561712868400,3.450868408203125,0.6051987670123576,0.6455053506985307,1.2147639125406742
1789911561722876700,3.460876708984375,1.4199322648644446,1.2995315692439675,2.39996446146667
1789911561732884500,3.470884521484375,1.879053166425228,2.769192618395388,3.3319349302113053
1789911561742892500,3.480892578125,2.8030127626717087,1.5970777610138058,1.2772224145412445
1789911561752900400,3.490900390625,3.5707556690290567,0.8220394369512796,0.028917466926574705
1789911561762908400,3.500908447265625,2.8801345807969567,0.8109630394026637,-0.8839742073386907
1789911561772915500,3.51091552734375,0.7941771051008254,0.815625916647166,-1.600046255430579
1789911561782923500,3.520923583984375,-0.8688881357572972,0.7185206102877855,-1.1012813257455825
1789911561792931600,3.530931640625,-1.9916272600732743,-0.5510422294110059,-1.224570436283946
1789911561802939400,3.540939453125,-1.832990357299894,-1.032277786015719,-1.4802636917084455
1789911561812947500,3.550947509765625,-1.0195406156480311,-0.05941533491238951,-1.8862433701902628
1789911561822955300,3.560955322265625,-0.02340659455060959,0.44150779571980237,-2.5892607063978907
1789911561832963600,3.570963623046875,-0.30987025129199025,-0.0016861995212733745,-3.0551620618790385
1789911561842971600,3.5809716796875,-1.149027265652269,-1.9620640425890683,-2.6624691504716873
1789911561852979500,3.5909794921875,-1.2710450410805643,-2.820750663936138,-2.0991344257205724
1789911561862986500,3.600986572265625,-0.12388941451907157,-4.099010020309686,-1.1077309402763842
1789911561872994300,3.610994384765625,2.1462381222009657,-5.501911070874333,-0.6912643545717001
1789911561883002600,3.621002685546875,4.557395593333244,-5.900946044784784,-1.9302245507359503
1789911561893010400,3.631010498046875,4.948356566381454,-5.401232436072826,-5.120463191580772
1789911561903018500,3.6410185546875,2.6677999901056286,-4.604148576679825,-5.251560345521569
1789911561913026600,3.651026611328125,0.0474959106683731,-4.39843018925786,-4.200754823037982
1789911561923034400,3.661034423828125,-1.6293934920765458,-4.720765954369306,-2.6023165873259306
1789911561933042400,3.67104248046875,-0.49580447244420645,-4.548652899429202,-1.9430325943827629
1789911561943050500,3.681050537109375,1.3752712853610516,-4.371367994809151,-1.1784195104837416
1789911561953057500,3.6910576171875,2.000701670149714,-3.6912802832901477,-0.11686170783936976
1789911561963065300,3.7010654296875,1.2276422449447213,-2.4053534610286356,1.1735597954928874
1789911561973073400,3.711073486328125,0.27813421981334685,-1.3438381823517382,2.8322014477550983
1789911561983081200,3.721081298828125,0.23593320068269966,-0.4993243171334266,4.944733115187287
1789911561993089500,3.731089599609375,1.0500431598089635,0.411325131163001,6.847942817747593
1789911562003097600,3.74109765625,1.0705381046965718,1.3484443609729408,7.613452558225393
1789911562013105400,3.75110546875,0.48401335075497626,1.9755171061411498,8.299821541970967
1789911562023113500,3.761113525390625,-1.619846934443712,3.432235963872075,10.791665245711803
1789911562033121300,3.771121337890625,-3.7067689443230627,6.324593481904268,9.40045054128766
1789911562043128600,3.781128662109375,-1.876067428612709,6.859455560886859,7.999590056639909
1789911562053136400,3.791136474609375,-0.15765253137852997,5.637480986315012,8.45228180193603
1789911562063144400,3.80114453125,0.6943675812840462,4.06693467387408,7.443010066846012
1789911562073152500,3.811152587890625,1.6302654526054858,3.1177988430559633,7.144825577172637
1789911562083160300,3.821160400390625,2.418205636078119,2.6116952410459517,8.734842021498084
1789911562093168400,3.83116845703125,0.32159510281197723,2.5152614042073487,8.74831583557725
1789911562103176400,3.841176513671875,-2.473889529377222,2.834779481549561,7.002813645985722
1789911562113184500,3.8511845703125,-4.110988042873144,1.6291706431061028,3.7639889611482618
1789911562123192600,3.861192626953125,-4.2378281238913535,0.572838466155529,0.5847592055737972
1789911562133199400,3.871199462890625,-3.7797079238057134,-0.8268374848827719,-2.6224171260684725
1789911562143207400,3.88120751953125,-3.3106180014163256,-2.138670901817083,-4.718261862593889
1789911562153215500,3.891215576171875,-2.034816997980326,-2.5807927377820015,-5.86214255913794
1789911562163223600,3.9012236328125,-0.5754577087432146,-2.883438883039355,-6.364297715783119
1789911562173231400,3.9112314453125,0.14917685438022016,-3.1906203336387873,-7.31850807338655
1789911562183239400,3.921239501953125,1.4264204578399657,-2.463309098652005,-8.73201527363956
1789911562193247500,3.93124755859375,-0.14679215120077133,-3.951296954871714,-10.141728342306614
1789911562203255300,3.94125537109375,-1.4052593041285872,-4.898416769692301,-10.337646051204205
1789911562213263600,3.951263671875,-1.6840511110678313,-4.323580407717824,-9.745632344457507
1789911562223270400,3.9612705078125,-1.932372084158659,-3.0481866699084637,-7.206359950065613
1789911562233278500,3.971278564453125,-2.832070514851808,-1.8197227333173154,-5.886501339846849
1789911562243286300,3.981286376953125,-2.7238667452424763,-0.48788697731792924,-6.098934130215644
1789911562253294600,3.991294677734375,-1.4070324512809513,-0.19017419680953024,-6.038555941620468
1789911562263302700,4.001302734375,-1.9499979033507406,-0.5097837518274784,-6.198655318161845
1789911562273310500,4.011310546875,-0.9739859021753072,-1.00231007938385,-5.568652364760637
1789911562283318500,4.021318603515625,0.4053104009181261,-1.2297621597081423,-3.6991935406327245
1789911562293326300,4.031326416015625,-0.8861537433348595,-1.219484511321783,-2.5490163742929695
1789911562303334400,4.04133447265625,-1.8860158450447022,-1.6760224106520414,-0.51515200086236
1789911562313341400,4.051341552734375,-1.1708400151401757,-1.76550803578794,3.640399990880489
1789911562323349500,4.061349609375,-0.43652986117675896,0.9117319828361272,8.458763565170765
1789911562333357300,4.071357421875,4.2931992979794735,3.0864772375971077,14.134502678209543
1789911562343365600,4.08136572265625,8.436352995920181,1.753965482032299,19.972448953723905
1789911562353373700,4.091373779296875,6.4407338897317645,0.29469898564517494,17.421179247546196
1789911562363381500,4.101381591796875,4.4107910736590625,-0.8201432479411364,9.045118515503406
1789911562373389800,4.111389892578125,0.4246639937508851,-2.5672692393422127,1.552403045246005
1789911562383398000,4.12139794921875,-1.6838029815256594,-1.9347978500008582,-1.3948673817127941
1789911562393405700,4.13140576171875,-0.6010165128916501,-0.3356500047147274,-2.396549100065231
1789911562403413800,4.141413818359375,0.10418342805206775,1.9663462499529123,-2.3597756589412686
1789911562413420800,4.1514208984375,-0.046238019561767575,3.466889344102144,-2.2249515934318302
1789911562423428900,4.161428955078125,-0.42037583157029,3.4888755504608153,-1.865580521389842
1789911562433436700,4.171436767578125,-1.0335861652005462,3.0061329502940177,-0.875845845940709
1789911562443444700,4.18144482421875,-1.1129010363906622,1.9745465075433253,0.5075684138655662
1789911562453452500,4.19145263671875,0.06806815857589245,0.19977730693519113,1.5609996086776257
1789911562463460600,4.201460693359375,-0.16834577482845633,-2.514581605249643,1.5208651666879653
1789911562473468700,4.21146875,-0.7422925310194491,-4.592591994398832,0.5745376712888479
1789911562483476700,4.221476806640625,0.2730267040738836,-5.390711042058467,-1.1236468868106604
1789911562493484800,4.23148486328125,2.1759142985403535,-3.2537539584219455,-3.289461816141009
1789911562503491600,4.24149169921875,2.446879941898584,-0.740448364457488,-3.7552743242949247
1789911562513499600,4.251499755859375,0.834858586513996,-0.7585065837174654,-2.4752888747811315
1789911562523507700,4.2615078125,1.0144459228575229,-0.11924947975873947,-0.9874071092844009
1789911562533515800,4.271515869140625,1.721764171129465,-0.04698386949300766,0.4625052833020687
1789911562543523800,4.28152392578125,1.1753005016803741,-0.5652063638418913,0.7787772183299064
1789911562553531600,4.29153173828125,-0.030931729358434676,-0.5145183791339397,0.28131401889324187
1789911562563539700,4.301539794921875,-0.8419201954632997,-0.09120645757913588,-0.12749299196898936
1789911562573547500,4.311547607421875,-1.3875824854016303,0.17678923005759714,-0.74059391040802
1789911562583555600,4.3215556640625,-1.6964058579891919,0.46033670709133145,-1.1020102245420216
1789911562593562600,4.331562744140625,-2.3635025705099104,1.0100976645201445,-0.19145663783550262
1789911562603570700,4.34157080078125,-3.2488416364610195,1.4345862286388873,1.2482646156042814
1789911562613578800,4.351578857421875,-1.8515794685661793,1.6888941671848297,2.1009481971442696
1789911562623586600,4.361586669921875,-0.4356044168949127,1.5106243431806563,2.4446318707108494
1789911562633594600,4.3715947265625,-0.08760463369488716,0.5453887336939574,2.350073764616251
1789911562643602700,4.381602783203125,1.0763678337633609,-0.39942368096709246,2.1264579014539717
1789911562653610800,4.39161083984375,1.672035386842489,-0.7221247722595929,1.8035417061060666
1789911562663618800,4.401618896484375,0.7770985445279628,-0.5059048645675182,0.9551841710716485
1789911562673626600,4.411626708984375,0.08267601818628609,-0.009521861582994461,0.2463695467621088
1789911562683634000,4.421634033203125,0.37078086626343426,0.8345774314850568,0.09673194300234317
1789911562693641700,4.431641845703125,0.7822527854859829,1.7618875072032212,0.15076631552875042
1789911562703649800,4.44164990234375,1.8871429493784904,2.354359479111433,0.09219780670404433
1789911562713657600,4.45165771484375,3.0922961530089377,2.967515342608094,-0.32778701625466344
1789911562723665700,4.461665771484375,3.6778959010601042,2.81274563665688,-1.3431366099536417
1789911562733673700,4.471673828125,3.085915512061119,1.0565385131776333,-2.3568910434156654
1789911562743681800,4.481681884765625,2.58512170689702,-0.9244429958492517,-3.1555478512138126
1789911562753689900,4.49168994140625,1.681148083102703,-1.9703747748166323,-3.551622221753001
1789911562763697700,4.50169775390625,0.7102785593822598,-2.1036048491328954,-3.3433968199461694
1789911562773704700,4.51170458984375,0.2040450473822653,-1.6183265930086372,-2.616217686906457
1789911562783712500,4.52171240234375,0.027316023079305887,-1.117591824555397,-1.6350222917437554
1789911562793720800,4.531720947265625,-0.5455822104394435,-1.3333388540387152,-0.1418301448792219
1789911562803729000,4.54172900390625,-3.1393022343337535,-0.7711778492420911,0.21281740577220915
1789911562813736700,4.55173681640625,-4.931086282628774,0.8259358598679304,-1.0016887326151132
1789911562823744800,4.561744873046875,-4.358281718742847,2.710308175489306,-1.9719290185213088
1789911562833752600,4.571752685546875,-1.1837887824319302,2.974840570929646,-2.7641578390985724
1789911562843760600,4.5817607421875,1.4758311160884796,2.431824411585927,-3.8488451729178426
1789911562853768700,4.591768798828125,3.087052991658449,2.0371564007133243,-4.180407616057992
1789911562863775700,4.601775634765625,3.843730606383085,1.3231366089761256,-3.957288596501946
1789911562873783600,4.611783447265625,4.1687551721870895,0.1558814665853977,-3.3106180014163256
1789911562883791600,4.62179150390625,4.88110293905884,-0.8464151687949896,-2.0826438941687346
1789911562893799700,4.631799560546875,4.8247804555952545,-1.4566542680621146,-1.0678326451301574
1789911562903807700,4.641807861328125,4.1343280019283295,-1.7217898900926112,-0.23855916527211665
1789911562913815800,4.65181591796875,2.435521366407722,-1.3799100510776041,-0.41966333591938015
1789911562923823600,4.66182373046875,1.5254185922086239,-1.6230787559717892,-0.512376690930128
1789911562933831700,4.671831787109375,-1.871252137285471,-5.026587222531438,3.687909345552325
1789911562943839700,4.68183984375,-3.873750481593609,-5.64432924477458,6.389464890265464
1789911562953846800,4.6918466796875,-2.5474013403117657,-0.7520242359608411,8.159654361867904
1789911562963854800,4.701854736328125,-3.50307767881453,2.4138737443536518,6.519998565104603
1789911562973862700,4.711862548828125,-4.839987377077341,2.3355793753176926,3.6304610729292035
1789911562983870700,4.72187060546875,-4.2308027552992105,3.0703122847378252,2.068291835950315
1789911562993878500,4.73187841796875,-2.760871072512865,4.907692547559738,1.3288231301799416
1789911563003886600,4.741886474609375,-1.9876707775324582,6.120359780082106,0.4457525936827063
1789911563013895000,4.75189501953125,-1.3600252009123563,7.034667166364192,0.09020955549627542
1789911563023902700,4.76190283203125,-0.5414923107773065,7.0410711881875985,0.45077188314944505
1789911563033910800,4.771910888671875,-0.0026607436418533323,6.00752016736567,1.221991964098066
1789911563043917600,4.78191748046875,0.08611468739807605,3.837064718753099,1.7893068445265292
1789911563053925600,4.791925537109375,-0.21731880884468555,0.7111784308314323,1.71340872297734
1789911563063933700,4.80193359375,-0.8133487654954195,-3.0616338882416483,1.1682863851346075
1789911563073941800,4.811941650390625,-1.0083464369386435,-6.9703668358892195,0.5628602756397798
1789911563083949800,4.82194970703125,-0.400504461941123,-9.58361398255229,0.8703471754591912
1789911563093957600,4.83195751953125,0.40262393831312654,-10.825497372686863,1.5814150585882365
1789911563103965700,4.841965576171875,1.0502356136411428,-11.11716911946535,1.7980388709060846
1789911563113973500,4.851973388671875,1.6774427988439797,-9.886666370522976,2.092493964792788
1789911563123981800,4.86198193359375,2.160469476649165,-7.374850138333439,2.4607068071991205
1789911563133988600,4.871988525390625,2.480129885071516,-4.107811166402698,2.4832258052602407
1789911563143996700,4.88199658203125,2.6495757666289803,-0.4357616532832384,2.27515793210268
1789911563154004700,4.892004638671875,2.2094097409069535,2.402738017833233,1.9181763855457306
1789911563164012500,4.902012451171875,1.7551123139798641,3.7210721949636936,0.8667917479999363
1789911563174020900,4.912020751953125,1.2536919013500214,3.6776685220450163,-0.3498926112093031
1789911563184028700,4.922028564453125,0.6789607533156872,3.1330671393364664,-1.2545897269725799
1789911563194036700,4.93203662109375,0.07354220607280731,2.450280105730891,-1.977716808142513
1789911563204044800,4.942044921875,-0.40522915237545964,1.805126344949007,-2.6732670233398674
1789911563214052600,4.952052490234375,-0.6950549790263175,1.0791828911840915,-3.202780142509937
1789911563224060000,4.962059814453125,-0.8444798168182372,0.3397890042155981,-3.3647140410020944
1789911563234067700,4.972067626953125,-0.898569134402275,-0.21584055298566818,-3.256951000897586
1789911563244075800,4.98207568359375,-0.8383855915963649,-0.6957879694759845,-3.2865570346102118
1789911563254083600,4.99208349609375,-0.6714297732889651,-0.7699357402265071,-3.1369340438976883
1789911563264091600,5.002091552734375,-0.4065770598530769,-0.6705687725454569,-2.7311279684171077
1789911563274099700,5.012099609375,-0.09660627079606056,-0.38503333656489847,-2.1556120997458694
1789911563284107800,5.022107666015625,0.0648912638391368,-0.07641746924817562,-1.4590150058440863
1789911563294115800,5.03211572265625,0.15946926194429398,0.08480477384328841,-0.8606522223316132
1789911563304123600,5.04212353515625,0.21304420026540755,0.14775895040631293,-0.35408918611630796
1789911563314130700,5.052130615234375,0.20349311258792877,0.1381833128094673,0.028732904139906167
1789911563324138800,5.062138671875,0.19023147995471953,0.06600713439285755,0.2951535975448787
1789911563334146800,5.072146728515625,0.062357964235544204,-0.07565408366024494,0.5378844955436886
1789911563344154600,5.082154541015625,-0.17457973731458187,-0.21657412795722483,0.7582381420396268
1789911563354162700,5.09216259765625,-0.4364776925981044,-0.36356852373182774,1.0058248095065354
1789911563364170500,5.10217041015625,-0.5874632038354873,-0.40333471693098544,1.2048622578598558
1789911563374178600,5.112178466796875,-0.6628086599379778,-0.26484862178266044,1.3430803497217594
1789911563384186600,5.1221865234375,-0.7102998944312333,-0.034439445218443866,1.4489929396539927
1789911563394193700,5.132193603515625,-0.69650517783463,0.0911538506090641,1.4329182954266666
1789911563404201500,5.142201416015625,-0.545517913031578,0.0992144074678421,1.2439620961047708
1789911563414209500,5.15220947265625,-0.27556349254250523,0.035765140864253045,0.9379046810992061
1789911563424217300,5.16221728515625,0.009541735327243804,-0.017454992669820785,0.5708161665476859
1789911563434225700,5.1722255859375,0.21940613651275634,-0.08031973738372325,0.20268091942220925
1789911563444233700,5.182233642578125,0.37103111469745637,-0.14722995809614658,-0.07713979217335581
1789911563454241500,5.192241455078125,0.46675826457142827,-0.20783669475018976,-0.279967280459404
1789911563464249600,5.20224951171875,0.49458968982696533,-0.24638591337502,-0.44981838181689376
1789911563474257400,5.21225732421875,0.46142157971858977,-0.22387655992507932,-0.5554550774171948
1789911563484264700,5.2222646484375,0.40848961547613144,-0.1571884575307369,-0.617135142391175
1789911563494272500,5.2322724609375,0.3531973518431186,-0.11718436392247676,-0.670664488004893
1789911563504280600,5.242280517578125,0.3286789966583252,-0.13376198923587798,-0.7245889704160392
1789911563514288600,5.25228857421875,0.2980734122480266,-0.12975392263829708,-0.74430986219123
1789911563524296400,5.26229638671875,0.2346714919175021,-0.03791092072129249,-0.672553955013305
1789911563534304500,5.272304443359375,0.18887071299552916,0.0907785875558853,-0.5415574849680066
1789911563544312600,5.2823125,0.14385317513942716,0.1875052698612213,-0.40805590023398397
1789911563554320600,5.292320556640625,0.12088615931617096,0.18937749347388744,-0.30759923762008545
1789911563564328700,5.30232861328125,0.08522678038133308,0.11814005721211433,-0.25397154619842766
1789911563574335500,5.31233544921875,0.04395721514821052,0.013270984983444213,-0.24923911084905265
1789911563584343600,5.322343505859375,0.01919220085912384,-0.023644494959712027,-0.21369170438870785
1789911563594351600,5.3323515625,-0.028398411488533018,0.011122867038846015,-0.18453984418436883
1789911563604359700,5.342359619140625,-0.06835166995869948,0.11848200251758098,-0.13705956947654485
1789911563614367500,5.352367431640625,-0.08118660161243751,0.19112813653349875,-0.0946609819471836
1789911563624375600,5.36237548828125,-0.06463876864910126,0.17321546322405337,-0.10833806351348757
1789911563634383600,5.372383544921875,-0.014278682454954832,0.11555120976269244,-0.14769041521474718
1789911563644391400,5.382391357421875,0.06721534113883972,0.01713233658671379,-0.19330051213651894
1789911563654398700,5.392398681640625,0.13644611375331878,-0.02784896091222763,-0.24087343356385826
1789911563664406500,5.402406494140625,0.1981108350276947,-0.022135843962430953,-0.22889468034803867
1789911563674414600,5.41241455078125,0.20699087330950422,0.019479776495695114,-0.17247092846706508
1789911563684422400,5.42242236328125,0.24062077397704124,0.10016191745102405,-0.09904708807691931
1789911563694430500,5.432430419921875,0.26558570388555525,0.18749065681397914,-0.022475305049866435
1789911563704438800,5.442438720703125,0.29631053076134994,0.2034574567526579,0.03586012567132711
1789911563714446600,5.452446533203125,0.3240110048472881,0.15223288094997406,0.09583864742442964
1789911563724454700,5.46245458984375,0.325270064997673,0.08966507335603237,0.17621245308294892
1789911563734462500,5.47246240234375,0.33628713357448575,0.00026420389413833614,0.2797738037139177
1789911563744469800,5.4824697265625,0.31652912465929983,-0.08547171331942081,0.40236791772544384
1789911563754477600,5.4924775390625,0.2541804762413725,-0.12327332844734191,0.5343412699788809
1789911563764485600,5.502485595703125,0.22705982960369436,-0.15345628526508806,0.6667961221389472
1789911563774493700,5.51249365234375,0.17184477765904738,-0.13029577443003654,0.7975045690231025
1789911563784501500,5.52250146484375,0.09859013808965682,-0.112847796022892,0.8894472319222986
1789911563794509600,5.532509521484375,0.023772486987244337,-0.10243687664568424,1.0037056253954768
1789911563804517600,5.542517578125,-0.05865909145129844,-0.10603636244237423,1.1085945713683962
1789911563814525700,5.552525634765625,-0.15977321332693098,-0.09643617492616176,1.1988429975703359
1789911563824532500,5.562532470703125,-0.24215923559069633,-0.05926525891721248,1.2329624170541762
1789911563834540500,5.57254052734375,-0.33381694406867024,0.01958674400150776,1.2506504878275095
1789911563844548400,5.58254833984375,-0.4235352089166641,0.0457663103967905,1.2041057404041289
1789911563854556700,5.592556640625,-0.4725368479728698,0.033013211807608606,1.1150484236828981
1789911563864564700,5.602564697265625,-0.4640729710102081,-0.020849895805120467,0.9229239695884287
1789911563874572500,5.612572509765625,-0.4219406332015991,-0.10410802472829818,0.675514412254095
1789911563884580600,5.62258056640625,-0.36837621627449985,-0.1806219400882721,0.4112919595457613
1789911563894588400,5.63258837890625,-0.32805706536769863,-0.2327928568303585,0.20332886193692684
1789911563904596500,5.642596435546875,-0.29603578720688817,-0.2645440858781338,0.0341102132640779
1789911563914603500,5.652603515625,-0.24413141244649886,-0.17022212662696837,-0.04965688809454441
1789911563924611600,5.662611572265625,-0.17587796043157577,-0.043777182406187054,-0.09804916308075189
1789911563934619600,5.67261962890625,-0.0939116248846054,0.04457914643883705,-0.15336641502454876
1789911563944627500,5.68262744140625,-0.0036743045985698696,0.07659048772752285,-0.20490254099443553
1789911563954635500,5.692635498046875,0.05675590644478798,0.07925298493504523,-0.27831585999056696
1789911563964643600,5.7026435546875,0.1094470659350045,0.06282149009406567,-0.317797975551337
1789911563974651600,5.712651611328125,0.14669393325699492,0.014511924955248832,-0.3705421621367335
1789911563984659700,5.72265966796875,0.1817734664772637,-0.03850245687365532,-0.39430341534391045
1789911563994666500,5.73266650390625,0.21366848790990187,-0.07796762129962444,-0.38234161326289173
1789911564004674600,5.742674560546875,0.266239235890843,-0.06094283674061298,-0.280976165241003
1789911564014682600,5.7526826171875,0.27394204708682374,0.009797755914926529,-0.11550167153254151
1789911564024690700,5.762690673828125,0.276076666229032,0.1222983459353447,0.029480361506342888
1789911564034698500,5.772698486328125,0.2906266216397285,0.15439795002937315,0.1139934589266777
1789911564044706600,5.78270654296875,0.34224805127289143,0.1288467446655035,0.15588468145579099
1789911564054714600,5.792714599609375,0.37874680364131924,0.09712415719032287,0.1515115809381008
1789911564064722400,5.802722412109375,0.3882113820791244,0.07414134100973606,0.12333704133331774
1789911564074729700,5.812729736328125,0.3697416594088077,0.0753682524561882,0.08488689916878939
1789911564084737500,5.822737548828125,0.32485505445599555,0.0801958187431097,0.028809914898872375
1789911564094745600,5.83274560546875,0.28424247356057164,0.03541501225233078,-0.023219255284965035
1789911564104753400,5.84275341796875,0.20686348407017066,0.017553776869177817,-0.049818362266570326
1789911564114761500,5.852761474609375,0.14299272238519042,0.01239361762702465,-0.0630243191897869
1789911564124769800,5.862769775390625,0.05744209861066192,0.016059154397249222,-0.02418006314113736
1789911564134777600,5.872777587890625,-0.012325265098549426,0.04113397442102432,0.020874445724487302
1789911564144785700,5.88278564453125,-0.055170719612576066,0.026427988198399543,0.058569239477068186
1789911564154793500,5.89279345703125,-0.05354337413907051,0.004707739299535751,0.09682137485146522
1789911564164800800,5.90280078125,-0.07951251265406609,-0.018177461725473402,0.12580766923055053
1789911564174808600,5.91280859375,-0.09232406343221664,-0.04641162256300449,0.18107187581285833
1789911564184816600,5.922816650390625,-0.11556816089749336,-0.08789104942083359,0.23680852221250534
1789911564194824700,5.93282470703125,-0.13954524881243704,-0.06474515163302422,0.3071246058456599
1789911564204832500,5.94283251953125,-0.15690204180479048,-0.028056466183066366,0.3635907355636358
1789911564214840600,5.952840576171875,-0.1562052917122841,0.026415128716826438,0.38834465306997296
1789911564224848400,5.962848388671875,-0.1429986041367054,0.07298632575571537,0.3961960972227156
1789911564234856700,5.972856689453125,-0.09980711266398429,0.09700900637805461,0.37091421031951904
1789911564244863500,5.982863525390625,-0.030461773759126662,0.0487684148222208,0.2858786964602768
1789911564254871600,5.99287158203125,0.024269348859786984,0.002434533670544624,0.18700813399404287
1789911564264879400,6.00287939453125,0.07075756205664947,-0.01821370208263397,0.09454013204649091
1789911564274887700,6.0128876953125,0.1055190605700016,-0.05855214221179485,0.017272329579293727
1789911564284895700,6.022895751953125,0.12250055397655814,-0.079167644739151,-0.04977423086389899
1789911564294903600,6.032903564453125,0.13799038405325262,-0.0483674328058958,-0.07544774743318557
1789911564304911600,6.04291162109375,0.1353343531191349,-0.0044482115805149075,-0.09505714165791869
1789911564314919400,6.05291943359375,0.1400643225167878,0.02926584197282791,-0.07376943895742297
1789911564324926700,6.0629267578125,0.14473582145916297,0.05308569349944591,-0.06691869627982377
1789911564334934500,6.0729345703125,0.1375403569971211,0.08363046936690807,-0.06901055399253964
1789911564344942800,6.08294287109375,0.14490182567583396,0.07681786674261093,-0.08055822231471538
1789911564354951000,6.092950927734375,0.13410448253061621,0.029352351212501526,-0.08094342224001884
1789911564364958700,6.102958740234375,0.1349999883319251,-0.02798690807819366,-0.13997779501080512
1789911564374966800,6.112966796875,0.11231001761807129,-0.03164309249818325,-0.18634806265011428
1789911564384974600,6.122974609375,0.07559972312450408,-0.01953998225033283,-0.20324892856851218
1789911564394983000,6.13298291015625,0.055261886761058115,-0.002828501424193382,-0.22005451741889118
1789911564404989700,6.14298974609375,0.04008068424211815,0.030738837134838104,-0.188506409727782
1789911564414997800,6.152997802734375,0.014718279448617248,0.032713936600089075,-0.1396893334582448
1789911564425005600,6.163005615234375,-0.028683639904391017,0.05030336930453777,-0.051907881891727445
1789911564435014000,6.173013916015625,-0.044805940932035444,0.059036710858345026,0.037848230748623604
1789911564445022000,6.18302197265625,-0.0750455963730812,0.059088148784637445,0.1146286880902946
1789911564455029800,6.19302978515625,-0.08114449777007103,0.03076630966365337,0.17240560814589262
1789911564465037800,6.203037841796875,-0.06207503737462684,-0.006288871011137962,0.20180618241429327
1789911564475045600,6.213045654296875,-0.0354968453168869,-0.05398410364389419,0.20919453909993171
1789911564485053000,6.223052978515625,0.004105700019467621,-0.0787713388979435,0.21928616339489818
1789911564495060700,6.233060791015625,0.028263989720214155,-0.09756021052002906,0.1994556737653911
1789911564505068800,6.24306884765625,0.06051438219547271,-0.10606032783985138,0.16706848490163684
1789911564515076900,6.253076904296875,0.0788473450099118,-0.09335516004562378,0.15881313612312078
1789911564525084700,6.263084716796875,0.06908698022961617,-0.0720475836008787,0.1323956693187356
1789911564535092700,6.2730927734375,0.08851301724407822,-0.03840425719618797,0.12367299528941511
1789911564545100800,6.283100830078125,0.09249118189373984,0.0030430209577083584,0.10318974083960056
1789911564555108900,6.29310888671875,0.08982349705444648,0.01842763709425926,0.07594897495359182
1789911564565115600,6.30311572265625,0.09997547323452308,0.021887422159314156,0.03120382429808378
1789911564575123700,6.313123779296875,0.09216974965333938,-0.002297171026468277,0.018550532821565865
1789911564585131800,6.3231318359375,0.10924363405108452,-0.03194295222759247,0.01452770704627037
1789911564595139800,6.333139892578125,0.10551787325991317,-0.00864215613901615,0.02984802577495575
1789911564605148000,6.34314794921875,0.09015899435281753,0.012436872246861456,0.03919263109490275
1789911564615155700,6.35315576171875,0.08138183192359283,0.03685352062284946,0.04510770035758614
1789911564625163800,6.363163818359375,0.09975333665013313,0.04547404945194721,0.02663812381774187
1789911564635171800,6.373171875,0.10459904138194397,0.05948503914773464,-0.0017201017908751964
1789911564645179000,6.383178955078125,0.0928746830523014,0.04536182124912738,-0.025861148095875978
1789911564655187000,6.39318701171875,0.10494036563290282,0.018235329392552374,-0.04406768978536129
1789911564665194800,6.40319482421875,0.06862170080542564,-0.014305588728189468,-0.05709039909616112
1789911564675202800,6.413202880859375,0.05131402591811493,-0.043756139618158336,-0.05551788908243179
1789911564685210600,6.423210693359375,0.027217677271366116,-0.0502279659807682,-0.017936346445977688
1789911564695218700,6.43321875,0.006001889029610902,-0.042940147060155864,0.014660685776174067
1789911564705227000,6.44322705078125,-0.018498967031110078,-0.020828268495202064,0.07998495247140526
1789911564715234800,6.45323486328125,-0.04039398797499016,0.02356850711405277,0.11292056899815797
1789911564725241900,6.463241943359375,-0.035005846929550166,0.041219314616918565,0.13906944799423218
1789911564735249700,6.473249755859375,-0.045536593294143675,0.03880114755928516,0.14295140399411319
1789911564745257700,6.4832578125,-0.04109188884496689,0.01196399403810501,0.14306991580724715
1789911564755265800,6.493265869140625,-0.028714035042654722,-0.011749474504590034,0.1421035549931228
1789911564765273900,6.50327392578125,-0.010595062038768083,-0.00590250204205513,0.1448854407966137
1789911564775281700,6.51328173828125,-0.008491934013366698,-0.020445991179347037,0.1692144108891487
1789911564785289700,6.523289794921875,0.008666139802802354,-0.013635726642608642,0.19297697927057741
1789911564795297800,6.5332978515625,0.006444956621993333,-0.017931962531805037,0.20252967438325284
1789911564805304800,6.543304931640625,0.0032931963264942166,-0.009844517666101456,0.2167689198769629
1789911564815313000,6.55331298828125,-0.016022895773779598,0.022496493968367576,0.269473797365278
1789911564825320700,6.56332080078125,-0.03006663696169853,0.04994447286427021,0.3025032296553254
1789911564835328800,6.573328857421875,-0.008565602037776262,0.00812719235420227,0.3097219288624823
1789911564845336600,6.583336669921875,0.012476016947161406,-0.018398410999774933,0.2890783692844212
1789911564855345000,6.593344970703125,0.010099369210004806,-0.0014811784684658049,0.2772510072380304
1789911564865353000,6.60335302734375,-0.016454291194677353,-0.006515665504336357,0.2784020769692957
1789911564875360800,6.61336083984375,-0.024013328272104263,-0.022275544694066046,0.2632198515370488
1789911564885367800,6.623367919921875,-0.02493921094536781,-0.01781739624142647,0.21019056439995765
1789911564895375600,6.633375732421875,-0.012145250622835009,-0.026396424016356466,0.1711775276556611
1789911564905384000,6.643384033203125,-0.013558569753170012,-0.033977672925591465,0.1372314189121127
1789911564915391700,6.653391845703125,-0.0050397659991867835,-0.02788870840072632,0.11924100419133901
1789911564925399800,6.66339990234375,-0.017165069812536238,-0.016486439898610115,0.1452203718394041
1789911564935407900,6.673407958984375,-0.00977556234942749,-0.012440379378199577,0.16291458009257911
1789911564945415700,6.683415771484375,0.029013273717556146,-0.022857143974304196,0.18396321334019303
1789911564955423700,6.693423828125,0.050148452737461775,-0.0472521650403738,0.20274974687471983
1789911564965430800,6.7034306640625,0.06813304050564765,-0.0528466240465641,0.18841960822716355
1789911564975438800,6.71343896484375,0.09849780189739539,-0.041297640550136565,0.16712284543737768
1789911564985446700,6.72344677734375,0.11678047756301238,-0.04363046741187572,0.12988997010812162
1789911564995454700,6.733454833984375,0.13544891940951345,-0.03561199612915516,0.07740750319883227
1789911565005462800,6.743462890625,0.14308865704033524,0.0041524435043334956,0.029895810439437627
1789911565015470800,6.753470947265625,0.14509941234085708,0.02460018824934959,-0.011354629968106746
1789911565025479000,6.76347900390625,0.14354458411429077,0.018828034588694573,-0.06503244414180517
1789911565035486700,6.77348681640625,0.1681166422476992,0.024401450806856153,-0.0955453635662794
1789911565045493800,6.78349365234375,0.15213818840384483,0.05958616143465042,-0.1084760106794536
1789911565055501800,6.793501708984375,0.14857497949693352,0.04149053277373314,-0.11779635834097861
1789911565065510000,6.803510009765625,0.1485188288629055,0.04193009323477745,-0.13239800740629434
1789911565075518000,6.81351806640625,0.16099486407637595,0.050590369552373886,-0.12936433879882098
1789911565085525800,6.82352587890625,0.136218150216341,0.021536124503612517,-0.1090470885656774
1789911565095533800,6.833533935546875,0.10614802438961342,-0.00426642527282238,-0.09313537981510162
1789911565105541600,6.843541748046875,0.06392914080871269,-0.00043722237348556514,-0.062048313764482735
1789911565115549000,6.853548828125,0.02275074272407219,-0.011403437545895576,-0.011421265463531017
1789911565125556700,6.863556640625,0.0038251112461090086,0.010431962165236473,0.006296177534759044
1789911565135564800,6.873564697265625,-0.013834445818793027,0.015226795226335525,0.029650457376241682
1789911565145572900,6.88357275390625,-0.023521142574679105,-0.004521861338615417,0.03517053597196936
1789911565155580700,6.89358056640625,-0.040723694853391494,-0.003920388314127922,0.028127193331718443
1789911565165588700,6.903588623046875,-0.04382511320114135,-0.024074703070521352,0.002007540430128574
1789911565175596800,6.9135966796875,-0.05643209958421066,-0.0528857870131731,-0.009261164820194245
1789911565185604900,6.92360498046875,-0.07579144630432129,-0.03183306211233139,0.024485768089443444
1789911565195611600,6.933611572265625,-0.09020107992887497,-0.027490064471960066,0.05971577916368842
1789911565205619700,6.94361962890625,-0.09969957890259101,-0.013840309303998946,0.11135361194238066
1789911565215627800,6.953627685546875,-0.10247837769985198,0.005833528459072113,0.18007205112054944
1789911565225635800,6.9636357421875,-0.08579491739179938,0.022706921848654745,0.25924597947001454
1789911565235644000,6.973643798828125,-0.0872913116957061,0.020393968731164933,0.34048327009007334
1789911565245651700,6.983651611328125,-0.05174070863127708,0.024979542955756186,0.40791780693754554
1789911565255659800,6.99365966796875,-0.024181670576333997,-0.00013794716596603394,0.4553811305105686
1789911565265667600,7.00366748046875,0.021516250759363174,-0.03680675887167453,0.5055447990834713
1789911565275675000,7.0136748046875,0.04498827522899955,-0.047261517390608784,0.5209544035308062
1789911565285682700,7.0236826171875,0.08126607832312584,-0.04254910191595554,0.5379930704846978
1789911565295690800,7.033690673828125,0.11469373441683128,-0.057387190085649485,0.5153785030946135
1789911565305698800,7.04369873046875,0.1263151803612709,-0.02182137118577957,0.4241057022809982
1789911565315706600,7.05370654296875,0.1459574539422989,-0.002031213566660881,0.35347353843599555
1789911565325715000,7.06371484375,0.13212649698853493,-0.013661445605754852,0.2815690165676176
1789911565335722800,7.07372265625,0.1392471061160788,-0.006118775141239166,0.215793352843076
1789911565345730300,7.083730224609375,0.1306464875638485,-0.020426117435097695,0.1716778783932328
1789911565355737000,7.093737060546875,0.12075984778907149,-0.030245500659942626,0.11160875574722885
1789911565365745400,7.103745361328125,0.1278922204196453,-0.007915595430135727,0.05665127702653408
1789911565375753200,7.113753173828125,0.12376429030206054,0.010946925950050354,0.025321049869805573
1789911565385761300,7.12376123046875,0.12530514480220153,0.054182256564497946,-0.015062690705806016
1789911565395769000,7.13376904296875,0.14578794259428976,0.07316051327884197,-0.04955123576298356
1789911565405777200,7.143777099609375,0.1514402875338681,0.07494739669561386,-0.0729230512611568
1789911565415785200,7.15378515625,0.16648350635422393,0.02350713231563568,-0.10445727655738592
1789911565425792300,7.163792236328125,0.16279869862794874,0.0019300912797451017,-0.14737024334967136
1789911565435800300,7.17380029296875,0.15735329270362852,-0.0225999543428421,-0.1872669310607016
1789911565445808000,7.18380810546875,0.12591653643250464,-0.026514497438073156,-0.22177052755653856
1789911565455816200,7.193816162109375,0.08449731532931327,-0.022852467799186704,-0.25201237495467066
1789911565465824000,7.203823974609375,0.04184475303888321,0.009572130465507507,-0.2616455879576504
1789911565475832300,7.213832275390625,0.019694862284790723,0.03003624182343483,-0.2558418701149523
1789911565485840400,7.22384033203125,-0.012679467097390443,0.03191840230822563,-0.22930238436609504
1789911565495848200,7.23384814453125,-0.03717909931540489,0.05264437947273254,-0.19005363916978238
1789911565505855200,7.243855224609375,-0.06355621584309265,0.07740706480741501,-0.14423530632480977
1789911565515863300,7.25386328125,-0.10616554177999496,0.06911211467087268,-0.0881754193201661
1789911565525871400,7.263871337890625,-0.1138192714035511,0.06157996560037136,-0.02588803610280156
1789911565535879200,7.273879150390625,-0.09233107769489288,0.0323684841632843,0.009382891503721475
1789911565545887200,7.28388720703125,-0.06234861188530921,-0.020150807625055313,0.06019391806945204
1789911565555895000,7.29389501953125,-0.0301835596059449,-0.06601999387443065,0.12305880891382694
1789911565565903000,7.303903076171875,-0.012589414193760603,-0.08512392279505729,0.17466127811819315
1789911565575910100,7.31391015625,0.0023579613029956815,-0.06617372313141823,0.2600974817328155
1789911565585918200,7.323918212890625,-0.0030137948632240293,-0.02051204215288162,0.34491263083964585
1789911565595926300,7.33392626953125,-0.0014963577712886035,0.018946692532300947,0.38047187386825676
1789911565605934000,7.34393408203125,0.012884049758780746,0.07596446478366851,0.4199672873020172
1789911565615942100,7.353942138671875,-0.00027238720059394837,0.04326806384027004,0.4394806738063693
1789911565625950200,7.3639501953125,0.015296919586788861,-0.05310030654668808,0.44541810103133317
1789911565635958300,7.373958251953125,0.008372709814179688,-0.14936989273428916,0.44973377227336164
1789911565645966300,7.38396630859375,-0.022196634238958356,-0.1935404583722353,0.46911491070017214
1789911565655973000,7.39397314453125,-0.0937830483351834,-0.23969722939133642,0.4991705878764391
1789911565665981200,7.403981201171875,-0.1823380963563919,-0.20885843901336193,0.4749113220192492
1789911565675989200,7.4139892578125,-0.22460487419962882,-0.1990221046537161,0.38061946564540267
1789911565685997300,7.423997314453125,-0.2490086630940437,-0.23247779953181744,0.30349530943259595
1789911565696005000,7.434005126953125,-0.2891770073533058,-0.3954249667197466,0.2104204276330769
1789911565706013200,7.44401318359375,-0.28277415457367894,-0.5301227755010127,0.09714812258780002
1789911565716021200,7.454021240234375,-0.25857144120931624,-0.5187555783122778,0.015579261925816535
1789911565726028300,7.4640283203125,-0.28850013100504873,-0.2967752073973417,-0.043413463660329575
1789911565736036400,7.474036376953125,-0.39518589726686476,-0.013269231417775154,-0.10186302228048444
1789911565746044200,7.484044189453125,-0.5132838689029217,0.14909984362125395,-0.1705618799753487
1789911565756052200,7.49405224609375,-0.6367793156683444,0.2687245864331722,-0.22735388064682482
1789911565766060000,7.50406005859375,-0.6841852099657059,0.2720359029382467,-0.23440467594116926
1789911565776068000,7.514068115234375,-0.5726385596692561,0.14882336476743221,-0.2573782859019935
1789911565786076400,7.524076416015625,-0.3878852188646793,0.042976387417316436,-0.22664514785557985
1789911565796084200,7.534084228515625,-0.28916180978417394,0.1593412516504526,-0.10691577562540769
1789911565806091300,7.54409130859375,-0.3257540491223335,0.3392144191980362,0.08469269177094102
1789911565816099000,7.55409912109375,-0.3980757734894752,0.4215390666633844,0.28947482125610113
1789911565826107100,7.564107177734375,-0.3699988490402698,0.42978140982985497,0.4180291588462889
1789911565836115200,7.574115234375,-0.27039281190633774,0.37594986639916894,0.48792204863131045
1789911565846123300,7.584123291015625,-0.13437807530760765,0.2338163546591997,0.44710693090111014
1789911565856131300,7.59413134765625,-0.059428349657589565,0.13191431554257868,0.23103183850720524
1789911565866139100,7.60413916015625,-0.07292962713241577,0.15266834975779056,-0.10017185432314872
1789911565876146400,7.614146484375,-0.0986392379283905,0.22591887940764427,-0.4578282314017415
1789911565886154200,7.624154296875,-0.11798691247701644,0.2981301291376352,-0.737302906038612
1789911565896162300,7.634162353515625,-0.15970540878772735,0.33898528661727906,-0.970390508031845
1789911565906170000,7.644170166015625,-0.1599123295366764,0.36822482510507104,-1.0783064006105065
1789911565916178200,7.65417822265625,-0.1371650848107878,0.3722574416220188,-1.0885711895152925
1789911565926186000,7.66418603515625,-0.1257096248167101,0.31265082192122934,-1.0289574094213545
1789911565936194300,7.6741943359375,-0.14411153381466865,0.21412030506432056,-0.8342711420148611
1789911565946202400,7.684202392578125,-0.15622399641275406,0.1600607980966568,-0.44712037490457296
1789911565956209200,7.694209228515625,-0.1224281097948551,0.11444880147874355,-0.0703198830254376
1789911565966217200,7.70421728515625,-0.05693477014303207,0.01945814918577671,0.28415932532176374
1789911565976225000,7.71422509765625,-0.024929858595132828,-0.029255905100703236,0.6145730368182063
1789911565986233300,7.7242333984375,-0.03761164551377296,0.012073299631476402,0.8968056318610906
1789911565996241200,7.7342412109375,-0.10441139158904551,0.14781857163906095,1.0952385384500025
1789911566006249200,7.744249267578125,-0.17346037789583205,0.2436065117895603,1.215326368729025
1789911566016257300,7.75425732421875,-0.2627905384753831,0.28204291768968104,1.2364648722171783
1789911566026264000,7.76426416015625,-0.39889936483204363,0.35866964577436444,1.1438150839619339
1789911566036272400,7.7742724609375,-0.5409709172517061,0.31867665808200835,1.0273770083621143
1789911566046280200,7.7842802734375,-0.6637140843451023,0.15701310096383095,0.8101938085958361
1789911566056288300,7.794288330078125,-0.7829431058377027,-0.05143675724864006,0.528341152781248
1789911566066296000,7.804296142578125,-0.8760545202553272,-0.21247896759808063,0.2327482870362699
1789911566076304100,7.81430419921875,-0.9342097721040248,-0.18778584036827087,0.03142506583333015
1789911566086312200,7.824312255859375,-0.995146763625741,0.025780922466516493,-0.0692256580479443
1789911566096320300,7.8343203125,-1.001049265667796,0.3108358814537525,-0.08031973738372325
1789911566106327300,7.844327392578125,-0.8841016331106424,0.5747662193477153,-0.04799012392610311
1789911566116335000,7.854335205078125,-0.718172819763422,0.7267419106662273,0.030356705949455498
1789911566126343200,7.86434326171875,-0.5332061284691095,0.7301829910308122,0.14197963635250926
1789911566136351200,7.874351318359375,-0.3297837430298328,0.5464338588327169,0.24600538962483404
1789911566146359300,7.884359375,-0.18316227222085,0.1447720435500145,0.3245002496689558
1789911566156367400,7.894367431640625,-0.07941607567542232,-0.27360826682150363,0.3174029848843813
1789911566166375200,7.904375244140625,0.0784410931634251,-0.6465057599127292,0.3098173520609736
1789911566176382200,7.91438232421875,0.3474573468863964,-0.9279495426654815,0.4107828409798443
1789911566186390300,7.924390380859375,0.7134294246286154,-0.949603156068921,0.6566757101409136
1789911566196398300,7.9343984375,1.256031157952547,-0.6477852783292531,0.942267260222882
1789911566206406100,7.94440625,1.856378393280506,-0.22406360692977903,1.0940573658414185
1789911566216414200,7.954414306640625,2.2844752110242843,0.10583879404366016,1.11812666208446
1789911566226422300,7.96442236328125,2.53916834949553,0.1542307767689228,1.2477718636512756
1789911566236430000,7.97443017578125,2.5186744275212285,0.0778127229988575,1.3463678469598293
1789911566246437400,7.984437255859375,2.1311843454539776,-0.07157236730456353,1.4308103633619844
1789911566256445200,7.994445068359375,2.146998585179448,-0.18410335246324538,1.7119196534633636
1789911566266453200,8.004453369140625,2.116216493424773,-0.3511778287142515,1.9017210714377462
1789911566276461000,8.0144609375,1.317429775636643,-0.43977965675294395,2.007540722389519
1789911566286469000,8.02446923828125,-0.09809504804909229,-0.46863750244677066,1.8532532469972967
1789911566296477400,8.0344775390625,-2.3711757354862986,-0.7121072361141443,1.096896023333445
1789911566306485200,8.0444853515625,-5.589149793866277,-0.8825690167158842,-0.00357398602925241
1789911566316493300,8.054493408203125,-8.512963941913842,-0.8687082491457462,-1.1558575500637291
1789911566326500000,8.0645,-6.836884248116612,-0.48839609588384625,-1.327401572944224
1789911566336508200,8.074508056640624,-2.426014264002442,-0.016291794109344483,-0.7291862350784242
1789911566346516500,8.0845166015625,0.744446055791527,0.03011807488799095,0.0617220044195652
1789911566356524500,8.094524658203126,1.6686339078359305,0.05662146641016006,1.1943063770540059
1789911566366532600,8.10453271484375,1.170854628187418,0.09931085357964038,1.7713075158469378
1789911566376540400,8.11454052734375,0.5548802001386881,0.0504939234405756,1.611684086254239
1789911566386548500,8.124548583984375,0.3201894007325172,0.1199444762855768,1.3857123076155782
1789911566396555500,8.134555419921876,0.08013736655414104,0.25082769521474835,1.3543623528450726
1789911566406563600,8.1445634765625,-0.24734175279513,0.30370412987768647,1.3799490679137407
1789911566416571400,8.1545712890625,-0.25756430999338625,0.2878098106533289,1.445585907689482
1789911566426579500,8.164579345703125,-0.02315291205048561,0.21061317372620106,1.3688375990517436
1789911566436587300,8.174587158203124,0.1786472790144384,0.10915361768007278,1.1142958517499268
1789911566446595300,8.18459521484375,0.2518545540444553,0.05728782136440277,0.8101815336361528
1789911566456603600,8.194603759765625,0.22424583162888884,0.038465047472715376,0.5380462619766593
1789911566466610400,8.2046103515625,0.17833982050046324,-0.03461012561023235,0.261756354855746
1789911566476618500,8.214618408203124,-0.016914456052333115,-0.10420447084009647,0.11924275775700807
1789911566486626300,8.224626220703126,-0.09681436058878898,-0.04983458274900913,0.058380146645754576
1789911566496634400,8.23463427734375,-0.13896584148928523,0.038755554851889605,0.07638415150046349
1789911566506642400,8.244642333984375,-0.0840384656459093,0.09266659325957298,0.06058540160506963
1789911566516650500,8.254650390625,-0.0037169746965169904,0.061603930997848506,-0.021571488077938555
1789911566526658600,8.264658447265624,0.029277970802038908,-0.19328385326266287,-0.12531257918998598
1789911566536665300,8.274665283203126,-0.24400793219730257,-0.4647667984932661,-0.05832827032804489
1789911566546673700,8.284673583984375,-0.459688472315669,-0.5336544567584991,0.07882657621651887
1789911566556681500,8.294681396484375,-0.6876490866839885,-0.36429157730937,0.3273180835686624
1789911566566689500,8.304689453125,-0.7195840017355978,-0.05993921265602112,0.4788862169995904
1789911566576697300,8.314697265625,-0.664496905285865,0.0725146165907383,0.5277490321069955
1789911566586705400,8.324705322265626,-0.5033652630873025,-0.017450316494703293,0.4713645893231034
1789911566596713500,8.33471337890625,-0.3034638913810253,-0.3309294059336185,0.29511852623149754
1789911566606720500,8.344720458984375,-0.17208616693317888,-0.643330052486062,0.1663378325395286
1789911566616728600,8.354728515625,-0.2624205178529024,-0.8135241220623254,0.21827567117810248
1789911566626736400,8.364736328125,-0.4676638351090252,-0.8723813847005367,0.3509523493953049
1789911566636744400,8.374744384765625,-0.8212025477357209,-0.9582254384636878,0.5991846212893724
1789911566646752300,8.384752197265625,-1.0882273445136845,-1.078355792710185,0.7915113199576735
1789911566656760600,8.394760498046875,-1.1120641471751034,-1.0263479575753212,0.921500366526097
1789911566666768600,8.4047685546875,-1.1812258000761269,-0.9591694413155317,1.127959197051823
1789911566676775400,8.414775390625,-1.347849025428295,-0.9273942468702793,1.4586694072768092
1789911566686783500,8.424783447265625,-1.3613772000432014,-0.9263368467718363,1.7165588575713335
1789911566696791300,8.434791259765625,-1.5320460475243627,-1.0289829822540282,1.9517327643193303
1789911566706799600,8.444799560546874,-1.7866279807060956,-1.0082359623014927,2.1815834302179513
1789911566716807400,8.454807373046876,-2.0527789172589777,-0.9527057982593774,2.401626695590466
1789911566726815500,8.4648154296875,-2.3015847512573004,-1.0601005895733833,2.600605399493873
1789911566736823600,8.474823486328125,-2.3916876315087077,-1.2269804200351238,2.7751263923585414
1789911566746831400,8.484831298828125,-2.4687545045763253,-1.6102596064090728,3.004783289250731
1789911566756838700,8.494838623046874,-2.5384365280896426,-2.3549551069170236,3.118556967946887
1789911566766846500,8.504846435546876,-2.025744779860973,-2.9946055941075085,3.039208121421933
1789911566776854500,8.5148544921875,-1.3474046426616608,-3.212895878332853,2.972478517973423
1789911566786862300,8.5248623046875,-0.9592452830307185,-3.0245746159136293,3.029789720213413
1789911566796870400,8.534870361328124,-0.99030414590016,-2.765100672906637,3.1890327721863985
1789911566806878500,8.54487841796875,-1.1553402481913566,-2.5446166780292985,3.2594197290986773
1789911566816886500,8.554886474609376,-1.44715593348518,-2.3682184931159016,3.2855013880774377
1789911566826893600,8.5648935546875,-1.7615806332111357,-2.098295636808872,3.2392811964333057
1789911566836901400,8.5749013671875,-2.237770158472657,-1.7050924377918242,3.0507419073492286
1789911566846909400,8.584909423828124,-2.932822214889526,-1.2373966001093386,2.43801040674448
1789911566856917500,8.59491748046875,-3.6655712570160626,-0.8124988706678151,1.4548260297216473
1789911566866925600,8.604925537109375,-4.075944202020764,-0.30729543236792084,0.42959582412987946
1789911566876933400,8.614933349609375,-4.023624232196807,0.23786826039850711,-0.36817879400625825
1789911566886941400,8.62494140625,-3.1353613877534863,0.5695230579972267,-0.9087712333343922
1789911566896948200,8.6349482421875,-1.7735154011547565,0.6794353850901127,-1.3528048942700028
1789911566906956500,8.64495654296875,-0.37546054851226507,0.4398316792011261,-1.7392789311625063
1789911566916964600,8.654964599609375,0.7349744630910455,-0.11757540906667709,-2.052849352146685
1789911566926972400,8.664972412109375,1.9886348002590237,-0.9752858788579701,-2.6193659218043086
1789911566936980500,8.67498046875,3.1501813557446,-1.8125830906957388,-3.188326669743657
1789911566946988300,8.68498828125,3.9036207192003727,-2.4954122098773714,-3.6181454889744518
1789911566956996400,8.694996337890625,4.170430411922932,-2.9383459467470643,-3.6929154832765456
1789911566967003400,8.70500341796875,3.9455344458222386,-3.04050049932003,-3.417338254469633
1789911566977011500,8.715011474609375,3.480900918319821,-3.0179256794184446,-2.8037583203420042
1789911566987019500,8.72501953125,3.3382965741977095,-2.4762071586698293,-1.7224240963429212
1789911566997027300,8.73502734375,2.9924478315517304,-1.536796895313263,-0.12596446722745894
1789911567007035400,8.745035400390625,2.492144147992134,-0.8276262971729039,1.3592100851371884
1789911567017043500,8.75504345703125,1.165632509624958,-0.5041822785586119,2.905037843646109
1789911567027051500,8.765051513671875,0.16780454409122467,-0.021145663881301877,4.423125362314283
1789911567037058300,8.775058349609376,0.0532746402002871,0.3224041541725397,4.630789915367961
1789911567047066400,8.78506640625,0.10328618695139884,0.4338409143537283,3.775376032081246
1789911567057074400,8.795074462890625,0.46998614057675003,0.2112216610133648,2.1275496422134337
1789911567067082500,8.80508251953125,1.3485986747518182,-0.04374620274603366,0.6134464439410716
1789911567077090600,8.815090576171874,2.2224001553833483,-0.08041501445174216,-0.1352298698313534
1789911567087098400,8.825098388671876,2.6065496948510405,-0.0013987608820199965,-0.43314540637023746
1789911567097105400,8.83510546875,2.302650626923144,0.14375965163707732,-0.5784891123283654
1789911567107113500,8.845113525390625,1.6120251547768711,0.33026480454504487,-0.9165870947171002
1789911567117121500,8.85512158203125,1.1099258199721573,0.5489215839952231,-1.4225120522245764
1789911567127129600,8.865129638671876,1.056850647866726,0.7980664406895637,-1.8881378056347369
1789911567137137400,8.875137451171875,1.4398893034830689,1.1725018108725547,-2.3753657345220445
1789911567147145500,8.8851455078125,1.8764976367235182,1.7487690824329851,-2.650740718755126
1789911567157153300,8.8951533203125,2.249787928524613,2.327313066753745,-2.7800778772860766
1789911567167160600,8.90516064453125,2.293720009231567,2.81328690392673,-2.7944568235114216
1789911567177168400,8.91516845703125,2.5049191661521792,3.0926801838904616,-2.810904977226257
1789911567187176400,8.925176513671875,2.628458744320273,3.300190130904317,-2.7379747655719515
1789911567197184500,8.9351845703125,2.662974469645321,3.3335558094114064,-2.6782150011360644
1789911567207192300,8.9451923828125,2.4876477133557198,3.294209887450933,-2.5558067650854586
1789911567217200600,8.95520068359375,2.3849963171765207,3.153271722975373,-2.3779823467612267
1789911567227208400,8.96520849609375,2.20136876553148,2.964354832750559,-2.1490993568509817
1789911567237215500,8.975215576171875,1.8773437321588395,2.8226018447607752,-1.8884400034517048
1789911567247223300,8.985223388671875,1.711892765456438,2.6842969513982533,-1.5403668627545237
1789911567257231400,8.9952314453125,1.3476485344201325,2.6383611296534535,-1.057914331575483
1789911567267239700,9.00523974609375,0.7263925127066672,2.449887307021022,-0.9122232734844088
1789911567277247500,9.01524755859375,-0.19743483546227217,2.0934347527742383,-0.7951819712944328
1789911567287255600,9.025255615234375,-1.2945675170958042,1.6024831271886824,-0.4847456105522811
1789911567297263400,9.035263427734375,-2.359435759462416,0.9137363083958625,-0.020530308461934328
1789911567307270400,9.0452705078125,-3.136533938664198,0.0715951636582613,0.6838247791554778
1789911567317278500,9.055278564453126,-3.6463001548349854,-0.9072083679318428,1.628662255192548
1789911567327286500,9.06528662109375,-4.171977056843042,-1.9937159029155969,2.7955069170862434
1789911567337294300,9.07529443359375,-5.183358915954828,-3.173460524523258,3.967271645855903
1789911567347303200,9.08530322265625,-6.20144407209754,-4.28388143453598,5.177514866101742
1789911567357311000,9.09531103515625,-6.240040052473545,-4.902151864567399,6.096343529200554
1789911567367319000,9.105319091796876,-5.073678059530258,-4.9727930885016915,5.891511276963353
1789911567377326000,9.115326171875,-3.6738670839354395,-3.9935026501774784,4.80336912651509
1789911567387334100,9.125334228515625,-2.5907155813813207,-2.298498475679755,3.2518568926289677
1789911567397342000,9.135342041015624,-1.2631670011818408,-0.9697644850879907,1.4868167666137218
1789911567407350000,9.14535009765625,0.013456862944364547,0.24792320594489572,0.3407937973439693
1789911567417357800,9.15535791015625,1.098734856133163,1.3172662556380033,-0.3127565473180264
1789911567427366100,9.1653662109375,1.6089834489934145,1.9172440731316804,-0.8985305559575557
1789911567437373000,9.175373046875,1.9747230331540107,1.4755623821496964,-1.9053189497992395
1789911567447381000,9.185381103515626,2.2800797525443137,-0.13197335225343704,-3.0036612994834777
1789911567457389000,9.19538916015625,2.039180600017309,-1.6464058555454015,-3.2608173209369182
1789911567467396900,9.20539697265625,1.2538215190790594,-2.393206803900003,-2.951435145422816
1789911567477405200,9.2154052734375,-0.0717687666594982,-2.6859353662550447,-2.72906314484179
1789911567487413000,9.2254130859375,-1.429864460813999,-2.726450331994891,-2.194860406550765
1789911567497421000,9.235421142578126,-1.6623228249929844,-2.510057990345359,-0.7810549540035426
1789911567507427800,9.245427734375,0.1402678639985621,-1.67561441437304,1.0852071199096738
1789911567517436000,9.255435791015625,2.010959006400406,-0.5101543387055397,1.902271398796886
1789911567527444200,9.2654443359375,2.5759774464547633,0.9611053778141736,1.2417276150509715
1789911567537452000,9.2754521484375,2.4153600373886523,2.244465272197127,0.0821836132931523
1789911567547460000,9.285460205078126,2.0638621829397974,2.97666194113791,-0.5048204303316771
1789911567557468000,9.295468017578125,1.993546829959005,3.4868759010761976,-0.7955359723638743
1789911567567476000,9.30547607421875,1.9644504993341863,3.6573353435903786,-0.9323253465969115
1789911567577483000,9.31548291015625,2.0096026233553883,3.4164439359784122,-1.0207335517596452
1789911567587491000,9.325490966796876,2.29072594198212,2.7833248963832853,-1.2338052976191043
1789911567597499100,9.3354990234375,2.6118098073363303,1.9137316810965537,-1.5048067429430783
1789911567607507000,9.3455068359375,2.84728561964035,0.9584703531354665,-1.736189879105985
1789911567617515000,9.355514892578125,2.9903496902287006,-0.03636661388874054,-1.8730070181287823
1789911567627523000,9.365523193359374,2.8880583595335483,-1.0153063390791415,-1.8687626585572956
1789911567637531100,9.37553125,2.6237048277914523,-1.8591466889500616,-1.7490626585520803
1789911567647538000,9.385537841796875,2.3057471316337583,-2.534560563439131,-1.4695906142637132
1789911567657546000,9.3955458984375,2.0900553394690156,-2.968818826422095,-1.0440783331204204
1789911567667554000,9.405553955078124,1.9053556285478173,-3.1093858194977044,-0.3975746920995414
1789911567677562000,9.41556201171875,1.7097734352149068,-2.917915737658739,0.3760186207864433
1789911567687570200,9.425570068359375,1.4584310684762893,-2.163375134962797,1.176891935590282
1789911567697578000,9.435577880859375,1.5796984639286995,-1.2306938876003026,1.7650588307157158
1789911567707585000,9.4455849609375,1.9748890373706816,-0.4500713336646557,2.1425879291303453
1789911567717592800,9.4555927734375,1.9269068044900892,0.26594109319448467,2.2440856252297756
1789911567727601200,9.46560107421875,1.3014964395761488,0.9468342758774757,1.8553274229228496
1789911567737609200,9.475609130859375,0.14523735950682312,1.3155506838917732,1.1813473806291819
1789911567747617000,9.485616943359375,-1.0498363851904868,1.3253899408608674,0.5920284659244119
1789911567757625000,9.495625,-1.7127157722771167,1.3088532320797444,0.3508266771890223
1789911567767633000,9.5056328125,-2.0815093371808526,1.2187135269492864,0.0849538269251585
1789911567777640200,9.51564013671875,-2.0585341197848317,1.0035656324028968,-0.14989099399894476
1789911567787648000,9.52564794921875,-1.6519757646322248,0.8040829245001078,-0.12289346228428184
1789911567797656000,9.535656005859375,-0.34568507651686664,0.8230524133861065,0.13290266899280248
1789911567807663900,9.545663818359374,2.817598921906948,0.6906751565068959,0.2964612460773438
1789911567817672000,9.555671875,5.03376339777112,0.6199550221174955,0.5052309838939458
1789911567827680000,9.565679931640625,4.925916771036386,0.4914736036330461,0.29611966609805823
1789911567837687000,9.57568701171875,3.5794063007354735,0.6378069051504135,0.350992243014276
1789911567847695000,9.585695068359374,2.092324161183834,0.6779600518405438,-0.003542567977681756
1789911567857703000,9.595702880859376,0.6957294442217796,0.2555167298138141,-0.6896378493484109
1789911567867711000,9.6057109375,-0.9220089736353605,-0.43344870016574855,-1.1338781387720256
1789911567877719000,9.615718994140625,-2.621511701661348,-0.991332758295536,-0.9049415920436382
1789911567887727000,9.62572705078125,-3.7949779736518856,-0.9030933338284491,-0.0033875966116786002
1789911567897735200,9.635735107421874,-4.231667263174057,-0.4719610939115286,1.0169872779034077
1789911567907742000,9.645741943359376,-3.92078286640346,-0.1780816079556942,1.8168575531445443
1789911567917750000,9.65575,-2.754436071029305,-0.09626081835925579,2.173187211664021
1789911567927758000,9.665758056640625,-1.4245710305809973,-0.03965630308389664,2.1390908807948232
1789911567937766100,9.67576611328125,-0.5103809870682656,0.06585165157020091,2.0610960792273283
1789911567947774000,9.68577392578125,-0.19058745378553865,0.10518880570232868,2.1222315159305927
1789911567957782000,9.695781982421876,-0.2160398749500513,-0.08284662551283836,2.141401934216171
1789911567967789000,9.7057890625,-0.46669871640391647,-0.39050095432102677,2.1166145528316496
1789911567977797000,9.715797119140625,-0.5495049368411302,-0.8968769435316324,1.9164501462750136
1789911567987805200,9.72580517578125,-0.7130358952663839,-1.4857465070337057,1.6889583184622228
1789911567997813000,9.73581298828125,-1.037640920484066,-1.9565689523041248,1.4437978552289306
1789911568007821000,9.745821044921875,-1.6566881801068782,-2.320170209261775,1.1764509868897497
1789911568017828900,9.755828857421875,-2.349715452697873,-2.4910224504858256,1.01641415419057
1789911568027837000,9.7658369140625,-2.948005170974135,-2.4327988095760342,1.3661962907627223
1789911568037844000,9.775843994140626,-3.0804256824731824,-2.304959196126461,2.243558971007168
1789911568047852000,9.78585205078125,-2.52094763315022,-2.2475638227343557,3.560322830080986
1789911568057860000,9.795860107421875,-1.6692456099934876,-2.061299492844939,4.9990918973624705
1789911568067868000,9.805867919921875,-1.134340276391059,-1.8363515042960643,6.214533270773291
1789911568077876000,9.8158759765625,-1.532386093133688,-2.2862141636461017,6.646499038904905
1789911568087884000,9.825884033203126,-2.263667985317111,-3.327648046672344,6.283377089896797
1789911568097891000,9.83589111328125,-1.9738181932687757,-4.092877216643095,5.131064080572128
1789911568107899000,9.84589892578125,-1.9617162520647047,-4.513808380541205,4.34897086956203
1789911568117907000,9.855906982421875,-2.930058595395088,-4.435703396597504,4.178841097393632
1789911568127915300,9.865915283203124,-4.115774108105898,-3.7216274907588955,3.829989081278443
1789911568137923000,9.875923095703126,-4.875606971991062,-2.4163509481221435,2.965345012831688
1789911568147931100,9.88593115234375,-4.542680839282274,-1.1283598868072031,2.3007595524795352
1789911568157939000,9.89593896484375,-3.356961819440126,-0.16440087312757967,1.9940201465591787
1789911568167946000,9.905946044921874,-1.7874749529242515,0.3223059544950723,1.514142288173735
1789911568177954000,9.9159541015625,-0.31424729733243584,0.2377764904618263,0.9291209975976497
1789911568187962000,9.925962158203125,1.043512881257385,-0.6068517949163913,0.3523787289366126
1789911568197970200,9.93597021484375,2.484234397780895,-2.172364497104287,-0.3516707998629659
1789911568207978000,9.94597802734375,3.8112098542675374,-3.826986976853013,-1.2302591494448483
1789911568217986000,9.955986083984374,5.0826095540046685,-5.146505395331978,-2.3190552337571977
1789911568227993000,9.9659931640625,6.059294193744659,-5.916679035967588,-3.335177565394342
1789911568238001200,9.976001220703125,6.823537859809398,-5.932105153158306,-4.201287907001376
1789911568248009000,9.986009033203125,6.610549189123511,-4.890761286503076,-4.452275468952953
1789911568258017000,9.99601708984375,6.4173220344841475,-3.024021658205986,-3.938528950974345
1789911568268024800,10.00602490234375,5.846019691854715,-1.3113561548113821,-2.8899118784457443
1789911568278033000,10.016032958984376,4.998554137223959,-0.37847266287505626,-2.344351587577164
1789911568288041200,10.026041259765625,3.0893884488686916,0.32000644538104533,-1.8772922942325472
1789911568298048000,10.036048095703125,0.47164311400353903,0.6870037745177745,-0.5656511119347065
1789911568308056000,10.04605615234375,-1.978983905468881,0.8112322117328643,1.6485624490574002
1789911568318063900,10.05606396484375,-1.362388715173304,0.7667705541938543,2.8165725014686585
1789911568328072200,10.066072265625,1.0029825718179344,0.6079290687590837,2.9480200762823223
1789911568338080000,10.076080078125,3.2003286577045915,0.4102162931382656,2.6926234657168386
1789911568348087800,10.086087890625,4.405286631023883,0.28318741154968735,2.605922210602462
1789911568358094600,10.096094482421876,4.634818147970735,0.11790332584679127,2.255592523150146
1789911568368103000,10.10610302734375,4.314516519035399,0.06102525432705879,1.867348407845199
1789911568378111000,10.116111083984375,3.6428891773477194,0.05498363607525825,1.4263339486002922
1789911568388118800,10.126118896484375,3.06730082796216,0.04843932899832725,0.7821513709381223
1789911568398126800,10.136126953125,3.100150665901601,0.19641689059138298,0.21786562907248735
1789911568408134700,10.146134765625,3.653781742762029,0.4262637570977211,-0.6524332502655684
1789911568418142000,10.156141845703125,4.4053594039991495,0.9458207149207591,-1.3280597445920108
1789911568428149800,10.166149658203125,4.6817090784832835,1.5559043313652277,-1.8715346074886618
1789911568438157800,10.17615771484375,4.819422727954388,1.9862468822091817,-2.7220664178222416
1789911568448166000,10.186165771484376,4.584199721367657,2.2382225784152743,-3.535638470679521
1789911568458173700,10.196173583984375,4.024685723948479,2.379315056669712,-4.384464792269468
1789911568468181800,10.206181640625,3.4749361646965142,2.6099182945013046,-5.014300572410225
1789911568478189800,10.21618994140625,3.098882545661926,2.9230379029780624,-5.2788557642042635
1789911568488196900,10.22619677734375,2.765326006095111,3.2695395565748213,-5.084077288469672
1789911568498204700,10.23620458984375,2.2741595687150955,3.5711703873097895,-4.598792602604627
1789911568508212700,10.246212646484375,1.8930059961929917,3.7810768740713594,-4.009081912103295
1789911568518220800,10.256220703125,1.2639102207645774,3.9239299322575327,-3.2357837097063658
1789911568528228900,10.266228759765625,0.7013879814401268,3.616877076473832,-2.589472887843847
1789911568538237000,10.27623681640625,0.23047142814546823,3.023213848954439,-1.8847443638041614
1789911568548243700,10.28624365234375,-0.3225619750827551,2.219023372426629,-1.1749654245071113
1789911568558251800,10.296251708984375,-0.9250003374710678,1.109040853831172,-0.4775754266619682
1789911568568259800,10.306259765625,-1.9418428000763057,-0.2980710924267769,0.14235986784175036
1789911568578268000,10.316267822265624,-3.476550614155829,-1.8723890323609114,0.8522627988446503
1789911568588275700,10.326275634765626,-4.627238944888115,-3.4557618008881805,1.7215595884680748
1789911568598283800,10.33628369140625,-4.967226102024316,-4.5418929037749765,3.001471680484712
1789911568608290600,10.34629052734375,-4.5597985628217454,-4.904778121417761,4.3645530540972945
1789911568618299000,10.356298828125,-3.4403590645730495,-4.690169156053662,5.236216061395407
1789911568628307000,10.366306884765624,-1.8875880627974866,-3.9446459725499152,5.251096235141158
1789911568638314800,10.376314697265625,-0.6944599357426167,-2.4086639007508754,4.538742330789566
1789911568648322800,10.38632275390625,0.12185527834296225,-0.5083528422415257,3.8198654544100163
1789911568658330600,10.39633056640625,1.1207938354671,0.7988572988063096,3.142080466875434
1789911568668338700,10.406338623046874,1.7553832398757339,1.6235142247796057,2.6258283958166837
1789911568678345700,10.416345703125,1.895496643964946,2.1414690081030128,2.0029311827674507
1789911568688353800,10.426353759765625,1.6233187022075055,2.4007944825500247,1.1944145136035977
1789911568698361900,10.43636181640625,1.437694862178713,2.529093530204892,0.3617255262136459
1789911568708369700,10.44636962890625,1.6482392084524033,2.6587439924687146,-0.41597522199116643
1789911568718377700,10.456377685546874,2.235957556092739,2.550893274080753,-1.1884803012490273
1789911568728385800,10.4663857421875,2.9977275255203244,1.3822668433368206,-2.2857472767867146
1789911568738392800,10.476392822265625,3.2476293380618095,-0.6414864704459905,-3.526605269396305
1789911568748400600,10.486400634765625,2.4012018943071363,-2.4946558385521174,-4.064629027280211
1789911568758408700,10.49640869140625,0.2861190810874104,-4.241668432706594,-4.052065313783288
1789911568768416800,10.506416748046876,-3.7050980885013938,-6.105484282511473,-3.993985172997415
1789911568778424800,10.5164248046875,-9.201508516132831,-8.108589945062995,-3.5215628913149235
1789911568788433000,10.526432861328125,-9.97406875964403,-8.48896698025465,-1.1165862277094274
1789911568798439700,10.536439697265624,-4.889394674324989,-5.961743920096755,1.0993159439567475
1789911568808447700,10.54644775390625,-0.49657004998922344,-2.316438621518016,1.2732947197034954
1789911568818455800,10.556455810546876,1.2283620836518705,0.5941337676405907,0.7963704504266381
1789911568828463900,10.5664638671875,2.2372445271633565,2.397121346995234,0.6751378340266645
1789911568838472000,10.576471923828125,3.2102456560850143,3.504492221787572,0.5232844904461875
1789911568848479700,10.586479736328124,3.9357904659211633,3.993100499117374,0.2678791485849768
1789911568858486800,10.59648681640625,4.411773654955625,4.0115456718683244,-0.06505516743026674
1789911568868494800,10.606494873046875,4.7887411739647385,3.77587229116559,-0.49806869104914364
1789911568878503000,10.6165029296875,5.191186248579621,3.366712229081988,-0.8845947503898293
1789911568888510700,10.6265107421875,5.551928024452924,2.772195015081763,-1.2739670660071074
1789911568898518800,10.636518798828124,5.770018986713886,1.9977321528196335,-1.5522021158464252
1789911568908526800,10.64652685546875,5.370465541887283,1.0480910028278827,-1.5632725220456718
1789911568918534000,10.656533935546875,5.2801113172233105,-0.20546295135617254,-1.496469268839061
1789911568928542000,10.6665419921875,4.466323575788736,-1.41552087816298,-1.1796171227704733
1789911568938549800,10.6765498046875,3.734265730796754,-2.592411863905191,-1.0408891816902905
1789911568948557800,10.686557861328126,3.314999869762361,-3.5231244415432212,-0.9437430318638682
1789911568958565600,10.696565673828125,3.2535181038394567,-3.7986633841663595,-0.6152999628532677
1789911568968573700,10.70657373046875,3.063059537130594,-2.863985410028696,0.0190652043454349
1789911568978582000,10.71658203125,2.788207992249727,-1.6215344491392374,0.35089981549046934
1789911568988588800,10.7265888671875,3.0741981862604617,-1.005187680646777,0.5223425699535758
1789911568998596600,10.7365966796875,2.9819980414688585,-0.3544844690442085,0.9072387630701064
1789911569008604700,10.746604736328125,2.42799520868659,0.19496318465173243,1.3542691216036677
1789911569018612700,10.75661279296875,1.0561953988283872,0.6117290455639361,2.0246797809779644
1789911569028620800,10.766620849609374,-0.9724152918577194,0.780887342351675,2.523875211034715
1789911569038628900,10.77662890625,-4.736346969860792,0.6582622486799955,2.50414321334362
1789911569048635600,10.7866357421875,-8.996588585612177,0.5314765281975269,1.825133944711089
1789911569058643700,10.796643798828125,-9.930117389714717,0.582523409345746,1.4059671601369976
1789911569068651800,10.80665185546875,-7.4373495568662875,0.4335527450621128,0.7880944241862744
1789911569078659800,10.816659912109374,-2.409365327018499,0.03378302713632583,-0.5021228618107736
1789911569088668000,10.82666796875,1.716072096967697,-0.24618717593252656,-1.8433283575713633
1789911569098675700,10.83667578125,2.821730907145142,-0.05635492442846298,-1.9851596714943647
1789911569108682800,10.846682861328125,1.8231337108045815,0.263495453608036,-1.1479589788336306
1789911569118690800,10.85669091796875,0.500302806776762,0.34983284384608265,-0.32743352664187547
1789911569128699000,10.866698974609376,0.23118425258994102,0.23414251787364482,0.04348024528622627
1789911569138706700,10.876706787109375,0.2188158424694091,0.06855214270055293,0.33446503271386024
1789911569148714800,10.88671484375,0.006160276195406913,0.1168079318255186,0.8137411258138716
1789911569158722800,10.896722900390625,-0.18340083021707831,0.24962416464388368,1.2968826621703802
1789911569168729900,10.906729736328124,-0.2533744570881128,0.2535930682748556,1.6321302235640585
1789911569178738000,10.916738037109376,-0.21255619755275545,0.16055647265911102,1.878303517101705
1789911569188745700,10.926745849609375,-0.12562025689966977,-0.022780571606755257,2.103916399300098
1789911569198753800,10.93675390625,-0.2345101821422577,-0.2415846505731344,2.347757012106478
1789911569208761600,10.94676171875,-0.3508580952405929,-0.4410989226579666,2.540302321961522
1789911569218769700,10.956769775390624,-0.3723831868935376,-0.4926970079481601,2.7066955379500985
1789911569228776700,10.966776611328125,-0.3612549860924482,-0.44083822589516636,2.6814111668288705
1789911569238784800,10.97678466796875,-0.5643945360023528,-0.6127613112211227,2.603143685799837
1789911569248792800,10.986792724609375,-0.8787229357469827,-0.9250754485338926,2.473262629650533
1789911569258800600,10.996800537109374,-1.4211878178834914,-1.4194851056188345,2.3088659943066534
1789911569268809000,11.00680908203125,-1.9588100092291831,-1.8137527189970015,1.9835474139921365
1789911569278816800,11.016816650390625,-2.314450078049302,-1.9674632712841034,1.7214475063957273
1789911569288823800,11.02682373046875,-2.5276287183493373,-1.7038877381771802,2.09896593728587
1789911569298831600,11.03683154296875,-2.485478260362148,-1.4075824863791464,3.1052462354749437
1789911569308839700,11.046839599609376,-2.170476491400599,-1.212860124745965,4.373858642581105
1789911569318848000,11.056847900390625,-1.510148396231979,-0.9316589185774325,5.2568432543605565
1789911569328855800,11.066855712890625,-1.3305511230163276,-0.8160586089760065,5.766346435680985
1789911569338863900,11.07686376953125,-2.3938515315443274,-1.3862164577454328,5.819536174076795
1789911569348870700,11.08687060546875,-2.9307997691512107,-2.5606039362341164,4.942890702190995
1789911569358879000,11.09687890625,-3.232124894937873,-3.9936879436165094,4.050188413995504
1789911569368886800,11.10688671875,-3.7127334056854244,-4.946776603713631,3.4201790308535096
1789911569378894800,11.116894775390625,-4.768889057025313,-5.41857052436471,3.0917443643450735
1789911569388903000,11.12690283203125,-5.372496170932054,-5.303672225552797,2.7732459854394196
1789911569398910700,11.13691064453125,-4.595985728490352,-4.737428335356712,2.304244033594429
1789911569408918000,11.14691796875,-3.077962507230043,-3.8033430664151906,1.9309597331427037
1789911569418925800,11.15692578125,-1.3634395394004881,-2.2432839534580706,1.449057529322803
1789911569428934000,11.166933837890625,0.050375338562205434,-0.9407032257765531,1.0154068768441677
1789911569438941700,11.176941650390624,1.866594666868448,-0.24818039557635782,0.28731873920075596
1789911569448949800,11.18694970703125,2.187015830530226,-0.21813012522757053,-0.15604863984584808
1789911569458957800,11.196957763671875,2.929572565443814,-0.9752338564097881,-0.7336232676777988
1789911569468964900,11.20696484375,4.393941061145067,-2.4273662631332873,-1.8661463385790584
1789911569478973000,11.216972900390624,5.469979224562644,-4.145835484370589,-3.1621625931784507
1789911569488980700,11.226980712890626,6.123837685325741,-5.207225529232621,-4.29205012794435
1789911569498988800,11.23698876953125,6.110683020198345,-5.393589227843284,-5.020032978582382
1789911569508996600,11.24699658203125,5.669043999314308,-4.885426939737797,-5.426723435682058
1789911569519005000,11.2570048828125,4.99431869161129,-3.4762411098152395,-5.141661462432146
1789911569529011700,11.26701171875,3.9683024502083657,-1.7256231846451757,-4.025234590002894
1789911569539019800,11.277019775390626,2.62862328723222,-0.22909107970297335,-2.4024214992299675
1789911569549027800,11.28702783203125,1.6716928570151328,0.7349854228764772,-1.1455824589606374
1789911569559036000,11.297035888671875,0.7086769694045185,1.4828852723836898,-0.027274229764193296
1789911569569044000,11.3070439453125,-1.4463172907039523,1.7815923246264456,2.0966939007006586
1789911569579051800,11.3170517578125,-1.9580451623365283,1.846993894341588,4.095956185697019
1789911569589058800,11.327058837890625,-0.24692045864313839,1.7923522035717963,4.413558784806728
1789911569599066600,11.337066650390625,2.2391753490954636,1.5975672980964182,3.59399655162394
1789911569609075000,11.347074951171875,3.6773727539688346,1.28705933342278,2.6119673359856006
1789911569619083000,11.3570830078125,4.084808476477861,1.034721818166971,1.2840068139843641
1789911569629090800,11.3670908203125,3.5722929615989325,1.003826329165697,0.5528599463574588
1789911569639099000,11.377098876953125,2.836993065945804,1.1269845068007707,0.10463570186421274
1789911569649105700,11.387105712890625,2.8459830126091834,1.2230904268592595,-0.26499109899327156
1789911569659114000,11.397114013671874,3.7243197985827923,1.2906447906941174,-0.5140997153304517
1789911569669121800,11.407121826171876,4.658203699733317,1.3690531414985656,-0.9323790495455264
1789911569679129900,11.4171298828125,5.104933614015579,1.511539119938016,-1.572783862234652
1789911569689138000,11.427137939453125,4.927285721302032,1.753931579762697,-2.364962560059875
1789911569699145700,11.437145751953125,4.3332861014351245,1.9429174435704946,-3.194019912949204
1789911569709153000,11.447153076171874,3.873550282846391,2.187154069957137,-3.8657051223039627
1789911569719160800,11.457160888671876,3.5531913707658647,2.49507903240025,-4.349722564712167
1789911569729169000,11.4671689453125,3.3625472183570264,2.8190865301162003,-4.784118774861097
1789911569739176700,11.4771767578125,2.8901220140650867,3.1476983067572113,-4.990366154593229
1789911569749184800,11.487184814453125,2.601808930064738,3.288153071630001,-5.006397836461663
1789911569759192800,11.49719287109375,2.1221479293003678,3.3431735325843093,-4.387541423235834
1789911569769199900,11.507199951171875,1.5227394361272453,3.0307232016712424,-3.804410403385758
1789911569779208000,11.5172080078125,0.9158817959919572,2.6093419559180737,-3.1756384530842303
1789911569789215700,11.5272158203125,0.2053438550211489,2.183601345911622,-2.3174013290703295
1789911569799223800,11.537223876953124,-0.5310533343493938,1.518249431231618,-1.39565400204584
1789911569809232000,11.54723193359375,-1.6001076302289963,0.7573819636017084,-0.4780579494819045
1789911569819240000,11.557239990234375,-2.7146879980087277,-0.11128829162120818,0.8271384405907243
1789911569829246700,11.567246826171875,-3.9724151462242006,-1.4201117130845784,2.3031474705293773
1789911569839254800,11.5772548828125,-5.547428374946117,-3.2574574891149997,3.964783043910563
1789911569849262600,11.5872626953125,-6.6272729449093335,-5.316131309631467,6.071462770444154
1789911569859271000,11.59727099609375,-6.593059709662199,-6.588967471912503,8.098069720092415
1789911569869279000,11.607279052734375,-5.841815810424089,-6.553043925616144,9.08617708660066
1789911569879286800,11.617286865234375,-4.205364947181939,-5.065290170413255,7.941130853408574
1789911569889293800,11.6272939453125,-2.1131189658008513,-2.084147868990898,5.647725316953658
1789911569899302000,11.637302001953126,0.08521744629740714,0.47931613284945485,3.463240173944831
1789911569909310000,11.64731005859375,1.9484666021302341,2.271493564376235,1.9438059168428181
1789911569919317800,11.65731787109375,3.012434388525784,3.549696222126484,0.9174845550134777
1789911569929325800,11.667325927734375,3.547275132459402,4.271020199397206,0.21669190911799668
1789911569939334000,11.677333984375,3.8223169392153618,4.629190078955888,-0.2624374689877033
1789911569949341000,11.6873408203125,4.148056083029508,4.528311537668109,-0.7931434512041509
1789911569959349000,11.697348876953125,3.9417081655323503,3.454372976878285,-1.9962652951374649
1789911569969356800,11.707356689453125,2.9617654007792473,0.7548042220681905,-4.323411188630759
1789911569979364900,11.71736474609375,0.9040155632399022,-2.068858529922366,-5.983527881881594
1789911569989372700,11.72737255859375,-1.908952630126476,-4.071512357053161,-6.1640785102993245
1789911569999380700,11.737380615234375,-6.02350274939537,-5.861955512133241,-5.543921243607998
1789911570009387800,11.7473876953125,-8.778984530085324,-7.42447721581161,-3.4903991067662834
1789911570019395800,11.757395751953124,-5.201675493890047,-7.6582620062887665,-0.6221675105351955
1789911570029404000,11.76740380859375,-0.8990624708771705,-6.3985325783401725,0.029218166906200348
1789911570039411700,11.77741162109375,0.9937408423505723,-3.991470852088928,-0.17956443039197473
1789911570049419800,11.787419677734375,1.5342447266124188,-1.5338152491539716,-0.03263314471514896
1789911570059426800,11.7974267578125,2.3506582865059373,0.808425922140479,-0.13251186131061984
1789911570069435000,11.807434814453124,3.076940762966871,2.5442799934208393,-0.5359089576870203
1789911570079442700,11.817442626953126,3.3607460141539574,3.3488036474257705,-0.9388463458634912
1789911570089450800,11.82745068359375,3.6001927759155627,3.5261896743327377,-1.2550291413031518
1789911570099458800,11.837458740234375,3.7914626590073106,3.3155601339936256,-1.544528658609092
1789911570109467000,11.847466796875,3.875187236398458,2.9059067354351282,-1.701746926756203
1789911570119474000,11.857473876953126,3.986224183607101,2.535441437926888,-1.721198207809776
1789911570129481700,11.867481689453125,4.035580042928457,2.1867302915871143,-1.6040037608847022
1789911570139489800,11.87748974609375,4.066506803850829,1.5226204859226942,-1.4098229587823152
1789911570149497900,11.887497802734375,4.618201067429781,0.36636838358342644,-1.234307401922345
1789911570159506000,11.897505859375,4.785300678122043,-0.9509294362366199,-0.9436341646619141
1789911570169514000,11.907513916015626,3.788058403521776,-2.4287702847123143,-0.4137111495167017
1789911570179520800,11.917520751953125,2.971128272408247,-3.5828134788304564,0.14467457452490926
1789911570189528800,11.92752880859375,2.6661130599319933,-4.07776089605391,0.8273291408572345
1789911570199537000,11.937536865234375,2.4646716191768645,-3.6509699002116918,1.6105010139495133
1789911570209545000,11.947544921875,2.539794664700329,-2.4018729254364968,2.268242453625798
1789911570219552800,11.957552734375,3.4104701222658154,-1.2949626538932322,2.3138436365887523
1789911570229560800,11.967560791015625,2.9863714342474936,-0.31391222015917297,2.337735530438274
1789911570239568000,11.97756787109375,1.756149255812168,0.5708937618285417,2.129451676442474
1789911570249576000,11.987575927734374,0.030498598638176916,1.2258283273905515,1.664951419930905
1789911570259583700,11.997583740234376,-1.7604992677152156,2.0955477994054554,1.553576911330968
1789911570269591800,12.007591796875,-2.775086060348153,2.992297317165136,1.5184344324097037
1789911570279599900,12.017599853515625,-3.5204724657297133,3.1835172236353158,1.2674509621113539
1789911570289607000,12.02760693359375,-3.8374914197325705,2.6331448563098907,0.6155903241019696
1789911570299615000,12.037614990234376,-3.3473435117453336,1.7421026102811097,0.027414222756773233
1789911570309622800,12.047622802734375,-3.0737305687487124,0.6611264059394598,-0.781634215196222
1789911570319630800,12.057630859375,-2.110475903946161,-0.49130350776314735,-1.8084744863331317
1789911570329638700,12.067638671875,-0.750211633580923,-1.3612339921802281,-2.671732361118495
1789911570339646700,12.077646728515624,0.06320785906314849,-1.607538072490692,-2.9299083732694386
1789911570349653800,12.08765380859375,0.2557348295439035,-1.1781523839801549,-2.425559505972266
1789911570359661800,12.097661865234375,-0.17542670953273773,-0.45470250059664247,-1.1416322600301354
1789911570369669600,12.107669677734375,-0.4803034633863717,-0.19525427655279634,0.16806692135445772
1789911570379677700,12.117677734375,-0.3144132284838706,-0.06259586464464664,1.0372061823286116
1789911570389685500,12.127685546875,-0.24778693927936254,0.17427169427871703,1.5195206202112137
1789911570399693800,12.13769384765625,-0.38505730196237564,0.2705547244697809,1.8038949034579097
1789911570409700600,12.14770068359375,-0.4740004177194088,0.2624906604796648,2.1208239872202275
1789911570419708700,12.157708740234375,-0.406755923551321,0.2508119131237268,2.3019581146143375
1789911570429716500,12.167716552734374,-0.5798370198059827,0.0955453635662794,2.4888126654818654
1789911570439724800,12.177724853515626,-0.6440847433108836,-0.16127777267098425,2.6399387542337176
1789911570449732900,12.18773291015625,-0.540312745603919,-0.5403384645670652,2.745776963755488
1789911570459740700,12.19774072265625,-0.45305809439048167,-1.061999701192975,2.76433027305603
1789911570469747700,12.207747802734374,-0.43430509779937565,-1.5790665957659482,2.6955349692493678
1789911570479755500,12.217755615234376,-0.48521454323828217,-1.81093941514194,2.42794450141266
1789911570489763800,12.227763916015626,-0.5697364084869623,-1.769087063318491,2.0861460570707915
1789911570499771600,12.237771728515625,-0.5023660229168831,-1.5329150854438542,1.9072339896403252
1789911570509779700,12.24777978515625,-0.7954489516675471,-1.3887684803158045,1.9700475886888802
1789911570519786500,12.257786376953124,-1.6753297522127628,-1.3827280311077832,2.4612381375968453
1789911570529794800,12.267794921875,-2.367519843327254,-1.39744863037765,3.1815859633117913
1789911570539803000,12.277802978515625,-2.2848721013873816,-1.272780632701516,3.825028244000673
1789911570549810700,12.287810791015625,-1.9083166703104972,-1.0288450350880622,4.178812163560092
1789911570559818800,12.29781884765625,-1.9431524213701485,-1.06889062975049,4.093516099068522
1789911570569826600,12.30782666015625,-2.3649304113559424,-1.7183967405229805,3.5887408230528233
1789911570579833900,12.317833740234375,-2.6334827099621294,-2.7104437845677136,2.9418074853777885
1789911570589841700,12.327841552734375,-2.986134118360281,-3.7873528856009244,2.3869401447206733
1789911570599849700,12.337849609375,-3.3610774380654096,-4.4683945368438955,2.0217821598403156
1789911570609857800,12.34785791015625,-4.042901764118671,-4.758268878811598,1.9026544067651032
1789911570619865600,12.357865478515626,-5.359594019261002,-4.753817744621634,2.1882816126823426
1789911570629873700,12.367873779296875,-5.742467547443509,-3.8368759181827303,2.165464508457482
1789911570639880700,12.377880615234375,-4.856488430023193,-2.1581261283934117,1.8710893479391932
1789911570649888800,12.387888671875,-3.3797932444512844,-0.7915344085723162,1.7744084044717252
1789911570659896600,12.397896484375,-1.5852900003254413,0.04055062157511711,1.7369854133978484
1789911570669904600,12.407904541015625,0.1417079067390412,0.2735585824608803,1.5730638482198118
1789911570679912700,12.41791259765625,1.1202151587963103,-0.06736614778637885,1.3001768814101815
1789911570689919700,12.427919677734375,1.3734791412472724,-0.9563520458072423,0.9653947455711662
1789911570699927800,12.437927734375,2.5806676500976082,-2.3958108489185572,0.02519384329356253
1789911570709935600,12.447935546875,3.893121537017822,-3.8628479793071744,-1.2013958969235419
1789911570719943700,12.457943603515625,4.497753902319073,-4.978648828792572,-2.406902882427722
1789911570729951700,12.46795166015625,5.054440275096893,-5.561576142764091,-3.7201802145600316
1789911570739959800,12.477959716796875,5.110965879917145,-5.608242032349109,-4.759004791870713
1789911570749966600,12.487966552734376,4.598896647500991,-5.112967867389321,-5.559095431864261
1789911570759974700,12.497974609375,3.745653678512573,-3.544594515073299,-5.394579992446303
1789911570769982700,12.507982666015625,2.6457807582601904,-1.745996110588312,-4.063341910079122
1789911570779990800,12.51799072265625,1.5441381979867814,-0.7152028640419245,-3.0672426680341363
