time,seconds_elapsed,z,y,x
1789252704134894800,0.054894775390625,0.008521160107851028,-0.05504997930973768,-0.0010632453173398972
1789252704144948000,0.064947998046875,0.005285831448435783,-0.038306057518720626,0.0162277889624238
1789252704155000800,0.075000732421875,0.03753974932134151,-0.04999897953048348,0.055766018624603744
1789252704165054000,0.085053955078125,0.05383972673714161,-0.08932078996300696,0.11021072551757097
1789252704175107000,0.095107177734375,-0.00708323625922203,-0.09427958141416311,0.13872224199175834
1789252704185160000,0.105159912109375,-0.010557049849629402,-0.08639803438410162,0.09695347679853439
1789252704195213800,0.1152138671875,0.03564882100820541,-0.0738270143635571,0.04036065196096897
1789252704205267000,0.125266845703125,0.06091185708045959,-0.033857992068678136,0.026806466121971604
1789252704215319800,0.13531982421875,0.08726619552075862,-0.013974018686264753,0.04970306532382965
1789252704225372700,0.14537255859375,0.1147597671240568,0.011360036795586347,0.07894172702878713
1789252704235426000,0.155426025390625,0.18047230248451232,0.030961247713863847,0.09940963777899742
1789252704245479000,0.16547900390625,0.22219430592656134,0.06017550562992691,0.12132044081389903
1789252704255531800,0.17553173828125,0.2567962482303381,0.09287848244458437,0.08126812414973973
1789252704265585000,0.1855849609375,0.17891162903904914,0.03242342922091484,0.05121200858205557
1789252704275637800,0.1956376953125,0.1716805087417364,0.03295315218344331,0.08747545435726642
1789252704285691000,0.20569091796875,0.1542085649371147,-0.015630699852108954,0.0799737004250288
1789252704295744000,0.215743896484375,0.21299568494856355,-0.009774521169811487,0.05213292281925678
1789252704305796900,0.225796875,0.26234511452913284,0.17447306206971405,0.1475467689603567
1789252704315849700,0.235849609375,0.40616438739895816,0.3176894006103277,0.14766659594774245
1789252704325902800,0.24590283203125,0.6730833857148886,0.4943238784976303,0.09304828605353832
1789252704335956000,0.2559560546875,1.051469539350271,0.5970372339971364,0.0420323845654726
1789252704346008800,0.2660087890625,1.3350409817814826,0.684794866296649,0.006050970602035522
1789252704356062000,0.27606201171875,1.3339426651507615,0.7480592778526246,0.05354220509529113
1789252704366114800,0.28611474609375,0.9479074580669402,0.8383587035894393,0.12568506576418875
1789252704376167700,0.296167724609375,0.8077578136205673,0.8436201312489807,0.26969430824816226
1789252704386221000,0.306220947265625,0.943204394942522,0.711278822465986,0.3564665827721357
1789252704396274000,0.31627392578125,0.9638117141634225,0.6829970230944454,0.0829495013654232
1789252704406327000,0.3263271484375,0.8093722630798816,0.8139683586984873,-0.27341011390089986
1789252704416380000,0.3363798828125,1.157271508514881,0.7754758386969566,-0.3559235619366169
1789252704426432800,0.346432861328125,1.3018272789657115,0.8518445003673434,-0.34289164640605446
1789252704436487000,0.35648681640625,1.7813544242173431,1.2227628023400903,-0.4714443765610456
1789252704446539800,0.366539794921875,1.5739052674800156,1.3824841393493115,-0.3567226033598184
1789252704456593000,0.376593017578125,1.2293974180489777,1.1173185605719684,-0.01258183367550373
1789252704466646000,0.38664599609375,1.383234227064252,1.179724455602467,-0.036112931388616556
1789252704476699000,0.396698974609375,0.7840735711723565,1.496958952052146,-0.1264028586447239
1789252704486751700,0.406751708984375,0.07859598233103751,1.497302358662337,-0.40475276703536506
1789252704496804900,0.416804931640625,0.019290975925326345,1.574401672694832,-0.5354705662697553
1789252704506858000,0.42685791015625,0.16069792695641516,1.6051720740117132,-0.399105701059103
1789252704516910800,0.436910888671875,0.44393677643239493,1.4303572127670048,-0.25149054303765295
1789252704526964000,0.4469638671875,0.6722492729783057,1.155913664165139,-0.25584873824715615
1789252704537016800,0.457016845703125,0.8549678930848836,0.90438351976946,-0.510252538383007
1789252704547069700,0.467069580078125,1.0350941586107014,0.35328744127936657,-0.8595844469696283
1789252704557123000,0.477123046875,0.8055664410561323,-0.24928316918648777,-1.433531166628003
1789252704567176000,0.487176025390625,0.9630559273600577,-0.5139652387632057,-1.5807365748047828
1789252704577228800,0.497228759765625,0.745886756119132,-0.5202633525267243,-1.0779016192018984
1789252704587282000,0.507281982421875,0.7719459110051393,-0.45647053318247194,-0.3881184430986643
1789252704597334800,0.517334716796875,0.47310266516208643,-0.5424754400631413,0.2654097627967596
1789252704607388000,0.527387939453125,0.5900193180590868,-0.691312139236182,0.0427905094563961
1789252704617441000,0.53744091796875,0.5349310525655746,-0.5594329680722206,-0.25698037262558937
1789252704627494000,0.547493896484375,0.14639263048917053,-0.38079438382089137,-0.5942272911429405
1789252704637546800,0.557546630859375,-0.6596446429491043,-0.3187250272683799,-0.7520043622165918
1789252704647599900,0.567599853515625,-1.1398849049061537,-0.5006800791239365,-1.3193822248786686
1789252704657652700,0.57765283203125,-1.1946586976230145,-0.8163057156048714,-1.604546489459276
1789252704667707000,0.587706787109375,-0.892944280257821,-1.1344647795535623,-1.338214351120591
1789252704677760000,0.597760009765625,-0.536970741699636,-1.3080670501381158,-1.0767582943856715
1789252704687812900,0.607812744140625,-0.06279635565280914,-1.071856566883996,-1.3850053283900021
1789252704697866000,0.617865966796875,0.1308370416998863,-0.6952411492481827,-1.824251901179552
1789252704707918800,0.6279189453125,-0.3484019342601299,-0.9066624244868755,-1.7307623010993003
1789252704717971700,0.6379716796875,-0.20081424876749515,-0.8499614630997181,-1.7142530648469925
1789252704728024800,0.64802490234375,-0.06744914989471436,-0.6392967783819884,-1.8637147275179624
1789252704738078000,0.658077880859375,-0.5204194198712706,-0.599647489560768,-1.9222353055477142
1789252704748130800,0.668130859375,-0.9474676053449511,-0.5262247451491654,-1.8310621657162904
1789252704758184000,0.678183837890625,-1.3758449935957788,-0.6363683237146586,-1.9041238947957753
1789252704768236800,0.68823681640625,-1.347019296605885,-0.7896565589364618,-1.9480612361997365
1789252704778290000,0.6982900390625,-1.3815098874896763,-0.8831975969430058,-1.8473229801654814
1789252704788343000,0.708343017578125,-1.468296775060892,-0.8954698532126844,-1.8167051390618085
1789252704798396000,0.71839599609375,-0.9707762924790382,-0.6873617211099714,-2.2904893567472695
1789252704808448800,0.72844873046875,-0.6743328012540936,-0.4952268186867237,-2.7967975414186714
1789252704818502000,0.738501953125,-0.5726458661928773,-0.5404477701604365,-3.377699487042427
1789252704828554800,0.7485546875,-0.3889753521889448,-0.6949307681247592,-3.8913568654328583
1789252704838608000,0.75860791015625,0.3013172347411513,-1.0968690622612833,-3.6350954547315832
1789252704848661000,0.768660888671875,0.9501926463946699,-1.8772808960556984,-2.7688480427414177
1789252704858713900,0.7787138671875,0.7583901177309453,-2.3898798514343795,-2.4763632260143758
1789252704868766700,0.7887666015625,0.02721343948766589,-3.099000326822698,-2.094391030585766
1789252704878819800,0.79881982421875,-1.3469039996631442,-3.652040159791708,-1.2791413999050856
1789252704888873000,0.808873046875,-2.7457652733176947,-3.665957625985145,-0.9979384401708841
1789252704898925800,0.81892578125,-3.5538188550144434,-3.4448856020867824,-0.6019774668782949
1789252704908979000,0.82897900390625,-3.830231657862663,-2.849249905450642,-0.6007628303915262
1789252704919032800,0.83903271484375,-3.164889095532894,-1.8857649390235542,-0.32275778991580006
1789252704929086000,0.8490859375,-3.0167157191067933,-1.030935869887471,0.4023270011931658
1789252704939138800,0.859138916015625,-0.6564803336992859,1.0675316163569688,0.9942734879225492
1789252704949192000,0.86919189453125,4.115371080262959,3.1014293075352906,3.3175007466673847
1789252704959245000,0.8792451171875,8.744470850586891,3.816613466876745,5.995286124214529
1789252704969298000,0.8892978515625,11.419379795914887,2.70210411850661,9.370344156837463
1789252704979350800,0.899350830078125,8.949178599661588,1.203067775658518,11.135251888644694
1789252704989404000,0.90940380859375,3.5361908438652754,0.8262517939493059,9.033691112560033
1789252704999456800,0.919456787109375,-0.6343026964217424,0.37821269676461816,6.338825420874357
1789252705009510000,0.929510009765625,-1.3586989207446574,0.17001608266085386,3.4072862315326926
1789252705019563000,0.93956298828125,-0.6194789290383458,0.12412906849384307,0.9073340401381254
1789252705029615900,0.949615966796875,-0.16697072361558674,-0.11212328114062547,0.19626608394384382
1789252705039668700,0.959668701171875,-0.21065905869454143,-0.3891027779608965,0.6058697981417179
1789252705049721900,0.969721923828125,-0.39050153884291644,-0.5536285926423966,0.5662590877652168
1789252705059775000,0.97977490234375,-1.0303899264425038,-1.0541092402040957,-0.06892272957861423
1789252705069827800,0.989827880859375,-1.3817498337253928,-1.4693248029343784,-0.6501923394709825
1789252705079881000,0.999880859375,-1.4498495564833283,-1.8392301284722983,-1.0165373421788215
1789252705089933800,1.009933837890625,-1.5540186637490987,-2.1235126417823134,-1.2508002715617417
1789252705099986700,1.019986572265625,-1.2330381126388907,-2.0835918425433335,-1.2847551481336354
1789252705110040000,1.0300400390625,-0.8883607518598436,-1.6957779353491962,-1.0140256516188382
1789252705120092000,1.040091796875,-0.7147565815791487,-1.211565701021254,-0.508020249286294
1789252705130145000,1.05014501953125,-0.7106354099959135,-0.6600266280040145,-0.037169746965169906
1789252705140198000,1.060197998046875,-1.0234878919690846,-0.07410057060793042,0.37841596425175666
1789252705150251000,1.0702509765625,-1.2228455121874808,0.29968861062601204,0.6308259602218866
1789252705160304000,1.08030419921875,-0.7136819380849599,0.4078190227381885,0.7506447643011808
1789252705170357000,1.09035693359375,-0.09769640412032604,0.21691870361119509,0.8525432962864636
1789252705180411100,1.1004111328125,0.19148703297376632,-0.11373670768663287,0.8006418441355228
1789252705190464000,1.110464111328125,0.47231209930628537,-0.2840557188168168,0.4718155479609966
1789252705200516900,1.120516845703125,0.5314899722009897,-0.3293437441773712,0.05514145698547363
1789252705210570000,1.130570068359375,0.6487082383930682,-0.34407676453739405,-0.1048608889222145
1789252705220623000,1.140623046875,0.6195777132377028,-0.3996722489006817,-0.11511924808621406
1789252705230676000,1.150676025390625,0.8384031272530555,-0.43400954891890287,-0.171101247549057
1789252705240729000,1.16072900390625,1.04621234947443,-0.39802448169365523,-0.35372868224084375
1789252705250782000,1.170781982421875,1.0786369477391242,-0.41584100115224715,-0.14127134195268154
1789252705260834800,1.180834716796875,0.6782891376644372,-0.4563280559718609,-0.13721417551636694
1789252705270888200,1.19088818359375,0.28015491198599335,-0.1341157711096108,-0.6924474268764257
1789252705280941000,1.200941162109375,0.034335984843969346,0.08305749178454279,-0.8202776879757643
1789252705290994000,1.210993896484375,-0.021923077994585035,-0.07673895628750324,-0.10682955864667892
1789252705301047000,1.221047119140625,0.14386369653344153,-0.11390154285952449,0.05592179370820522
1789252705311100000,1.231099853515625,0.1094096382677555,0.2140666751809418,-0.3226186737060547
1789252705321153000,1.241153076171875,0.03423603160083294,0.3978377269499004,-0.21081600282192228
1789252705331206100,1.2512060546875,-0.40300680015087126,0.600546849553287,-0.44343993282616134
1789252705341259000,1.261259033203125,-0.6673135701417923,0.6796155639626086,-0.5370645574629307
1789252705351312000,1.271311767578125,-0.6571195083856582,0.5897748417787253,-0.5875783546477555
1789252705361365000,1.281364990234375,-0.6665723963856697,0.5672559898480772,-0.5846434702396393
1789252705371418000,1.291418212890625,-0.7844318830907344,0.63682490837574,-0.6049667118221521
1789252705381471000,1.301470947265625,-1.0011766914397477,0.7063759989857673,-0.6280009659290313
1789252705391524000,1.311524169921875,-1.1122302975222467,0.7954569888435303,-0.6212088215708732
1789252705401577000,1.321576904296875,-1.1344508971586822,0.8191589130789041,-0.4415484199911356
1789252705411629800,1.3316298828125,-1.0535165350079536,0.8099104616098105,-0.042337504991889
1789252705421683200,1.34168310546875,-0.9359449253335594,0.7929371149770915,0.42767070128619666
1789252705431736000,1.351736083984375,-0.8013087836116551,0.7321582366265356,0.8741349503695964
1789252705441789000,1.361788818359375,-0.6066787764370442,0.6058683368369937,1.3875649497449398
1789252705451843000,1.371843017578125,-0.4090788135409355,0.3812624397240579,1.9209961191415785
1789252705461896000,1.38189599609375,-0.1595686306655407,0.09699453946128488,2.4117840785980222
1789252705471949000,1.391948974609375,0.05489917266219854,-0.21716610250100493,2.7589398121893405
1789252705482002000,1.402001953125,0.21139204914420842,-0.5658610283583402,3.0180916836351153
1789252705492055000,1.412054931640625,0.14680705650895834,-0.8864474655844271,2.946295444446802
1789252705502108200,1.422108154296875,-0.37639936373233795,-1.0514005657672882,2.5397867736548183
1789252705512161000,1.4321611328125,-0.905514423495531,-1.0243684741958976,1.9876912357985972
1789252705522214000,1.4422138671875,-1.2839677971482275,-0.8523429514087736,1.4862339982897042
1789252705532267000,1.45226708984375,-1.5077794751435518,-0.6351737801678479,1.0660060142248868
1789252705542320000,1.462320068359375,-1.611854182124138,-0.4018434554599225,0.6473012942045927
1789252705552373000,1.472373046875,-1.7085311800688505,-0.17788608538359402,0.2300736609995365
1789252705562426000,1.482426025390625,-1.7453297556340694,0.009136369396746159,-0.1459656372487545
1789252705572479000,1.49247900390625,-1.7137851550742982,0.16219108812361954,-0.4204635463863611
1789252705582531800,1.50253173828125,-1.699158371567726,0.27068273476362226,-0.6036994683653116
1789252705592585000,1.5125849609375,-1.671817360177636,0.34760333122834564,-0.7104799271732568
1789252705602638000,1.52263818359375,-1.631290996260941,0.39640754801630973,-0.7835475014716387
1789252705612691000,1.53269091796875,-1.6027297954261301,0.3816740892648697,-0.7686106291025877
1789252705622744000,1.542744140625,-1.6852356446772814,0.3373817969433963,-0.6736585552543402
1789252705632797000,1.552796875,-1.8002122694224119,0.2728581791065633,-0.5460632719546556
1789252705642850000,1.56285009765625,-1.8798884482055902,0.2127624607145786,-0.3710626788794994
1789252705652903200,1.572903076171875,-1.9178601592034101,0.1322992232069373,-0.19995149445831775
1789252705662956000,1.5829560546875,-1.9983692816793917,0.04389467130601406,0.041323359513282774
1789252705673009000,1.5930087890625,-2.09787068939507,-0.011303630433231592,0.28226912766098977
1789252705683062000,1.60306201171875,-2.148280441683531,-0.10540405588820576,0.447996865478158
1789252705693115000,1.613114990234375,-2.1273329307228326,-0.1944229402951896,0.7381646374344826
1789252705703168000,1.62316796875,-2.0593886907875536,-0.35239129615724085,0.8454787647277117
1789252705713221000,1.63322119140625,-1.9554864177644251,-0.5592001091644168,0.7427379366993904
1789252705723274000,1.64327392578125,-1.7701690133363008,-0.7739594427846371,0.7191530629724264
1789252705733326800,1.653326904296875,-1.4789093544900416,-0.8840890658900141,0.8550280988395214
1789252705743381000,1.663381103515625,-1.0917162095427513,-0.7985222216330469,1.0437065041333435
1789252705753433900,1.673433837890625,-0.7918570646554232,-0.5476479107975959,1.2090233230620622
1789252705763487000,1.683487060546875,-0.7073737778514623,-0.19949162186160682,1.2551385930269956
1789252705773540000,1.6935400390625,-0.8662538417309522,0.08302198207974433,1.2684002256602047
1789252705783593000,1.703593017578125,-1.155477610835433,0.22542890393361448,1.2977911553174257
1789252705793646000,1.71364599609375,-1.3681471325695513,0.2086287219107151,1.3932488406002521
1789252705803699000,1.723698974609375,-1.4486235218197105,0.06152428989037871,1.6027566834330558
1789252705813751800,1.733751708984375,-1.4751818583995102,-0.15783143160939217,1.7625234670192003
1789252705823805200,1.74380517578125,-1.543560982620716,-0.38022374432608486,1.8147510823845863
1789252705833858000,1.753858154296875,-1.5601830315977334,-0.48129751592501996,1.7308061402410269
1789252705843911000,1.763910888671875,-1.4887603018969298,-0.3909880071856081,1.522331732109189
1789252705853964000,1.773964111328125,-1.3361302383229137,-0.1473421862989664,1.3241063307911156
1789252705864017000,1.784016845703125,-1.1134902344554662,0.12911314051672815,1.217330548158288
1789252705874070000,1.794070068359375,-0.9315317850664258,0.4735264435321092,1.2518074027776718
1789252705884123100,1.804123046875,-0.7973156223222613,0.8516985160253941,1.5356635073691605
1789252705894176000,1.814176025390625,-0.5747603741288185,1.2514119737192988,2.0389993982315064
1789252705904228900,1.824228759765625,-0.06434826126992702,1.7656703867428003,2.9047926367133856
1789252705914282000,1.834281982421875,0.6516068824440241,2.261860351373255,3.826919172313809
1789252705924335000,1.844335205078125,1.3328124920770525,2.8682483281701803,4.23852428946197
1789252705934388000,1.854387939453125,1.8648785106003283,3.4611066690474748,4.052693674814701
1789252705944441000,1.864441162109375,2.4208500131070614,4.044252009683847,3.8567718742638823
1789252705954494000,1.874493896484375,2.6339082418978212,4.359249686992168,3.249107009398937
1789252705964546800,1.884546875,2.475506316924095,4.330107179138064,2.2317793936252595
1789252705974600200,1.89460009765625,2.1476392211705444,4.042013875368237,1.2786270206421613
1789252705984653000,1.904653076171875,1.740977405643463,3.451742336113751,0.12083528764545917
1789252705994706000,1.914705810546875,1.3047908049464225,2.7095471279889343,-0.9596855741441249
1789252706004759000,1.924759033203125,0.7863736648082733,1.8439008967623114,-1.6949468913525343
1789252706014812000,1.93481201171875,0.27158172942996023,0.9299761531222611,-2.167550959342718
1789252706024865000,1.944864990234375,-0.23196312800794838,0.1678250754225999,-2.4086148009121415
1789252706034918100,1.954918212890625,-0.5552396811008453,-0.418043041241169,-2.499195235547423
1789252706044971000,1.964970947265625,-0.6713985013678669,-0.8556658852864056,-2.613554020655155
1789252706055025200,1.975025146484375,-0.811204739204049,-1.1347104979429394,-2.7115555452018976
1789252706065078000,1.985078125,-0.8656593829691409,-1.303162765353173,-2.7749755857110023
1789252706075131000,1.995130859375,-0.8130202641934156,-1.342606740860641,-2.902482021683454
1789252706085184000,2.00518408203125,-0.617220044195652,-1.2468063796199857,-3.1376965527027845
1789252706095237000,2.015237060546875,-0.4162269317299127,-1.1141617039762437,-3.20491949262619
1789252706105290000,2.0252900390625,-0.18029694591760634,-0.9760212804604321,-2.9441368051081893
1789252706115343400,2.03534326171875,0.2523772627443075,-0.8986532324891537,-2.5140754092931745
1789252706125396500,2.045396484375,0.6372013404726982,-0.8126091991744935,-2.0561475169092414
1789252706135449300,2.055449462890625,0.9370160616964102,-0.7274494744136929,-1.515481135562062
1789252706145502200,2.065502197265625,1.2789955616936086,-0.6730768829088658,-0.877524592807889
1789252706155555600,2.0755556640625,1.6811363926649092,-0.713800815224275,-0.10018471380472183
1789252706165608400,2.0856083984375,2.177909856271744,-0.7815610038295387,0.6349696358978748
1789252706175661300,2.095661376953125,2.6142428797021506,-0.9327271323308348,1.2843284471541643
1789252706185714400,2.10571435546875,3.0276427713125944,-1.1475962099358439,1.899327892690897
1789252706195767300,2.115767333984375,3.0752988409787414,-1.2909323754638433,2.1681623692393304
1789252706205820400,2.1258203125,2.4509569820791484,-1.218400150151178,1.8075410048753022
1789252706215873500,2.13587353515625,1.112028637470305,-0.8037375451285391,0.8839782989919185
1789252706225926400,2.145926513671875,0.14178104504048825,-0.4140561635620892,-0.040409167277812956
1789252706235979300,2.155979248046875,-0.21790742238759994,-0.2019191778020933,-0.590996054136753
1789252706246032400,2.166032470703125,-0.533805847927928,-0.08705774040184915,-0.8759230028301477
1789252706256085500,2.17608544921875,-0.9413415236800908,0.042319604009017346,-0.9745943894624709
1789252706266138600,2.186138671875,-1.3265759357750415,0.1477837195213884,-0.9951742361545562
1789252706276191500,2.19619140625,-1.5417662081584333,0.27199564399309456,-0.9218956494539976
1789252706286244400,2.206244384765625,-1.6880007254764438,0.3942863180786371,-0.9001905981242656
1789252706296297500,2.21629736328125,-1.7521949652284383,0.39395131397061045,-0.723583154374361
1789252706306350600,2.2263505859375,-1.7372019787579773,0.3119721554746851,-0.554869094222784
1789252706316403500,2.236403564453125,-1.7804986841708421,0.14630097015034407,-0.44473406428992746
1789252706326456600,2.24645654296875,-1.8667659317821264,-0.06075045597366988,-0.3971136504590511
1789252706336509400,2.256509521484375,-1.98069217069149,-0.30735483440496025,-0.37394437179565426
1789252706346562300,2.266562255859375,-2.04745918354094,-0.5928325853815302,-0.4561830945432186
1789252706356615400,2.276615478515625,-2.0436440091669557,-0.8953928424537181,-0.5048527251660824
1789252706366668500,2.28666845703125,-2.0250404309839007,-1.1318136074576526,-0.5394704495608806
1789252706376722400,2.296722412109375,-1.9024241051405668,-1.4482152332797646,-0.49329380479753016
1789252706386775600,2.306775634765625,-1.7228695020228624,-1.615662342235446,-0.4196183277338743
1789252706396828400,2.316828369140625,-1.6487608942389487,-1.6051437247000633,-0.3215677033483982
1789252706406881300,2.32688134765625,-1.657816891875863,-1.4445900285199285,-0.17810089717805386
1789252706416934400,2.336934326171875,-1.6602426577180622,-1.1737478654108942,0.03949965121746063
1789252706426987500,2.346987548828125,-1.5670722065895795,-0.8675639014162123,0.27813889598846436
1789252706437040400,2.357040283203125,-1.4886433975189923,-0.5638049726113676,0.46540509639680383
1789252706447093500,2.367093505859375,-1.524672157755494,-0.2185411171812564,0.6255138252884149
1789252706457146400,2.377146484375,-1.6676310144037008,0.10404211988523601,0.7593383583664893
1789252706467199200,2.38719921875,-1.921791653433442,0.34873628078103064,0.8288222289592028
1789252706477252600,2.397252685546875,-2.197934407168627,0.4882411245178431,0.845050894704461
1789252706487305500,2.407305419921875,-2.2512802129089833,0.40675212415903805,0.9860422506719827
1789252706497358300,2.4173583984375,-1.888475074765086,0.022548151090368628,1.2155442492634057
1789252706507411500,2.427411376953125,-1.301499946707487,-0.5596396696254611,1.4214467610806225
1789252706517464300,2.43746435546875,-0.8094085034370422,-1.1232060111753641,1.7493460055381058
1789252706527517400,2.447517333984375,-0.5334194789588451,-1.4519699096381664,2.2588567856431006
1789252706537570600,2.457570556640625,-0.4467009804487228,-1.4666756035998463,2.917712324041128
1789252706547623400,2.46762353515625,-0.3773153095334768,-1.343015760052949,3.6702374952614307
1789252706557676500,2.477676513671875,-0.13462415902316568,-1.1289219046041368,4.396003838893771
1789252706567729400,2.4877294921875,0.16130466067790983,-0.778632183836028,4.992693720757961
1789252706577782300,2.4977822265625,0.2044020441263914,-0.25217976741082965,5.259211737057567
1789252706587835600,2.507835693359375,0.6919505832701921,0.1826676936369389,5.401812281787395
1789252706597888500,2.517888427734375,1.5320353799998758,0.46728192311935124,5.5917491627097125
1789252706607941400,2.52794140625,2.551044665250182,0.3722724930606782,5.78028669822812
1789252706617994500,2.537994384765625,3.4541087729841466,-0.14540844175741074,5.851637531736492
1789252706628047400,2.54804736328125,4.10153924652636,-0.9355103333085775,5.565380795744061
1789252706638100500,2.5581005859375,3.777459852617979,-1.7140873528912663,4.506766060814261
1789252706648153600,2.568153564453125,2.1188766525447367,-1.9742444558568297,2.4476591095775366
1789252706658206500,2.57820654296875,1.0839280398845672,-1.9657716649353503,0.3747480893939733
1789252706668259300,2.58825927734375,0.8734674263715744,-1.8318631068356335,-1.218928631004691
1789252706678312400,2.5983125,0.8766893110275268,-1.4759513814672827,-2.6271938389509915
1789252706688365600,2.608365478515625,0.5848907229989767,-0.9836299288332462,-3.8782267502248287
1789252706698418400,2.61841845703125,0.055149055770039555,-0.4332566847249865,-4.887400285637378
1789252706708471600,2.628471435546875,-0.40603257771283385,-0.004708177690953016,-5.572895409157872
1789252706718525400,2.638525390625,-0.6580687719345092,0.3168731157913804,-5.977578033566474
1789252706728578300,2.648578369140625,-0.6512035623401403,0.6174554603867233,-6.159229901224374
1789252706738631400,2.65863134765625,-0.38477176301926375,0.8191593514703214,-6.031073476910591
1789252706748684300,2.668684326171875,0.4494248524546623,0.750525960227102,-5.235989266902208
1789252706758737400,2.6787373046875,1.1892162143081426,0.49019306230321524,-4.388554107409715
1789252706768790500,2.68879052734375,1.5643302144050597,0.1835626697152853,-3.506189088833332
1789252706778843400,2.698843505859375,1.846311465035379,-0.24763445213139057,-2.44375508787632
1789252706788896300,2.708896240234375,2.36835234862864,-0.6422134695462882,-1.4037684810489415
1789252706798949400,2.718949462890625,2.9359920770972967,-0.9776702897764742,-0.4288678021162748
1789252706809002500,2.72900244140625,2.9071798241108655,-1.2290372064344584,0.16658873856067657
1789252706819055400,2.739055419921875,2.472240008604526,-1.1181430286973715,0.06435410648882389
1789252706829108500,2.7491083984375,2.0316881984353063,-0.6159231362529098,-0.3950584714949131
1789252706839161300,2.759161376953125,1.4383411972582338,-0.10449892374202609,-0.9901946941763162
1789252706849214200,2.769214111328125,0.9273626826882362,0.28062048367112874,-1.434754570943117
1789252706859267600,2.779267578125,0.6496145395830273,0.5546529672540724,-1.545675782817602
1789252706869320400,2.789320556640625,0.48680619634389877,0.7599265335179864,-1.4718255337089299
1789252706879373600,2.79937353515625,0.2654360662817955,0.869390240060538,-1.1700848128587007
1789252706889426400,2.809426513671875,-0.06467939292043447,0.9354270389392971,-0.8443079673826694
1789252706899479300,2.819479248046875,-0.46845074770301576,0.9962253526426851,-0.5197352369993925
1789252706909532700,2.82953271484375,-0.9462801491260528,1.004912516967207,-0.024749825853109357
1789252706919585500,2.83958544921875,-1.4627099148392677,1.0042834252834318,0.45084816325604915
1789252706929638400,2.849638427734375,-1.9559113651782274,0.9335293886244297,0.812838477885723
1789252706939691500,2.85969140625,-2.3901351413697003,0.7657832967221736,0.8713356750398874
1789252706949744400,2.869744384765625,-2.787712317687273,0.5112140768915414,0.35239129615724085
1789252706959797500,2.879797607421875,-2.855659772492945,0.27758915315121413,-0.5264239209830761
1789252706969850600,2.8898505859375,-2.748011883200705,0.1100752625696361,-1.2857131795108319
1789252706979903500,2.899903564453125,-2.6717192093759774,-0.10745134380683302,-1.6913357151180506
1789252706989956400,2.909956298828125,-2.687384103758633,-0.3022635756805539,-1.7875772442549467
1789252707000009500,2.920009521484375,-2.7015421007096765,-0.4545557856023311,-1.5155185449630022
1789252707010062300,2.930062255859375,-2.642927414655685,-0.5683331175602973,-0.9976303971350192
1789252707020115500,2.940115478515625,-2.525928344172239,-0.5864779921904206,-0.39641748488843437
1789252707030168600,2.95016845703125,-2.369282322955131,-0.5261652700468897,0.060635962748527526
1789252707040221400,2.960221435546875,-2.2355197491973637,-0.39072102681249377,0.39508535950183865
1789252707050274300,2.9702744140625,-2.0950778438061475,-0.2080928614683449,0.5931067626804113
1789252707060327400,2.980327392578125,-1.8755913355335592,-0.0011366028144955635,0.6930868938237428
1789252707070381300,2.99038134765625,-1.5441107254579662,0.1942249335050583,0.827059310939908
1789252707080434400,3.000434326171875,-1.1425775049909948,0.4138328762002289,0.9924544558018445
1789252707090487600,3.010487548828125,-0.7512912455111742,0.6456384755589067,1.278394380930066
1789252707100540400,3.02054052734375,-0.4434422709137201,0.9120607033338397,1.6775240473866462
1789252707110593300,3.03059326171875,-0.2925713259667158,1.2388929761469363,1.9949083275705575
1789252707120646100,3.040646240234375,-0.3818193429544568,1.5150935975492,2.2391887930989265
1789252707130699300,3.05069921875,-0.6864794583827257,1.571108914759755,2.555563603979349
1789252707140752400,3.06075244140625,-1.1536413353189825,1.3504244288742542,2.98695595613718
1789252707150805200,3.07080517578125,-1.6479264892414212,0.8844124526254832,3.1227778005123135
1789252707160858000,3.080858154296875,-1.8366659770727156,0.4167004675257951,2.9437650491863487
1789252707170911200,3.0909111328125,-1.451987445294857,0.16217340633645652,3.428222052055597
1789252707180964400,3.10096435546875,-0.5738198784083127,0.09780044901669024,4.6089475013941525
1789252707191017200,3.111017333984375,0.7486106281250715,0.17683190015554426,5.842170615211129
1789252707201070300,3.1210703125,2.566576873163879,0.6461263321410864,6.942755775386095
1789252707211123200,3.131123291015625,4.489080181998014,1.520998145417869,7.184592939415574
1789252707221176300,3.14117626953125,5.862955629086494,2.622069335544109,6.449677659165859
1789252707231229200,3.151229248046875,5.970664893177151,3.601153437641263,5.085868848061561
1789252707241282300,3.1612822265625,4.839083998496831,3.822857914224267,3.1143244449436662
1789252707251335400,3.17133544921875,3.783880825576186,3.0447575722426174,1.080847609525919
1789252707261388300,3.18138818359375,2.8754131052330134,2.0840897090628743,-0.7044254494398832
1789252707271441200,3.191441162109375,1.8055416477516293,1.3400731307297944,-2.3327204787552356
1789252707281494300,3.201494384765625,0.7835054158955812,0.7446203163798898,-3.7588457530409096
1789252707291547400,3.21154736328125,-0.15532617079019545,0.22690781737975774,-4.707236610710621
1789252707301600300,3.221600341796875,-0.9610884266793728,-0.2213428036637604,-5.118334362858533
1789252707311653400,3.2316533203125,-1.564529536369443,-0.5483099549029022,-5.2277404939949506
1789252707321706200,3.241706298828125,-1.76043497030735,-0.7813924423296004,-4.991100898608565
1789252707331759000,3.251759033203125,-1.262550915110111,-0.8937290008947253,-4.376224787190556
1789252707341812500,3.2618125,-0.2528004565924406,-0.667742170817405,-3.63885042335093
1789252707351865300,3.271865234375,0.8463327512085437,-0.08784363008253276,-2.99318579043746
1789252707361918200,3.281918212890625,2.015044522148371,0.5440411184772849,-2.358648700737953
1789252707371971300,3.291971435546875,3.206844323208928,0.9751441322997212,-1.711057483676076
1789252707382024200,3.302024169921875,4.191305442169308,1.132388338605687,-1.125842351028323
1789252707392077300,3.312077392578125,4.610470765438675,1.0322052322361617,-0.6961603099197149
1789252707402130400,3.32213037109375,4.090935434925556,0.5981058130767196,-0.46722529756128783
1789252707412183300,3.332183349609375,3.1615333553642033,0.06443345533534885,-0.4474006531506777
1789252707422236200,3.342236083984375,2.306506425568461,-0.42160219502747054,-0.41906303193867206
1789252707432290300,3.352290283203125,1.629114529004693,-0.7402670896064489,-0.48219490315616126
1789252707442343200,3.36234326171875,1.0584519455835222,-0.8571796508502215,-0.5855623386502266
1789252707452396000,3.37239599609375,0.4525526290863752,-0.7823477702930569,-0.6754401779741048
1789252707462449400,3.382449462890625,0.08322773378491401,-0.7102103164516389,-0.7165291442096233
1789252707472502300,3.392502197265625,-0.09561199906170367,-0.7249998893044889,-0.7090069320112466
1789252707482555100,3.40255517578125,-0.3101151659637689,-0.6260716053016483,-0.7495569690644741
1789252707492608300,3.412608154296875,-0.4708703760653734,-0.5082857683546841,-0.8647925370067358
1789252707502661000,3.4226611328125,-0.5970081540331245,-0.5312607665549963,-1.1695680955082177
1789252707512714500,3.432714599609375,-0.6375152287274599,-0.6165211752112955,-1.5235405233770607
1789252707522767400,3.442767333984375,-0.6006424188822508,-0.810819685409218,-1.6126824496418237
1789252707532820200,3.4528203125,-0.7320505384683609,-1.0993512344658374,-1.558990022420883
1789252707542873300,3.462873291015625,-1.0645844569891691,-1.3361346222370862,-1.334096394407749
1789252707552926200,3.47292626953125,-1.314208037111163,-1.5250953516036272,-1.0614274542629718
1789252707562979300,3.482979248046875,-1.5360174353733658,-1.603286260265112,-0.9416472286283969
1789252707573032400,3.493032470703125,-1.6079174271970986,-1.4701622766718268,-0.7422866858005523
1789252707583085300,3.503085205078125,-1.6487983036398888,-1.2436385632388294,-0.44950376290977
1789252707593138200,3.51313818359375,-1.7325702273041008,-0.9675148064650595,-0.17238778022825718
1789252707603191300,3.52319140625,-2.0000109114065765,-0.6848441122658551,-0.003543371695280075
1789252707613244400,3.533244384765625,-2.2756851708471775,-0.47123117220178246,0.08805179294049739
1789252707623297300,3.54329736328125,-2.5366502291947604,-0.3742861709706485,0.19251696054339407
1789252707633350400,3.553350341796875,-2.8049215189024803,-0.3816080382913351,0.33293665410280227
1789252707643403300,3.5634033203125,-3.136396868281066,-0.5743135071441531,0.6213134509891272
1789252707653456100,3.5734560546875,-3.20590791914165,-0.8887960745371878,0.9192378284215926
1789252707663509200,3.58350927734375,-3.0390935551315543,-1.2696151544079184,1.422628079819679
1789252707673562400,3.593562255859375,-2.531936060154438,-1.585982366503775,1.846891018489003
1789252707683615200,3.603615234375,-1.8365642702639102,-1.7681337081164121,2.2806565295189616
1789252707693668400,3.61366845703125,-1.4755138668328522,-1.8285634807683526,2.675572962194681
1789252707703721200,3.62372119140625,-1.2858119637101888,-1.897483433867991,2.920779894918203
1789252707713774000,3.633774169921875,-0.806508690342307,-1.9007332294441759,3.1494775913894175
1789252707723827500,3.643827392578125,-0.07598316948413848,-1.871559595799446,3.4311768102079627
1789252707733880300,3.65388037109375,0.5338602084636688,-1.8111663557656108,3.6125983762413263
1789252707743933200,3.66393310546875,0.7438689865559339,-1.5319845265954732,3.677143036866188
1789252707753986300,3.673986328125,0.4906687169909477,-1.0165022708654403,3.7133360477536916
1789252707764039200,3.6840390625,0.3986299002408981,-0.2300100942440331,4.205667729520798
1789252707774092300,3.69409228515625,0.7242986091673373,0.6645980275727809,5.059420986118912
1789252707784145400,3.7041455078125,1.4111357949465513,1.4676333427160977,6.011819325864315
1789252707794198300,3.7141982421875,2.1753949508413672,1.959934921605885,6.508173687276244
1789252707804251100,3.724251220703125,2.844896678677201,1.8816038738213479,6.299456702560186
1789252707814304300,3.73430419921875,3.1617437832444906,1.292278383245319,5.290246926790475
1789252707824358100,3.744358154296875,2.7151164525538682,0.5568666977807879,3.679906071838736
1789252707834411300,3.754411376953125,2.162397814363241,-0.12149199798852205,1.893091044127941
1789252707844464400,3.76446435546875,2.1159707019701597,-0.7698952620856463,0.1749777967214584
1789252707854517200,3.774517333984375,2.246971702060103,-1.1376767273373902,-1.499541223630309
1789252707864570400,3.7845703125,1.9079519286513327,-1.1729463397696613,-3.072155282256007
1789252707874623200,3.794623291015625,1.110314527028799,-1.0668269752189516,-4.250459057405591
1789252707884676000,3.804676025390625,0.3172720519810915,-0.9364883845604955,-4.941451024776697
1789252707894729500,3.8147294921875,-0.24503391424417495,-0.8264915940545499,-5.232826418957114
1789252707904782300,3.8247822265625,-0.3652946168720722,-0.6097670978412032,-5.228989032751321
1789252707914835200,3.834835205078125,-0.012897475495934486,-0.37329555249810215,-4.746982345643639
1789252707924888300,3.844888427734375,0.3002098580211401,-0.2639808990374207,-4.089575252488255
1789252707934941200,3.854941162109375,0.629057196983695,-0.20304244621098042,-3.5481168439805506
1789252707944994300,3.864994384765625,1.1862807453781365,-0.16604235672429202,-2.9814585277646777
1789252707955047400,3.87504736328125,1.863053048738837,-0.14234087088033556,-2.5558669708400963
1789252707965100300,3.885100341796875,2.70023043358922,-0.21148001968860625,-2.3276684560626744
1789252707975153200,3.895153076171875,3.4768981124192475,-0.34909839209169147,-2.077853737282753
1789252707985206300,3.905206298828125,3.8356332246452567,-0.36865094156265255,-1.9771353549927473
1789252707995259400,3.91525927734375,3.5789395600065586,-0.31137612581029533,-2.038686679020524
1789252708005312300,3.925312255859375,2.779360668927431,-0.17508607940152288,-2.149538917312026
1789252708015365400,3.935365478515625,2.260277466095984,0.10876710258051753,-2.392315408018231
1789252708025418200,3.945418212890625,1.996623314794898,0.5315376107349992,-2.8777362874835726
1789252708035471000,3.95547119140625,1.5137363377213477,0.8204850471161306,-3.2470676125258207
1789252708045524500,3.9655244140625,0.7992401606440543,0.8406422844819724,-3.206027161607146
1789252708055577300,3.975577392578125,0.15398936922848225,0.8850669710114598,-2.952227757105231
1789252708065630200,3.985630126953125,-0.22950696702748535,1.0597602517031133,-2.767162866133451
1789252708075683300,3.995683349609375,-0.31896687320023775,1.3172227087572217,-2.5769471682697533
1789252708085736200,4.005736083984375,-0.31311960847675796,1.5258884016774594,-2.3400930533498525
1789252708095789300,4.015789306640625,-0.3075859397470951,1.6373407978191972,-1.9563591089457273
1789252708105842400,4.025842529296875,-0.3740133453786373,1.7553319480799137,-1.6701339371353388
1789252708115895300,4.035895263671875,-0.4712058916300535,1.787031154679507,-1.3632067535579204
1789252708125949000,4.045948974609375,-0.6201651577368378,1.705546319039166,-1.0506213980883359
1789252708136001800,4.056001708984375,-0.8668038768291473,1.5042328885778784,-0.6616846243441105
1789252708146055000,4.066054931640625,-1.2986498179733752,1.0741887361586093,-0.3912175781577825
1789252708156107800,4.076107666015625,-1.8912229121685027,0.4442781372159719,-0.06937514952123165
1789252708166161000,4.086160888671875,-2.5455869843661785,-0.2408899463072419,0.31128713235259053
1789252708176214000,4.096214111328125,-3.3202181889325377,-0.8901499733641743,0.6973439667463303
1789252708186267000,4.106266845703125,-4.051306019848585,-1.4217111111052334,1.1484271078020334
1789252708196319700,4.11631982421875,-4.575703987962007,-1.8195048527829347,1.766930762067437
1789252708206372900,4.126372802734375,-4.803478432108461,-1.8955157870568333,2.321863569176197
1789252708216426000,4.136426025390625,-4.7435684455469245,-1.6500750455774367,2.476929627725482
1789252708226480000,4.146480224609375,-4.330089351220429,-1.2289581498488784,2.2212305270820853
1789252708236533000,4.156532958984375,-3.7422564372897145,-0.6591486761257052,1.665484065502882
1789252708246585900,4.1665859375,-3.088082626967132,-0.050908057199418544,1.1503215432465075
1789252708256639000,4.176638916015625,-2.4393632826581597,0.5878995494261383,0.7956435974568128
1789252708266691800,4.18669189453125,-1.773764407479763,1.2945225089102983,0.672226476624608
1789252708276745000,4.196744873046875,-1.1095689693585038,2.0232547166109085,0.8149848422646522
1789252708286798000,4.206798095703125,-0.6267223242953419,2.797708811044693,0.9862018251478671
1789252708296851000,4.216850830078125,-0.42006548697948454,3.450181078146398,1.154835805800557
1789252708306903800,4.22690380859375,-0.4693550030663609,3.8434482823103666,1.4943348871588706
1789252708316957000,4.23695703125,-0.348800870449841,3.656052902564406,1.8594120618879795
1789252708327009800,4.247009765625,0.11823591880202293,2.884708756844699,2.698184022453427
1789252708337063000,4.25706298828125,0.7887064916700124,2.0043883958384394,4.01834132335782
1789252708347116000,4.267115966796875,1.7278917140990495,1.4565250887244938,5.171535791692137
1789252708357169000,4.2771689453125,2.944716066300869,1.3563213779583572,5.923395192480087
1789252708367221800,4.2872216796875,4.156189705124497,1.537864378414303,6.031774318656325
1789252708377275000,4.29727490234375,4.662369879502058,1.8349091965332627,5.398843495109677
1789252708387328000,4.307327880859375,3.8938413757249712,2.0493517192892727,4.0725440381884574
1789252708397380900,4.317380859375,2.916613130627572,1.9457028365053235,2.319610821813345
1789252708407434000,4.32743408203125,2.4459838698416947,1.5105221979804335,0.7470137143224478
1789252708417486800,4.33748681640625,2.125474443374574,0.9337455155931412,-0.2970183685034513
1789252708427539700,4.347539794921875,1.6891308985501527,0.46621612051874395,-1.1353349865168332
1789252708437593000,4.357593017578125,1.1362748977154493,0.10604016183465718,-1.9813164400696752
1789252708447646000,4.36764599609375,0.602165682926774,-0.21497005376145242,-2.7065876936614512
1789252708457698800,4.37769873046875,0.19422610254883765,-0.6327230260148644,-3.2602854060173034
1789252708467752000,4.387751953125,0.09646540102064609,-1.1084528248101473,-3.401498880302906
1789252708477804800,4.3978046875,0.36555151424258947,-1.596696214350313,-3.1409616919785734
1789252708487858000,4.40785791015625,0.9637000704824924,-2.050892957381904,-2.5849673931181427
1789252708497911000,4.4179111328125,1.590238270382583,-2.2578205744631585,-2.0573294201701877
1789252708507964000,4.4279638671875,2.111938377714157,-2.1719128078140315,-1.5109394004791974
1789252708518016800,4.438016845703125,2.5234160690903664,-1.8939431309126316,-0.9808546189010142
1789252708528070000,4.44806982421875,2.8401588365003465,-1.4462782738678157,-0.5764753613531589
1789252708538123000,4.458123046875,2.9294775806367395,-0.933816827263683,-0.4514250863611698
1789252708548176000,4.46817578125,2.679342251600325,-0.47740372335687276,-0.6009674130529165
1789252708558229000,4.47822900390625,2.3553286164045333,-0.12535568767935037,-0.8533277246624231
1789252708568281900,4.48828173828125,2.0194401267588136,0.0915805515885353,-1.2384224360257385
1789252708578334700,4.498334716796875,1.5387252330273389,0.22833266255110501,-1.5973293976873157
1789252708588387800,4.508387939453125,1.0441963334769009,0.33385946803614497,-1.8326286843806505
1789252708598441000,4.51844091796875,0.6990232981353998,0.35536826614141465,-2.056829069432616
1789252708608493800,4.528493896484375,0.32296909457892176,0.3040504590973258,-2.183636417225003
1789252708618547000,4.538546875,-0.05167933383285999,0.22305194566920397,-2.212741515678167
1789252708628599800,4.548599853515625,-0.32665129022300243,0.10953808695301413,-2.1282921311438083
1789252708638653000,4.55865283203125,-0.5239169065982103,-0.037523090447485447,-1.8859651377707718
1789252708648706000,4.5687060546875,-0.6392316772565245,-0.2241026237659156,-1.567850789746642
1789252708658759000,4.578759033203125,-0.568951687850058,-0.43889030669778584,-1.2057996848404406
1789252708668811800,4.588811767578125,-0.42924481873512266,-0.6975825978077947,-0.9396545935064554
1789252708678866000,4.598865966796875,-0.3730032915532589,-0.9925717985711991,-0.8217880925387143
1789252708688918800,4.608918701171875,-0.3860381296932697,-1.2866519216656684,-0.8050795343220234
1789252708698972000,4.618971923828125,-0.3469938210278749,-1.528681247266382,-0.9214519973397255
1789252708709025000,4.62902490234375,-0.3116226479172706,-1.7433428196005523,-1.0332786336213349
1789252708719078000,4.639077880859375,-0.370845236736536,-1.880048168811947,-1.0609428856164216
1789252708729131000,4.649131103515625,-0.5361877746284007,-1.8650934685252605,-1.0184960750311614
1789252708739183900,4.659183837890625,-0.7336492058366537,-1.7032095466546713,-0.9372299967080354
1789252708749236700,4.66923681640625,-0.9058838413298129,-1.4986783231906593,-0.7461568052321672
1789252708759289900,4.679289794921875,-1.1202221730589865,-1.241318888119608,-0.4523538916438818
1789252708769343000,4.689343017578125,-1.4462681908652186,-0.9272963394537568,-0.04566109645664692
1789252708779395800,4.699395751953125,-1.9289713358044622,-0.587941342741251,0.4541273310571909
1789252708789449000,4.709448974609375,-2.424602643638849,-0.3063843088723719,0.8917243830740451
1789252708799501800,4.719501708984375,-2.901816835772991,-0.046628626314550635,1.3384031516909598
1789252708809554700,4.7295546875,-3.153941585060954,0.1327899293333292,1.4699170697391033
1789252708819608000,4.739608154296875,-3.4430215617805717,0.21993615173622966,1.7581851455539463
1789252708829661000,4.749660888671875,-3.6172380187407134,0.22205913523957133,1.837099692314863
1789252708839713800,4.7597138671875,-3.6966006015300747,0.1397982006601989,1.7818419154733418
1789252708849767000,4.769766845703125,-3.4813027771189806,-0.19368045136481524,1.6973504453629253
1789252708859819800,4.77981982421875,-2.758589683577418,-0.7812320641361177,1.738765574812889
1789252708869873000,4.789872802734375,-1.8826777866631745,-1.3719718054242431,2.12353295391798
1789252708879926000,4.799926025390625,-0.8910518906399607,-1.8112362061314284,2.693021525123715
1789252708889979000,4.809978759765625,0.03693623047024011,-1.9357703482948243,3.2492566470026967
1789252708900031700,4.82003173828125,0.658043052971363,-1.6057202094137668,3.65839566629827
1789252708910084900,4.8300849609375,0.8190022612124681,-0.8246716851510107,3.9861587171554564
1789252708920138000,4.840137939453125,0.7381696058705449,0.002160831295698881,4.444352566999196
1789252708930190800,4.85019091796875,0.9580717092067003,0.5739999111503362,5.0937914577543735
1789252708940244000,4.860243896484375,1.6528285820692776,0.915607947486639,5.610594732955098
1789252708950296800,4.870296875,2.4144582662433383,0.9298363793253898,5.911292082232237
1789252708960349700,4.880349609375,3.2418273737847803,0.5187777901440859,5.965167464804649
1789252708970403000,4.890403076171875,3.77061276320219,-0.19794819181188938,5.537378690096736
1789252708980456000,4.9004560546875,3.5920004093706606,-0.8020194160990417,4.302723497650027
1789252708990508800,4.9105087890625,2.903808301851153,-1.1822687332578004,2.387707621961832
1789252709000562000,4.92056201171875,2.0751313265815376,-1.3625906674861907,0.2938584431678056
1789252709010614800,4.93061474609375,1.765835952568054,-1.4679748496301472,-1.5295400560528039
1789252709020668000,4.94066796875,1.5522937396526335,-1.4800453727826475,-3.1542303388744592
1789252709030721000,4.950720947265625,0.9674483171001076,-1.3623444376401603,-4.48302511974275
1789252709040774000,4.96077392578125,0.3719163730993867,-1.168139962401241,-5.281907552990317
1789252709050826800,4.97082666015625,0.0035091771647334097,-0.8671730024024844,-5.391229512974619
1789252709060880000,4.9808798828125,0.11542232268601656,-0.45036710174083705,-4.969181327745318
1789252709070933000,4.99093310546875,0.6411687827989458,0.006021159985661506,-4.07632531029284
1789252709080985900,5.00098583984375,1.1442471917688846,0.40537762093544005,-3.0721652191281317
1789252709091039000,5.0110390625,1.6272086953833698,0.6578799713641404,-2.182456267529726
1789252709101091800,5.021091796875,2.3245389258652924,0.6231036954067647,-1.4280729012221096
1789252709111144700,5.031144775390625,3.2846810116052625,0.3798981656335294,-0.7011871981710195
1789252709121197800,5.04119775390625,3.9233196914047,0.07001724681705236,-0.21387071421742437
1789252709131251000,5.0512509765625,3.7969858063429593,-0.2201031788662076,-0.170357151183486
1789252709141303800,5.0613037109375,3.1551731726825234,-0.3960008669115603,-0.6253992589980364
1789252709151357000,5.07135693359375,2.4032851303219793,-0.348028717033565,-1.4334019872903823
1789252709161409800,5.081409912109375,1.7513380561381577,-0.17015169173926115,-2.209977896183729
1789252709171464000,5.0914638671875,1.2189955587610601,0.03874094180464745,-2.724683906844258
1789252709181516000,5.10151611328125,0.7574883465856314,0.23759382737129925,-3.0619670657187696
1789252709191570000,5.11156982421875,0.3870265562087297,0.383782751981914,-3.223386877208948
1789252709201623000,5.121623046875,0.021472996139526367,0.4601879462704062,-3.144927673000097
1789252709211676000,5.131676025390625,-0.3058651073038578,0.4818377602815628,-2.8524527931451797
1789252709221728800,5.141728759765625,-0.4377303230077028,0.549681608582288,-2.5184692603379486
1789252709231782000,5.151781982421875,-0.38569355403929945,0.6705122200526297,-2.2110586771577596
1789252709241834800,5.161834716796875,-0.3158732910990715,0.8253387707576155,-1.903339466419816
1789252709251887900,5.171887939453125,-0.36746728473603724,0.9966009079568088,-1.5965116515636444
1789252709261941000,5.18194091796875,-0.5114686361745,1.142700254587829,-1.3488497269034385
1789252709271993900,5.191993896484375,-0.6722369980186224,1.2376013289012013,-0.9519576102405786
1789252709282046700,5.202046630859375,-0.8786088809132575,1.120711271750182,-0.21888766559660433
1789252709292099800,5.212099853515625,-1.406591429515183,0.7383237735189497,0.4923422031611204
1789252709302153000,5.222153076171875,-2.2853584235996007,0.2804110787041485,0.8627157307326793
1789252709312205800,5.232205810546875,-3.196596485438943,-0.1403814073756337,1.0244336483865977
1789252709322259000,5.242259033203125,-3.9431159865036602,-0.5421379152044653,0.9126011668860912
1789252709332311800,5.252311767578125,-4.276913933610916,-0.7971068018771708,0.516834254860878
1789252709342364700,5.26236474609375,-4.213123890745639,-0.9412271035201847,0.050233811199665065
1789252709352418000,5.27241796875,-4.084191805884242,-1.0266194679930805,-0.27053426620364185
1789252709362471000,5.282470947265625,-3.9840544383525844,-0.9514331479750573,-0.34221593910157677
1789252709372523800,5.292523681640625,-3.676310677695274,-0.5968911035247146,-0.27260581178069115
1789252709382577000,5.302576904296875,-3.127053578135371,-0.11714797743484377,-0.03682838618159294
1789252709392629800,5.312629638671875,-2.596733526496589,0.36545550652220843,0.297615749874711
1789252709402683000,5.322682861328125,-2.271226730133593,0.7069130284719168,0.6688835959374905
1789252709412736000,5.332736083984375,-1.988972800041735,0.9634918345592915,1.0194453385800122
1789252709424047000,5.344047119140625,-1.1238017851114273,1.3972032773144543,1.1578525232732295
1789252709434100000,5.354099853515625,-1.1659086962178349,1.4156241924069821,1.1710808381587265
1789252709444152800,5.36415283203125,-0.6750394882187247,1.6328170367844401,1.0864438220977783
1789252709454206000,5.3742060546875,-0.35243133590668435,1.7265055204376578,1.1661439662784336
1789252709464258800,5.3842587890625,-0.21765257084369657,1.6238053166806696,1.4618348855704069
1789252709474312000,5.39431201171875,-0.3259127468153834,1.3127293428607285,1.8352227925270794
1789252709484365000,5.404364990234375,-0.5222384519919753,0.8989994886435568,2.268302659380436
1789252709494418000,5.41441796875,-0.578644229824841,0.5262438882410526,2.934305146923661
1789252709504470800,5.424470703125,-0.1974088242381811,0.35610987828895446,3.8530437936514614
1789252709514524000,5.43452392578125,0.6315738559797406,0.4881758772619068,4.890664840391278
1789252709524577000,5.444576904296875,1.8018337331444023,1.0764810848794877,5.916956683865189
1789252709534630000,5.4546298828125,3.0392239035129545,2.0429894907809794,6.620618747717142
1789252709544683000,5.46468310546875,3.800180802991986,3.058929889979958,6.662604370531439
1789252709554735900,5.47473583984375,3.9014927672609683,3.8372377372324467,5.771417163074016
1789252709564788700,5.484788818359375,3.8112913950711484,4.154969223418831,4.113621313986182
1789252709574841900,5.494841796875,3.82204104488343,3.781503575050831,2.1295821709543463
1789252709584895000,5.50489501953125,3.668349489557743,2.9481238289177414,0.29779402905106545
1789252709594947800,5.51494775390625,3.125356126567721,1.9444946297593413,-1.4754390480309725
1789252709605001000,5.5250009765625,2.2286142075926065,0.9910499958314001,-3.0670483145058154
1789252709615053800,5.5350537109375,1.1895379936084152,0.1306876963570714,-4.0237475663155315
1789252709625106700,5.545106689453125,0.23339608342051504,-0.6150320326320826,-4.490619812655448
1789252709635160000,5.55516015625,-0.5069914907604456,-1.2303386444218456,-4.750379002344608
1789252709645213000,5.565212890625,-0.9390145420372485,-1.8073424135632812,-4.787181085041165
1789252709655265800,5.575265869140625,-1.121691076567769,-2.31513484544307,-4.369232151824236
1789252709665319000,5.58531884765625,-1.011252679774165,-2.794386680884659,-3.6130543033152818
1789252709675371800,5.595371826171875,-0.49125645375102756,-3.088772655057907,-2.5825942342460153
1789252709685425000,5.6054248046875,0.5582248343914747,-3.0423943502426147,-1.5410270802289248
1789252709695478000,5.61547802734375,1.9987340233385562,-2.693240136310458,-0.7110299622714519
1789252709705531000,5.62553076171875,3.2564059342354534,-2.2341218650981784,-0.29256431170403957
1789252709715583700,5.635583740234375,3.9664299343347547,-1.6603563472256064,-0.3061608753800392
1789252709725636900,5.645636962890625,3.914915435674786,-1.0379893685955555,-0.6018482875406742
1789252709735690000,5.65568994140625,3.255314924128353,-0.6620830490771681,-0.8070172243863344
1789252709745742800,5.665742919921875,2.5915292358517643,-0.5068400265257805,-0.9447358422935008
1789252709755796000,5.6757958984375,2.1048142249226567,-0.5103590674974025,-1.0019938530415295
1789252709765848800,5.685848876953125,1.5500222875893115,-0.47989035254083573,-0.9692109428584575
1789252709775901700,5.695901611328125,0.8969529313772916,-0.373344360075891,-0.9922171399146318
1789252709785955000,5.705955078125,0.30582565207630397,-0.27108831988982857,-1.0316291128486395
1789252709796008000,5.716008056640625,-0.18606559244692325,-0.20487243811711667,-1.1505705495715142
1789252709806060800,5.726060791015625,-0.5690519333541393,-0.19476298590451477,-1.1562211226791144
1789252709816114000,5.736114013671875,-0.7611381012648344,-0.2344577213026583,-1.1185936950743198
1789252709826166800,5.746166748046875,-0.9116068951517343,-0.285916178926453,-1.1114046603530645
1789252709836220000,5.756219970703125,-1.1514189830943942,-0.32837029603533446,-0.9800468096494674
1789252709846273000,5.76627294921875,-1.3136962881967424,-0.3117784230008721,-0.7647761655062436
1789252709856326000,5.776325927734375,-1.3564175318092107,-0.3181869018036872,-0.5978121638923883
1789252709866378800,5.786378662109375,-1.3581871718302367,-0.2694613762751222,-0.5100508783310651
1789252709876432000,5.796431884765625,-1.4432219550371168,-0.21128354726843535,-0.5097995339185
1789252709886484700,5.806484619140625,-1.6178057840049267,-0.1451825240470469,-0.6281991188496351
1789252709896537900,5.816537841796875,-1.9365709971532223,-0.10044504524134099,-0.8110124315023421
1789252709906591000,5.826591064453125,-2.323434179493785,-0.07195194120667875,-1.0229548080056905
1789252709916643800,5.836643798828125,-2.4844991861969232,-0.015149638336896896,-1.1048024856090546
1789252709926696700,5.84669677734375,-2.353799507141113,0.04738748185783624,-0.9568839607268571
1789252709936749800,5.856749755859375,-2.1385618884846567,0.1186705108270049,-0.654833443275094
1789252709946803000,5.866802978515625,-1.9903747757941483,0.11978241759166121,-0.22594401384890078
1789252709956855800,5.876855712890625,-1.835660014900565,0.030654081460833548,0.2787508904069662
1789252709966909000,5.886908935546875,-1.6198182928711176,-0.1241482115857303,0.7121095742017031
1789252709976961800,5.8969619140625,-1.4610168471857905,-0.29319617986679075,0.9608522798359393
1789252709987015000,5.907014892578125,-1.3096046349689363,-0.4807800679221749,1.0779033727675675
1789252709997068000,5.917068115234375,-1.1828721059784293,-0.60114744579494,1.1253396622031926
1789252710007121000,5.927120849609375,-1.157883502933383,-0.7148632568240165,1.141601645696163
1789252710017174000,5.937174072265625,-1.156922548946738,-0.9508714224390685,1.3002128295063973
1789252710027227000,5.947226806640625,-1.0356120450049637,-1.4023730811677872,1.6440584156364202
1789252710037279700,5.95727978515625,-0.778824564602971,-1.9589453260466456,2.152280909496546
1789252710047333000,5.9673330078125,-0.390957465916872,-2.45298644208014,2.6749621368199583
1789252710057386000,5.977385986328125,-0.03312193287909031,-2.8087960222482677,3.222985310670733
1789252710067438800,5.98743896484375,0.10623159275352954,-2.9096336470037696,3.7054134380608796
1789252710077492000,5.997491943359375,-0.3434600939437747,-2.385395984018594,3.622524726971984
1789252710087544800,6.007544921875,-1.0916782156199216,-1.2533626693956552,3.501591824170947
1789252710097598000,6.017597900390625,-1.1240569289162754,-0.0771248868651688,4.090542051693797
1789252710107651000,6.027651123046875,-0.27549510348141193,0.8251008703485131,5.099326880049706
1789252710117704000,6.037703857421875,0.9420230762034654,1.3325934424988926,6.019217034900188
1789252710127756800,6.0477568359375,1.8450182103544472,1.3308343238718807,6.488842963862418
1789252710137809700,6.0578095703125,2.3915394552096725,0.7694852199800312,6.439383644166589
1789252710147862800,6.06786279296875,2.889686837518215,-0.3524573471307754,5.7115159443408245
1789252710157916000,6.077916015625,2.8336487239539623,-1.5711850487358867,3.8874271247684953
1789252710167968800,6.08796875,1.676060404574871,-2.212821156785637,1.5089268916130065
1789252710178023000,6.09802294921875,0.3873983121305704,-2.306137884517014,-0.46511751162707804
1789252710188074800,6.10807470703125,0.01550327408015728,-2.1818092017978428,-2.1494389640688896
1789252710198128600,6.118128662109375,0.27372400215566156,-1.8547898089148103,-3.6657676563709973
1789252710208181800,6.128181640625,0.4790127659887075,-1.3325721074499188,-4.825724458447098
1789252710218235000,6.13823486328125,0.5421329467684031,-0.6393978276036679,-5.775206618484854
1789252710228287700,6.148287841796875,0.8485849140495061,0.06813435567989945,-6.326189811185002
1789252710238340900,6.1583408203125,1.1241735410332678,0.70951824253425,-6.428317475751042
1789252710248393700,6.168393798828125,1.2379969040900467,1.2185562905609606,-5.8813756673961874
1789252710258446600,6.178446533203125,1.7320581861287354,1.5902163508117197,-4.6089679596602915
1789252710268500000,6.1885,3.088791359758377,1.6193657267980277,-2.9974288348346945
1789252710278552800,6.198552734375,4.405374309307336,1.4626780583962797,-1.530774566283822
1789252710288605700,6.208605712890625,4.906285603371262,1.355587949117273,-0.7004425172835588
1789252710298658800,6.218658935546875,4.62629611108005,1.110511364775151,-0.2163753905147314
1789252710308711700,6.228711669921875,3.6982892852693796,0.7147874151088297,-0.24985621983408926
1789252710318764800,6.238764892578125,2.432051790601015,0.09160130211561918,-0.7248837155789136
1789252710328818000,6.24881787109375,1.430989080929756,-0.49406142816916104,-1.3170739479362963
1789252710338870800,6.258870849609375,0.7675631658762693,-0.8470327161714434,-1.7407564563691615
1789252710348923600,6.268923583984375,0.3047346419692039,-0.9033671823337673,-2.018285111504793
1789252710358976800,6.278976806640625,-0.28085078529566526,-0.7673781646981835,-2.0030618234097957
1789252710369030000,6.28902978515625,-0.9202017050176858,-0.5443769263029098,-2.0068220527261493
1789252710379082800,6.299082763671875,-1.2847040024682879,-0.34310338946059343,-1.7375819179862737
1789252710389136000,6.309135986328125,-1.3838216715633869,-0.19506722954809663,-1.330702075794339
1789252710399188700,6.319188720703125,-1.3096522735029459,-0.08417758185565472,-0.8539385500371456
1789252710409241600,6.32924169921875,-1.2130886728048325,0.04003390422463417,-0.31968612738549707
1789252710419294700,6.339294677734375,-1.1347416967988013,0.19328370713219045,0.07708382420241833
1789252710429347800,6.349347900390625,-1.0390794288545846,0.34290976658463473,0.3039268327176571
1789252710439400700,6.359400634765625,-1.0800246027052403,0.5104359321258962,0.3483978426069021
1789252710449453800,6.369453857421875,-1.2023159343779086,0.7440354291640222,0.13636369616687297
1789252710459506700,6.379506591796875,-1.4319079493403435,0.9719389065176248,-0.40143268270194526
1789252710469559600,6.3895595703125,-1.6627935112446546,1.2138356917798518,-1.2335843483448028
1789252710479613000,6.399613037109375,-1.955923055616021,1.3249306527860463,-1.9033581711202858
1789252710489665800,6.409665771484375,-2.402765198101103,1.3211841597341,-2.2286159611582756
1789252710499718700,6.41971875,-2.981428132626414,1.092858803706616,-2.127701764035225
1789252710509771800,6.429771728515625,-3.4107898557394742,0.6325453313603997,-1.6263491559445857
1789252710519824600,6.43982470703125,-3.48052127135247,0.1657620784781873,-0.9329641559571027
1789252710529877800,6.449877685546875,-3.315967545750737,-0.2328125844441354,-0.18476093958914278
1789252710539931000,6.459930908203125,-3.0803491101056335,-0.5092924611791968,0.4027075249433517
1789252710549983700,6.469983642578125,-2.8704513911724088,-0.6870300780028105,0.7945692462235688
1789252710560036600,6.48003662109375,-2.5901731450676917,-0.7805516806565225,0.9557523263484239
1789252710570089700,6.49008984375,-2.2812615096747875,-0.8016897457532585,1.0181862784296274
1789252710580142800,6.500142822265625,-1.8517936958387493,-0.6766529147647321,1.1359949117302894
1789252710590195700,6.51019580078125,-1.2357163919374345,-0.32276027413383124,1.318175187176466
1789252710600248800,6.520248779296875,-0.5200491252541541,0.24535306319594383,1.4191308853536844
1789252710610301700,6.5303017578125,0.05137888958156109,0.9337713806867599,1.4606927297979593
1789252710620354600,6.5403544921875,0.3312245894879102,1.559145651374012,1.6016133586168289
1789252710630408000,6.550407958984375,0.20438830786198375,1.9426796892918645,1.9112363571494817
1789252710640460800,6.560460693359375,-0.24867986953109503,1.9594034450776874,2.20717862085402
1789252710650513700,6.570513671875,-0.6929401788294315,1.668787929353863,2.517093880331516
1789252710660566800,6.58056689453125,-0.7549491834968328,1.2065541564695537,3.229011146831512
1789252710670619600,6.59061962890625,-0.21174130097329616,0.8168984938662499,4.387862618014216
1789252710680672800,6.6006728515625,0.7612579282522202,0.6890723244201391,5.725676571640372
1789252710690726000,6.610725830078125,2.066872324541211,1.016843923909962,6.933013549050688
1789252710700778800,6.62077880859375,3.514780391567945,1.8310548591926692,7.457043852895498
1789252710710831900,6.630831787109375,4.730786997646093,2.739701735495031,7.0370713048964735
1789252710720884700,6.640884765625,5.228365347895026,3.483338959121704,5.910673658072948
1789252710730937600,6.6509375,4.885763624346256,3.5892344517886636,4.166168662825227
1789252710740991000,6.660990966796875,4.360597594469786,2.908433623564243,1.9586264693558215
1789252710751043800,6.6710439453125,3.7175253161370754,2.0583225228607653,-0.04053074783086776
1789252710761096700,6.6810966796875,3.0082594409286973,1.4442172496847807,-1.543233065840602
1789252710771149800,6.69114990234375,2.1915502590894698,0.8609244634017348,-2.8975913270324467
1789252710781202700,6.70120263671875,1.1026774562790989,0.2835501073822379,-3.9957869617223736
1789252710791255800,6.711255859375,0.13621230499744413,-0.36622649089470505,-4.415349759876728
1789252710801309000,6.721308837890625,-0.47093408895134925,-0.9587447861626743,-4.3838060360997915
1789252710811361800,6.73136181640625,-0.8183373675629496,-1.4355319850564001,-4.055146913185715
1789252710821414700,6.74141455078125,-0.8697413915857672,-1.8437027438417075,-3.508680321127176
1789252710831467800,6.7514677734375,-0.6444973426997661,-2.1306346026167273,-2.949868042236566
1789252710841521000,6.76152099609375,-0.03955868792831897,-1.9945923934891818,-2.3663357481092215
1789252710851573800,6.77157373046875,0.9474354566410184,-1.5807181623652578,-1.9128467149555681
1789252710861627000,6.781626953125,2.426543840834498,-1.1994956162601709,-1.4828005167096852
1789252710871679700,6.7916796875,3.8334552960842845,-0.9145315504267811,-1.1293699406325817
1789252710881732600,6.801732666015625,4.4583764161765576,-0.7294784960232674,-1.044778517279029
1789252710891786000,6.811785888671875,4.114559471619129,-0.5190119642261415,-1.2976947092056275
1789252710901838800,6.8218388671875,3.020968115854263,-0.27909612364806236,-1.8767022193849086
1789252710911891700,6.8318916015625,1.9838941816031932,-0.32027320655845104,-2.3788392558515072
1789252710921944800,6.84194482421875,1.2280012875154613,-0.48149881065078076,-2.5094331364452835
1789252710931997700,6.851997802734375,0.703711455951631,-0.6141033004146069,-2.401265607193112
1789252710942050800,6.86205078125,0.22082535566091535,-0.7173602612715214,-2.2158587709158657
1789252710952104000,6.87210400390625,-0.2420706805244088,-0.7533554114993661,-2.0162042135775087
1789252710962156800,6.88215673828125,-0.48377632712870833,-0.7576697675671428,-1.7245196073174476
1789252710972209700,6.892209716796875,-0.5964069732695818,-0.7714257595885544,-1.3800585196375845
1789252710982262800,6.9022626953125,-0.6785673700839281,-0.7833069707140327,-0.9540589664340019
1789252710992315600,6.912315673828125,-0.6911644013285636,-0.8096851284213363,-0.6394540878355502
1789252711002368800,6.92236865234375,-0.7007388698816299,-0.8729192179042845,-0.47979134914577004
1789252711012422000,6.932421875,-0.7340127784520387,-0.9856175955191254,-0.47336336192488665
1789252711022474800,6.942474853515625,-0.7735147677570581,-1.0838152271598578,-0.5454290657043457
1789252711032527600,6.952527587890625,-0.8603504629060625,-1.1444403031881898,-0.5701672011196613
1789252711042580700,6.962580810546875,-1.1123355114623903,-1.1825469656772911,-0.6413017615288495
1789252711052633900,6.9726337890625,-1.6518927625238895,-1.1158850937027482,-0.774921127423644
1789252711062686700,6.982686767578125,-2.262632797050476,-0.9159454358126967,-0.9005606004804372
1789252711072739800,6.99273974609375,-2.5731740794718263,-0.5289525626778603,-0.9823083248406648
1789252711082792700,7.002792724609375,-2.6047581352591513,-0.08132672246918082,-0.917711641767621
1789252711092845600,7.012845458984375,-2.66895442083776,0.35154286263436074,-0.7856342446178197
1789252711102899000,7.02289892578125,-2.7311300142437216,0.683812358065322,-0.5620715729475021
1789252711112951800,7.032951904296875,-2.758683207079768,0.9214213099405169,-0.23550796100795268
1789252711123005200,7.043005126953125,-2.774390479299426,0.9878215353041887,0.11060089387893676
1789252711133058000,7.05305810546875,-2.7391896943196654,0.8653418414525688,0.4820762452125549
1789252711143111000,7.06311083984375,-2.4817571940124035,0.5096078107386827,0.8963006049484014
1789252711153164000,7.0731640625,-2.065393484160304,-0.00029079964011907575,1.275591598469019
1789252711163217200,7.083217041015625,-1.7161305491566656,-0.5624241857774556,1.504261822411418
1789252711173270000,7.09327001953125,-1.519045550045371,-1.1257990964084863,1.5914146206855773
1789252711183323100,7.1033232421875,-1.3791659547120332,-1.7531700938709078,1.6834487612605094
1789252711193376000,7.1133759765625,-1.1561585788369177,-2.400684738565236,1.8300556190222501
1789252711203428900,7.123428955078125,-0.8319052896663546,-2.9697862101495263,2.087456262886524
1789252711213482200,7.133482177734375,-0.46069735709726806,-3.4409821649074552,2.5520897903889415
1789252711223535000,7.14353515625,0.0001993219643831253,-3.7073698328256603,3.176189072704315
1789252711233588000,7.153587890625,0.5463280603706836,-3.5995927641957994,3.984620840063691
1789252711243641000,7.16364111328125,0.7568892116487026,-2.627422387009859,4.749849425512552
1789252711253694000,7.17369384765625,0.8908055146634578,-1.0293133832521737,5.458682170000672
1789252711263747000,7.1837470703125,1.3063280975162983,0.42079131703600287,6.063897303625941
1789252711273800200,7.19380029296875,2.100381210911274,1.4332690085604787,6.715900491911173
1789252711283853000,7.20385302734375,2.882913397860527,1.881251407121867,7.162268294882774
1789252711293906000,7.213906005859375,3.5320237873136997,1.5960118853479623,7.310998136147856
1789252711303959000,7.223958984375,4.0313346604436635,0.5449143941804766,7.02687607409656
1789252711314012200,7.23401220703125,3.7373946764722463,-0.5481329178355634,5.461097998970747
1789252711324065000,7.24406494140625,2.921052282118797,-0.9444825981847942,2.8194126933306456
1789252711334118100,7.2541181640625,1.9952327372193335,-0.8859776561155914,0.29815351001322266
1789252711344171000,7.2641708984375,1.468162335026264,-0.6321358737766742,-1.6870757195860147
1789252711354223900,7.274223876953125,1.091191016624868,-0.18169439162537454,-3.444046813175082
1789252711364277200,7.28427734375,0.5721586671978235,0.33598055184334513,-4.745687629657984
1789252711374330000,7.294330078125,0.1403051272690296,0.7483888020679355,-5.667646991997957
1789252711384383000,7.304383056640625,-0.05836392616331577,1.143967351914197,-6.526921057844161
1789252711394436000,7.31443603515625,-0.02195376539379358,1.449043354666978,-7.094329315644503
1789252711404489000,7.324489013671875,-0.0818728120446205,1.5675760644584893,-7.473120542949438
1789252711414542000,7.3345419921875,-0.13216799804270266,1.679520628031343,-7.358293555808067
1789252711424595200,7.34459521484375,0.23809680845737455,1.3853152711220085,-6.356553385266661
1789252711434648000,7.35464794921875,1.2611086073473095,1.1277160359457135,-5.393055559358
1789252711444701000,7.364700927734375,2.1502485268861053,0.9505097495198249,-4.458815392115712
1789252711454754000,7.374754150390625,2.544080379195511,0.5053935540445149,-3.168852153944969
1789252711464807000,7.384806884765625,2.7629756435766812,-0.025427578984200953,-1.8749270264059303
1789252711474860000,7.394860107421875,2.9578204625457523,-0.4149257860034704,-0.9330395592808723
1789252711484913200,7.4049130859375,2.9624972221851347,-0.4062751542970538,-0.5761082816064358
1789252711494966000,7.414966064453125,2.7741473181933163,-0.0813097713343799,-0.5817144310504198
1789252711505019000,7.425018798828125,2.101016293944418,0.25453224882110953,-0.709289840605855
1789252711515072000,7.435072021484375,1.2442927893638611,0.5311282992817461,-0.7592991953998803
1789252711525125000,7.445125,0.5258604418814182,0.7341705993622542,-0.6312637671172618
1789252711535178000,7.455177978515625,-0.0032639702320098876,0.8418868777155876,-0.43495209046602246
1789252711545231000,7.465231201171875,-0.4115224073007703,0.8979555325485765,-0.15682488491535185
1789252711555284000,7.475283935546875,-0.845118114721775,0.85513784282431,0.2359294012904167
1789252711565336800,7.4853369140625,-1.3504349502682684,0.7546198054119944,0.6424269661664962
1789252711575390200,7.49539013671875,-1.8808014713972805,0.5952957971572875,1.1248884113043547
1789252711585443000,7.505443115234375,-2.37459971858561,0.34432197147011756,1.663542283785343
1789252711595496200,7.51549609375,-2.851465535673499,0.07537965063303709,1.658305552175641
1789252711605549000,7.525549072265625,-2.9765009053573013,0.016345423992723224,0.7033499291628599
1789252711615602000,7.535601806640625,-2.7946549764320254,0.16419453690052033,-0.4188520195364952
1789252711625655300,7.5456552734375,-2.6577278011634946,0.3916169527389109,-1.2532312981009484
1789252711635708200,7.555708251953125,-2.771746102270484,0.6337548532806336,-1.890017628031969
1789252711645761000,7.565760986328125,-2.908150130447745,0.8008981569841503,-2.27025320892632
1789252711655814100,7.575814208984375,-3.145541420984268,0.8580870480187237,-2.3855127422660587
1789252711665867000,7.585866943359375,-3.3140736948281524,0.7169359714448451,-2.0408003101736307
1789252711675920100,7.595920166015625,-3.1288623811230063,0.5273647089645266,-1.3618670293867587
1789252711685973200,7.60597314453125,-3.0079017135322093,0.38128494381681083,-0.6429255633383989
1789252711696026000,7.616026123046875,-2.96028597587645,0.2896531004324555,0.01974924108684063
1789252711706079000,7.626078857421875,-2.8011560288891193,0.20655717633366583,0.5256617044389248
1789252711716132000,7.636132080078125,-2.496089963008463,0.07271803020834923,0.8796575131833553
1789252711726185000,7.64618505859375,-2.0905144814133645,-0.08047755829393863,1.1906091299712658
1789252711736238000,7.656238037109375,-1.5918950976788997,-0.2680420109964907,1.5653472824931143
1789252711746291200,7.666291259765625,-1.0141773350492118,-0.3491027029406279,1.934714263370633
1789252711756344000,7.676343994140625,-0.4705395366758108,-0.21850107743181288,2.2405606659740207
1789252711766397000,7.68639697265625,-0.1331619775161147,0.14473397656194864,2.597612355157733
1789252711776450000,7.696449951171875,-0.08675356982350349,0.66605195270814,2.9013328516483305
1789252711786503200,7.706503173828125,-0.2653454653888941,1.215329145208001,2.84637201192677
1789252711796556000,7.71655615234375,-0.42053953423202034,1.6556082759156823,2.2276187668144702
1789252711806609200,7.726609130859375,-0.38896687662154433,1.985916335080564,1.6458400383561849
1789252711816662000,7.736662109375,0.13496201267540453,2.2504031378135085,2.338708320993185
1789252711826715000,7.74671484375,1.2437982838451862,2.3948007950931784,3.990782285302877
1789252711836768300,7.756768310546875,2.7575515727013347,2.6380907882794737,5.629513368436694
1789252711846821000,7.766821044921875,4.42961326302886,3.1371137843787666,6.676019732421636
1789252711856874000,7.7768740234375,5.915411207988858,3.8324282911241054,6.724997406080365
1789252711866927000,7.786927001953125,6.380507092306018,4.314342623773217,5.958114039161801
1789252711876980000,7.79697998046875,5.37317480084598,4.379905813790858,4.31763815818727
1789252711887033000,7.807033203125,4.351270963197947,3.8123718837842344,1.9150901099681854
1789252711897086200,7.817086181640625,3.691300157034397,2.836077704666555,-0.18235680105686186
1789252711907139000,7.82713916015625,2.9957354749202727,1.9094202476382254,-1.6780477789998054
1789252711917192000,7.83719189453125,2.2165637043148276,1.1697611338622866,-2.8012375696927307
1789252711927245000,7.8472451171875,1.2777028915345667,0.5889907056637108,-3.6778947320163247
1789252711937298200,7.857298095703125,0.2287882973641157,-0.04559570307023823,-4.316058195519447
1789252711947351000,7.86735107421875,-0.48245443087518214,-0.6349427478909492,-4.465316444572806
1789252711957404200,7.877404052734375,-0.8115271030262112,-1.1507381612233818,-4.391787097981572
1789252711967457000,7.88745703125,-1.0121657029658555,-1.5675727034576237,-4.139442568463087
1789252711977510000,7.897510009765625,-0.9633137015134096,-1.9577846117042004,-3.7845097711294886
1789252711987563000,7.90756298828125,-0.4909826052457094,-2.2407103035777807,-3.2766859211981294
1789252711997616000,7.9176162109375,0.38513124398142096,-2.3978391398757695,-2.6444465870469807
1789252712007669000,7.9276689453125,1.5357032548576592,-2.529188222751021,-1.9816420187622308
1789252712017722000,7.93772216796875,2.7276871803134677,-2.722175431154668,-1.2517349220633507
1789252712027775000,7.94777490234375,4.0320822639405725,-2.690873991701007,-0.5672019215732813
1789252712037828000,7.957828125,4.835341597098112,-2.3325004062637684,-0.3476175058841705
1789252712047881200,7.967881103515625,4.388366475883126,-1.50594553771466,-0.8212953405857085
1789252712057934000,7.97793408203125,3.0427938709542155,-0.5176252591080963,-1.7809230470627546
1789252712067987000,7.987987060546875,1.9648747160956261,0.17351919541098176,-2.3704689023911953
1789252712078040000,7.9980400390625,1.2803618816107512,0.6012138620946555,-2.6202298451572656
1789252712088093000,8.008093017578124,0.6166302616089582,0.7322686381984501,-2.5599007564008236
1789252712098146000,8.01814599609375,0.090960081602633,0.6944703110061585,-2.2866607383698225
1789252712108199200,8.02819921875,-0.31065526418983935,0.6744629304397851,-1.9790783057540653
1789252712118252000,8.038251953125,-0.6822007581502199,0.7224258010327815,-1.453419523924589
1789252712128305200,8.04830517578125,-0.9478636189252138,0.7828842152573168,-0.9213122966080903
1789252712138358000,8.05835791015625,-1.10259123930037,0.7763491144001483,-0.4684656530112028
1789252712148411100,8.0684111328125,-1.2578823387771845,0.6808861684203148,-0.10077917256653308
1789252712158464300,8.07846435546875,-1.2996148636132479,0.3902789821334183,0.03614917174577713
1789252712168517000,8.08851708984375,-1.133918105456233,-0.20848894811384378,0.18977847549021243
1789252712178570000,8.098570068359376,-1.0424404297202825,-0.9987846817366778,0.2970207065910101
1789252712188623000,8.108623046875,-1.139707210251689,-1.7659189546763896,0.2859831797480583
1789252712198676200,8.11867626953125,-1.3868927495718002,-2.337768702055514,0.11988953122794628
1789252712208729000,8.12872900390625,-1.8237398600041865,-2.5050749412357805,-0.12156886261701583
1789252712218782200,8.1387822265625,-2.3584406109452245,-2.291178215794265,-0.5247147789776325
1789252712228835000,8.1488349609375,-2.577712307423353,-1.7665031843051313,-0.8475006259441376
1789252712238888000,8.158887939453125,-2.5695745936751364,-1.1343438565876334,-1.00533147303164
1789252712248941000,8.168941162109375,-2.537898767951131,-0.510035242370516,-0.781444976234436
1789252712258994200,8.178994140625,-2.539407126687467,0.05900945752523839,-0.37128771980702874
1789252712269047300,8.18904736328125,-2.65069629509151,0.49384047889485955,-0.009635843351483344
1789252712279100200,8.19910009765625,-2.8304513892173766,0.7627423215910792,0.2455278352409601
1789252712289153000,8.209153076171875,-2.9509330411195753,0.8244083580397069,0.3471434586316347
1789252712299206100,8.2192060546875,-2.8449095381587743,0.626542145422846,0.37117782969176766
1789252712309259300,8.22925927734375,-2.330294712913036,0.19104966446980834,0.5845002623766661
1789252712319312100,8.23931201171875,-1.6807158291652797,-0.30631665046364065,0.8824047660648823
1789252712329365200,8.249365234375,-1.251508419831097,-0.6874652545496821,1.131709781756997
1789252712339418000,8.259418212890624,-0.8885080513760447,-1.0250178780153394,1.3450269537448882
1789252712349471000,8.269470947265624,-0.4725093754440546,-1.3158002747386692,1.6074305204629897
1789252712359524400,8.2795244140625,-0.0750549487233162,-1.5111552351869642,2.035111743143201
1789252712369577200,8.2895771484375,0.1360141520768404,-1.5311074514999985,2.6534172444880006
1789252712379630000,8.299630126953126,0.034871406894922255,-1.2841504602387546,3.1554134111791847
1789252712389683200,8.30968310546875,-0.24094985980093478,-0.7358190972216427,3.3983687655836343
1789252712399736000,8.319736083984376,-0.4830512277245521,0.003710983347147703,3.4186014062732455
1789252712409789200,8.3297890625,-0.49591947712600226,0.6295353358894586,3.6844308557868
1789252712419842300,8.33984228515625,-0.13070026357769965,0.9454666407860814,4.730706918147206
1789252712429895200,8.349895263671876,0.5192781408816576,1.1182345063731074,5.897118010929226
1789252712439948000,8.359947998046875,1.3992232388347388,1.0002749202944339,6.797343680366874
1789252712450001200,8.370001220703125,2.3552707487374542,0.24635756406337023,7.591967287126183
1789252712460054300,8.38005419921875,3.52696942653358,-0.9698914724685251,7.804274989810586
1789252712470107100,8.390107177734375,4.067342085631192,-2.0840014462575316,6.8022185929268595
1789252712480160300,8.40016015625,3.2515646316841242,-2.6341952421456574,4.379456608718633
1789252712490213000,8.410213134765625,1.8346122594133019,-2.6748633526206014,1.6677397354751824
1789252712500266000,8.420265869140625,1.1424307899966835,-2.5904399793103337,-0.34992578282654285
1789252712510319400,8.4303193359375,1.164990996851027,-2.2515360873661936,-2.1126573396384716
1789252712520372200,8.440372314453125,1.0202265520855784,-1.6328505006626248,-3.7749838178932666
1789252712530425000,8.450425048828125,0.6031283904790878,-0.9943509370729327,-4.986524092212319
1789252712540478200,8.460478271484375,0.3020762364149093,-0.45746714300438757,-5.770111925694346
1789252712550531000,8.470531005859375,0.045534255206584925,-0.05670549143180251,-6.347312094190716
1789252712560584200,8.480584228515625,0.40302433580756186,0.25862214848324655,-6.4043000558257095
1789252712570637300,8.49063720703125,1.7622563405156135,0.5510964438162743,-5.945109011638164
1789252712580690200,8.500690185546874,3.257292946203053,0.6105695002652705,-4.955482472738623
1789252712590743000,8.510742919921874,3.88648662904799,0.4141827125512063,-3.7197067518293854
1789252712600796200,8.520796142578124,3.6754923470497127,0.2221541200466454,-2.9338609102874993
1789252712610849000,8.53084912109375,3.4420918797150253,-0.037511692270636554,-2.2279969524770973
1789252712620902100,8.540902099609376,3.171881146377325,-0.5919136073730885,-1.6795435705155133
1789252712630955300,8.550955322265626,2.6237229479700326,-1.1461813747018574,-1.601971086013317
1789252712641008000,8.561008056640626,1.8045827395915983,-1.4691782340705395,-1.50256086371243
1789252712651061000,8.57106103515625,1.1020385738536715,-1.302523006144911,-1.4151596436351537
1789252712661114000,8.581114013671876,0.6215022515594959,-0.80223232819736,-1.5779992587953806
1789252712671167200,8.591167236328126,0.349960854139924,-0.24765783300697802,-1.7651614143073557
1789252712681220000,8.60122021484375,0.11004764391034841,0.19483970440253615,-1.7089374227821825
1789252712691273200,8.611273193359375,-0.09755348851829766,0.5076879485920072,-1.3488485578596592
1789252712701326000,8.621326171875,-0.2848112133592367,0.7500451909728347,-0.8727496334910392
1789252712711379000,8.63137890625,-0.6023457156687975,0.9150034057222306,-0.44086102224886414
1789252712721432300,8.641432373046875,-1.0124491960823536,0.9398730585627257,0.05024316354990005
1789252712731485200,8.651485107421875,-1.4295850593507289,0.9536253973223269,0.40629298221468924
1789252712741538000,8.6615380859375,-1.7188374700278042,0.9553913840815424,0.774266462907195
1789252712751591200,8.671591064453125,-1.9859820937931536,0.9258084389835596,1.07118487816751
1789252712761644000,8.68164404296875,-2.1760709504067894,0.8318534133486449,0.6311544615238904
1789252712771697200,8.691697265625,-2.1527491115301847,0.8752468571342528,-0.4057587292075157
1789252712781750300,8.701750244140625,-2.0267612634271384,0.9677673199214041,-1.293778997066617
1789252712791803100,8.71180322265625,-2.1023653704658147,1.023538599243015,-1.9572206942111252
1789252712801856000,8.72185595703125,-2.307794127291441,0.9069443101681768,-2.3111375925004483
1789252712811909000,8.7319091796875,-2.309402731531858,0.6007694062627852,-2.3257062160789963
1789252712821962200,8.741962158203124,-2.161491220912337,0.20648104235753414,-2.0113988591223952
1789252712832015000,8.75201513671875,-2.0974466187641023,-0.17286898787394164,-1.4413918170005082
1789252712842068200,8.762068115234374,-2.057970640683174,-0.49948345321789384,-0.7741273466974496
1789252712852121000,8.77212109375,-2.025467131963372,-0.6950343746297061,-0.05345628037750721
1789252712862174000,8.782174072265626,-1.8925608827739953,-0.6946594038374722,0.5615612853378057
1789252712872227000,8.79222705078125,-1.6966978266730903,-0.5046088334076106,0.9353963515400886
1789252712882280200,8.8022802734375,-1.5592825756266713,-0.18362404451370237,1.066705102404952
1789252712892333000,8.8123330078125,-1.510585764735937,0.11836056809499859,1.1188742655813693
1789252712902386200,8.82238623046875,-1.4423311436772346,0.3005212620578706,1.3477625161886215
1789252712912439000,8.83243896484375,-1.3395511526823043,0.4395313810802996,1.7163298711210488
1789252712922492000,8.842491943359375,-1.1080009893894196,0.7395522193353623,1.8476731087774036
1789252712932545300,8.852545166015625,-0.7358619134500622,1.3543869027644395,1.6706261045664548
1789252712942598100,8.86259814453125,-0.45561377022266386,2.071607244108617,1.5941326474726198
1789252712952651000,8.872651123046875,-0.33189211348593234,2.6770266681343315,1.5083546446830034
1789252712962704100,8.8827041015625,-0.4595768286347389,2.975324847315252,1.3669354186922311
1789252712972757000,8.892757080078125,-0.6675561467260122,2.903257097709179,1.3080214574307203
1789252712982810400,8.902810302734375,-0.426702148514986,2.4404119149282573,2.1525597264379264
1789252712992863200,8.91286328125,0.5042351777896285,1.81583507822901,3.8237931492477655
1789252713002916000,8.922916015625,1.8082859780237077,1.4094681539952754,5.607630622452497
1789252713012969200,8.93296923828125,3.4053333438992497,1.2903268107861279,7.127458262786269
1789252713023022000,8.94302197265625,4.935263276052475,1.5508260051876306,7.871864424958825
1789252713033075200,8.9530751953125,5.959286005550623,2.136707492789626,7.499473712345957
1789252713043128300,8.96312841796875,5.918854626441002,2.6607027253210545,5.8741170745700595
1789252713053181200,8.97318115234375,5.122645796316862,2.5909043819516895,3.2258909689843653
1789252713063234000,8.983234130859374,4.2995244093477725,1.9683631427332757,0.7138409280389547
1789252713073287200,8.993287109375,3.2499434602230783,1.2337367624275386,-1.1982166823655367
1789252713083340300,9.00334033203125,2.0520731070771814,0.6348468863010406,-2.7856203138440847
1789252713093393200,9.01339306640625,0.8378066226646304,0.18663053285330533,-3.9478251871079206
1789252713103446300,9.0234462890625,-0.2545180741652846,-0.3798918089579791,-4.690341590011119
1789252713113499100,9.0334990234375,-1.0682166760116816,-0.9760242761351168,-4.96707061920166
1789252713123552000,9.043552001953126,-1.4979022242516278,-1.5516687396220863,-4.880410572880506
1789252713133605000,9.053605224609376,-1.4814797894999383,-2.0200413075223564,-4.509933000412583
1789252713143658200,9.063658203125,-1.1276520307987927,-2.3612841638080773,-4.020626219424605
1789252713153711000,9.073711181640626,-0.4651519984185695,-2.5344506733238696,-3.429654715207219
1789252713163764000,9.083763916015625,0.5435805152282118,-2.4986633206278084,-2.79297710634768
1789252713173817000,9.093817138671875,1.7644097191572188,-2.3574150672897694,-2.2353566675901413
1789252713183870000,9.103869873046875,2.9208915385991334,-2.06508909438625,-1.6791589551120996
1789252713193923000,9.113923095703125,3.8488460497006773,-1.5798432792268693,-1.3267226507693528
1789252713203976200,9.12397607421875,4.353939305624365,-1.0151938186153768,-1.3468839797884224
1789252713214029000,9.134029052734375,4.137288020777702,-0.46924021758027373,-1.5678198100864886
1789252713224082000,9.14408203125,3.3662525026157497,-0.18380393112525342,-1.713558068320155
1789252713234135000,9.154135009765625,2.5363477391168474,-0.2105865049149841,-1.7550339880466461
1789252713244188200,9.164188232421875,1.7861971880733967,-0.40098347762972114,-1.6703297519683837
1789252713254241000,9.174240966796875,1.1841957557976246,-0.5369704494386911,-1.3704507333368061
1789252713264294100,9.184294189453125,0.7462339621216059,-0.582286020393297,-1.076345037409663
1789252713274347000,9.194346923828125,0.2536436294183135,-0.5107088307831437,-0.9746212774693965
1789252713284399900,9.20439990234375,-0.23210487456619738,-0.40079811112545427,-0.8496440677136182
1789252713294453200,9.214453369140625,-0.4515788156181574,-0.3375060809101909,-0.6240209563821554
1789252713304506000,9.224506103515624,-0.4583130923092365,-0.3301871361989528,-0.28666999296844003
1789252713314559000,9.23455908203125,-0.5223597402840853,-0.3578801758971065,0.056305824589729304
1789252713324612000,9.244612060546874,-0.6117115099072457,-0.32601883753836153,0.25185645374059673
1789252713334665000,9.2546650390625,-0.7208394086241722,-0.37235154964625833,0.3413257122635841
1789252713344718000,9.264718017578126,-0.9986436658307909,-0.5268712994243949,0.36116496972143647
1789252713354771200,9.274771240234376,-1.3459890767753124,-0.7377044725768268,0.2721440394878387
1789252713364824000,9.284823974609376,-1.8884978711187839,-0.9606250469513237,0.0947176805704832
1789252713374877000,9.294876953125,-2.4918165234729646,-1.1067180369067937,-0.24956571245491505
1789252713384930000,9.304929931640626,-2.894062276123464,-1.1633893338080494,-0.6736018566310406
1789252713394983200,9.314983154296876,-3.0585268621370196,-1.083208128112182,-0.9374480233728885
1789252713405036000,9.3250361328125,-2.9512574507683516,-0.786695224912837,-0.982403017386794
1789252713415089200,9.335089111328125,-2.706336349248886,-0.45485951778925954,-0.9251245483726263
1789252713425142000,9.34514208984375,-2.398147182911634,0.0823932557221502,-0.34385493848025794
1789252713435195000,9.35519482421875,-2.3706994962766763,0.04327705086432397,-0.35189854420423505
1789252713445248000,9.365248046875,-2.324004380597174,0.21786760183386503,0.10889408996105193
1789252713455301000,9.375301025390625,-2.3023197875335812,0.2545296184726059,0.46133507047891614
1789252713465354000,9.38535400390625,-2.3114015041336415,0.16339571467302738,0.6517530129164457
1789252713475407000,9.395406982421875,-2.166140800283849,-0.09386939317807555,0.8148767057150602
1789252713485460000,9.4054599609375,-1.841118864828348,-0.48726665346249937,0.8692758199006319
1789252713495513000,9.41551318359375,-1.4650330970898269,-0.9033486237637698,0.8476268826723098
1789252713505566200,9.425566162109375,-1.1232137560904025,-1.1825425817631183,0.8272855209112167
1789252713515619000,9.435619140625,-0.8764218922629952,-1.2985508876435459,0.8277572300761937
1789252713525672000,9.445671875,-0.5870592992097139,-1.3522384925588964,0.8950333614915609
1789252713535725000,9.45572509765625,-0.15549714344292878,-1.4577606218688188,1.0949129597574472
1789252713545778000,9.46577783203125,0.31384675370752807,-1.6077992076449095,1.4927338817030191
1789252713555831000,9.4758310546875,0.4738666352719068,-1.6779871348537503,2.031397691056132
1789252713565884200,9.48588427734375,0.13669219746887684,-1.535485520453751,2.6108862627506255
1789252713575937000,9.49593701171875,-0.36551731971204277,-1.101629846922308,3.034303398245573
1789252713585990000,9.505989990234376,-0.6390782402604818,-0.4796601239815354,3.230035813704133
1789252713596043000,9.51604296875,-0.7322451842576265,0.1468305835150182,3.504631337997317
1789252713606096100,9.52609619140625,-0.4545107774168253,0.577686636839062,4.378412068101763
1789252713616149000,9.53614892578125,0.18923603917658327,0.841090612771362,5.522745184588432
1789252713626202000,9.5462021484375,0.9882727862030267,0.933724618935585,6.386903515344858
1789252713636255000,9.5562548828125,1.643842142537236,0.6513613832503556,7.000061132407188
1789252713646307800,9.566307861328125,2.3124314317032693,-0.08296747541353106,7.2239464601606125
1789252713656361200,9.576361328125,2.8083523701339956,-0.92119641514346,6.100408294421434
1789252713666414000,9.5864140625,2.139091465316713,-1.3646496458426116,3.6791263196378945
1789252713676467000,9.596467041015625,0.9884539879888296,-1.5198888690017163,1.1340712501913308
1789252713686520000,9.60652001953125,0.5747969067469239,-1.7635488645441828,-0.6428191803544759
1789252713696573000,9.616572998046875,0.8006216781303286,-1.889607293665409,-1.8776012140512466
1789252713706626300,9.626626220703125,1.04990535877347,-1.6522670026637614,-3.2452889124155044
1789252713716679200,9.63667919921875,0.9153039961040019,-1.1014175193458795,-4.451238819381595
1789252713726732000,9.64673193359375,0.4904162035346031,-0.542477084030956,-5.5677270666092635
1789252713736785200,9.65678515625,0.21774141817092893,-0.16976678407490253,-6.312868557319045
1789252713746838000,9.666838134765625,0.3233218535393476,0.08923267328813672,-6.4864435015052555
1789252713756891100,9.67689111328125,1.4200328026294708,0.49632352788224815,-6.178600956648588
1789252713766944300,9.6869443359375,3.102978582803905,0.9315735783815383,-5.559519210234284
1789252713776996000,9.69699609375,4.571174527838826,1.0308559365190566,-4.5352913135528565
1789252713787049000,9.707049072265624,4.782993862484395,0.8088293883748352,-3.466186164268851
1789252713797102000,9.71710205078125,4.14755894716233,0.6831763251841068,-2.6188702472418544
1789252713807155200,9.7271552734375,3.6521751843482253,0.26364494508132336,-1.6945973472625016
1789252713817208000,9.7372080078125,3.5412820295244454,-0.49080607963502404,-0.8040116128295659
1789252713827261000,9.747260986328126,2.9344708588793873,-0.8593344177313148,-0.5119815541327
1789252713837314000,9.75731396484375,1.6390385416477917,-0.9384854035966098,-0.6937193465083837
1789252713847367200,9.7673671875,0.6530567889913916,-0.8787401060774922,-0.9717448452502488
1789252713857420000,9.777419921875,0.13842501261085272,-0.6398704135514796,-1.1826783369719982
1789252713867473200,9.78747314453125,-0.18094985686838627,-0.4258898092187941,-1.2720529029488563
1789252713877526000,9.797526123046875,-0.3555015371322632,-0.25222017248645423,-1.2127005502700805
1789252713887579000,9.807578857421875,-0.5535556735366582,-0.13825608578473328,-0.8635282161593437
1789252713897632000,9.817632080078125,-0.8479027770042419,-0.054018882696330546,-0.32105507765114305
1789252713907685000,9.82768505859375,-1.1782745490550994,0.023318770136684177,0.22582944755852222
1789252713917738000,9.837738037109375,-1.4414996612891553,0.11872998592928051,0.8119739700108766
1789252713927791000,9.847791015625,-1.7214567126154898,0.2768585007891059,1.3523060048371554
1789252713937844000,9.857843994140625,-1.983823454454541,0.4404087484367192,1.3606015394955873
1789252713947896800,9.867896728515625,-2.131362040108442,0.6747586254507303,0.6495926200121641
1789252713957950200,9.8779501953125,-2.1435551667273045,0.9955204192437231,-0.3847165257006883
1789252713968003000,9.888003173828125,-2.10252377589792,1.309292208018899,-1.291337449133396
1789252713978056000,9.898055908203125,-2.171934288993478,1.514150909871608,-2.0730822850972412
1789252713988109000,9.908109130859375,-2.3892393615737557,1.6667573003090916,-2.691500014644861
1789252713998162000,9.918161865234374,-2.507224228224158,1.596020507045835,-2.8893460612565276
1789252714008215000,9.928215087890624,-2.280579372629523,1.2540155803464352,-2.5333237151205537
1789252714018268200,9.93826806640625,-2.136254780586064,0.8766318817518651,-1.8956401440888642
1789252714028321000,9.948321044921874,-2.128461934752762,0.4502417217954993,-1.1137731430500746
1789252714038374000,9.958373779296876,-2.1549615268826483,-0.011854688444733618,-0.32782559469938277
1789252714048427000,9.968427001953126,-2.142512964197993,-0.4165212385013699,0.4883633626580238
1789252714058480000,9.978480224609376,-2.1207734260767697,-0.7223417760111391,1.1644570361047983
1789252714068533000,9.988532958984376,-1.979793468286097,-0.8621407073237002,1.533633462846279
1789252714078586000,9.998586181640626,-1.772313331888616,-0.7837384939990937,1.5566829145222902
1789252714088639000,10.008638916015625,-1.5998399192035198,-0.5904799213081597,1.4813339512884616
1789252714098692000,10.018692138671875,-1.4504156659334897,-0.43375045959129926,1.5732979492366312
1789252714108745200,10.0287451171875,-1.2577087357759476,-0.31027715159244834,1.7556968358695506
1789252714118798000,10.038798095703125,-1.0380801886841655,-0.13879925275072455,1.937317723867297
1789252714128851000,10.048850830078125,-0.8515025550618768,0.14054083572104573,2.146138753479719
1789252714138904000,10.058904052734375,-0.7676900071263313,0.6241377876948565,2.3564982447057963
1789252714148957000,10.06895703125,-0.7318333885863423,1.2650854020237923,2.4059552263140676
1789252714159010000,10.079010009765625,-0.5709238647058605,1.9265641285322606,2.134547684407234
1789252714169063200,10.089063232421875,-0.01978314335644245,2.4427310055255886,2.0226947446405887
1789252714179116000,10.099115966796875,1.0934843882590533,2.722737156690657,2.6436843705028292
1789252714189169000,10.1091689453125,2.5328806475281715,2.7675761231094596,3.9566766020834443
1789252714199222000,10.119221923828125,3.9534839435219764,2.87449628264904,5.447060705789923
1789252714209275000,10.12927490234375,5.290772996491193,3.180648682461679,6.501152410337329
1789252714219328000,10.139327880859375,6.220539233189821,3.5674253555625675,6.6365867166995995
1789252714229381000,10.149381103515625,6.013772213497758,3.9007574387237427,5.534935388597845
1789252714239434000,10.15943408203125,5.008410345327854,3.6883074049592017,3.38882819930017
1789252714249486800,10.16948681640625,3.930457288199663,2.947663810190558,1.1633762551307678
1789252714259540000,10.1795400390625,2.7832179288774728,2.0722163159176707,-0.6896259397149086
1789252714269593000,10.189593017578124,1.6407716490507125,1.2817910376310349,-2.2339789494961497
1789252714279646000,10.19964599609375,0.5525567256271838,0.4415918207414448,-3.2969694152921436
1789252714289699000,10.209698974609376,-0.2866547953993082,-0.33240313174799085,-3.8127299034416673
1789252714299752000,10.219751953125,-0.8057020501345395,-0.9565564823381603,-4.074713783442974
1789252714309804800,10.2298046875,-1.2971420437589287,-1.4391291327655316,-4.179172521305084
1789252714319858200,10.239858154296876,-1.6575526879817246,-1.8189903273895383,-4.066707587119937
1789252714329912000,10.249912109375,-1.6809604515761136,-2.1031515524074433,-3.7974978475183248
1789252714339964000,10.2599638671875,-1.2968378001153469,-2.338001634028554,-3.221933755791187
1789252714350018000,10.27001806640625,-0.5111193843454123,-2.40947638617754,-2.6962691287428138
1789252714360070000,10.28006982421875,0.4935188457250595,-2.313374265511334,-2.2005928127229213
1789252714370124000,10.2901240234375,1.6267513070046902,-2.140241804395616,-1.7209060929954052
1789252714380177000,10.300177001953125,2.6549825941085814,-1.8370526383027432,-1.3614607866734265
1789252714390230000,10.31022998046875,3.3892841263741253,-1.4143673242136836,-1.3134744621396064
1789252714400283100,10.320283203125,3.6661417503803966,-0.9731680829863995,-1.3625848222672938
1789252714410336000,10.3303359375,3.3611873281806703,-0.639599560720846,-1.5006372021734713
1789252714420388900,10.340388916015625,2.8112045446947214,-0.5015201466772705,-1.685558885282278
1789252714430442000,10.35044189453125,2.224748764336109,-0.476815329009667,-1.716568356052041
1789252714440495000,10.3604951171875,1.6832862641751765,-0.4788962269369513,-1.6568009928315877
1789252714450548000,10.3705478515625,1.0968442200809716,-0.4985587395884096,-1.5201315917164087
1789252714460601000,10.38060107421875,0.4595186687067151,-0.43478323670513924,-1.3145833001643419
1789252714470654000,10.390654052734375,-0.13806319356113672,-0.3112593675628304,-1.0778887597203255
1789252714480706800,10.400706787109375,-0.41651860815286634,-0.2640015764992684,-0.6548661765009165
1789252714490760200,10.41076025390625,-0.432806310608983,-0.1834533641219139,-0.17689093686640261
1789252714500813000,10.42081298828125,-0.385429642406106,-0.029281331802904605,0.39604806705415246
1789252714510866000,10.430865966796874,-0.32627485812604423,0.09546711069829761,0.8754904566317796
1789252714520919000,10.4409189453125,-0.5145785848885774,0.18407763350009917,1.021081415349245
1789252714530972000,10.450971923828124,-0.7605968339949846,0.33381884376481175,0.9931944605141878
1789252714541025000,10.46102490234375,-1.230060850393772,0.2858887063976377,0.8790916959941386
1789252714551078100,10.471078125,-1.8250357450336216,-0.0727010060083121,0.5455377867758274
1789252714561131000,10.481131103515626,-2.196076212081313,-0.6010626170556992,-0.06180500652790069
1789252714571183900,10.491183837890626,-2.383185176101327,-1.0160875525847077,-0.5942109245300292
1789252714581237000,10.501237060546876,-2.5110978547871112,-1.249378714326024,-1.0699936225563287
1789252714591290000,10.5112900390625,-2.4637913292109963,-1.2172433813314885,-1.4967805267453194
1789252714601343000,10.521343017578126,-2.272959545275569,-0.9760338476810604,-1.7705910381406544
1789252714611396000,10.53139599609375,-2.124961233155429,-0.7240351359255611,-1.6637018582612275
1789252714621449000,10.541448974609375,-2.1042168435513973,-0.4462722336426377,-1.2418062332451343
1789252714631501800,10.551501708984375,-2.1025991792216896,-0.19020524953491985,-0.7176818213760853
1789252714641555000,10.561554931640625,-2.0426099899441,0.003499094162136316,-0.32728608099520207
1789252714651608000,10.571608154296875,-1.9981220289200543,0.1288986940484494,0.023427637338638303
1789252714661661000,10.581660888671875,-1.9785691871881483,0.17925846971534193,0.37766134649217126
1789252714671714000,10.591714111328125,-1.9546768549472093,0.13975991447642444,0.6895920374453067
1789252714681767000,10.601766845703125,-1.8215227684766053,0.02126388343349099,0.9181523712724446
1789252714691820000,10.611820068359375,-1.5114765760958193,-0.15877251185178756,1.1576415108710527
1789252714701873200,10.621873046875,-1.1905924710974096,-0.35915319150760766,1.3756763590306043
1789252714711926000,10.631926025390625,-0.9126888451695442,-0.5952073882214725,1.5929811393499373
1789252714721979000,10.641978759765625,-0.7391665079534053,-0.9734845285244286,1.8196569746047258
1789252714732032000,10.652031982421875,-0.519857402074337,-1.4761498266488313,2.136889863619208
1789252714742084900,10.6620849609375,-0.32222470595240593,-1.9562322676956652,2.6319834113150833
1789252714752138000,10.672137939453124,-0.2993760375455022,-2.3238617572560907,3.1967385242581368
1789252714762191000,10.682191162109374,-0.33669162272214886,-2.4528975947529075,3.608243688163161
1789252714772244000,10.692243896484374,-0.4351812230467796,-2.230200453870743,3.797762051412463
1789252714782297000,10.702297119140624,-0.4523392785966396,-1.563250017952919,4.252153586363792
1789252714792350000,10.712349853515626,0.010585106900334358,-0.8247242921210824,5.163443670651317
1789252714802403000,10.722403076171876,0.8203674120858311,-0.23970278234928846,6.11393705355823
1789252714812456200,10.732456298828126,1.693861726464331,0.04182707125172019,6.862884366291761
1789252714822509000,10.742509033203126,2.3936653613224625,-0.10978986975699663,7.350868374243378
1789252714832562000,10.75256201171875,2.88140562364608,-0.7136921672180294,7.083725504043698
1789252714842615000,10.762614990234376,2.72344939661324,-1.4560500185586511,5.633468828064203
1789252714852668200,10.772668212890625,1.7561992324337363,-1.8142434251233934,3.2780718225985765
1789252714862721000,10.782720947265625,0.9696773913264274,-1.8426554267458617,0.9929928004622459
1789252714872774100,10.792774169921875,0.9564981762796639,-1.7685536870941518,-0.8755857336997985
1789252714882827000,10.802826904296875,1.1703680137142538,-1.501483443739265,-2.358217908105254
1789252714892880000,10.8128798828125,0.9026058425724506,-0.9713147832699119,-3.747678462338447
1789252714902933200,10.822933349609375,0.5964017125725746,-0.3614994623728096,-4.879400519055128
1789252714912986000,10.832986083984375,0.5130316477075219,0.20639993994534014,-5.750832055684924
1789252714923039000,10.8430390625,0.6528808479025959,0.6782714558772742,-6.091842710649967
1789252714933092000,10.853092041015625,1.4366577742159365,1.2411939465656876,-6.129109488248825
1789252714943145000,10.86314501953125,2.6691543273240326,1.7643420607484877,-5.844134024238586
1789252714953198000,10.873197998046875,3.6849522493124005,1.7894338319070635,-4.948485161197185
1789252714963251200,10.883251220703125,4.058907727023959,1.567227251020819,-3.9777100377619266
1789252714973304000,10.893303955078125,3.7005274195849895,1.3737776858024298,-3.376399510359764
1789252714983357000,10.90335693359375,2.9997467563882467,0.7907200234495103,-2.779733593893051
1789252714993410000,10.91341015625,2.390853518772125,-0.1380231538116932,-2.082016117659211
1789252715003463000,10.923462890625,1.7099708574831485,-0.9178310303635895,-1.3820014703989028
1789252715013516000,10.93351611328125,1.1689946795344353,-1.4574540401376783,-1.0215051937192678
1789252715023569200,10.943569091796874,0.7923077310323715,-1.5768369370177386,-1.0383090290039778
1789252715033622000,10.9536220703125,0.6270768368214369,-1.202246084012091,-1.270499828287959
1789252715043675000,10.9636748046875,0.36822833223640916,-0.6963299673981964,-1.5747294433444738
1789252715053728000,10.97372802734375,0.2392588379740715,-0.29779081418067216,-1.6283447136759757
1789252715063781000,10.983781005859376,0.28460429261028763,-0.03840411106571555,-1.3885615595668555
1789252715073834000,10.993833984375,0.1946396517857909,0.09518310612514615,-0.9615180502682924
1789252715083887000,11.00388720703125,-0.06590893471539021,0.16213716597929595,-0.4687012153327465
1789252715093940000,11.01393994140625,-0.493855530333519,0.20564853705614805,-0.03898001125752926
1789252715103992800,11.023992919921875,-0.9511579842954874,0.19919950704723596,0.25106442658007144
1789252715114046200,11.034046142578125,-1.3861556674689053,0.1443508955284953,0.7258388243466615
1789252715124099000,11.04409912109375,-1.8622382252246141,0.11030702549889683,1.2346838340193032
1789252715134152700,11.054152587890625,-2.332191486445069,0.16816767831519244,1.0329133074402808
1789252715144205600,11.06420556640625,-2.5246023562654853,0.3275507232807576,0.04854045128524303
1789252715154258700,11.0742587890625,-2.4071622640162706,0.535029982895404,-0.9517267240941524
1789252715164311600,11.0843115234375,-2.3212790472865104,0.7265298753507435,-1.702073382231593
1789252715174364700,11.09436474609375,-2.356635022827983,0.8167772786393761,-2.211367889237404
1789252715184417800,11.104417724609375,-2.3639985373333094,0.7201829905420541,-2.360880989834666
1789252715194470700,11.114470703125,-2.2214321871340275,0.4734662377774715,-2.107020210534334
1789252715204523500,11.1245234375,-2.039568430291116,0.16027458697780966,-1.6402636995285749
1789252715214576600,11.13457666015625,-2.051754834908247,-0.12368059407398103,-0.9520961419284343
1789252715224629800,11.144629638671875,-2.1797359026551244,-0.3035886868044734,-0.20729367391467093
1789252715234682600,11.1546826171875,-2.214413248282671,-0.3389624902635813,0.34745091714560983
1789252715244735700,11.16473583984375,-2.164891384744644,-0.24522373772785067,0.6460580161452293
1789252715254788600,11.17478857421875,-2.001677091053128,-0.11129384457916021,0.7235013213098048
1789252715264841500,11.184841552734374,-1.8003724284201859,-0.01599865638166666,0.800854025581479
1789252715274894600,11.19489453125,-1.4127335855320096,0.10318184979408979,1.018490814334154
1789252715284947700,11.20494775390625,-0.7904942518696189,0.4104005636639893,1.1634633488923312
1789252715295000600,11.21500048828125,-0.15132102680206297,0.9540949145302176,1.1052747792959212
1789252715305053700,11.2250537109375,0.2423398528546095,1.5449810785517095,1.0379396111696957
1789252715315106600,11.2351064453125,0.10511281785666941,2.02236595107764,1.251504620438814
1789252715325159400,11.245159423828126,-0.4325234020143747,2.166533160602301,1.6404326263546942
1789252715335212800,11.255212890625,-1.0612041669011116,1.9269686176799237,2.078571530163288
1789252715345265700,11.265265625,-1.6750871756285428,1.4002341694429516,2.523459323710203
1789252715355318500,11.275318603515625,-1.8982301605820655,0.7830801762208343,3.1146441784173247
1789252715365371600,11.28537158203125,-1.1500807202279566,0.37396241890899834,4.063360614779591
1789252715375424500,11.295424560546875,0.1489016907006502,0.23510201055556534,5.308827708619833
1789252715385477600,11.3054775390625,1.7391349926471709,0.36871640801429745,6.425442212575674
1789252715395530800,11.31553076171875,3.2987878628909586,0.9329215589243918,6.8651996574968095
1789252715405583600,11.32558349609375,4.435714502513409,1.8133710262030363,6.605457418942451
1789252715415636500,11.335636474609375,5.117242475968599,2.611281107287109,5.82624180919528
1789252715425689600,11.345689697265625,4.944323365342616,2.9679917279481884,4.289610333576798
1789252715435742700,11.35574267578125,4.24583548925817,2.6226991578802465,2.211602282515168
1789252715445795600,11.365795654296875,3.499547751122713,1.9767050007514655,0.3588286357283592
1789252715455848700,11.3758486328125,2.745010363297164,1.3101121460996568,-1.1157651936501265
1789252715465901600,11.385901611328125,1.9178215807586907,0.7584341030031442,-2.4226164382576942
1789252715475954400,11.395954345703124,0.835712865255773,0.4692847143091261,-3.7180934714138507
1789252715486007800,11.4060078125,-0.3433347139984369,0.12715550364293157,-4.680789917811751
1789252715496060700,11.416060791015624,-1.163159397509694,-0.40632688448429105,-4.975875272426009
1789252715506113500,11.426113525390624,-1.4000889157533645,-0.8902615439798682,-4.834100072604418
1789252715516166700,11.436166748046874,-1.2639736413896083,-1.367073365858197,-4.374598062771558
1789252715526219500,11.446219482421874,-0.8932806726053356,-1.8130987851329148,-3.7939901316583153
1789252715536272600,11.456272705078124,-0.2667483179241419,-2.060847072902322,-3.0640099697232244
1789252715546325800,11.46632568359375,0.8492232119530438,-1.9457740020453929,-2.169703168940544
1789252715556378600,11.476378662109376,2.4498674332767725,-1.8096616502910852,-1.3276543786615131
1789252715566431700,11.486431640625,4.260042001526058,-1.76754524070397,-0.6608236236006021
1789252715576484600,11.496484619140626,5.490783527660369,-1.6069699172139167,-0.25781623892784117
1789252715586537500,11.506537353515625,5.667906519716977,-1.2070735772337764,-0.16980653156340123
1789252715596590800,11.5165908203125,4.571992858484387,-0.5567929749574512,-0.6134352649599314
1789252715606643700,11.526643798828125,2.9375585957616566,-0.12790339940078554,-1.3342501236647366
1789252715616696600,11.536696533203125,1.7146178065061568,0.06288235343582928,-1.7717302713036536
1789252715626749700,11.546749755859375,0.8738707464754581,0.12204320213049649,-1.942657331329584
1789252715636802600,11.556802490234375,0.23815993682146072,0.07400843534506857,-1.9023235673755405
1789252715646855700,11.566855712890625,-0.3199070766597986,-0.02704750833623111,-1.7793822473615406
1789252715656908800,11.57690869140625,-0.880529035320878,-0.06663834496848285,-1.6613538338303564
1789252715666961700,11.586961669921875,-1.2138275084733963,-0.08043547271788119,-1.4533856216549872
1789252715677014500,11.5970146484375,-1.2850956321343778,-0.086775927785784,-1.0477215849936008
1789252715687068700,11.607068603515625,-1.1759960827291012,-0.14868739036284387,-0.512677135181427
1789252715697121500,11.61712158203125,-1.0991036894455553,-0.23287403230778872,-0.12065467038154601
1789252715707174700,11.627174560546875,-1.0842550798818469,-0.37786665980592365,0.10189619389772414
1789252715717227800,11.637227783203125,-1.0843567866906523,-0.6472262562070041,0.2151730289876461
1789252715727280600,11.64728076171875,-1.1728449252218007,-1.023009022410959,0.12911036403775214
1789252715737333500,11.65733349609375,-1.4837594248697161,-1.493958016670495,-0.022809797701239583
1789252715747386600,11.66738671875,-1.9431670344173908,-1.8973812886677681,-0.3481196101874113
1789252715757439500,11.677439453125,-2.3414137805595994,-2.0639491305708884,-0.7217600306004286
1789252715767492600,11.68749267578125,-2.3946444354876872,-1.95478732958436,-1.0996546013265847
1789252715777545700,11.697545654296874,-2.2692490003198382,-1.621820572604239,-1.3543296196192502
1789252715787598600,11.7075986328125,-2.1739719323009252,-1.244732934346795,-1.311625034880638
1789252715797651500,11.7176513671875,-2.072559430266917,-0.859854349952191,-1.0612082585543394
1789252715807704600,11.72770458984375,-1.9944114839643239,-0.45044089762941,-0.7791501432955265
1789252715817757700,11.7377578125,-1.9316291568368673,-0.0458675788141787,-0.41170740847885606
1789252715827810600,11.747810546875,-1.986820882704854,0.2858019779622555,0.012021277183294295
1789252715837863700,11.75786376953125,-2.1604010875880717,0.49399742302224037,0.5076607683241368
1789252715847916500,11.76791650390625,-2.362136542853713,0.5506988228008151,0.9078320527881384
1789252715857969700,11.7779697265625,-2.401857143345475,0.32408889238908883,1.1906079609274864
1789252715868022800,11.788022705078125,-2.1180624135524035,-0.24630671065896748,1.4310446105092762
1789252715878075600,11.79807568359375,-1.690579343792796,-0.9748837277978658,1.5161720404356718
1789252715888128800,11.808128662109375,-1.3416238673031329,-1.6997731424652038,1.5045593440532683
1789252715898181600,11.818181640625,-1.0286293465107679,-2.3231255519360303,1.5314537807196378
1789252715908234500,11.828234375,-0.6098591600388288,-2.8133979630857704,1.7404472442895174
1789252715918288000,11.838287841796875,-0.11559592568725346,-3.1311420164927837,2.1973867101579905
1789252715928340700,11.8483408203125,0.27001754885315893,-3.0876614789456127,2.8910937817066906
1789252715938393600,11.8583935546875,0.34943186182975766,-2.5253996441230178,3.5438960114151237
1789252715948446700,11.86844677734375,0.36587563163042064,-1.3820702978514134,4.181390197354555
1789252715958499600,11.87849951171875,0.7733133999660611,-0.12838453398123384,5.065403567659855
1789252715968552700,11.888552734375,1.6078563446596263,0.9481744384400546,5.95960807711184
1789252715978605800,11.898605712890625,2.4544179361879825,1.8151435888335108,6.700068132007122
1789252715988658700,11.90865869140625,2.8540660735607144,2.2244532885208725,7.134615148803591
1789252715998711600,11.918711669921874,3.1510160530030724,1.7185194901198149,7.103073178592324
1789252716008764700,11.9287646484375,3.1054315289139747,0.46963118965923784,6.401795379528403
1789252716018817500,11.938817626953124,2.4693676680386063,-0.6819391846045851,4.552338894465565
1789252716028870700,11.94887060546875,1.7522136699289081,-1.2722006408564746,2.184451240739226
1789252716038923800,11.958923828125,1.1646642491146921,-1.439571908096969,0.382790526074171
1789252716048976600,11.9689765625,1.002379052966833,-1.3888091045871376,-1.300977968659997
1789252716059029500,11.979029541015626,0.9916302799373865,-1.1373074556335807,-2.8898662857383486
1789252716069082600,11.98908251953125,0.7708470098525285,-0.6673118165761232,-4.155169714426994
1789252716079135700,11.9991357421875,0.46304304344058034,-0.17265154573097824,-5.130167423993349
1789252716089188600,12.009188720703126,0.29409751262068745,0.298040989549458,-5.785357425621152
1789252716099241700,12.01924169921875,0.44669455070793623,0.7837760495305061,-6.23454788479805
1789252716109294600,12.029294677734375,1.0130503768458963,1.245938949135691,-6.386207934296131
1789252716119347500,12.039347412109375,1.5915376625433564,1.5178597012616692,-6.047105158779025
1789252716129400800,12.04940087890625,1.9235405429273842,1.0690507887482643,-5.104064429965615
1789252716139453700,12.05945361328125,2.3786539624124763,0.5002912624694407,-3.956054086270928
1789252716149506600,12.069506591796875,2.6994737700030207,0.08152809026017785,-3.119146166011691
1789252716159559700,12.0795595703125,2.5280665252447125,-0.6781552821516991,-2.383632919868827
1789252716169612500,12.089612548828125,2.2158909196197984,-1.2391431515157223,-1.8008266019284724
1789252716179665700,12.099665771484375,1.7852093460798262,-1.5008867930203675,-1.4612421803742646
1789252716189718800,12.10971875,1.4418886606067418,-1.4676805428586899,-1.2791489986896514
1789252716199771600,12.119771728515625,1.539303325176239,-1.1602933405540883,-1.1959651040464638
1789252716209824500,12.129824462890625,1.4127967138960957,-0.672689856352657,-1.0115993012547493
1789252716219877600,12.139877685546875,0.8601283445879816,-0.17099340326040982,-0.8419716333895921
1789252716229930800,12.1499306640625,0.41183483425080775,0.2506948626153171,-0.6589198358058929
1789252716239983600,12.159983642578124,0.19036533546745776,0.5380893704660237,-0.3143266461789608
1789252716250036700,12.17003662109375,0.05484335082173347,0.6948201473571359,0.10048808066546916
1789252716260089600,12.180089599609374,-0.2984615530490875,0.7711762418068945,0.40989889775216576
1789252716270142500,12.190142578125,-0.869930192156136,0.6756045747555792,0.8594710497230291
1789252716280195800,12.20019580078125,-1.5104808430567382,0.5774420144282281,1.3019523666501045
1789252716290248700,12.210248779296874,-2.1422534364789723,0.5223343135818839,1.4008084621995687
1789252716300301600,12.220301513671876,-2.5740298195183278,0.4961097390010953,0.9226187030315398
1789252716310354700,12.230354736328126,-2.6640260245248673,0.5693517930835486,0.044516602596640586
1789252716320407600,12.240407470703126,-2.601726804739237,0.7482583075560629,-0.9449024310320615
1789252716330460700,12.250460693359376,-2.5925644241183994,0.961091641549766,-1.7806418920338152
1789252716340513800,12.260513671875,-2.6397543375775214,1.1642796337112784,-2.4007266780108214
1789252716350566700,12.270566650390625,-2.509880880212784,1.1349779897727073,-2.720632001104951
1789252716360619500,12.28061962890625,-2.2067601031810042,0.847562146873027,-2.586288412588835
1789252716370672600,12.290672607421875,-2.1281278804928063,0.47703225969597696,-2.1222434986293313
1789252716380725500,12.3007255859375,-2.208947091831267,0.11744929846897721,-1.4246931956559419
1789252716390778600,12.310778564453125,-2.160904360935092,-0.17351693038865923,-0.6338157896876335
1789252716400831700,12.320831787109375,-2.1521622515529395,-0.3802256440222263,0.21767244458794593
1789252716410884600,12.330884521484375,-2.237806106568873,-0.49697979983389373,0.996950013655424
1789252716420937500,12.3409375,-2.271663075724244,-0.5169824311599135,1.467270939144492
1789252716430990600,12.350990478515625,-2.219219771781564,-0.46716114628389477,1.6036878268033266
1789252716441043700,12.361043701171875,-2.1503306522116064,-0.3987790994532406,1.568541110098362
1789252716451096600,12.3710966796875,-1.9080270397141574,-0.24168745336048303,1.5769494574815035
1789252716461149700,12.381149658203125,-1.3367305423036218,0.18156674665771425,1.417065184995532
1789252716471202600,12.39120263671875,-0.7557149071723223,0.9268854205653071,1.2560627221345901
1789252716481255400,12.40125537109375,-0.33473581247925754,1.7916501927822828,1.315907242244482
1789252716491308800,12.411308837890624,-0.10785831717252731,2.542032799015939,1.5487112049907445
1789252716501361700,12.421361572265624,-0.16017477986514567,3.002477350395918,1.6533850469082594
1789252716511414500,12.43141455078125,-0.3576040623694658,3.0663164930999276,1.5739479375779628
1789252716521467600,12.441467529296874,-0.16524667630195616,2.8794544895783063,2.0197785649329423
1789252716531520500,12.4515205078125,0.7601476289227604,2.6432249362975355,3.232174579298496
1789252716541573600,12.46157373046875,2.0990964317977427,2.380994241928309,4.797798340645432
1789252716551626800,12.471626708984376,3.5474896519929167,2.2472607481345532,6.334603419265151
1789252716561679600,12.4816796875,5.0086757182657715,2.4457810407459735,7.163659456980228
1789252716571732700,12.491732666015626,5.955041792109609,2.9681966028705236,6.722720693320036
1789252716581785600,12.50178564453125,5.579504013642668,3.4735686757355926,5.380425794887542
1789252716591838700,12.511838623046875,4.535734088884293,3.4892443837732077,3.6359108627676964
1789252716601891800,12.521891845703125,4.093307717014849,2.9787492688059807,1.2730740626901387
1789252716611945700,12.53194580078125,3.4978605286881326,2.1644801735952495,-0.690676910072565
1789252716621997600,12.54199755859375,2.5387644448697566,1.3715717001907526,-1.9419167420953511
1789252716632050700,12.55205078125,1.4819272410064934,0.7820888270959258,-2.8442636414706706
1789252716642103600,12.562103515625,0.45257367187440395,0.29514037273712457,-3.635812663090229
1789252716652157400,12.572157470703125,-0.4166904575884342,-0.3109378805235028,-4.293092914995551
1789252716662210800,12.5822109375,-0.9429331767857074,-0.8178419121962041,-4.500018924641609
1789252716672263700,12.592263671875,-1.1238351028591393,-1.2750547151133418,-4.398704330024123
1789252716682316500,12.602316650390625,-1.1549056561663746,-1.713147733953595,-4.217993542608618
1789252716692369700,12.61236962890625,-1.0787664193376898,-2.1601684478759764,-3.722840373679995
1789252716702422500,12.622422607421875,-0.43744507632553575,-2.5405589270710944,-2.9932752222865817
1789252716712475600,12.6324755859375,0.667435150694847,-2.7475048104614017,-2.206082057788968
1789252716722528800,12.64252880859375,2.1619424718111753,-2.7096394824475047,-1.2991747186303138
1789252716732581600,12.65258154296875,3.67639309528172,-2.3408558544158935,-0.7596779655843973
1789252716742634500,12.662634521484375,4.572071184417605,-1.6452195683702826,-0.7868710929363966
