time,seconds_elapsed,z,y,x
1789911470296369000,0.051368896484375,-1.5194722510248422,0.2917874821126461,-0.20931421995684504
1789911470306377000,0.061376953125,-1.5307938555061815,0.30832886706888674,-0.26373835898581893
1789911470316386000,0.071385986328125,-0.8953472497463226,0.30678894415050745,-0.013018106200918554
1789911470326393900,0.081393798828125,0.29842940434515475,0.13713468053936959,0.24256851051133124
1789911470336402000,0.09140185546875,0.5691086319774389,0.05856032551825046,0.26436650082152335
1789911470346411000,0.101410888671875,0.6391174032270908,0.028558862747251987,0.3612448300246149
1789911470356418800,0.111418701171875,0.6377794326215982,0.030410628093779084,0.3496535782890394
1789911470366427000,0.121427001953125,0.5695417626976966,0.07627075425386429,0.4174560716660693
1789911470376435700,0.131435791015625,0.15594985564649105,0.16832886022627352,0.20892123858388512
1789911470386443800,0.14144384765625,-0.07100771915912628,0.08394698797017336,-0.021841244930028914
1789911470396451800,0.151451904296875,-0.1977829182475805,-0.01737725125849247,-0.2759721464086324
1789911470406460700,0.161460693359375,-0.20046061302423476,-0.011544891843199729,-0.2766174585748464
1789911470416468700,0.17146875,-0.1625087757706642,-0.07427928817570209,-0.40105975773632524
1789911470426477000,0.18147705078125,0.00004617722928524017,-0.1048284479573369,-0.3696563557455316
1789911470436486000,0.19148583984375,0.3133282827913761,-0.618712036319077,-0.46032585690375416
1789911470446494000,0.201493896484375,0.7286924602121114,-0.7144488308042287,-0.5167137702863663
1789911470456502000,0.211501953125,0.7360679574161767,-0.7297431383088231,-0.5073324496852234
1789911470466510800,0.2215107421875,0.8408657179743051,-0.7613496981889009,-0.2401331365905702
1789911470476519000,0.231518798828125,0.6970674878925085,-0.3514937627956271,0.06294986571408807
1789911470486527000,0.24152685546875,0.4920394208222627,-0.09307020562440156,-0.06878905672896653
1789911470496535800,0.251535888671875,0.12271277195513247,-0.15163023888170718,-0.34350305630266664
1789911470506543900,0.2615439453125,0.16983049696087837,-0.3319406288027763,-0.39885033805854614
1789911470516552000,0.271552001953125,0.17107026788890362,-0.317058409230411,-0.30420901065990325
1789911470526560800,0.281560791015625,0.4180705137699842,-0.7349182028591632,0.017428031597658992
1789911470536568800,0.29156884765625,0.3900514569878578,-0.3534177165955305,-0.06138765789866447
1789911470546577000,0.301576904296875,0.029942718321084975,0.1299018066763878,-0.16117307018749416
1789911470556585700,0.311585693359375,-0.3905518077254295,0.6271209682241082,-0.040540392442047594
1789911470566593800,0.32159375,-0.3895411693781614,0.6614546149805188,0.0703334731593728
1789911470576601900,0.331601806640625,-1.2018839727014303,0.5364218756452203,-0.024683921010047197
1789911470586610700,0.341610595703125,-1.0969769065499304,0.6195177997440099,-0.39554216335862874
1789911470596619000,0.351618896484375,-1.0186012889713048,0.625687136028707,-0.7653944435350597
1789911470606627000,0.361626953125,-1.0298439829975365,0.6695429366290568,-0.7240228609658778
1789911470616636000,0.371635986328125,-0.8978525105655193,0.7192156068146228,-0.7394464939385652
1789911470626644000,0.38164404296875,-0.9254355140179396,0.6456307306438684,-0.46201764591559763
1789911470636652000,0.391652099609375,-0.9047849401772021,0.4371022542372346,-0.18473507449552415
1789911470646660900,0.401660888671875,-0.5201549237161874,0.4059983831822872,-0.15610592299103737
1789911470656669000,0.4116689453125,0.0961556044191122,0.375461206099391,-0.12164061267897486
1789911470666676700,0.4216767578125,0.523850271102786,0.04302928664833307,0.12411518609896302
1789911470676685800,0.431685791015625,0.8632973300129174,-0.10945844584554433,0.24629019791558385
1789911470686694000,0.44169384765625,0.9647826050221919,-0.18106588446348904,0.38951632719784973
1789911470696701700,0.45170166015625,0.9418184935420751,-0.19865677847266197,0.4405931650929153
1789911470706710800,0.461710693359375,0.8542296419382095,-0.012907120107114315,0.2590321905888617
1789911470716718800,0.47171875,0.6296002178192138,0.0891907338425517,0.017904928394407032
1789911470726726700,0.4817265625,0.07678922517001628,-0.06359101316183804,-0.2077342572890222
1789911470736735700,0.49173583984375,-0.1424409702539444,-0.21057810241281985,-0.24763152952194212
1789911470746743800,0.501743896484375,0.02455810267329216,-0.2292731582716107,-0.2883960861086845
1789911470756752000,0.511751953125,0.0638917496740818,-0.2171335154056549,-0.18109423377513884
1789911470766760700,0.5217607421875,-0.09362754724621772,-0.12118512399643659,-0.044427755269408224
1789911470776769000,0.53176904296875,-0.28767595514059063,-0.023442542646825312,0.019200375032424926
1789911470786776800,0.54177685546875,-0.27810791632831094,0.08428045770823955,-0.08139321183413267
1789911470796786000,0.551785888671875,-0.4732178159743547,-0.056522682210803026,-0.18395064611956477
1789911470806794000,0.5617939453125,-0.4466325913876295,-0.21383622742593286,-0.36713220756277437
1789911470816801800,0.5718017578125,-0.33651509711146355,-0.32971418492496013,-0.45418315289765593
1789911470826811000,0.581810791015625,-0.26589550048708915,-0.40674861702769993,-0.40179640144780276
1789911470836819000,0.59181884765625,-0.07763502834439277,-0.32871582153737544,-0.3869515912763774
1789911470846826800,0.60182666015625,0.08108955271244049,-0.1299161274626851,-0.31175504212528465
1789911470856835800,0.6118359375,0.1269026248604059,0.14349135608971117,-0.2033712397739291
1789911470866844000,0.621843994140625,0.1930734253823757,0.4422735193952918,-0.11420607876405119
1789911470876851700,0.631851806640625,0.16579554235637187,0.6873682239159942,0.26087708780318497
1789911470886860800,0.64186083984375,0.1205243220001459,0.4108367631241679,0.6204125566266476
1789911470896868900,0.651868896484375,0.06501812335550784,0.24561931291669606,0.6178301389180123
1789911470906877000,0.661876953125,-0.19363982709348201,0.0809168264940381,0.28044074319005013
1789911470916885800,0.6718857421875,-0.34798107849955556,0.05089169058650732,-0.023722674762457607
1789911470926893800,0.681893798828125,-0.34496611459255216,0.053446051244437694,0.00048559155985713
1789911470936902000,0.69190185546875,-0.0895937616854906,0.05931172840744257,-0.03652107379809022
1789911470946911000,0.701910888671875,-0.06878770502209663,0.05413461803048849,0.023535335496813057
1789911470956919000,0.7119189453125,-0.06896423063278198,0.06228139186799526,0.0442959455832839
1789911470966926800,0.7219267578125,-0.01816986294090748,0.08421352995187044,0.08271700778380035
1789911470976936000,0.73193603515625,-0.023054127851128578,0.11911153259277343,0.09567015898972749
1789911470986944000,0.741944091796875,0.0027466683596372604,0.18032792557775973,0.12436083142310381
1789911470996951800,0.751951904296875,0.021587562429904936,0.2362880054697394,0.24517595306336878
1789911471006961000,0.7619609375,0.03050678194463253,0.2522138888761401,0.3304435221128166
1789911471016969000,0.771968994140625,0.026441432201862333,0.2059682705298066,0.32746421404108406
1789911471026976800,0.781976806640625,0.02815875751376152,0.26866496520042416,0.29364304685145615
1789911471036985900,0.79198583984375,-0.1594154859304428,0.1598077001184225,0.2138924876578152
1789911471046994000,0.801993896484375,-0.20421265903413294,0.09954203198701142,0.13456804492175578
1789911471057001700,0.812001708984375,-0.06283434957563877,0.09109481389820576,0.17530542124062776
1789911471067010800,0.8220107421875,-0.01447626911997795,0.06575491319745778,0.2065799726873636
1789911471077019000,0.832018798828125,-0.04308920014202595,0.10467150382995605,0.18300810457244515
1789911471087027000,0.84202685546875,-0.039053661015629765,0.09447159685492515,0.17740780034735798
1789911471097035800,0.852035888671875,-0.011551906105875968,0.15551555588245392,0.17270751370191573
1789911471107044000,0.862044189453125,0.11813421199321746,0.1448117910385132,0.12226152105629444
1789911471117052000,0.872052001953125,0.21049217769503592,0.0943105610743165,0.119482557862252
1789911471127061000,0.88206103515625,0.2258908223569393,0.015574001228809356,0.12344181688204407
1789911471137069000,0.892069091796875,0.19703239214122295,-0.00025075989067554474,0.0962028045617044
1789911471147076900,0.902076904296875,-0.0013765490502119064,-0.06502104596495628,0.06161036073863506
1789911471157086000,0.9120859375,-0.1583095705151558,-0.05738076034486293,0.05978899053037166
1789911471167094000,0.922093994140625,-0.10735095217227936,0.05557108057439327,0.11537190767303108
1789911471177101800,0.932101806640625,-0.10386194101274013,0.04532645767480135,0.10554638696834444
1789911471187111000,0.94211083984375,0.029285131195187566,0.1970887985035777,0.2393710661768913
1789911471197118700,0.95211865234375,0.03213642897307872,0.18967939902991054,0.233900671941787
1789911471207126800,0.962126708984375,0.03739771050214767,0.14697949046641587,0.23737024774849413
1789911471217135900,0.972135986328125,-0.03819792096912861,0.1092354507446289,0.16947949156612158
1789911471227143700,0.982143798828125,-0.09767360776662826,0.06668897917717695,0.08000248812809586
1789911471237151700,0.99215185546875,-0.09883914441466331,0.004703939907252788,0.06714359107688068
1789911471247160800,1.002160888671875,-0.1088520043849945,-0.01831745471805334,0.16838497432768343
1789911471257169000,1.0121689453125,-0.12566869915127754,0.033247020563483234,0.2848077062278986
1789911471267177000,1.022177001953125,-0.17109949398338795,0.08774725703597068,0.37569428420290346
1789911471277185800,1.032185791015625,-0.17244447885155678,0.14758300931751728,0.3632943829655647
1789911471287193900,1.04219384765625,-0.16806290276646613,0.19160218378603458,0.30065847857147454
1789911471297202000,1.052201904296875,-0.19545827469229696,0.14955869330465793,0.22680881398469208
1789911471307211000,1.0622109375,-0.20146189902126788,0.1207011398717761,0.14063392083197832
1789911471317218800,1.07221875,-0.20307459491491317,0.06491612428575753,0.0627130612835288
1789911471327227000,1.082226806640625,-0.21038871732056139,-0.03631663726717233,-0.026257600067555904
1789911471337236000,1.092236083984375,-0.20021219122111797,-0.12773995246738196,-0.10983604698628187
1789911471347243800,1.102243896484375,-0.12214344763457774,-0.13735738337934017,-0.1667393990777433
1789911471357251800,1.112251953125,0.00931494083404541,-0.13915361914634702,-0.12745938196033238
1789911471367261000,1.122260986328125,0.06194061560630798,-0.13323913440555332,-0.08205547513514756
1789911471377268700,1.132268798828125,0.042108956933021545,-0.0964519570171833,-0.1141055409990251
1789911471387276800,1.14227685546875,0.001830138036608696,-0.06263327404558658,-0.0831757113367319
1789911471397286000,1.152285888671875,-0.004743395134806633,-0.005366787730157375,-0.07738383006229996
1789911471407293700,1.162293701171875,-0.04905307698249817,0.04436638047099113,-0.01590396383553743
1789911471417302000,1.172302001953125,-0.17820085042119024,-0.08341945696473121,0.008447656480222939
1789911471427310800,1.182310791015625,-0.03488835802972316,-0.09992284799814223,-0.10161737695634364
1789911471437319000,1.19231884765625,0.2558241883277893,-0.17738105847090482,-0.06024477147385478
1789911471447327000,1.202326904296875,-0.12109013918936253,-0.13413432967960834,-0.12462795792669057
1789911471457336000,1.212336181640625,0.9129033647030591,0.033412732519209384,0.03195625010058284
1789911471467344000,1.22234375,0.9158458478957414,0.029478315679728983,0.03560805060639977
1789911471477352000,1.23235205078125,1.7922113337963819,-0.012967910383641718,0.2824389312699437
1789911471487361000,1.242361083984375,1.8516314910143612,-0.013630465945601463,0.45115021494254465
1789911471497368800,1.252368896484375,0.8641501474499702,-0.1671533867061138,0.2920435027003288
1789911471507377000,1.262376953125,-0.3001005524277687,-0.23052900355160236,0.09295914646536112
1789911471517386000,1.272385986328125,-0.2854600326567888,-0.23313772474527358,0.1524620135307312
1789911471527393800,1.282393798828125,-1.6440560775488615,-0.12196662976294755,0.05925166878327727
1789911471537401900,1.29240185546875,-1.6429413943052291,-0.11582535052895546,0.07946151311919093
1789911471547411000,1.302410888671875,-1.4060779270350932,0.6320496567979454,-0.4512814401067793
1789911471557418800,1.312418701171875,-1.4100140974402426,0.6197931095540523,-0.4996029879443347
1789911471567426800,1.3224267578125,-0.8774550347030162,0.49009647006094453,-0.544265721013397
1789911471577436000,1.332435791015625,1.6968395732313393,0.19437574015259743,0.5346056200034917
1789911471587443700,1.342443603515625,2.3509470403194426,-0.2531833184301853,0.7952616124019026
1789911471597452000,1.3524521484375,2.4028911625683307,-0.3800345053642988,0.648934448364377
1789911471607460900,1.3624609375,2.4744629453510045,-0.9818477215915917,0.6346770826920867
1789911471617469000,1.372468994140625,2.300499878630042,-1.6165350334167479,1.1383303689405322
1789911471627477000,1.38247705078125,1.8807845202624798,-1.7372464024215937,0.9860445887595415
1789911471637486000,1.392486083984375,0.9479629876464605,-1.7194599858403206,0.33888343367800117
1789911471647494000,1.402493896484375,-0.5786790088772773,-1.0456085383623839,0.20726678590774536
1789911471657502000,1.412501953125,-0.5199105935662984,-1.105515602314472,0.29972843117974696
1789911471667511000,1.422510986328125,-2.5236171446204185,-0.3265776404649019,0.14694675724059342
1789911471677518800,1.432518798828125,-4.287327775597572,-0.7555173387736082,-1.5430394429646432
1789911471687527000,1.44252685546875,-4.313792004153132,-0.27656010236442086,-1.747228867253661
1789911471697536000,1.452535888671875,-4.357215550816059,-0.23655600875616073,-1.830518268097937
1789911471707543800,1.462543701171875,-3.5575323225796223,-0.31582828291356563,-1.2978040147989987
1789911471717551900,1.4725517578125,-3.5209178714096545,-0.5547410839289426,-1.5074996352888643
1789911471727560700,1.482560791015625,-1.229549978262186,-0.9040256462424993,-0.8004225022964179
1789911471737568800,1.49256884765625,-0.35486440827250476,-1.022185577198863,-0.6463494003072381
1789911471747576800,1.502576904296875,-0.4161778318911791,-0.9461205746501684,-0.8126147521324455
1789911471757585700,1.512585693359375,0.08093757702112198,-0.9885638781040906,-0.9040270344819873
1789911471767594000,1.522593994140625,1.3429846342623233,-0.03696633334755897,-0.018423677871772088
1789911471777602000,1.53260205078125,1.7165186716914176,0.3624742987543344,0.29513489284440875
1789911471787611000,1.54261083984375,1.4537491942703724,0.33251346025466916,-0.2148928603393957
1789911471797619000,1.552618896484375,1.4436539167135953,0.350488677406311,-0.28096719648325813
1789911471807627000,1.562626953125,0.972363853931427,-0.46571372395455835,-0.7354190650533884
1789911471817635800,1.5726357421875,0.4843120414406061,-1.082518173086643,-0.2884837278595194
1789911471827644000,1.582643798828125,0.6814034702926873,-0.8834791172981261,-0.31084413782544434
1789911471837652000,1.59265185546875,1.7939876958191394,0.01551321095228195,-0.5566030784085393
1789911471847660800,1.602660888671875,1.6893378192991018,0.5077984232291579,-0.34258374950066206
1789911471857668900,1.6126689453125,0.3773416130185127,0.04563274714499712,-0.6557758386917412
1789911471867677000,1.622677001953125,-0.7121966679632663,-0.24660335551798343,-1.0431610721450297
1789911471877685800,1.632685791015625,-1.3005407462865113,-0.09885814137607812,-1.1530458536438644
1789911471887693800,1.64269384765625,-1.7025357390463352,0.1126864679813385,-0.7040695486743003
1789911471897702000,1.652701904296875,-1.9663585249125957,0.35081279479414224,0.005910758413746953
1789911471907710700,1.662710693359375,-1.5636363869220018,0.6894619813248515,0.28721608254387976
1789911471917718800,1.67271875,0.019934534525871277,1.0518494785785675,0.49723245942071076
1789911471927727000,1.68272705078125,2.411096680855751,1.475516497181356,0.5939245088040829
1789911471937735700,1.692735595703125,2.7827631708472964,1.6605521620586514,0.2682007086895406
1789911471947744000,1.702743896484375,2.6181892792403696,1.6624688093349336,0.43261239547207947
1789911471957752000,1.712751953125,1.5648527769744396,1.4101941301822662,0.7650958989799023
1789911471967761000,1.722760986328125,0.7889601741701364,0.9879685425594449,1.0594136302225292
1789911471977769000,1.73276904296875,0.7893553109675645,0.45472178981900213,1.2480595945514739
1789911471987777000,1.742777099609375,0.5917313826739787,-0.06717734721601008,0.896900032146275
1789911471997785900,1.752785888671875,0.2335030509263277,-0.3616311259284615,0.5062850960567593
1789911472007794000,1.7627939453125,-0.013798808249831198,-0.4050181399732828,0.3023487697459757
1789911472017801700,1.7728017578125,0.08563187231719493,-0.07058920148611068,0.014819529599696396
1789911472027809800,1.782809814453125,-0.19606442389190196,0.26520751822292804,0.0851395587556064
1789911472037819000,1.79281884765625,-0.21110124950408934,0.574291295312345,0.3687596626341343
1789911472047826700,1.80282666015625,-0.09464695342183113,0.7069485381767153,0.7834956251539289
1789911472057834800,1.812834716796875,-0.059630000576376914,0.7590770770817995,0.8941717762261628
1789911472067843800,1.82284375,-0.4859983870923519,0.2677893514096737,0.495542314376682
1789911472077851600,1.8328515625,-0.5730570773422717,-0.07185615268200636,0.22065949757471678
1789911472087860000,1.84285986328125,-0.46853228850662704,-0.2479649992600083,0.06208133925125003
1789911472097868800,1.852868896484375,-0.3229781546682119,-0.2637257552325725,0.006066022040694952
1789911472107876900,1.862876953125,-0.19798750090897083,-0.24084347681701182,0.04351882373094559
1789911472117885000,1.872885009765625,-0.3425590534508228,-0.2994821282684803,0.2654509715899825
1789911472127894000,1.88289404296875,-0.4716244093030691,-0.32777503355592486,0.35653438731133935
1789911472137901800,1.89290185546875,-0.47056350207328795,-0.3296984028339386,0.4403668089911341
1789911472147910000,1.902909912109375,-0.520808419188857,-0.43654052870124577,0.5530512311458587
1789911472157919000,1.9129189453125,-0.3684147947192192,-0.3666244041711092,0.6563084842637181
1789911472167926800,1.9229267578125,-0.2632949625998735,-0.28382454040944577,0.8399320903860032
1789911472177934800,1.932934814453125,-0.2214297512948513,-0.3311199600696563,0.7925485540509224
1789911472187944000,1.94294384765625,-0.058525838726758955,-0.48514673869907854,1.1114663274124263
1789911472197951700,1.95295166015625,-0.03156184395551681,-0.7277677465826272,1.2308338805928825
1789911472207959800,1.962959716796875,0.04331950176656246,-0.8555027306139469,1.1323204610012472
1789911472217969000,1.972968994140625,0.02846095533072948,-0.8830763817161321,1.2043654142536222
1789911472227976700,1.982976806640625,-0.3233949187755584,-0.8229372625738381,1.1213827412709594
1789911472237984800,1.99298486328125,-0.5051882407307624,-0.49952305457592006,0.6905322409048676
1789911472247994400,2.002994384765625,-0.6787164231657982,-0.252245745319128,0.2350112635321915
1789911472258002200,2.013002197265625,-0.9043488868474959,-0.148318337854743,-0.029034809695929288
1789911472268010500,2.023010498046875,-0.7628793919742107,-0.27301848423480984,-0.3185995011925697
1789911472278019300,2.033019287109375,-0.35769290969669815,-0.4145546146035194,-0.9064426442563533
1789911472288027400,2.04302734375,0.0073024319678544995,-0.16663842292129993,-1.5846819514296948
1789911472298035500,2.053035400390625,0.2787146500498056,0.22188801645636558,-1.9922024296127259
1789911472308044500,2.06304443359375,0.36280396910011764,0.5285954198032617,-2.222260016260296
1789911472318052400,2.07305224609375,0.28969372470378874,0.6682225016802549,-2.3361218116313216
1789911472328060400,2.083060302734375,-0.0679261197566986,0.3415092521369457,-1.9715813741274177
1789911472338069500,2.093069580078125,-0.98504038015306,-0.6919733796238898,-0.6274015387311578
1789911472348077300,2.103077392578125,-1.7185352722108362,-0.9251146115005016,-0.34313802238255736
1789911472358085400,2.11308544921875,-1.9829688834518193,-0.4791074585348367,-0.590308802524954
1789911472368094500,2.123094482421875,-2.5769956835865973,-0.27750176712870595,-0.5708493381649256
1789911472378102300,2.133102294921875,-2.96245046043396,-0.48212300696372984,0.0478469160631299
1789911472388110300,2.1431103515625,-2.9651906990528105,-0.4039239149957895,-0.09078530955761671
1789911472398119400,2.153119384765625,-2.204444811975956,-1.0635127361044288,0.5967489185750484
1789911472408127200,2.163127197265625,-1.3012088548064231,-1.8946850353211164,0.8842544855847955
1789911472418135300,2.17313525390625,-0.9468272616147995,-2.576593532526493,0.5485258626759052
1789911472428144000,2.18314404296875,-1.1746271324634552,-3.4102059183716773,-0.05448094725012779
1789911472438152200,2.193152099609375,-1.6333020438224077,-4.133327008192241,-0.4743757538378238
1789911472448160500,2.203160400390625,-2.1521113981485365,-4.674151210449636,-0.7107151972338557
1789911472458169300,2.21316943359375,-2.576183198159933,-5.273954548159241,-0.6956970763221383
1789911472468177400,2.223177490234375,-3.1799089700102803,-5.570626295182109,-0.24228958397209643
1789911472478185500,2.233185546875,-4.033254814851284,-5.608127466058731,-0.00026069676280021664
1789911472488193300,2.243193359375,-4.5273885776042935,-6.0269561047196385,-0.13742927957177162
1789911472498202400,2.253202392578125,-0.47537353270351884,-7.278167879691719,0.4786819265991449
1789911472508210400,2.26321044921875,-3.5358979983985424,-8.055352275872231,-0.961692237791419
1789911472518218200,2.27321826171875,-5.47851207510829,-8.242230353745818,-0.9696586866259574
1789911472528227300,2.283227294921875,-4.9778842741608615,-9.13481924469471,-1.5389771619617938
1789911472538235400,2.2932353515625,-5.934155655947327,-9.862609787631035,-2.182185049372911
1789911472548243200,2.3032431640625,-4.973233233484626,-9.887636676859856,-1.2521084315508604
1789911472558252300,2.313252197265625,-2.9399142189770937,-9.68713865443468,-0.2428957331717014
1789911472568260400,2.32326025390625,-1.2546256750687956,-9.494958378499746,0.5686082812398672
1789911472578268400,2.333268310546875,0.2399941665112972,-9.601837036985158,1.0579530561506747
1789911472588277200,2.34327734375,0.9046198127433657,-9.437907873022557,1.4941431639790534
1789911472598285300,2.353285400390625,0.587926145172119,-9.422498706966637,2.4782529852837323
1789911472608293400,2.36329345703125,0.3883879076898098,-9.380174061456323,2.939250786632299
1789911472618302500,2.373302490234375,0.8132838835656643,-8.946065436077117,3.868268835312128
1789911472628310500,2.383310546875,2.43663035056293,-8.99356251578927,5.591802354201674
1789911472638318300,2.393318359375,4.587998236867785,-7.731329580587148,6.919649625086784
1789911472648327400,2.403327392578125,5.648091812178492,-5.720670141655206,9.35352746207118
1789911472658335500,2.41333544921875,5.718794410911202,-4.138729159496724,11.629967835199832
1789911472668343300,2.42334326171875,6.450823906591534,-3.1498934787139294,14.591220025759934
1789911472678352400,2.433352294921875,6.562044393673538,-1.7076836233288049,14.23417184370756
1789911472688360400,2.4433603515625,5.535958886426687,0.03286474324762821,13.830740680664777
1789911472698368300,2.4533681640625,3.879551861348748,1.1039578514784574,14.819733013314007
1789911472708377300,2.46337744140625,2.527538117456436,2.9580472570389507,15.993886683046817
1789911472718385200,2.47338525390625,1.3645774573892355,5.087243059024215,15.929495751678942
1789911472728393200,2.483393310546875,0.49838060654252764,6.893226313063502,16.590242802911995
1789911472738402300,2.49340234375,0.0026845629088580606,8.432607379651069,17.844599890172482
1789911472748410000,2.50341015625,-0.18227292216569185,9.293836086696386,17.878967439198494
1789911472758418400,2.51341845703125,-0.6748439656466245,9.048177903074025,17.736238884174824
1789911472768426500,2.523426513671875,-1.3185443127498029,8.244641506540775,16.533664591121674
1789911472778435300,2.533435302734375,-2.536366736078262,7.1427809196025125,15.034548314905166
1789911472788443400,2.543443359375,-4.757490880176425,6.009913199982047,13.264621878153084
1789911472798451500,2.553451416015625,-7.427715467080473,5.209074956491589,11.655887873876095
1789911472808460300,2.563460205078125,-9.553557282462716,4.897219668862223,10.386977360606194
1789911472818468400,2.57346826171875,-11.363227116060257,4.986950793191791,8.558013628473878
1789911472828476400,2.583476318359375,-13.331016550558804,5.334308186835051,6.2607747974663965
1789911472838485200,2.5934853515625,-15.481548570561408,4.752092820525169,3.053599050346017
1789911472848493300,2.603493408203125,-13.116942422723769,3.050332742026448,-1.2288105580717323
1789911472858501400,2.61350146484375,-11.598113730299472,0.31463819634616375,-5.656757933714985
1789911472868510200,2.62351025390625,-10.48998648418188,-0.9113818542242049,-7.7211922174543135
1789911472878518300,2.633518310546875,-7.13594142897129,0.0007645546317100524,-9.704843237951398
1789911472888526300,2.6435263671875,-5.929113570126891,0.3264870395720005,-10.199335312622784
1789911472898535200,2.65353515625,-4.751481995150447,0.5360872368633747,-9.197125186482072
1789911472908543200,2.663543212890625,-4.63666552940309,0.842760737940669,-5.8504351702094075
1789911472918551600,2.673551513671875,-4.228688247363269,2.089763955307007,-2.674427883812785
1789911472928560400,2.683560302734375,-1.8130758426487446,2.425752982717752,-1.5741659642428159
1789911472938568400,2.693568359375,-0.4445090233623981,2.0983727936983105,-0.6432973192602396
1789911472948576500,2.703576416015625,-0.20902678131759164,2.01306883816123,-0.7799626287221908
1789911472958585300,2.71358544921875,1.4955254121176897,-0.03495265543758869,-1.1637176159143447
1789911472968593400,2.723593505859375,2.5110493394702673,-1.4092548035055399,-1.1996534371703862
1789911472978601200,2.733601318359375,3.4832787533670664,-2.922548073634505,-1.4180313996791838
1789911472988610300,2.7436103515625,3.0654455554842945,-3.162200879362225,-1.1118073959350585
1789911472998618400,2.753618408203125,3.2118232806652784,-3.210009509241581,-1.1715320890575647
1789911473008626200,2.763626220703125,1.9651736990422008,-1.9598299999266862,0.23480478117465972
1789911473018634200,2.77363427734375,1.6871910165287554,-1.3139748128771782,1.396689920964837
1789911473028643300,2.783643310546875,1.0340367585122585,-1.2400111665219067,1.292870650050044
1789911473038651100,2.793651123046875,-0.10508424934931099,-0.48392158081829545,0.7663660650461912
1789911473048659200,2.8036591796875,-0.7913233961701392,0.5364607463508844,1.146644900560379
1789911473058668300,2.813668212890625,-0.5737456441283225,1.5553396832197903,2.7685557817965742
1789911473068676400,2.82367626953125,-1.093930378460884,1.8535989916950464,2.7183406752973793
1789911473078684400,2.833684326171875,-1.5185633194863795,0.6715957775056361,5.8905912395089866
1789911473088693500,2.843693603515625,1.562946066570282,-1.600395214998722,5.6344864806741475
1789911473098701300,2.853701416015625,3.3244472048044202,-3.3991876807510852,7.62020904674828
1789911473108709400,2.86370947265625,5.561105018121004,-2.8508286990746856,2.3604192175418137
1789911473118718500,2.873718505859375,2.2442910846740007,-2.2264941466987134,1.3690367748856545
1789911473128726300,2.883726318359375,-0.16459909911341963,-1.5575567747473715,-0.30744740805923937
1789911473138734300,2.893734375,0.5320685758065432,-1.2750070765793322,-1.6791414194554088
1789911473148743400,2.903743408203125,0.5169798008114099,-1.0926599201336502,-2.1410487368643283
1789911473158751200,2.913751220703125,0.015077669079229234,-0.7071008061289787,-2.640879834476113
1789911473168759300,2.92375927734375,-2.330606847602129,0.6973933588460087,-2.1569518239170313
1789911473178768400,2.933768310546875,-2.956653756853938,2.33413940564245,-1.791306493911147
1789911473188776200,2.943776123046875,-1.7292033812195062,2.422650048266351,-1.3838649261832237
1789911473198784300,2.9537841796875,-1.1043401287943124,0.1669219160377979,-1.7823685696959495
1789911473208793300,2.96379345703125,-0.0832633896201849,-3.8332054129764437,-3.9235453168541192
1789911473218801200,2.97380126953125,0.5442207128278911,-6.459558417189121,-5.120249256569147
1789911473228809500,2.9838095703125,0.01578662106618285,-6.570847877854108,-5.650009043976664
1789911473238818300,2.993818359375,-1.6020762999534606,-4.549978302814067,-5.197618327453732
1789911473248826400,3.003826416015625,-5.279269021180272,-3.0122149005562067,-5.060477217173576
1789911473258833700,3.013833740234375,-6.572994826754927,-1.4864546553030609,-3.9091713390648364
1789911473268841700,3.023841796875,-4.340348002645373,-2.0778098981410262,-0.7856330755740404
1789911473278850800,3.033850830078125,-3.9677953774690624,-2.249267996303737,-0.8765385043799877
1789911473288858600,3.043858642578125,5.760098481202125,-4.425935451298952,6.881411372107267
1789911473298866700,3.05386669921875,8.41597071762681,-4.053831738933921,8.124999228072166
1789911473308875800,3.063875732421875,8.573134625238179,-1.0269415395542978,8.345031972050666
1789911473318883600,3.073883544921875,4.834741877639293,3.047633127678931,8.642712019333242
1789911473328891600,3.0838916015625,1.9242542441546915,5.982613689646125,7.875595428180694
1789911473338900700,3.093900634765625,1.0869371585726737,5.56219515144527,8.629591256475448
1789911473348908500,3.103908447265625,0.9332464800298214,5.869615086975694,8.634096166679262
1789911473358916900,3.113916748046875,2.5366104817062616,6.989587084665894,8.0076839312464
1789911473368925700,3.12392578125,3.7831186090320346,5.521959587168693,8.657159062358737
1789911473378933800,3.133933837890625,4.355201872906089,4.5306408573985095,8.459683018103242
1789911473388941800,3.14394189453125,2.6901135287225246,5.074741889369488,5.701556275862455
1789911473398951000,3.153950927734375,0.17238237340077756,5.09728456056714,2.6060762321203947
1789911473408958700,3.163958740234375,-2.0539783561766147,4.221158728641272,-1.021691656202078
1789911473418966800,3.173966796875,-3.7026661851793525,2.7848712490424514,-3.2530309048444033
1789911473428975900,3.183975830078125,-3.954133347341418,2.68316531701982,-3.223243084824085
1789911473438983700,3.193983642578125,-5.2972109205842015,-1.6227784578509628,-5.298319174087047
1789911473448991700,3.20399169921875,-5.881521213346719,-3.1548245053753257,-6.491873125338554
1789911473458999600,3.21399951171875,-6.435411233404278,-3.4027363131433725,-7.497475816527008
1789911473469008600,3.224008544921875,-6.7290270999878645,-4.607643725319207,-8.601634743535518
1789911473479016700,3.2340166015625,-5.977265898877382,-5.186981198105216,-9.888900413185358
1789911473489024500,3.2440244140625,-4.357873430202901,-4.972247729578614,-9.953324077779055
1789911473499033600,3.25403369140625,-3.6577734427466986,-4.839095981195569,-7.97390616480708
1789911473509041700,3.264041748046875,-5.517040250945091,-4.929522102051973,-7.757387566429376
1789911473519049700,3.2740498046875,-7.091029105055331,-4.801617606672644,-7.56073335995078
1789911473529058800,3.284058837890625,-7.244481298667192,-4.819948213133215,-7.217954526269436
1789911473539067000,3.29406689453125,-5.97400543577671,-5.60091037428677,-7.511708924540877
1789911473549074700,3.30407470703125,-4.440435393555462,-5.616007990175485,-6.349249199733138
1789911473559083800,3.314083740234375,-3.3813679464221,-4.517232217510045,-5.759982745867967
1789911473569091800,3.324091796875,-1.6392521843984722,-4.3396544674232596,-4.392829300510883
1789911473579099600,3.334099609375,0.137680331723392,-4.722243625706434,0.4993295778304338
1789911473589108700,3.344108642578125,0.601035509853065,-4.643215681698918,0.37496903866827486
1789911473599116800,3.35411669921875,4.078167723289132,-4.363787330421805,5.826811133515834
1789911473609124600,3.36412451171875,8.316745788764953,-1.8013627546317874,13.244351828062534
1789911473619133700,3.3741337890625,10.156942278051377,1.9653690754838287,19.676007508325576
1789911473629141800,3.384141845703125,9.589552140429616,5.8385986019432545,22.175787850284575
1789911473639149600,3.394149658203125,8.351595568349957,10.883065764558314,19.731193388974667
1789911473649158700,3.40415869140625,5.365688244482874,14.394967970341444,17.18420121398568
1789911473659166700,3.414166748046875,2.0282325050234795,13.66372407208085,16.8398488473773
1789911473669174800,3.4241748046875,0.40691754385381934,8.35701642435491,18.365323553687332
1789911473679182800,3.434182861328125,1.08470603851974,4.337718823185563,17.142991251718996
1789911473689192000,3.44419189453125,2.6080308733195063,1.6774001287460327,13.586725003552436
1789911473699199700,3.45419970703125,2.6483853878006336,0.2776740549556911,7.930935622608661
1789911473709207800,3.464207763671875,1.0170873772770166,0.5425427696783095,4.576989936119317
1789911473719217000,3.474216796875,-1.9004378997594118,0.3612407383713871,2.0597113468706607
1789911473729224700,3.484224609375,-3.6320255457669495,-1.1117729822088032,-2.140291781017184
1789911473739232800,3.494232666015625,-5.350642066520452,-4.527077319698035,-7.9833245660156
1789911473749241600,3.50424169921875,-6.93929423675537,-7.0721554777592415,-8.25363846746683
1789911473759249700,3.514249755859375,-5.742678559845686,-7.430207283896207,-7.747245527121424
1789911473769257700,3.5242578125,-6.3188850411295885,-8.057636587417125,-7.953907917395234
1789911473779266600,3.5342666015625,-8.260982400488853,-8.083622092545031,-7.483381824722886
1789911473789274600,3.544274658203125,-8.96573459766507,-5.547500855660438,-7.857332626259327
1789911473799282700,3.55428271484375,-11.170947471404075,-3.555975156265497,-8.398360242134332
1789911473809291500,3.56429150390625,-13.832046502566337,-1.6119333848401902,-8.271165356329083
1789911473819299600,3.574299560546875,-14.469289928615092,0.39648886962421237,-8.59950357672572
1789911473829308000,3.584307861328125,-13.55628076545,0.4758509774895385,-8.721920580604673
1789911473839316500,3.59431640625,-12.386684028369187,-0.10198157062623649,-7.83774295964837
1789911473849324800,3.60432470703125,-9.773013103336096,-0.47959564391057935,-6.787994837263226
1789911473859332900,3.614332763671875,-8.237647117608786,0.0024635771019384262,-7.2429434215754265
1789911473869341700,3.624341796875,-9.210720581114291,0.4539359732035547,-6.041634033891558
1789911473879349800,3.634349853515625,-7.767168955731392,0.1507648907566443,-4.660862397548556
1789911473889357800,3.64435791015625,-4.912423667734861,-2.163329980646819,-2.640154442811012
1789911473899365600,3.65436572265625,-0.9681699093729257,-4.102229859139025,-1.034973747101426
1789911473909374700,3.664374755859375,2.740415144461393,-5.875228250682354,0.38677287370860575
1789911473919382800,3.6743828125,4.659522088855505,-8.80053468311429,1.899104020807147
1789911473929390600,3.684390625,7.003609180277586,-9.351584511309861,4.238109278920293
1789911473939399700,3.694399658203125,9.681782095837592,-7.324560797554254,5.439428018954396
1789911473949407700,3.70440771484375,11.7327910808146,-5.224665324333309,6.137794314485788
1789911473959415600,3.71441552734375,11.005952139514685,-3.555404955162108,7.757850507766008
1789911473969424600,3.724424560546875,11.271311048907041,-2.9374463675588367,10.369801769399642
1789911473979432700,3.7344326171875,11.177110670208931,-2.9579677620619536,11.1236047054708
1789911473989440800,3.744440673828125,7.311472183400392,-2.40192260979712,10.63670498562455
1789911473999449900,3.754449951171875,2.1493068621218203,-1.211666531047225,11.056583425599335
1789911474009458000,3.7644580078125,-0.92407299349308,0.04111176258921623,10.5443318223536
1789911474019465700,3.7744658203125,-2.354754615908861,1.5140169082283972,8.648745454278588
1789911474029474800,3.784474853515625,-1.9151006313621997,2.593873753151297,8.116547041547298
1789911474039482600,3.794482666015625,-1.9464216522991655,2.800692795291543,8.355539337539673
1789911474049490700,3.80449072265625,-1.9290157594680786,1.5902777256101368,11.20767882695198
1789911474059498800,3.814498779296875,-3.548261805409193,0.3345347369492054,9.999986460232734
1789911474069507600,3.824507568359375,-5.840525770613551,-1.1133441039830445,7.9911367010712615
1789911474079515600,3.834515625,-5.161911638778448,-1.9601947415858505,4.262192749819159
1789911474089523700,3.844523681640625,-5.661742151868343,-2.2328759566903114,4.075717992049455
1789911474099532500,3.854532470703125,-6.936248877710104,-1.3859405634135007,-3.4487691655218597
1789911474109540600,3.86454052734375,-10.827971069324017,-0.1752268030464649,-5.427935734081268
1789911474119548700,3.874548583984375,-11.36081420969963,1.3427829742103814,-6.325544499018788
1789911474129557500,3.8845576171875,-8.066108063164354,2.8711966565817595,-6.4575137596189975
1789911474139565800,3.89456591796875,-6.295218918859958,3.687774905517697,-6.805539846304058
1789911474149574000,3.904573974609375,-4.284501612260938,2.982019668778777,-7.016772028711438
1789911474159582700,3.914582763671875,-1.8104520700164137,2.568849786531925,-7.648511012125015
1789911474169590800,3.9245908203125,1.7973516192942858,2.640533797517419,-8.611106920757889
1789911474179598800,3.934598876953125,4.3060178630203,2.165565338483453,-8.640731074649095
1789911474189607700,3.944607666015625,4.705733804932237,2.048338304463029,-8.768371366134286
1789911474199615700,3.95461572265625,6.257928175863623,0.6966518928289414,-7.815860213664173
1789911474209623800,3.964623779296875,8.97300955710411,-0.8062322114884853,-5.514603379186988
1789911474219632600,3.974632568359375,10.895622463792561,-3.577961362624168,-2.7085142778098583
1789911474229640700,3.984640625,9.991095882290601,-7.695231262245774,1.4300246198117732
1789911474239648800,3.994648681640625,7.157913606804609,-7.626451156008243,4.753615500047803
1789911474249657000,4.004656982421875,6.569153933417796,-3.010419833832979,10.126816019856928
1789911474259666200,4.014666259765625,3.78816244841814,1.1256997276872396,14.642074599206447
1789911474269674200,4.02467431640625,0.854459943562746,2.2921377084761856,15.020876347905396
1789911474279682000,4.03468212890625,-1.1962918517827987,2.5086872865140437,13.256898005902766
1789911474289691100,4.044691162109375,-3.0268308704078195,2.1277397579580546,10.814826341068745
1789911474299699200,4.05469921875,-3.532244736588001,2.8680758942127227,8.874286148023605
1789911474309707300,4.064707275390625,-3.5233833847403524,3.841173323115706,6.752382256612181
1789911474319716000,4.074716064453125,-2.3453460054419932,3.8001626828134056,3.9866432858020064
1789911474329724400,4.084724365234375,-1.258754883828014,4.73677834701538,0.1547141763716936
1789911474339732200,4.094732177734375,-0.07790624650120735,6.960845558828115,-2.998804799363017
1789911474349741300,4.1047412109375,2.0912807896107433,7.804794045248627,-4.079300526711345
1789911474359749400,4.114749267578125,3.047571168358624,7.707312160661816,-3.7645053862377997
1789911474369757200,4.124757080078125,4.670295411804318,7.324938983216882,-3.567552489073574
1789911474379766300,4.134766357421875,8.4082293097198,6.213657072460651,-3.795544667623937
1789911474389774300,4.1447744140625,12.16136720650792,5.586107357430458,-3.955547598053515
1789911474399782100,4.1547822265625,11.554287448054552,5.558674576103687,-4.0742318451449275
1789911474409791200,4.164791259765625,11.055255391865968,5.363941693076491,-3.8543382173761724
1789911474419799300,4.17479931640625,9.931238502699136,5.417607232290506,-3.5265801349550485
1789911474429807000,4.18480712890625,8.32683931275606,5.0737733365982765,-3.442363974654674
1789911474439816200,4.194816162109375,7.19066086115241,3.6635903123319147,-3.1427558819189665
1789911474449824000,4.204823974609375,6.257814778617024,1.2231371886104345,-2.7414538398593664
1789911474459832000,4.21483203125,3.8463586167991157,-11.795251920902729,-4.569638696573675
1789911474469840400,4.22484033203125,-2.69950328835845,-18.47876171681881,-5.4971577388674016
1789911474479849200,4.23484912109375,-8.567873928231,-21.667401105773447,-2.974184152847528
1789911474489857300,4.244857177734375,-7.138202359640598,-19.425842660933732,3.3966859270632264
1789911474499865300,4.254865234375,-7.209428689986467,-14.514537768095732,7.927453625711798
1789911474509874200,4.264874267578125,-9.582614450120925,-9.284197320735455,9.413919679191707
1789911474519882200,4.27488232421875,-8.470069387561082,-4.545777051731944,7.311265847173333
1789911474529890300,4.284890380859375,-7.279729137659072,-1.0832429802298544,4.203998042742907
1789911474539899100,4.294899169921875,-6.1450821334064,0.8659884687930345,1.956695209032297
1789911474549907200,4.3049072265625,-6.2136173249721525,0.7825164048582315,1.8040151688367128
1789911474559915300,4.314915283203125,-3.659938219565153,1.834876755568385,-1.5314508581101893
1789911474569924000,4.324924072265625,-2.5003099187910554,1.3884639444112776,-2.6705899130851027
1789911474579932200,4.33493212890625,-1.7320926729202268,0.9830565128594636,-2.859854009312391
1789911474589940200,4.344940185546875,-1.3340999015390873,0.5197445893496274,-2.2771838849723336
1789911474599949000,4.354948974609375,-1.3059960890829563,0.2256073292404413,-1.2099363462537527
1789911474609957000,4.36495703125,-1.115586914473772,0.13758476239442824,-0.3722784844100475
1789911474619965400,4.37496533203125,-0.6713175450861454,0.1795750613838434,0.013960136291384696
1789911474629973200,4.38497314453125,0.12082893096990882,-0.025820085433125493,0.20048691650927067
1789911474639982300,4.394982421875,1.248437049561739,-0.2966746696323156,0.2531587685108185
1789911474649990400,4.404990478515625,2.2245967886447904,-0.3778045543551445,0.3207581405311823
1789911474659998200,4.414998291015625,2.625752992492914,-0.3117074035912752,0.40568040327429766
1789911474670007300,4.42500732421875,2.85426130387187,-0.1386111828327179,0.48215223305821414
1789911474680015400,4.435015380859375,2.9339070875167845,-0.20477964526712894,0.40242461634874344
1789911474690023200,4.445023193359375,2.9254607462108133,-0.933625834736228,0.4565145184546709
1789911474700032300,4.4550322265625,3.1078432662308213,-0.7698311108082533,0.7454384278297423
1789911474710040000,4.4650400390625,2.3972668929457663,-0.6316787776589393,1.351540281161666
1789911474720048000,4.475048095703125,1.5624959847152233,0.1894926442861557,1.8213561797380446
1789911474730057200,4.48505712890625,0.6514028843045234,0.8496446522355079,2.0762007093787194
1789911474740065000,4.49506494140625,-0.09195333042368292,1.171774081119895,2.0486422558456656
1789911474750073000,4.505072998046875,-0.6802784117855131,1.0950970841526984,1.8439841911315917
1789911474760082200,4.515082275390625,-0.9297080037053674,1.5653373456209898,1.9092782088190317
1789911474770090000,4.525090087890625,-0.7910605074502527,2.238496134659648,1.9023814350426196
1789911474780098300,4.535098388671875,-0.535950458741188,2.716569573971629,1.435368318927288
1789911474790107100,4.545107177734375,-0.405908220680803,2.715146847692132,1.4643664498746394
1789911474800115200,4.555115234375,-0.4966729258418083,2.9439421593189237,0.6210293733507395
1789911474810123300,4.565123291015625,-0.5846304646275937,2.6126380748540163,-0.3884387610942125
1789911474820131300,4.57513134765625,-0.3589290273629129,1.8236171104073524,-1.0805179391801356
1789911474830140200,4.58514013671875,-0.3025146278321743,0.9855798938572407,-1.308587274619937
1789911474840148200,4.595148193359375,-0.752860832915455,-0.04838672202825546,-1.3742676612764597
1789911474850156300,4.60515625,-1.1529507227063178,-0.7916051357209682,-1.1800094100236893
1789911474860165000,4.6151650390625,-1.2854898921489715,-1.3564490959912539,-0.9450064759284257
1789911474870173200,4.625173095703125,-1.0318274118997155,-1.5456038866251707,-0.5037374574005603
1789911474880181200,4.63518115234375,-0.5914731701292097,-1.2941963456958532,-0.006294131708145141
1789911474890190000,4.645190185546875,0.032224399517476555,-0.8980722907960415,0.27754093009531494
1789911474900198100,4.6551982421875,1.0485285174623131,-0.5141571446061134,0.4024684554904699
1789911474910206200,4.665206298828125,1.5415246544875203,-0.05636895295381546,0.48776481224298474
1789911474920215000,4.675215087890625,1.0949131058879196,0.16061492484807968,0.18579378976821898
1789911474930223000,4.68522314453125,0.40110710400938987,0.23500527218282222,-0.18226678468585014
1789911474940231400,4.6952314453125,-0.05216653282791376,-0.4079939409136772,-0.695352500668168
1789911474950240300,4.705240234375,0.9618211248680949,-0.8997796792358159,-0.6561971328437328
1789911474960248300,4.715248291015625,0.7557739438831805,-0.7980909906089305,-0.19958324566781518
1789911474970256100,4.725256103515625,0.12839520150572062,-0.43697453620433807,0.31761282824277876
1789911474980265200,4.73526513671875,-0.3957107979238033,0.4463432530522346,1.0766975041091442
1789911474990273300,4.745273193359375,-0.4051087408661842,1.3357020760387182,1.39819506483078
1789911475000281000,4.755281005859375,0.017820903372764586,1.3658207354485987,1.0681044478088617
1789911475010289200,4.7652890625,0.6174900933086872,0.8724626332432032,0.6275847863435745
1789911475020298200,4.77529833984375,0.6497036791712045,0.3857628198832273,0.3405032899647951
1789911475030306000,4.78530615234375,0.07582914796620607,-0.17380933746397495,0.17566928611695765
1789911475040314000,4.795314208984375,-0.6934244552150368,-0.8907540767371654,-0.02135258463025093
1789911475050323200,4.8053232421875,-1.2475856934294103,-0.3983516678214073,0.12483341737091541
1789911475060331000,4.8153310546875,-0.7089364971235395,-0.6724503485083579,-0.5354851793169975
1789911475070339300,4.82533935546875,-0.25613193910270926,-0.6397329047769308,-0.42075814541876316
1789911475080348200,4.83534814453125,0.10990531283020973,-0.5597083509474993,-0.26526421684622764
1789911475090356200,4.845356201171875,0.3298632380068302,-0.4153963261246681,-0.08441665130853652
1789911475100364300,4.8553642578125,0.4368491562590003,-0.3045177843481302,-0.03605214111208915
1789911475110373400,4.865373291015625,0.4109884465545416,-0.29358079527020453,-0.04083119208216667
1789911475120381200,4.875381103515625,0.28745851299762726,-0.2814420291870832,-0.016325111857056616
1789911475130389200,4.88538916015625,0.18728870450109242,-0.2758563380092382,0.05064414556622505
1789911475140398300,4.8953984375,0.1689922925710678,-0.24299393284916876,0.1860895578444004
1789911475150406100,4.90540625,0.12154811208993196,-0.21985388028025626,0.29813597435653205
1789911475160414200,4.915414306640625,-0.0504068296790123,-0.04568915350735187,0.3657663260370493
1789911475170423300,4.92542333984375,-0.26166502331048247,0.17757716556489467,0.36670331462621686
1789911475180431000,4.93543115234375,-0.37967999283820386,0.3776595929265022,0.3346726841151714
1789911475190439200,4.945439208984375,-0.376376859639585,0.471445545604825,0.2994926496624946
1789911475200447200,4.955447265625,-0.3144172470718622,0.5278881483167409,0.33322833052575584
1789911475210456000,4.9654560546875,-0.27509616729170083,0.6057809508144855,0.3824871592134237
1789911475220464000,4.975464111328125,-0.20381693771481513,0.5966928044736385,0.3506283781379461
1789911475230472400,4.985472412109375,-0.12697715140134094,0.535460044875741,0.3008703677564859
1789911475240481000,4.99548095703125,-0.09276566971987485,0.47648763142526146,0.23597557851970194
1789911475250489600,5.005489501953125,-0.03028349458277225,0.5200374348163604,0.1174924069583416
1789911475260497400,5.015497314453125,0.049399113941192625,0.5585948367476463,0.03793313255310058
1789911475270506500,5.025506591796875,0.06104717389792204,0.5714017113506794,0.024266426250338553
1789911475280514600,5.0355146484375,0.061382104940712445,0.5664017111063003,0.02046469587981701
1789911475290522400,5.0455224609375,-0.08885872540920972,0.6252011060774326,0.24785072523057458
1789911475300531500,5.055531494140625,-0.20541881995350122,0.5450830287456512,0.4049889138787985
1789911475310539500,5.06553955078125,-0.21185615952461956,0.5518909551948309,0.40797932786643504
1789911475320547300,5.07554736328125,-0.15164835906028748,0.26897476180195806,0.4421849643290043
1789911475330556400,5.085556396484375,-0.05899433302134275,0.22474749754071235,0.33837855289578433
1789911475340564500,5.095564453125,0.0026195348486304283,0.2368266423910856,0.21395079371631145
1789911475350572300,5.105572265625,-0.025192601184546946,0.2954518498390913,0.12277999197244643
1789911475360580400,5.115580322265625,-0.06071984163969755,0.3784697402656078,0.07258008304238318
1789911475370589400,5.12558935546875,-0.04928513217270374,0.3637596623897552,0.011124620604515075
1789911475380597200,5.13559716796875,-0.03132803519964218,0.31801088764965535,0.007347440153360366
1789911475390605600,5.14560546875,-0.04004530240148306,0.31783728464841843,0.004078209224343299
1789911475400614100,5.1556142578125,-0.03926701150536537,0.3588490939944982,0.09231646464765071
1789911475410622500,5.16562255859375,0.025265081898868082,0.1922983493566513,0.11441840634047984
1789911475420630500,5.175630615234375,0.02806289592385292,-0.008355740413069725,0.1684381658196449
1789911475430639400,5.185639404296875,-0.018130407713353634,-0.04096154046356678,0.2762672568976879
1789911475440647400,5.1956474609375,-0.011061492240428924,-0.12343582553267478,0.33121173000633714
1789911475450655500,5.205655517578125,-0.0069438277885317794,-0.293516497862339,0.3007967179983854
1789911475460664300,5.215664306640625,-0.033084523478150364,-0.3913070100069046,0.32780981260836123
1789911475470672400,5.22567236328125,-0.062359133279323575,-0.4402572111368179,0.3540577680647373
1789911475480680400,5.235680419921875,-0.04173047900944948,-0.4966863698452711,0.31094401800334454
1789911475490689300,5.245689208984375,-0.0006824293062090873,-0.44458559572994705,0.23409634064435958
1789911475500697300,5.255697265625,0.04762538226693868,-0.47837563712894915,0.13965513892769812
1789911475510705400,5.265705322265625,-0.018996084631979465,-0.32347266018688675,0.12489186955988406
1789911475520713200,5.275713134765625,0.0042521044865250586,-0.12865560600757597,0.0810579885303974
1789911475530722300,5.285722412109375,0.07918839526623488,0.043729251611232756,-0.020321488016843796
1789911475540730400,5.29573046875,0.21121143188029526,0.15252923354804515,-0.10124854364395142
1789911475550738400,5.305738525390625,0.35942426353394985,0.1598825189203024,-0.19556290411055086
1789911475560747300,5.315747314453125,0.44589463250190015,0.08983166209459305,-0.27724808462858197
1789911475570755600,5.325755615234375,0.3892190978169441,0.08318331012129783,-0.2537473820537329
1789911475580763400,5.335763427734375,0.22541911319196223,0.1600263113051653,-0.22319325383603572
1789911475590772500,5.3457724609375,0.008318331012129783,0.21612521514594554,-0.1879927611172199
1789911475600780500,5.355780517578125,-0.20232728367894887,0.28917408474385736,-0.16935937231779097
1789911475610788400,5.365788330078125,-0.26726649657934903,0.28200258567929265,-0.1726642590820789
1789911475620797400,5.37579736328125,-0.20913257977962493,0.14733575655817985,-0.09428922602534294
1789911475630805500,5.385805419921875,-0.17656097425967454,0.046239188605546946,0.08511398592293262
1789911475640813300,5.395813232421875,-0.10256342563480138,-0.02844575776159763,0.23638825097382068
1789911475650822400,5.405822509765625,-0.04196253419965505,-0.10569850879013538,0.29164836590290066
1789911475660830200,5.415830322265625,0.03331336379796267,-0.12789865016043186,0.37729075961410996
1789911475670838300,5.42583837890625,-0.023818974743783472,-0.1316834293961525,0.39567806469798084
1789911475680846300,5.435846435546875,-0.09214344616830349,-0.08665127849280833,0.39455928980112076
1789911475690855200,5.445855224609375,-0.16779489948004483,-0.050016369056701655,0.3451595913380384
1789911475700863500,5.455863525390625,-0.1777718113541603,-0.02931143468022346,0.30108371824622154
1789911475710871600,5.46587158203125,-0.1794081803843379,0.037729134413599964,0.24412732079327104
1789911475720880400,5.47588037109375,-0.1429898363083601,0.10149053570628165,0.18043956925868987
1789911475730888400,5.485888427734375,-0.07881810064911841,0.14967618220448492,0.12770634245872498
1789911475740896500,5.495896484375,0.02063712983727455,0.1473427708208561,0.13934417328238485
1789911475750905300,5.5059052734375,-0.010047931283712386,0.1832008506655693,0.11582710409462452
1789911475760913400,5.515913330078125,-0.0534285155877471,0.20051789616942403,0.09936755220293998
1789911475770921500,5.52592138671875,-0.08822393463701009,0.22894261114299297,0.08399228841662407
1789911475780930300,5.535930419921875,-0.08780629374682902,0.22842472474873066,0.08374094400405883
1789911475790938400,5.5459384765625,-0.16703735911101103,0.2260042196035385,0.07047463519573212
1789911475800946400,5.555946533203125,-0.2132975905045867,0.23204934498667715,0.04321136521697044
1789911475810954200,5.565954345703125,-0.18985884725004434,0.21020751553475855,0.04593582174479961
1789911475820963300,5.57596337890625,-0.19164134675264358,0.20960721155405043,0.04488485138714313
1789911475830971400,5.585971435546875,-0.2048874895557761,0.20397768123447893,0.07100362750589848
1789911475840979500,5.5959794921875,-0.11133125398010014,0.13670096529722212,0.25922084502875803
1789911475850988300,5.60598828125,-0.10615677395164966,0.08898118274509906,0.3414326797693968
1789911475860996600,5.61599658203125,-0.07830372138619422,0.06874737301170826,0.359683206731081
1789911475871004400,5.62600439453125,-0.05637479817271232,0.050402153503894806,0.32235446981191634
1789911475881013500,5.636013427734375,-0.020676000542938708,0.0345469972461462,0.2683048997163772
1789911475891021600,5.646021484375,0.01741290709376335,0.01556114174723625,0.1970785693705082
1789911475901029400,5.656029296875,0.04722089311927557,0.009581482815742491,0.11957388940751552
1789911475911038500,5.66603857421875,0.09020809419155121,-0.006191840377449989,0.06897358298301696
1789911475921046300,5.67604638671875,0.11947364390343428,-0.024821137523651123,0.08097264833450317
1789911475931054300,5.686054443359375,0.11516513305455446,-0.014902970099449157,0.10730185233354568
1789911475941063400,5.6960634765625,0.08587006498724221,-0.018200842601060866,0.0938549262613058
1789911475951071200,5.7060712890625,0.042291912284493444,-0.014273440024256706,0.07226444122195243
1789911475961079300,5.716079345703125,0.006234802736341953,0.025952187380194662,0.04082651590704918
1789911475971087400,5.72608740234375,0.0023068156376481056,0.03152677264213562,0.00945171895623207
1789911475981096200,5.73609619140625,0.0023828034833073613,0.031389994519948956,0.009373977544903754
1789911475991104300,5.746104248046875,-0.03359393430501222,0.052008419656753534,-0.010421440771222115
1789911476001112600,5.756112548828125,-0.07572159593850374,0.053956046593189234,-0.0015028057783842085
1789911476011121200,5.76612109375,-0.06561871959716081,0.044997664111852645,0.013181553134322165
1789911476021129500,5.77612939453125,-0.05532850399017333,0.027177345260977745,0.05759411083459854
1789911476031137500,5.786137451171875,-0.0076440850123763076,0.025878537622094154,0.07757073093652725
1789911476041146400,5.796146484375,0.030406828701496122,0.037765374770760536,0.0923170491695404
1789911476051154400,5.806154541015625,0.08350976559668778,0.03983165965080261,0.10094926843643189
1789911476061162500,5.81616259765625,0.07963409320712089,0.05629471867382526,0.08491291039288043
1789911476071171300,5.82617138671875,0.0815177149966359,0.05319383004903793,0.08775602486431598
1789911476081179400,5.836179443359375,0.0633233021363616,0.04623392790853977,0.10409341168105601
1789911476091187500,5.8461875,0.015691197867691516,0.02416296587586403,0.15099311002194882
1789911476101196300,5.8561962890625,-0.027027415396273135,-0.003825695767998695,0.16309388218224047
1789911476111204400,5.866204345703125,-0.04258008157610893,-0.02566518713235855,0.17807459369301795
1789911476121212400,5.87621240234375,-0.03707973059415817,-0.029693711996078488,0.16930267369449137
1789911476131220200,5.88622021484375,-0.023039807064831254,-0.009978957700729369,0.13621756569445131
1789911476141229300,5.896229248046875,0.007808335663378238,-0.006074351477622986,0.10179039543569088
1789911476151237400,5.9062373046875,0.014931319411098955,0.01973345899581909,0.0888268689662218
1789911476161245400,5.916245361328125,0.028884441439807413,0.02988894230723381,0.06465455074012279
1789911476171254300,5.926254150390625,0.0071706222817301745,0.04498831176161766,0.05632862094342708
1789911476181262600,5.9362626953125,0.0024327801048755642,0.055902504485845564,0.04350245711803436
1789911476191270400,5.9462705078125,0.0014893617749214172,0.08284954812228679,0.04935410575568676
1789911476201279500,5.956279541015625,0.008825988273322581,0.08842588694989681,0.0524152468919754
1789911476211287300,5.966287353515625,0.01977583683282137,0.09017886809706688,0.07054770043194293
1789911476221295400,5.97629541015625,0.023180092318356035,0.08416822950541973,0.09226561124324797
1789911476231304400,5.986304443359375,0.032979017277061935,0.0779343035519123,0.10887713882625102
1789911476241312300,5.996312255859375,0.017075053441524504,0.07205985856056213,0.13275310445427893
1789911476251320300,6.0063203125,0.002782616455852985,0.03974456588923931,0.13534019833803176
1789911476261328000,6.016327880859375,0.008567045076191425,0.04992050746679306,0.13083528813421724
1789911476271337000,6.0263369140625,0.008014964151382446,0.055606736409664154,0.14925766453146933
1789911476281345000,6.036344970703125,0.018052374041080475,0.03376139982640743,0.13060849364101887
1789911476291353000,6.04635302734375,0.012345102310180663,0.03603928163051605,0.14021569541990755
1789911476301362000,6.05636181640625,0.0029568039789795875,0.04450315859317779,0.1307248134970665
1789911476311370200,6.066370361328125,-0.011666180135309696,0.03568681493103504,0.11720423766672611
1789911476321378000,6.0763779296875,-0.005612871445715427,0.018780688315629956,0.11920914774835109
1789911476331387100,6.08638720703125,-0.014914368276298046,0.004991232416033745,0.13079144899249076
1789911476341395200,6.096395263671875,-0.010360942755639552,0.02691664849817753,0.12175298701226711
1789911476351403000,6.106403076171875,0.0034323125362396237,0.018744447958469388,0.10862287180423735
1789911476361412000,6.116412109375,0.01238748014718294,0.03336801659464836,0.07390460964441299
1789911476371420200,6.126420166015625,0.0046682840719819065,0.04787351180911064,0.04940145202875137
1789911476381428000,6.136427978515625,0.0047314124360680575,0.047992754274606704,0.04951192666590214
1789911476391436000,6.14643603515625,0.034792204178869725,0.054228433793783185,0.040616088026762004
1789911476401445000,6.156445068359375,0.010405366419255734,0.051792731079459184,0.059330140846967694
1789911476411453000,6.166452880859375,0.004660100765526295,0.044942134532332416,0.05891220769584179
1789911476421461000,6.1764609375,0.004048983129858971,0.044697804382443425,0.05852700777053833
1789911476431470000,6.186469970703125,-0.0046682840719819065,0.04481353971660137,0.06884031199216842
1789911476441478000,6.196477783203125,-0.018654431587457655,0.01699731203019619,0.08027882085144519
1789911476451486200,6.206486328125,-0.03830956465005875,0.015111644414067267,0.10308043524622916
1789911476461495000,6.2164951171875,-0.05314005403518676,0.003392565047740936,0.11300620145499705
1789911476471503000,6.226503173828125,-0.08214841411560773,0.013674305087327957,0.11641396407186984
1789911476481511200,6.23651123046875,-0.08267769868671894,0.013648586124181747,0.11622048732638358
1789911476491520300,6.246520263671875,-0.07519844884723424,0.008310732227563858,0.12301496977210044
1789911476501528000,6.256528076171875,-0.05008855751007795,0.016074351966381073,0.10170680880546569
1789911476511536000,6.2665361328125,-0.031978315801918504,0.009112696260213852,0.09793488905131817
1789911476521544000,6.2765439453125,-0.03828033855557442,0.014015665870904921,0.08954875349998474
1789911476531553000,6.286552978515625,-0.04795037643760443,0.020376433074474332,0.0735386989414692
1789911476541561000,6.29656103515625,-0.06621142479330301,0.03042436435818672,0.08072422653138638
1789911476551569000,6.30656884765625,-0.05326397267580032,0.034894787770509715,0.07991115658283234
1789911476561578000,6.316577880859375,-0.08518938924670219,0.027789924201369283,0.12025193479955196
1789911476571586000,6.3265859375,-0.07393266669511794,0.02633972539305687,0.12202829682230949
1789911476581594000,6.336593994140625,-0.07337240246385336,0.026624387553334235,0.12242694075107574
1789911476591603000,6.34660302734375,-0.06626958472132682,0.030810148805379866,0.1281798051893711
1789911476601611300,6.356611328125,-0.11114069984406232,0.03828209212124348,0.1188426525235176
1789911476611619000,6.366619140625,-0.18567220921516417,0.043349896904826164,0.10656360118687153
1789911476621628200,6.376628173828125,-0.27530776421576736,0.014552256965637207,0.05503682756721973
1789911476631636200,6.38663623046875,-0.3432455744102597,-0.016474164938926696,0.01428279237449169
1789911476641644000,6.39664404296875,-0.34979280409663915,-0.007066869646310806,0.04759294130206108
1789911476651652000,6.406652099609375,-0.3530795706823468,0.00898994666337967,0.08073883957862854
1789911476661661200,6.4166611328125,-0.2469265961229801,0.06175006147027015,0.09229600638151168
1789911476671669000,6.4266689453125,-0.00013239420801401138,0.058843818634748454,0.1323626438319683
1789911476681677000,6.436677001953125,0.2551578333735466,0.019530629900097844,0.17923720773160456
1789911476691686100,6.44668603515625,0.3618725334689021,-0.03521919741928577,0.1875496935248375
1789911476701694000,6.45669384765625,0.3693754564449191,-0.04893032738566398,0.12442249848246574
1789911476711702000,6.466701904296875,0.2928685553476214,-0.031608021184802056,0.01776245118379593
1789911476721711000,6.476711181640625,0.1513879545584321,-0.004429506880044937,-0.024468086302280423
1789911476731719000,6.486718994140625,0.008349310672283172,0.04099193560183048,-0.022558453288674354
1789911476741727200,6.496727294921875,0.007473696881532668,0.09241057267189025,-0.026833061867952344
1789911476751736000,6.506736083984375,0.04482026171833276,0.07770166383981704,-0.07562894921898841
1789911476761744100,6.516744140625,-0.05241144749969244,0.008952537262439728,-0.11158990491628647
1789911476771752200,6.526752197265625,-0.2268561602577567,-0.14123919324874878,-0.1224415537983179
1789911476781760000,6.536760009765625,-0.4045625051602721,-0.28388065451085565,-0.13189853345155717
1789911476791769000,6.54676904296875,-0.49565468870997426,-0.4200900368988514,-0.13917173932492732
1789911476801777200,6.556777099609375,-0.536843900449574,-0.46857729669213294,-0.13390695066452027
1789911476811785000,6.566784912109375,-0.5498664636299013,-0.5053022224992514,-0.11708382615745067
1789911476821794000,6.5767939453125,-0.5274383587226271,-0.5212427189528942,-0.12146598676443099
1789911476831802000,6.586802001953125,-0.489136977379024,-0.5119003055900335,-0.1672059936761856
1789911476841810000,6.596809814453125,-0.549357929585874,-0.4336182115137577,-0.211159701693058
1789911476851819000,6.606819091796875,-0.6283531403675675,-0.3362561539143324,-0.2225228072285652
1789911476861827000,6.6168271484375,-0.5755857190370559,-0.23611995542645453,-0.13120587501227854
1789911476871835000,6.6268349609375,-0.5378592149719595,-0.21621698508262632,-0.08342296409606934
1789911476881843200,6.63684326171875,-0.5294105355784297,-0.1810182459294796,-0.04931202017962932
1789911476891852000,6.64685205078125,-0.5456625821992754,-0.1368114399343729,-0.08344751401543617
1789911476901860000,6.656860107421875,-0.5932081772282719,-0.1198883621841669,-0.17437106299996374
1789911476911868200,6.6668681640625,-0.6032505555540323,-0.1309516079902649,-0.2647632815867662
1789911476921877200,6.676877197265625,-0.5834218194901943,-0.1366495273709297,-0.36323476173281666
1789911476931885000,6.686885009765625,-0.5317886628866195,-0.14166414066255092,-0.4520061011195183
1789911476941893000,6.69689306640625,-0.45271424938887356,-0.13955401664078235,-0.47682782316505906
1789911476951902200,6.706902099609375,-0.3237456319093704,-0.14348317278325556,-0.4209913696527481
1789911476961910000,6.716909912109375,-0.2657803496748209,-0.1652677190899849,-0.38480011233091355
1789911476971918000,6.72691796875,-0.26082477309405805,-0.18899872328937053,-0.3291746712207794
1789911476981927200,6.73692724609375,-0.28460107773989435,-0.18380875343084335,-0.3117196785509586
1789911476991935000,6.74693505859375,-0.3128860919818282,-0.17347674450874329,-0.3436626307785511
1789911477001943000,6.756943115234375,-0.30704058082401753,-0.14155717315673827,-0.3856605285525322
1789911477011950800,6.766950927734375,-0.27279227426350117,-0.07079378414750098,-0.407382531017065
1789911477021960000,6.7769599609375,-0.2598798934593797,-0.014811200162768363,-0.3928793738901615
1789911477031968000,6.786968017578125,-0.24049539403170345,0.04153437191545963,-0.37219372873604295
1789911477041976000,6.79697607421875,-0.23562808025628326,0.09298574221134186,-0.32427637778520585
1789911477051985200,6.806985107421875,-0.2188753906369209,0.1371206520140171,-0.23827917928695677
1789911477061993200,6.8169931640625,-0.16060206536650656,0.14893150131702423,-0.172686470913887
1789911477072001000,6.8270009765625,-0.07374415838569402,0.16199264294207094,-0.10861936467289925
1789911477082010000,6.837010009765625,0.02987228343337774,0.15067805272340773,-0.02689092953503132
1789911477092018200,6.84701806640625,0.137029466599226,0.16205401774048805,0.07199848376214504
1789911477102026000,6.85702587890625,0.19945786572247742,0.1710655917137861,0.08212883263230324
1789911477112034000,6.867033935546875,0.22997049288600682,0.16144728401899336,0.02841886975467205
1789911477122043100,6.877043212890625,0.16929624395370482,0.15642507194280622,-0.06971767934858798
1789911477132051000,6.887051025390625,0.11855360644906758,0.2147708779275417,-0.12608312517106532
1789911477142059000,6.89705908203125,0.1412441616848111,0.2530225749105215,-0.12995499816834927
1789911477152068000,6.907068115234375,0.1298500764891505,0.2818015101492405,-0.129369891756773
1789911477162076000,6.917075927734375,0.1449894856929779,0.3035200054824352,-0.1425222187966108
1789911477172084000,6.927083984375,0.18071546359062193,0.31530513582229613,-0.10199614714086055
1789911477182093000,6.937093017578125,0.1659530710056424,0.3031242841631174,-0.11635200475156307
1789911477192101000,6.94710107421875,0.28022242426425215,0.32499358614385127,-0.10575637645721435
1789911477202109200,6.957109130859375,0.41479748344868417,0.3030734307587147,-0.13450550107955933
1789911477212118300,6.9671181640625,0.5027557528868317,0.2607616447299719,-0.1537070451557636
1789911477222126000,6.9771259765625,0.5596949069440365,0.20709552099406717,-0.18808745366334914
1789911477232134100,6.987134033203125,0.49404257733821866,0.17645429901480675,-0.15448913544416426
1789911477242142200,6.99714208984375,0.3127724024742842,0.10895897189080715,-0.086073770865798
1789911477252151300,7.0071513671875,0.04493424348682165,0.05280512299239635,0.07848550769388675
1789911477262159000,7.0171591796875,-0.2433715339899063,-0.021104747349023817,0.249026783272624
1789911477272167200,7.027167236328125,-0.47731297633349895,-0.11081482889056204,0.41685879989266394
1789911477282176300,7.03717626953125,-0.5658358939170837,-0.12614333092570304,0.4961772512793541
1789911477292184000,7.04718408203125,-0.5712745778396725,-0.053534021788835526,0.46672202421426773
1789911477302192000,7.057192138671875,-0.6160378486737609,0.06121580846309661,0.4162923981815576
1789911477312201200,7.067201171875,-0.6235434019982814,0.2322925060927868,0.3588315583378076
1789911477322209000,7.077208984375,-0.6408665849819779,0.40783904261291026,0.3977992946356535
1789911477332217300,7.08721728515625,-0.6922203401222825,0.6087070673942565,0.4316349287420511
1789911477342226200,7.09722607421875,-0.7609384870395064,0.8626233762741088,0.4825725042968988
1789911477352234200,7.107234130859375,-0.8480579675659536,1.1308166323095559,0.5104752412229776
1789911477362242300,7.1172421875,-0.9082007399700581,1.3719400951117275,0.5110287834525108
1789911477372250400,7.12725048828125,-0.9536927634701132,1.5632558631718159,0.5260825601994991
1789911477382259200,7.13725927734375,-0.969426339174807,1.7396072863340377,0.573681346720457
1789911477392267300,7.147267333984375,-0.9630255322217941,1.8661217886596917,0.6448433796584606
1789911477402275300,7.157275390625,-0.9639416241534053,1.920982090616226,0.76914722019732
1789911477412284200,7.1672841796875,-0.9368879052720963,1.931366706508398,0.906687558928132
1789911477422292200,7.177292236328125,-0.9081526630446314,1.849187020471692,1.0118237576603888
1789911477432300000,7.187300048828125,-0.8461448274210095,1.6457406696349381,0.9954670816212892
1789911477442309000,7.19730908203125,-0.8065408390462399,1.3727473198413849,0.9454670791774987
1789911477452317200,7.207317138671875,-0.7684443326249718,1.0738637419879435,0.9073252723097801
1789911477462325000,7.217324951171875,-0.8882514462664722,0.6425958929926157,0.7080266888022423
1789911477472334000,7.227333984375,-0.8670844473361968,0.6064975746512412,0.6032908875644206
1789911477482342100,7.237342041015625,-0.8234022497370839,0.602782938042283,0.43521395627260206
1789911477492350200,7.24735009765625,-0.7649348631992936,0.6077776775896548,0.25490356635153294
1789911477502358300,7.257358154296875,-0.6328896147534251,0.6206862590014934,0.1581657781302929
1789911477512367400,7.267367431640625,-0.4857318451106548,0.6576414864331483,0.06360533394813538
1789911477522375200,7.277375244140625,-0.3312891791567206,0.6893710881710052,-0.06870411839187145
1789911477532383200,7.28738330078125,-0.1355165778182447,0.7499632117778062,-0.09392506888806819
1789911477542392300,7.297392333984375,0.016365736128389836,0.7740940289497376,-0.17287819409370422
1789911477552400100,7.307400146484375,0.10593962406963109,0.7911211515963077,-0.24608722268939018
1789911477562408200,7.317408203125,0.09650266429111361,0.8277537229448556,-0.28893559981286526
1789911477572417300,7.327417236328125,0.07963964616507291,0.848333569636941,-0.34561668745577334
1789911477582425000,7.337425048828125,-0.012283142989873885,0.8700807065427303,-0.3987462200969457
1789911477592433200,7.34743310546875,-0.12780951057225465,0.8814227692902088,-0.32117841176986694
1789911477602442200,7.357442138671875,-0.2486974051877856,0.8420306701004505,-0.25093700080811976
1789911477612450000,7.367449951171875,-0.4162313156440854,0.8034697610378265,-0.17140052275657652
1789911477622458000,7.3774580078125,-0.488745347712934,0.7222638884693384,-0.09951251363158226
1789911477632467200,7.38746728515625,-0.5640658155046403,0.5994248597860335,0.0032809213668107983
1789911477642475000,7.39747509765625,-0.6467267091870308,0.5462292761713265,0.11770049675107001
1789911477652483300,7.4074833984375,-0.7018246192917227,0.49706747811734675,0.17397943333387375
1789911477662491400,7.417491455078125,-0.7801743717767298,0.467191395291686,0.22061375873684883
1789911477672500200,7.427500244140625,-0.9304090646468103,0.4651759638160467,0.2457370940774679
1789911477682508300,7.43750830078125,-1.0611606200203298,0.50675943557024,0.32492811969220636
1789911477692516400,7.447516357421875,-1.1080031813465059,0.5316910477310419,0.3756944303333759
1789911477702525200,7.457525146484375,-1.1814578552663326,0.5073784442514181,0.32877135111689565
1789911477712533200,7.467533203125,-1.1974981588326394,0.4761123683720827,0.35290918255150316
1789911477722541000,7.477541015625,-1.129025218848139,0.42821372212171555,0.4059586356937885
1789911477732550100,7.487550048828125,-1.0316356887198983,0.420215709105134,0.50056759519279
1789911477742558200,7.49755810546875,-0.9675884562231599,0.3473842816501856,0.5498386988401412
1789911477752566000,7.50756591796875,-1.0642189846776424,0.17081483182311058,0.4954956987559795
1789911477762575000,7.5175751953125,-1.3280186819292603,0.03270516877174377,0.5640273831903934
1789911477772583200,7.527583251953125,-1.6934464236617088,0.0015986673682928084,0.6784633251875638
1789911477782591200,7.53759130859375,-1.7540015762589871,0.023824527701735494,0.6830979992508888
1789911477792599300,7.547599365234375,-2.175402111234516,0.03637947337031364,0.8622440215677022
1789911477802608000,7.557608154296875,-2.6940660657405853,0.20453122346401215,1.1285796670377253
1789911477812616200,7.5676162109375,-3.1571465185821053,0.40961306654810903,1.4808154803723097
1789911477822624300,7.577624267578125,-3.1985610635101795,0.6726029087215661,1.4591957692384718
1789911477832633300,7.58763330078125,-3.577671439766884,0.892110752043128,1.6662790152728557
1789911477842641200,7.59764111328125,-4.336156396174431,1.0165396802663802,2.383544072541594
1789911477852649200,7.607649169921875,-4.055950630784034,0.926898572307825,2.3459791887789962
1789911477862658300,7.617658203125,-3.583884907454252,0.7213625557154416,2.5398592543691394
1789911477872666000,7.627666015625,-2.9694249756217,0.5518266577869654,2.946901593646407
1789911477882674200,7.637674072265625,-2.32206347566247,0.39410102463960645,3.2344881169378756
1789911477892683300,7.647683349609375,-1.750245438595861,0.17538520847856998,3.264232097816467
1789911477902691000,7.657691162109375,-1.3329193134523927,-0.2729202845573425,2.905802106016874
1789911477912699100,7.66769921875,-1.0879377139173447,-0.6385363884687424,2.4457810407459735
1789911477922708200,7.677708251953125,-0.9178080878794193,-0.6653437313735485,2.386514028263092
1789911477932716000,7.687716064453125,-0.5945921789325773,-0.5538146167337894,2.5232868897527454
1789911477942724400,7.697724365234375,-0.14962956658378243,-0.5122428354173898,2.3268688301175833
1789911477952732400,7.707732421875,0.3290646349750459,-0.47519408448338507,1.7861469191908836
1789911477962741200,7.7177412109375,0.8148281903982162,-0.3239040373414755,1.1973428221404552
1789911477972749300,7.727749267578125,1.2865785641685128,-0.1135182426303625,0.624577421221137
1789911477982757000,7.737757080078125,1.721172927238047,0.1046434467792511,0.05109247385561466
1789911477992766200,7.74776611328125,2.1349401908561587,0.2991004354745149,-0.43039457329213615
1789911478002774300,7.757774169921875,2.54504337900877,0.39091187320947646,-0.8620283329904079
1789911478012782000,7.767781982421875,2.978799245427549,0.3405453755408525,-1.2765046216607092
1789911478022791200,7.777791259765625,3.3552374798655507,0.10614099186062813,-1.6015817944347857
1789911478032799200,7.78779931640625,3.679951372285187,-0.3156120098143816,-1.7971312545418738
1789911478042807000,7.79780712890625,3.681230598440766,-0.7759159836798906,-1.9408657717376947
1789911478052816100,7.807816162109375,2.859841442091763,-1.5525813244223594,-1.9735347001522778
1789911478062824200,7.81782421875,1.6918728907346725,-1.7504601042598484,-1.8730191469579933
1789911478072832000,7.82783203125,-0.4999021170213818,-1.6169184797763823,-1.6370967599302528
1789911478082840300,7.83784033203125,-3.062574676223099,-1.2227478970319032,-1.1218091499894858
1789911478092849200,7.84784912109375,-5.2438288744866846,-0.6384504637509584,-0.37307460322380065
1789911478102857200,7.857857177734375,-5.869300029677152,-0.3049894935131073,0.28595044652223583
1789911478112865300,7.867865234375,-4.534376244534552,0.19787702627182005,0.8761036200940608
1789911478122874400,7.877874267578125,-2.2076643585443496,0.8100152371585368,1.0814859074294567
1789911478132882200,7.887882080078125,-0.29136048887223004,1.240659985819459,0.8908768263339996
1789911478142890200,7.89789013671875,0.9151125651851296,1.485069046163559,0.9138228176355362
1789911478152899300,7.9078994140625,1.7361185674354433,1.5385487074166535,1.100302836102247
1789911478162907100,7.9179072265625,2.390814648066461,1.3321750709563493,1.2577671879649162
1789911478172915200,7.927915283203125,2.5451608679085966,1.2213918062478304,1.0150415506631136
1789911478182924300,7.93792431640625,2.4338743298530576,1.4605845932483672,1.0003531000971793
1789911478192932000,7.94793212890625,1.7845248709470032,1.923898854845762,0.9650532386571168
1789911478202940200,7.957940185546875,1.2377367918491362,1.9644301871985197,0.5773831238478422
1789911478212948200,7.9679482421875,0.5039490543246269,1.7100377852395177,-0.15569266601502896
1789911478222957000,7.97795703125,0.08325228370428085,1.3968714150115846,-1.0597463693082332
1789911478232965000,7.987965087890625,0.045159576675295826,1.062357720850408,-1.8547785568684338
1789911478242973400,7.997973388671875,0.13779460575282573,1.0413137637779115,-1.8191601309984922
1789911478252982000,8.00798193359375,0.16765753683596848,0.6618427375152707,-2.604111654049158
1789911478262990000,8.017989990234375,0.3022667905509472,0.5443550067320466,-2.7513568097144363
1789911478272998000,8.027997802734374,0.3238496768057346,0.6702668669894337,-2.6071564285725355
1789911478283007000,8.038007080078126,0.36030192315131426,0.9683572486385702,-2.361550851920247
1789911478293015000,8.04801513671875,0.3041343379884958,1.2956646646827459,-2.122151728692651
1789911478303022800,8.05802294921875,0.25400749429464337,1.4941969399929045,-2.0695365753144026
1789911478313032000,8.068031982421875,0.2539750533297658,1.552820978397131,-2.218997068941593
1789911478323040000,8.0780400390625,0.15701543905138968,1.571763579276204,-2.326447974357009
1789911478333047800,8.0880478515625,-0.07261486209481954,1.4906494766443967,-2.2693138822495937
1789911478343057000,8.098056884765626,-0.48172553207874297,1.3757353957414626,-2.2350001092374323
1789911478353065000,8.10806494140625,-1.0541150854229926,1.3418150059610605,-2.1704238844305275
1789911478363072800,8.11807275390625,-1.690353718343377,1.228048926049471,-2.0280992340326307
1789911478373081000,8.1280810546875,-1.7226619967520236,1.2536305265516041,-2.0278607491016385
1789911478383090000,8.13808984375,-3.0599142248421907,1.1927175004273651,-1.295716687130928
1789911478393098000,8.148097900390624,-3.083042879234254,1.2114888363927603,-1.2949269980579614
1789911478403106000,8.15810595703125,-3.4129707069098947,1.214221476227045,-0.6098042149811983
1789911478413115100,8.168115234375,-3.3508649638697503,1.4496557874768972,0.4844599254786968
1789911478423123000,8.178123046875,-2.576819157975912,1.4108926338404417,1.874987232160568
1789911478433131000,8.188131103515625,-1.3489157778769731,0.7697837645351886,3.0993279513418672
1789911478443140000,8.19814013671875,-0.278245863494277,-0.22694880697727202,4.089106465932726
1789911478453148000,8.20814794921875,-0.3754229199156165,-1.065406879287958,4.539878056821227
1789911478463156000,8.218156005859376,-1.2132798114627599,-1.382254568377137,4.290553751906752
1789911478473165000,8.2281650390625,-2.1208277866125105,-1.345646546947956,3.866153450593352
1789911478483172900,8.2381728515625,-2.9072388608217237,-0.8467851711511611,3.3194799377858635
1789911478493181000,8.248180908203125,-2.877279191365838,0.09804565594941377,2.5160920098125934
1789911478503188700,8.258188720703124,-1.9238684597074984,1.050826273010671,1.2648463325709103
1789911478513197800,8.26819775390625,-1.0897495856449007,1.1257409364804625,0.13839432521164416
1789911478523206000,8.278205810546876,-0.2844195836931467,0.18065262748748062,-0.3257376825094223
1789911478533214000,8.2882138671875,0.5410878216296434,-0.8296195168167352,0.22361294055283068
1789911478543222800,8.298222900390625,0.5757663363009691,-1.7175573670893907,1.1988368600904942
1789911478553231000,8.308231201171875,0.250846984437108,-2.762433499523997,1.6305097827553747
1789911478563239000,8.318239013671874,-0.13995149152576922,-3.2389924426198005,1.7014567116379737
1789911478573248000,8.328248046875,0.04679360761791467,-3.1737484015539286,1.4556938985973595
1789911478583256000,8.338256103515626,0.7893310533091425,-2.8733132103443144,0.854459943562746
1789911478593263900,8.348263916015625,1.4587810509577392,-2.4434482138842344,0.29822774429321286
1789911478603273000,8.35827294921875,2.0342358370915052,-2.1256863325595856,-0.10684826334714889
1789911478613281000,8.368281005859375,2.5677485472917554,-1.8539023585557937,-0.5755751976430415
1789911478623288800,8.378288818359374,2.911951276296377,-1.6087012710511683,-1.0725754557430744
1789911478633297000,8.388296875,3.081784111344814,-1.4125024071246384,-1.4291963522940874
1789911478643306000,8.398305908203126,3.1236525375202295,-1.1210282287448643,-1.7714894482851027
1789911478653313800,8.408313720703125,3.1890570298448204,-0.18866320772469042,-2.1466215685606
1789911478663321900,8.41832177734375,2.9664570657268166,0.4135848927885294,-2.0944331161618233
1789911478673331000,8.4283310546875,2.733226402001083,0.9844932676643132,-1.803695435363054
1789911478683339000,8.438339111328125,2.5512989322721955,1.4101187268584965,-1.209130290567875
1789911478693347000,8.44834716796875,2.366120059531927,1.5847130772203206,-0.3775006029725075
1789911478703356000,8.45835595703125,2.0314837619043886,1.3680501019358635,0.4527051892995834
1789911478713364000,8.468364013671875,1.5634429101765155,0.7655997568488121,1.0432412247091531
1789911478723372000,8.4783720703125,1.356384360191971,0.02273380985558033,1.5384914242714642
1789911478733381000,8.488381103515625,1.077137941353023,-0.6700704676344991,1.9649206010639666
1789911478743389000,8.498388916015625,1.1349852962963283,-0.7878887455463409,1.9121113864183426
1789911478753397000,8.50839697265625,0.12610840574279428,-1.3101821425959468,2.088075856089592
1789911478763404800,8.51840478515625,-0.15217296745628117,-0.7692509728327394,2.2669418924212454
1789911478773414000,8.528413818359375,-0.14247662608921527,0.20303192481696605,1.99844702309072
1789911478783422000,8.538421875,0.21628478962182998,1.209202771282196,1.0565081180393696
1789911478793429800,8.5484296875,0.3088604897275567,1.7696254079788922,0.2813023284554481
1789911478803438800,8.55843896484375,-0.07523468920439481,1.8901710650280117,-0.21253040552437305
1789911478813447000,8.568447021484374,-0.7715677253425121,1.9647525510206818,-0.08468553137779235
1789911478823455000,8.578455078125,-0.9650511928305029,1.994661367072165,0.008123100700974464
1789911478833463800,8.5884638671875,-0.5599436210080981,1.845818420821428,-0.27729484637975693
1789911478843472100,8.59847216796875,-0.09060732264220714,1.694816835232079,-0.542131193202734
1789911478853480000,8.60847998046875,0.2629384042471647,1.5408409100070595,-0.7221797173172235
1789911478863489000,8.618489013671875,0.557125933238864,1.4914531942427158,-0.9626958618760109
1789911478873497000,8.6284970703125,0.7591203317016363,1.4670409297809004,-1.1265484534710646
1789911478883505000,8.6385048828125,0.926264366057515,1.4607666718170047,-1.2342243998140097
1789911478893514000,8.648513916015625,0.9765063605636358,1.3962006761431693,-1.2297089682161808
1789911478903522000,8.65852197265625,0.730341980984807,1.2753680188462138,-1.0530722983717917
1789911478913529900,8.66852978515625,0.38436201317459345,1.1628659675210713,-0.8051414936423301
1789911478923538000,8.678537841796874,0.0913563874438405,1.0971312203288077,-0.5280272645264864
1789911478933547000,8.688547119140624,-0.11388532237708568,1.1133341671109198,-0.3520984506905079
1789911478943554800,8.698554931640626,-0.20271336038708684,1.1307505813360215,-0.2965139261126518
1789911478953563000,8.70856298828125,-0.25746727935969826,1.2647235829740762,-0.17425883479714394
1789911478963572000,8.718572021484375,-0.33141163649260996,1.4844658195734024,-0.05673077200353145
1789911478973579800,8.728579833984375,-0.35392215898633,1.5240323985472322,-0.043401919353008266
1789911478983588000,8.738588134765624,-0.4752186344027519,1.6286495418414473,0.05029927765130996
1789911478993597000,8.748596923828124,-0.5924708028644323,1.5872107392549515,0.02941957122981548
1789911479003605000,8.75860498046875,-0.7308151514545083,1.4560913734823464,0.059903556820750235
1789911479013613000,8.768613037109375,-0.9305512495964765,1.3159692015647888,0.1777595363944769
1789911479023622100,8.7786220703125,-1.3537193787664175,1.1124719973236321,0.29531799432635303
1789911479033630000,8.7886298828125,-1.7190508205175399,0.8488204763710498,0.4625596438378095
1789911479043638000,8.798637939453124,-2.0580653332293033,0.5802379287570715,0.756187200859189
1789911479053645800,8.808645751953126,-2.197887060895562,0.3513520162373781,0.9791144972354173
1789911479063655000,8.818655029296876,-2.216971700593829,0.14282558565735817,1.166639640840888
1789911479073663000,8.8286630859375,-2.0804893464833496,-0.007710428246855736,1.2658452804803848
1789911479083670800,8.8386708984375,-1.8103642456024884,-0.05254208814203739,1.226573592799902
1789911479093679900,8.848679931640625,-1.6235481270492076,-0.029889526829123495,1.137875318649411
1789911479103688000,8.85868798828125,-1.7295552633970974,0.09701134446561335,1.1190443614512682
1789911479113695700,8.86869580078125,-2.0196236666321754,0.3753998313009739,1.2318465647667645
1789911479123704800,8.878704833984376,-2.3208348106503487,0.6913654768586158,1.3472335238784552
1789911479133713000,8.888712890625,-2.775096874003112,0.9465531208485365,1.6676842058956622
1789911479143721000,8.898720947265625,-3.3068750154957174,1.206436813700199,2.1919015567451714
1789911479153729800,8.908729736328125,-3.3959976525381204,1.2788655055731535,2.675962838295102
1789911479163738000,8.918738037109375,-3.5700966205984352,0.9507675236731767,3.2102661143511533
1789911479173746000,8.928745849609374,-3.524940258793533,0.18328852894902228,3.4650428394526243
1789911479183755000,8.938755126953126,-3.3196500336557624,-0.7752852845609187,3.587560965618491
1789911479193763000,8.94876318359375,-3.112929775714874,-1.5034002371460198,4.022629375940561
1789911479203771000,8.95877099609375,-2.69371155321449,-1.627355702638626,4.829173137596249
1789911479213779000,8.968779052734375,-1.7168115171581506,-1.5043711280047893,5.221236518928408
1789911479223788000,8.9787880859375,-0.06604045214056968,-1.306300624987483,4.447654531154036
1789911479233795800,8.9887958984375,1.6575877592951058,-0.920253727465868,3.1486329572588203
1789911479243804000,8.998803955078126,2.8806074590057134,-0.4139537261009216,2.2319769620239733
1789911479253812500,9.0088125,4.090329285725951,0.3980050463408232,0.624115064406395
1789911479263820500,9.018820556640625,4.496237652537227,0.5495388391107321,-0.23814123212099073
1789911479273828600,9.02882861328125,4.817191023379564,0.5776251159101724,-0.9345043711364269
1789911479283837400,9.03883740234375,5.274578233015537,0.38623569809198377,-1.5216127701848745
1789911479293845800,9.048845703125,5.738575216180085,-0.009638765960931777,-1.87261524233222
1789911479303853600,9.058853515625,5.830577792572975,-0.4606196156859398,-1.9139818564653395
1789911479313862700,9.068862548828125,5.424572979649901,-1.0625286935031413,-1.736033519500494
1789911479323870700,9.07887060546875,4.572147172263264,-1.6738491582661865,-1.6440759512931107
1789911479333878500,9.08887841796875,3.5676030502170324,-2.0857892064571377,-1.6741846738308668
1789911479343886600,9.098886474609374,2.3531945269852876,-2.0975620618373156,-1.7046283274114131
1789911479353895700,9.108895751953124,0.9574129530370235,-1.7999568333566187,-1.7173919473946093
1789911479363903500,9.118903564453126,-0.45723231133520603,-1.2771879277497529,-1.5907897667855024
1789911479373911600,9.12891162109375,-1.6422522429972886,-0.7713830164253711,-1.3953344147026538
1789911479383920600,9.138920654296875,-3.127187433648109,-0.4034843545347452,-1.1739286288052797
1789911479393928400,9.148928466796875,-4.6508331709653135,-0.12857377294301986,-1.1218056428581475
1789911479403936500,9.1589365234375,-5.576698308572173,0.359459334847331,-0.6892588599681854
1789911479413945600,9.168945556640624,-4.404548964399099,0.8874299007505178,0.14410568859577177
1789911479423953400,9.178953369140626,-4.3143356095105405,0.8447691551536322,0.18064122931063173
1789911479433961700,9.188961669921875,-0.8257406295567751,2.5036650744378566,1.6235001962542532
1789911479443970600,9.198970458984375,0.5011076934188604,3.043672699615359,1.8524094896495342
1789911479453978600,9.208978515625,1.5586170974552631,3.049568771916628,1.5757780756145714
1789911479463986700,9.218986572265624,2.225267235252261,2.545481185904145,1.0222311699062585
1789911479473994500,9.228994384765626,2.57626386218071,1.9663269607305525,0.45076399210393425
1789911479484003600,9.239003662109376,2.638356453478336,1.599171810683608,0.03649871583580971
1789911479494011600,9.24901171875,2.538996500059962,1.3146546118348836,-0.2531295424163341
1789911479504019500,9.25901953125,2.440455461809039,1.0761936462402344,-0.5739946504533291
1789911479514028500,9.269028564453125,2.276058680334687,0.9466407991319894,-0.8788982192486524
1789911479524036600,9.27903662109375,2.0947662936389446,0.8518862936824559,-1.230920682093501
1789911479534044400,9.28904443359375,1.961160371747613,0.729372259169817,-1.5238696092009543
1789911479544053500,9.299053466796876,1.6502596083641052,0.6016144787847996,-1.784322041851282
1789911479554061600,9.3090615234375,1.1112421632677316,0.6306967808842658,-1.940001263862848
1789911479564069600,9.319069580078125,0.36432372601330276,0.7548907313078641,-1.982939657357335
1789911479574078500,9.329078369140625,-0.4834750060945749,0.7248392919152975,-1.9713965190798044
1789911479584086800,9.339086669921874,-0.5492974315702915,0.7432137375175952,-2.0146365258693693
1789911479594094600,9.349094482421876,-1.239886078837514,0.719728232511878,-1.893050127595663
1789911479604102700,9.3591025390625,-1.7954454934120176,0.9978338107526302,-1.6303034465283155
1789911479614111700,9.36911181640625,-1.981244543877244,0.8765683149963617,-1.5024778616040944
1789911479624119600,9.37911962890625,-1.8244149827867746,0.8456763331264257,-1.3831196607738732
1789911479634127600,9.389127685546875,-1.4030039264172314,0.9046709584087133,-1.2584171763062477
1789911479644136700,9.39913671875,-0.9986959805399179,1.0529641618221997,-0.9426292254030704
1789911479654144500,9.40914453125,-0.6739350341081619,1.2810136235177516,-0.3449865728586912
1789911479664152600,9.419152587890625,-0.30999358541071415,1.5572937398970126,0.3179588652014732
1789911479674161700,9.42916162109375,-0.16371932060420513,1.8573294103950262,0.9275263488173484
1789911479684169500,9.43916943359375,-0.2077957782179117,1.7075854236513375,1.317583651024103
1789911479694177500,9.449177490234375,0.09415946216583251,0.6811416044861078,1.5160954680681227
1789911479704186600,9.4591865234375,-0.6301940920591353,0.03628419630229473,1.6953262460589409
1789911479714194400,9.4691943359375,-2.286700485858321,-0.010012275448441505,1.7644763546526432
1789911479724202800,9.47920263671875,-3.6442677722245453,0.08432897302508353,1.4808178184598684
1789911479734211600,9.489211669921875,-4.711268058183789,0.4715010751843452,1.1214046608418227
1789911479744219600,9.4992197265625,-5.325727405494451,1.3093570899486542,0.9584878887921571
1789911479754227700,9.509227783203125,-5.107612477836012,1.3238941493451595,0.7129618071168661
1789911479764235500,9.519235595703124,-4.661363332808017,0.6629799248516559,0.7514858913004397
1789911479774244600,9.52924462890625,-3.187849115359783,-0.507736756169796,1.371510471522808
1789911479784252700,9.539252685546876,-0.7409896317273378,-1.4461486561387777,2.49384919834435
1789911479794260500,9.549260498046875,1.1729045464545487,-2.276275537955761,3.464962175431847
1789911479804269600,9.55926953125,2.4291437941998244,-3.32978213609159,3.684513273373246
1789911479814277600,9.569277587890625,3.2049674234211443,-4.416443400332331,3.092659141102433
1789911479824285400,9.579285400390624,3.7715637803167104,-5.129100087022781,2.589053201127052
1789911479834294500,9.58929443359375,3.772709443220496,-5.228714891985058,2.367261046260595
1789911479844302600,9.599302490234376,3.243220873969793,-4.792531798419356,2.146444458428025
1789911479854310400,9.609310302734375,2.8124375936210155,-3.034041532438993,0.6488274808585643
1789911479864318700,9.619318603515625,2.9377123250186443,-1.542054085189104,-0.25591829635202884
1789911479874327600,9.62932763671875,2.8769290627539155,-0.07580489030778408,-0.8001683814048767
1789911479884335600,9.639335693359374,2.723121479833126,1.0631564700126648,-0.9921329687625169
1789911479894343700,9.64934375,2.8453958603709935,1.8028934713304041,-0.8611287538021802
1789911479904352800,9.659352783203126,3.160502551011741,2.121739056238532,-0.4762731118917465
1789911479914360600,9.669360595703125,3.3558938979476687,2.0825667372792958,-0.030472879675030706
1789911479924368600,9.67936865234375,3.420939493831992,1.7590654355198143,0.287744344201684
1789911479934377700,9.689377685546875,3.2155782492846248,1.1363058773756027,0.5773416227936744
1789911479944385500,9.699385498046874,2.95247267177701,0.39926001483798024,1.0100514872908593
1789911479954393600,9.7093935546875,2.6164889050632714,-0.4002911114513874,1.676401765358448
1789911479964402700,9.719402587890626,1.9573335069358349,-1.204446808926761,2.1603788757562636
1789911479974410500,9.729410400390625,0.9899345819354056,-1.7884668865710496,1.9238100075185298
1789911479984418600,9.73941845703125,0.00851765297651291,-1.8611843322575092,1.2894307387292385
1789911479994426400,9.74942626953125,-1.3332973529845475,-1.5076374363243579,1.1056962195783853
1789911480004435500,9.759435546875,-2.9814369004547596,-1.062622509266436,1.073083405265212
1789911480014443500,9.769443603515626,-3.624012335181236,-0.6119470722287893,0.7926637048631906
1789911480024451600,9.77945166015625,-3.6891912020564077,-0.5992690847024321,0.7540700625747442
1789911480034460700,9.789460693359375,-0.982099066004157,0.5976549275040626,-0.3637812896996736
1789911480044468700,9.79946875,0.24756080237329003,1.1027937761351465,-0.2898053683847189
1789911480054476500,9.8094765625,1.0688190258190036,1.5371256888762115,-0.3318453517347574
1789911480064485600,9.819485595703124,1.4854466473042964,1.7434890962034464,-0.6671382135748862
1789911480074493700,9.82949365234375,1.8125088564157485,1.8175649707615373,-0.9731272395193576
1789911480084501500,9.83950146484375,2.0389754328340293,1.79771636095345,-1.0520856254220008
1789911480094510600,9.849510498046875,2.025570007815957,1.7835156939044594,-1.0711322711974383
1789911480104518700,9.8595185546875,2.452628422422707,1.4540560682624577,-0.9639788874238729
1789911480114526500,9.8695263671875,2.5615923627495762,1.2022975219383836,-0.9400532374352216
1789911480124534500,9.879534423828124,2.5580060286954045,1.0141875641822815,-0.8016583277016878
1789911480134543600,9.889543701171876,2.4538503654330968,0.8622747089669108,-0.6476362252473831
1789911480144551400,9.899551513671875,2.1446698499709367,0.7701993595987557,-0.5770709891587495
1789911480154559500,9.9095595703125,1.8023799688503146,0.7561942151218652,-0.5848451302915811
1789911480164568600,9.919568603515625,1.487133577477932,0.7714575429663062,-0.5728717839032411
1789911480174576600,9.92957666015625,1.2497288429379463,0.840388455851376,-0.363586643910408
1789911480184584700,9.939584716796874,1.1477701051980256,0.8617699743151664,-0.41134558942914007
1789911480194593800,9.94959375,0.8357727787494659,0.9149269794851541,-0.14544482824504373
1789911480204601600,9.9596015625,0.2848638203293085,0.8270920441657305,-0.041244449058175085
1789911480214609700,9.969609619140625,-0.46040421936959025,0.6883201178133487,0.10555880805850028
1789911480224617500,9.979617431640625,-0.7888467769235372,0.563832152879238,0.1923147159695625
1789911480234626600,9.98962646484375,-0.9119576082855463,0.4174748859643936,0.20076573345065116
1789911480244634600,9.999634521484374,-0.9156070707038044,0.24453210220187901,0.17010580677092074
1789911480254642700,10.009642578125,-1.1070137319177389,0.0009817045137286186,-0.10492693989574908
1789911480264651800,10.01965185546875,-1.501745747937262,-0.2449552960500121,-0.4629968662112951
1789911480274659600,10.02965966796875,-1.8600281479597092,-0.510364474324882,-0.8733569517344236
1789911480284667600,10.039667724609375,-1.9679621607169508,-0.8177861634209752,-1.2147913850694894
1789911480294676700,10.0496767578125,-1.8187234931468963,-1.1150897786065936,-1.2253846752762794
1789911480304684500,10.0596845703125,-1.6524395827516913,-1.290209029625356,-0.8766326124042272
1789911480314692600,10.069692626953126,-1.5536401858255267,-1.3497776554033158,-0.3489993156313896
1789911480324700700,10.07970068359375,-1.6774688100680708,-1.2845485196456312,0.14103227249979972
1789911480334709800,10.089709716796875,-1.8410957762137055,-0.8230407229483128,1.0293167442530393
1789911480344717800,10.0997177734375,-2.0325570902243255,-1.4832815782248974,1.4734996044009923
1789911480354725600,10.1097255859375,-2.651098738412559,-1.369239019459486,2.194130923232436
1789911480364734700,10.119734619140624,-3.21356427911371,-1.0491910730242728,2.683286897572875
1789911480374742800,10.12974267578125,-3.7665374765872954,-0.768524119862914,3.379993150937557
1789911480384750600,10.13975048828125,-4.117099803751707,-0.777144064170122,4.277915804129838
1789911480394759700,10.149759765625,-4.2067394504055375,-1.1067062734037636,5.216416551426053
1789911480404767700,10.159767822265625,-4.372242147295177,-1.326755968517065,6.3993590922921895
1789911480414775600,10.169775634765625,-4.479552475196122,-1.2769903593510388,7.379357386624813
1789911480424784600,10.17978466796875,-4.382154469500482,-1.140545999163389,7.598274278315901
1789911480434792700,10.189792724609376,-3.9942505459353326,-1.1838958960682153,7.139585922953486
1789911480444800500,10.199800537109375,-3.363639105246961,-1.4214970299631355,6.426938588613272
1789911480454808800,10.209808837890625,-1.9965575560823081,-1.466489433377981,4.269455434298515
1789911480464817700,10.219817626953125,-1.1520628339558838,-0.9212912538200616,2.9411037210226056
1789911480474825700,10.22982568359375,-1.0872025315105915,-0.8242471761286259,3.057074617502093
1789911480484833800,10.239833740234374,0.3663274670511484,0.46519525303840636,0.5777981343895197
1789911480494843000,10.2498427734375,0.9662368954837321,1.0475620105177164,-0.24990999584794044
1789911480504850700,10.2598505859375,1.5181336958974598,1.4756044677257536,-0.8277928859114646
1789911480514858800,10.269858642578125,2.1065610685899854,1.7095359731972217,-1.221547289070487
1789911480524866800,10.27986669921875,2.6906431055545807,1.8246236571013927,-1.3581740200877188
1789911480534875600,10.289875732421875,3.2421962070971726,1.714623067203164,-1.2946598715543747
1789911480544883700,10.2998837890625,3.6962338140442967,1.3790379444181917,-1.1066618497401475
1789911480554891800,10.309891845703126,3.9846217168465254,0.8638058640569448,-0.7401327226370572
1789911480564900600,10.319900634765625,4.128782058238983,0.20528291861414907,-0.3697562724560499
1789911480574908700,10.32990869140625,4.023195777651667,-0.5663654707491398,-0.10693944876193999
1789911480584916500,10.33991650390625,3.810650759080052,-1.432895206812024,0.0021247370690107344
1789911480594925600,10.349925537109375,3.420023840291798,-2.054149036568403,-0.069503159815073
1789911480604933600,10.35993359375,2.8935838449567552,-2.3432857119113204,-0.20924130085110662
1789911480614941700,10.369941650390626,2.311615731406212,-2.3867969368577002,-0.4716834460139274
1789911480624949800,10.37994970703125,1.7170961793184278,-2.2705355329990384,-0.7028834806948899
1789911480634958800,10.389958740234375,1.1893126604199409,-2.08414436185956,-0.7824918549388646
1789911480644966700,10.399966552734375,0.6288122823119163,-1.9160048867255448,-1.0467425108283757
1789911480654974700,10.409974609375,-0.23822306518554687,-1.681802747619152,-1.209124445348978
1789911480664983800,10.41998388671875,-1.0333087364986537,-1.3431179052531719,-1.0055167664706706
1789911480674991600,10.42999169921875,-1.9175965398311614,-0.8484533966243266,-0.5503776280224323
1789911480684999700,10.439999755859375,-2.263328378099203,-0.3916711671441793,-0.298749722340703
1789911480695008800,10.4500087890625,-1.7023370016038417,-0.04741173951625824,-0.2911117748081684
1789911480705016600,10.4600166015625,-1.1518003836274147,0.2630734288036823,-0.2796528076827526
1789911480715024600,10.470024658203124,-1.2508593082726,0.5958271275550127,0.050180035185813904
1789911480725033700,10.48003369140625,-1.4265718490093946,0.8311988949626684,0.7158838320434093
1789911480735041500,10.49004150390625,-1.3282915075212716,0.8365712356507777,1.2195417944669722
1789911480745049600,10.500049560546875,-1.1309124938994646,0.7400777775794267,1.3158821078032255
1789911480755058000,10.510057861328125,-0.17924714460372923,0.6098585755169391,1.0345201581150292
1789911480765066500,10.52006640625,0.43945290901660916,0.48094051918089387,0.5791784828320146
1789911480775074800,10.53007470703125,0.6448544855743646,0.3629518531382084,0.6978896179303526
1789911480785083000,10.540082763671874,1.0868886432558298,0.2168114438444376,0.47695320311039685
1789911480795091700,10.550091796875,1.4100409854471683,0.2281131745815277,0.4803384616345167
1789911480805099800,10.560099853515625,1.7419576488524675,0.4306482557922601,0.48531478874236345
1789911480815107800,10.57010791015625,1.8891805926859377,0.6991244204223156,0.5330754878267645
1789911480825115600,10.58011572265625,2.0188608655661344,1.094484505212307,0.5886793016269802
1789911480835124700,10.590124755859375,2.317830952659249,1.7149696886837482,0.49132922672629353
1789911480845132800,10.6001328125,2.602445766663551,2.1526842296004296,0.28774142159223554
1789911480855140600,10.610140625,3.0338766972661015,2.507677817210555,-0.041427404409646984
1789911480865149700,10.620149658203125,3.4336627818048,2.808310869079828,-0.3510641392067075
1789911480875157500,10.630157470703125,3.553436577698588,2.893771476483345,-0.6443839454531669
1789911480885165600,10.64016552734375,3.485027058339119,2.7776959505856036,-0.8288996781095862
1789911480895174700,10.650174560546875,3.5192525685459373,2.679661692813039,-0.9273287804186343
1789911480905182700,10.6601826171875,3.6324843954503536,2.5695781008064746,-1.2656725542619824
1789911480915190800,10.670190673828126,3.6539708355933427,2.471753686392307,-1.4352897007331251
1789911480925198800,10.68019873046875,3.4771909578859805,2.325970419973135,-1.4611787597492336
1789911480935207700,10.690207763671875,3.074572280269861,2.1352853510320187,-1.5970003118634224
1789911480945215700,10.7002158203125,2.5260738901227713,1.8635002079844474,-1.7624685219615697
1789911480955223800,10.710223876953124,1.8421786030143499,1.4664607918053865,-1.7143877971425652
1789911480965232600,10.720232666015624,1.2873697145462035,1.2887094387173652,-1.8173788005396723
1789911480975240700,10.73024072265625,0.8832008848786354,1.1938082182735203,-1.86202195212543
1789911480985248800,10.740248779296875,0.6605418840497732,1.1362187836140394,-1.808734890834987
1789911480995257600,10.750257568359375,0.60610828307271,1.047985788887739,-1.4443193948850035
1789911481005265700,10.760265625,0.6264227568268775,1.0464613557994364,-0.9539274490088224
1789911481015273700,10.770273681640624,0.7505699454993009,1.0441472336381674,-0.6927516705200075
1789911481025281800,10.78028173828125,0.7974573688805103,0.8443412851303815,-0.8163122914761305
1789911481035290600,10.79029052734375,0.6293786840230227,0.4683908342093229,-1.1834738712638615
1789911481045298700,10.800298583984375,-0.4208990151941776,-0.4705822067737579,-1.656052512551844
1789911481055306800,10.810306640625,-1.1057757145553826,-0.6183546011835336,-1.6025030009329317
1789911481065315800,10.82031591796875,-1.768568007880449,-0.580303979730606,-1.358865509483218
1789911481075324000,10.830323974609374,-2.4329922863215208,-0.34003684149682517,-1.0100736991226673
1789911481085331700,10.840331787109376,-2.976422287163138,-0.07530570861399173,-0.7158779868245124
1789911481095340800,10.8503408203125,-2.9891888297557827,-0.09773615160882472,-0.7776447071686386
1789911481105348900,10.860348876953125,-3.5172096645414825,0.04663549444675445,-0.578806434649229
1789911481115356700,10.870356689453125,-3.6371173159480095,-0.15374796168804167,-0.5749167337343096
1789911481125364700,10.88036474609375,-3.80444489017725,-0.4874778119951486,-0.3248775585487485
1789911481135373600,10.89037353515625,-3.9849697996318336,-1.158975974345207,0.19365823953300712
1789911481145381600,10.900381591796876,-4.568770389306545,-2.3005191678524017,0.6572320288494229
1789911481155389700,10.9103896484375,-5.552654000639915,-3.730761814329028,1.1581199420377613
1789911481165398500,10.9203984375,-4.78299532378912,-5.438256637087464,1.910784229467809
1789911481175406600,10.930406494140625,-2.351576570394635,-5.860550906032324,3.014398674336076
1789911481185415000,10.940414794921875,-1.029313237121701,-4.3760579061910505,3.9202494901791214
1789911481195422700,10.950422607421874,-0.19247019879221916,-2.154255132178962,4.2046281573399895
1789911481205431800,10.960431884765624,-0.082718615218997,-0.4343398037865758,3.543013383361697
1789911481215440000,10.97043994140625,-0.03261865953207016,0.26209756950885055,1.8329791052535176
1789911481225447700,10.98044775390625,0.2948842790842056,0.246262871517241,0.045027182467281816
1789911481235456800,10.990456787109375,1.2644774992585182,0.08593699274361133,-1.2340376450702548
1789911481245464800,11.00046484375,1.248897652810812,0.0636783991843462,-1.28499860150069
1789911481255473000,11.010472900390624,3.6676866417348384,0.49853550484329456,-2.1027333269953727
1789911481265482000,11.02048193359375,4.626778926160931,0.8417898470818996,-2.1584473231717944
1789911481275489800,11.03048974609375,5.27434851591289,1.2864987769305705,-2.0472648300126193
1789911481285497900,11.040497802734375,5.594684047117829,1.5791840846657752,-1.6977172328487038
1789911481295505700,11.050505615234375,5.412438305220007,1.433484404876828,-1.0843795830443501
1789911481305514800,11.0605146484375,4.458088831406831,0.6387146676450968,-0.0697542119666934
1789911481315522800,11.070522705078124,2.4633693044066427,-0.3174637751609087,1.4348039630427956
1789911481325531000,11.08053076171875,-0.4159714956641197,-1.1183481958806514,3.359740928764641
1789911481335539700,11.090539794921876,-2.6344080081135033,-1.7749580011785029,4.914205290454626
1789911481345548000,11.100548095703125,-3.707530576345324,-2.4564678544551133,5.594885707169771
1789911481355555800,11.110555908203125,-3.00735869269669,-3.0670956607788797,5.022524795398116
1789911481365564000,11.12056396484375,-3.0499738455861807,-3.090955844315886,4.944226919230818
1789911481375573000,11.130572998046874,-1.6833593294113873,-3.368254782348871,3.6710733615636824
1789911481385580800,11.140580810546876,-0.9650608374416828,-3.1788457246929407,2.558234869015217
1789911481395588900,11.1505888671875,-0.9752741884201764,-2.3820950427770615,1.8016396718770264
1789911481405598000,11.160597900390625,-0.7822042701691388,-1.4319056112527846,1.0036924736529589
1789911481415605800,11.170605712890625,-0.30352760426700115,-0.5061018484443426,0.4464093040257692
1789911481425613800,11.18061376953125,0.09151450061500072,0.20986907736063,0.055581601968407626
1789911481435623000,11.190622802734374,0.1518336524993181,0.7229518707334995,-0.14092647403776645
1789911481445630700,11.200630615234376,0.010333762487769127,1.038735729983449,-0.22601649456322193
1789911481455638800,11.210638671875,-0.15568565175235272,1.3012287285506725,-0.11469196258485316
1789911481465647000,11.220647216796875,-0.13367723356187342,1.4750906729847193,-0.06461363420784473
1789911481475655700,11.23065576171875,0.10131284105181694,1.5430688151896,-0.13636603425443172
1789911481485664000,11.2406640625,0.23960896658599376,1.6264304044872522,-0.09985328989326954
1789911481495672000,11.250672119140624,0.34559506014585495,1.7869249178260564,-0.032814474365115164
1789911481505681000,11.260680908203126,0.4826426469236612,1.964227942624688,0.0737602327376604
1789911481515689000,11.27068896484375,0.6944441536515951,2.177243501317501,0.2215858186393976
1789911481525697000,11.280697021484375,0.9677806177943944,2.4089596688270567,0.40695466099381444
1789911481535704800,11.290704833984375,1.292689448264241,2.6067156990677116,0.5831719363823533
1789911481545714000,11.3007138671875,1.6087795969843863,2.7677368666291233,0.7144184356659651
1789911481555721700,11.3107216796875,1.887313045248389,2.9589415755301713,0.7199933131888508
1789911481565729800,11.320729736328126,2.0330705927044153,3.1518548419147727,0.7057581593483686
1789911481575739000,11.33073876953125,2.206947734707594,3.1350872469872235,0.5991776070266962
1789911481585746700,11.34074658203125,2.3736814346969126,3.0185540404498576,0.3512918104827404
1789911481595754800,11.350754638671875,2.4405478162676095,2.7396926754057405,0.05182137265205383
1789911481605763800,11.360763916015625,2.3298270954012867,2.3821505723565815,-0.19542495694458484
1789911481615771600,11.370771728515624,2.0714199048429727,1.9251912327438592,-0.4265326371669769
1789911481625780000,11.380780029296876,1.8316548709124325,1.43519646949172,-0.5995967092216015
1789911481635788000,11.3907880859375,1.548156493717432,0.9404495432764292,-0.5271428829073905
1789911481645796900,11.400796875,1.1968564999282358,0.18301263461709022,-0.3422112629264593
1789911481655805000,11.410804931640625,1.1228928535729645,-0.06720306617915629,-0.26665070276856423
1789911481665813000,11.42081298828125,0.9217483499377965,-0.5381190349519253,-0.31481998265385625
1789911481675821800,11.43082177734375,0.7645189758747816,-0.7758212911337614,-0.2363163547813892
1789911481685830000,11.440829833984376,0.48502574266791343,-0.8668985693752765,-0.23036241481304168
1789911481695838000,11.450837890625,-0.022393618115782738,-0.8938707474529742,-0.33185295051932334
1789911481705846800,11.4608466796875,-0.5022708919793367,-0.6098275958567857,-0.5719277810513973
1789911481715854800,11.470854736328125,-1.0666104098588227,-0.14650105929970741,-0.486608043423295
1789911481725863000,11.48086279296875,-1.6464678148657081,0.3095896807849407,-0.3251858938455581
1789911481735870700,11.49087060546875,-2.012071643817425,0.5717798970133066,-0.15413783778846263
1789911481745879800,11.5008798828125,-2.013531194975972,0.5753969184666872,-0.1523135449707508
1789911481755887900,11.510887939453125,-1.9387381120592355,0.6044739598691463,-0.12334230203032492
1789911481765896000,11.52089599609375,-1.5633791972905398,0.5088736512452363,-0.41084523869156836
1789911481775904800,11.53090478515625,-1.3368185128480194,0.5702320830494165,-0.5282710101544856
1789911481785913000,11.5409130859375,-1.2887100232392548,0.6836971341878175,-0.5938263091266155
1789911481795921000,11.5509208984375,-1.3249772684067487,0.8154320015102624,-0.5741670844107866
1789911481805929000,11.560928955078126,-1.5106541537970304,0.9831874457627534,-0.39921149952113627
1789911481815937800,11.570937744140625,-1.6642676754504442,1.1723662017941474,-0.293995805811882
1789911481825945900,11.58094580078125,-1.8175854290276765,1.3693798892349005,-0.1554068348109722
1789911481835954000,11.590953857421875,-1.8931629403203725,1.4137819255411623,-0.006923661783337593
1789911481845962800,11.600962646484374,-1.9772259558856486,1.3490747678309678,0.029901801788806914
1789911481855970800,11.610970703125,-2.133906463894248,1.2288409532099962,0.00970657050013542
1789911481865979000,11.620978759765626,-2.3305606703728436,1.0959767895966768,-0.10538520505726337
1789911481875987700,11.63098779296875,-2.8797622403532266,0.8843278430819511,-0.22902035255432127
1789911481885995800,11.640995849609375,-3.6313095064520833,0.7344733817011118,-0.016291794109344483
1789911481896003800,11.65100390625,-4.071947241339087,0.7398474759548902,0.6139771167516708
1789911481906012000,11.661011962890624,-4.565973452064394,0.7749801641345023,1.6910592362642287
1789911481916021000,11.67102099609375,-4.918629536637663,0.5487807142198086,2.594982591176033
1789911481926029000,11.681029052734376,-4.7708559731841085,-0.36759587955176826,2.98510097592026
1789911481936036900,11.691036865234375,-4.51840681424737,-1.569247797062993,2.8787960256695744
1789911481946046000,11.7010458984375,-4.622086384430528,-2.3757155708730218,2.938126751038432
1789911481956054000,11.711053955078125,-4.398312700358033,-2.055724907582998,3.576459141367674
1789911481966061800,11.721061767578124,-4.326816905421018,-2.039188198801875,3.7102979952320454
1789911481976070000,11.73106982421875,-3.194621385973692,-1.3489052564829587,3.9386131221264598
1789911481986079000,11.741078857421876,-0.9140215550780296,-0.5325666615217923,3.515998535186052
1789911481996086800,11.751086669921875,0.9968576591968535,0.06534954726696014,3.025097763004899
1789911482006094800,11.7610947265625,2.359689734223485,0.49247488963007924,2.4391861725255843
1789911482016104000,11.77110400390625,3.4107027619779107,0.7514309462428093,1.7266899370938538
1789911482026111700,11.78111181640625,4.120117105746269,0.9212930073857307,1.0840618953973054
1789911482036120000,11.7911201171875,4.587537633618712,0.8558113581717014,0.5802151324033736
1789911482046129000,11.80112890625,4.947119133540988,0.5420464375287294,0.27282939140349627
1789911482056137000,11.811136962890625,5.157628846892714,-0.04298164811432361,0.3221241681873798
1789911482066145000,11.82114501953125,4.953205175456405,-0.8241822941988706,0.5876555115371942
1789911482076152800,11.83115283203125,4.4040217256546015,-1.571968746459484,0.8190963692367076
1789911482086162000,11.841161865234374,3.353357657468319,-1.9999451526939869,0.8206775009483098
1789911482096170000,11.851169921875,2.23271053699553,-1.982171595594287,0.5062263516068458
1789911482106177800,11.861177734375,1.2309791342824696,-1.4387538697123528,-0.1224070670068264
1789911482116187000,11.871186767578125,0.46466392264068124,-0.7397609667152166,-0.7871618925765156
1789911482126195000,11.88119482421875,-0.05553600926101208,-0.32053952934443947,-1.1648089182823895
1789911482136202800,11.89120263671875,-0.5094388839125633,-0.08351005785763263,-1.2019286886259912
1789911482146210800,11.9012109375,-0.8550129012703895,0.22415011616945266,-1.0507102454155683
1789911482156220000,11.911219970703126,-1.0951543672978878,0.6028022272646427,-0.6990390802264214
1789911482166227700,11.921227783203125,-0.9401578668534755,1.060308094844222,-0.3679714348658919
1789911482176236000,11.931236083984375,-0.729042004302144,1.7306904049068688,-0.22902415194660425
1789911482186244900,11.941244873046875,-0.49566988627910613,2.335427399626374,-0.050427287945151326
1789911482196253000,11.9512529296875,-0.15461539217233658,2.9627479820758102,0.5078375861957669
1789911482206261000,11.961260986328124,0.47460663998425007,3.504284716516733,1.123388235874474
1789911482216268800,11.971268798828126,1.098296756976843,3.847613000774383,1.653083433613181
1789911482226278000,11.98127783203125,1.6614602168142794,4.054399894210696,1.9490242360129952
1789911482236286000,11.991285888671875,2.10124630330801,4.030934262949228,2.0381459962725637
1789911482246293800,12.001293701171875,2.4446061517477036,3.7117280280351634,1.9645035446956753
1789911482256303600,12.0113037109375,2.376495323073864,2.9154262589305637,1.5222352859973907
1789911482266311400,12.0213115234375,2.082864258921146,2.363590833315253,1.2417474887952207
1789911482276319500,12.031319580078126,1.3673761481970548,1.6390613380014896,0.8699754926025867
1789911482286328600,12.04132861328125,0.8393716800242662,0.9100386229217052,0.30055063428282736
1789911482296336400,12.05133642578125,0.5824702178537845,0.1374035606086254,-0.3902425956457853
1789911482306344400,12.061344482421875,0.14522212540507315,-0.5365647912472487,-0.9938394804194569
1789911482316352300,12.071352294921875,-0.4927449387431144,-0.993132501193881,-1.5719105865314602
1789911482326361300,12.081361328125,-0.9522563009262084,-1.0660212117940187,-1.9944991622477768
1789911482336369400,12.091369384765626,-0.9981108741283417,-0.633234774929285,-2.058433289758861
1789911482346377500,12.10137744140625,-0.7264870591223239,-0.044350013858079906,-1.8380536320388317
1789911482356386300,12.11138623046875,-0.30147593243420123,0.5643389333575963,-1.4737971260428429
1789911482366394600,12.12139453125,0.05904606320858001,0.9159048846065998,-1.089370523199439
1789911482376402400,12.13140234375,0.22326631907224653,1.3655688065141438,-0.6433455423161387
1789911482386410500,12.141410400390624,0.17679332171082496,1.6203630672723055,-0.18976561600863934
1789911482396419600,12.151419677734374,-0.03507014433741569,1.7545085028678178,-0.07347673962116241
1789911482406427400,12.161427490234376,-0.601000146278739,1.8531079933077095,0.3046259208977222
1789911482416435500,12.171435546875,-1.0936860483109951,1.852743836170435,0.7877820703014731
1789911482426444500,12.181444580078125,-1.113430613222718,1.86862412686944,0.7708306432396173
1789911482436452400,12.191452392578125,-1.4982447540789843,0.5630091460585593,2.164730933485925
1789911482446460400,12.20146044921875,-2.0345921031832694,-0.5241536379635334,2.579647659400105
1789911482456469500,12.211469482421874,-2.5729233195811507,-1.0406991390109062,2.331457326951623
1789911482466477300,12.221477294921876,-3.2216531852841377,-0.7649702267736196,1.6642153607413173
1789911482476485400,12.2314853515625,-4.55290821878612,0.05107902985215187,0.9694231243044137
1789911482486493400,12.241493408203125,-6.564881662926077,1.3455992006748914,0.3499477023974061
1789911482496502300,12.251502197265625,-7.578924265679716,2.133195685276389,-0.2835413395538926
1789911482506510600,12.261510498046874,-4.897556937992572,2.4680291129112244,-0.4871197923377156
1789911482516518400,12.271518310546876,-0.807047619524598,1.845337943828106,-0.726143944773078
1789911482526527500,12.281527587890626,1.2249474529027937,1.0233920303791761,-0.8998536212548613
1789911482536535600,12.29153564453125,1.8350041813403366,-0.04784720832407474,-0.4098255402550101
1789911482546543400,12.30154345703125,1.660832440304756,-0.6845370921432972,0.8439692369475961
1789911482556551400,12.311551513671875,1.2461650129765272,-0.8725397901326417,2.488923432379961
1789911482566560500,12.321560546875,0.034900048467516896,-1.1116717868566512,3.7794776221811768
1789911482576568300,12.331568359375,0.012753683111071586,-1.0851011753171682,3.7766657796308394
1789911482586576400,12.341576416015625,-0.659587359803915,-1.334310913941264,4.6975531288251275
1789911482596585500,12.35158544921875,-0.18309855933487415,-1.7819693412452935,5.057234289729595
1789911482606593300,12.36159326171875,0.6213485223025084,-2.444859249725938,4.562252093453705
1789911482616601300,12.371601318359374,0.8636685014128684,-3.0014018301188945,3.5287072101116177
1789911482626610400,12.3816103515625,0.7493027020424604,-2.8565824402958153,2.412081892500818
1789911482636618500,12.391618408203126,0.9970511359423399,-1.9431407309323547,1.1501914871260523
1789911482646626600,12.40162646484375,1.932602970305085,-1.051141622570157,0.09386807800382375
1789911482656634600,12.411634521484375,2.6989813103109594,-0.2657587223649025,-0.3686559099987149
1789911482666643500,12.4216435546875,3.032106180462241,0.5207458753466606,-0.24911095442473888
1789911482676651500,12.431651611328125,3.172578480991721,1.2377286085426806,0.29378040949553247
1789911482686659600,12.44165966796875,3.1656343609422444,1.7497604315578936,0.7904951286524534
1789911482696668400,12.45166845703125,3.1204940734893083,2.0194459719777105,1.2422104301318526
1789911482706676500,12.461676513671875,3.1856723558425903,2.000883310326934,1.6311521723121403
1789911482716684300,12.471684326171875,3.2959669602513313,1.626872887557745,2.0609946646794675
1789911482726692400,12.4816923828125,3.181959472799301,0.9831623113214969,2.39432236392647
1789911482736701400,12.491701416015625,2.5497405969142912,0.41075756040811534,2.671738790859282
1789911482746709200,12.501709228515624,1.8068366559982298,-0.06535656152963638,2.8451930312752722
1789911482756717600,12.511717529296876,1.0985171217292546,-0.4966472068786621,2.97511412717402
1789911482766726400,12.521726318359375,0.4024176020860672,-0.7690180408596992,2.914980268728733
1789911482776734500,12.531734375,-0.2000970404088497,-0.8846031528919934,2.751892524026334
1789911482786742500,12.541742431640625,-0.5440747284859418,-0.7821347120642662,2.3821871049746868
1789911482796750600,12.55175048828125,-0.5691589008599519,-0.644680298051238,1.2960180081650614
