time,seconds_elapsed,z,y,x
1789881270989893400,0.061893310546875,4.232743952494859,0.8718843949638306,0.6162913850434124
1789881270999907600,0.071907470703125,1.9549334600567816,0.7143681667834519,-0.5663567759860306
1789881271009922600,0.081922607421875,0.5762982512205839,-0.3495679092995822,-1.1058058174327015
1789881271019937500,0.0919375,-0.13317454473674298,-0.6428169153321533,-1.0459686038464306
1789881271029952500,0.101952392578125,-0.2250239763945341,-1.136305292853713,-1.7868590129829942
1789881271039967500,0.111967529296875,-0.011408698242902755,-2.0882105883851647,-2.1680533559069035
1789881271049982500,0.121982421875,-0.17733458898067472,-3.015055092418194,-2.3309303804680703
1789881271059997400,0.13199755859375,-1.8965268637955188,-3.8695290645062923,-2.4507830868169664
1789881271070011600,0.14201171875,-2.8602374556720256,-4.298719230444729,-2.0764517615303397
1789881271080026400,0.1520263671875,-3.702022042056918,-3.0596950291335583,-0.804352973613143
1789881271090041300,0.162041259765625,-3.0738796218305824,0.6953644833669066,2.4899594974294303
1789881271100056300,0.172056396484375,-1.5819237387627363,5.482181703531742,6.10108809337914
1789881271110071300,0.1820712890625,-2.4104303259015083,5.887729420337081,6.093033966261148
1789881271120086500,0.19208642578125,-3.599789748072624,1.899823859514296,4.2081008018866175
1789881271130101500,0.2021015625,-3.950705710980296,0.17095745516419408,2.3485931706696745
1789881271140116500,0.212116455078125,-6.1979147289276115,0.4734022326305508,0.8366077682688832
1789881271150130400,0.22213037109375,-4.245380146706104,-0.059742228779196736,1.849130906370282
1789881271160145400,0.2321455078125,-2.737280938088894,-0.34193799894303084,2.756726520054042
1789881271170160600,0.24216064453125,-2.4236335063457486,-1.0518071007415652,3.1024419917091723
1789881271180175600,0.252175537109375,-3.229031605097651,-1.5812942086875437,2.9242133764982223
1789881271190190600,0.262190673828125,-4.9809202808558934,-1.5068132604598998,1.948401427939534
1789881271200205600,0.27220556640625,-5.714629107925296,-1.2720911891326308,0.9821572259321808
1789881271210220500,0.282220458984375,-5.567274646666646,-1.97950822160393,1.5441405360743403
1789881271220235500,0.292235595703125,-5.293975007402897,-2.934564966903627,1.4467016138464213
1789881271230249500,0.30224951171875,-4.4987288848310705,-3.418188733819127,0.3631818625018
1789881271240264400,0.312264404296875,-2.8858424370497464,-5.054097745269536,1.0801856384858488
1789881271250279400,0.322279541015625,-1.6610691716700792,-5.666376825931668,0.7097790854275227
1789881271260294400,0.33229443359375,-0.7686077064931393,-5.954281913653015,-1.237110768905282
1789881271270309400,0.342309326171875,-1.055020509830117,-7.265861940348148,-2.3056319808214902
1789881271280324400,0.352324462890625,-1.155600360432267,-8.587129248321055,-2.3836159687340257
1789881271290339600,0.362339599609375,-1.3074153082311153,-8.84297915561199,-1.9717139144659042
1789881271300354600,0.3723544921875,-0.6506751545518636,-8.351112168747186,-0.12872925576567648
1789881271310369500,0.38236962890625,-0.25325872175395486,-8.629982886141539,1.8604735536396502
1789881271320383500,0.392383544921875,-1.2337176193356514,-10.330056618988513,2.7841514103353022
1789881271330398500,0.4023984375,-2.061230519261956,-10.930263569062948,3.7572605296760795
1789881271340413700,0.41241357421875,-2.264624847650528,-11.524736359399556,4.620649629625678
1789881271350428700,0.4224287109375,-1.9008201770752666,-12.238967163538932,4.631624612626433
1789881271360443600,0.432443603515625,-1.1378455080330372,-12.983898226368426,3.1476667425751685
1789881271370458600,0.442458740234375,0.9148974611297249,-12.873587255346774,0.3606301321923733
1789881271380473600,0.4524736328125,3.5591631386518476,-12.67456222808361,-2.977424157682061
1789881271390488300,0.46248828125,4.024277727669477,-12.842031256610154,-5.3930093821287155
1789881271400502500,0.47250244140625,3.1159616907566785,-12.527663693898916,-6.0098781286686656
1789881271410517500,0.482517578125,2.7468133210659027,-11.65705107243657,-5.907927574235201
1789881271420532500,0.492532470703125,2.94195361585021,-10.714884788370131,-6.054705696910619
1789881271430547500,0.50254736328125,2.0749784741073847,-10.294356360054016,-5.856542254912853
1789881271440562400,0.5125625,1.2179267604857682,-9.562321019154787,-6.790880037310719
1789881271450577400,0.522577392578125,0.4639852927267551,-8.584183842518925,-10.219316608899831
1789881271460592400,0.53259228515625,0.4895359135687351,-7.022658748662471,-14.313047227501869
1789881271470607600,0.542607666015625,0.15496199538661165,-4.313452396935224,-15.455497598981857
1789881271480621600,0.55262158203125,-2.3164140715986488,-2.2297300598800183,-14.904723665118217
1789881271490636500,0.562636474609375,-6.089817342302203,-0.21824995221495627,-13.612392528772354
1789881271500651500,0.572651611328125,-9.092876876500249,1.1967992167830466,-12.270889072978497
1789881271510666500,0.58266650390625,-9.027963967084885,1.6692010401993989,-12.413093896389007
1789881271520681200,0.59268115234375,-7.076836329051852,2.3797207148611546,-13.54279701449871
1789881271530696200,0.6026962890625,-4.361356303882599,3.0417677427768703,-14.397087446713448
1789881271540711200,0.612711181640625,-0.4913141022223979,2.789495109450817,-13.985786280947924
1789881271550726100,0.62272607421875,2.5825281832724807,2.9238772764116523,-12.247730315709113
1789881271560741000,0.6327412109375,2.6258558683454987,3.1456098100453613,-11.269546961843966
1789881271570755300,0.64275537109375,1.1635562878727912,3.1082606148600576,-9.733712189561128
1789881271580770300,0.652770263671875,0.961886299058795,-0.09995148957073688,-9.346151380345225
1789881271590785300,0.662785400390625,1.8961995315372944,-4.999037536826729,-15.494251400268077
1789881271600800300,0.67280029296875,2.7097634010881184,-4.252755643910169,-17.824203583353757
1789881271610815000,0.68281494140625,2.5613474480777976,-2.0373422786742448,-14.04888424989581
1789881271620830000,0.692829833984375,1.693929677134007,0.11214286262392997,-11.914368129670619
1789881271630845200,0.70284521484375,-0.8551838739231228,0.3738227912425995,-10.289364543116092
1789881271640860200,0.712860107421875,-2.1992364296779034,0.25226678810715675,-10.333567257457972
1789881271650875100,0.722875244140625,-2.9682606080174443,0.5522837539047002,-11.298092672848702
1789881271660889000,0.73288916015625,-5.459724372529983,0.7567331443041563,-9.791700852671266
1789881271670904000,0.742904052734375,-6.945556219759583,1.5684148533701896,-7.42427087958455
1789881271680919300,0.752919189453125,-6.547254236298799,2.3526263717085123,-8.592386438196897
1789881271690934300,0.762934326171875,-5.692406170201301,0.7963345023304224,-9.052232146900892
1789881271700949200,0.77294921875,-3.4445141384258866,-0.3639513855695724,-7.42654700782299
1789881271710964200,0.782964111328125,-1.479058115310967,-0.905581643512845,-5.280162755149602
1789881271720979200,0.792979248046875,0.31351416075229643,-0.7352204006761313,-0.41159050410091874
1789881271730994200,0.802994140625,-4.1084915498822925,-2.3966437926113606,4.074024632135034
1789881271741009200,0.813009033203125,-2.46072609642148,-3.876346343305707,5.434873424389958
1789881271751023000,0.823023193359375,0.8365385024249553,-4.323912416151166,4.596086850777268
1789881271761038000,0.8330380859375,1.1836825455784796,-4.740484215795994,3.1935341752588746
1789881271771053000,0.843052978515625,0.5733706733360886,-2.9809897412091493,2.933548191076517
1789881271781068000,0.853068115234375,0.6232973182827234,-1.532616979280114,2.5855560066610574
1789881271791083000,0.8630830078125,0.6065098496109247,-2.210384723418951,3.0659698716193438
1789881271801098000,0.873097900390625,4.505859175102413,-1.6663000580608844,8.23843914476931
1789881271811113200,0.88311328125,8.152976783800124,-1.7930957154154776,10.587938324367999
1789881271821128200,0.893128173828125,6.868064399278164,-2.5868168203771114,9.38230405922234
1789881271831143200,0.90314306640625,3.7140684536814685,-1.834231735663116,9.28202056121826
1789881271841157000,0.9131572265625,-0.38556568987593054,0.44410511873662467,9.084415337625146
1789881271851172000,0.923172119140625,-2.818802452477813,-0.10679945576936006,8.02420661150217
1789881271861187300,0.933187255859375,-2.3637299495249984,-0.623176906773448,3.7293046012580393
1789881271871202300,0.943202392578125,-0.3487731056600809,5.84843376725912,4.727909980905055
1789881271881217300,0.95321728515625,-1.8099167940959333,3.9792376857206224,6.568726063394546
1789881271891232300,0.963232177734375,-3.616895781174302,1.4711264455288648,9.387996133384108
1789881271901247200,0.973247314453125,-4.271421765935421,1.2669050186663866,7.815450463819503
1789881271911262200,0.98326220703125,5.7950628270775075,6.222998316779733,0.9460726438552141
1789881271921277000,0.99327685546875,0.4535598333675414,3.795812670910358,3.1087422608971593
1789881271931291100,1.003291015625,-3.76113883241415,0.3984758787229657,1.224820027130842
1789881271941306000,1.01330615234375,-3.653071256405115,0.27958032696843144,1.3745219282984733
1789881271951321000,1.023321044921875,-4.418850461474061,0.9534057632222771,3.1682436666578053
1789881271961336000,1.033336181640625,-2.4607927319169045,2.8729119360670445,3.3860926368564366
1789881271971351000,1.04335107421875,-0.9999579632997512,3.188203920146823,3.931363881650567
1789881271981366300,1.0533662109375,-1.1682815628290175,1.9161641689404845,4.509569427797198
1789881271991381200,1.06338134765625,-0.6190577810168266,2.599801974156499,2.9266601851284504
1789881272001396200,1.073396240234375,0.49570853778906165,3.1489103128954765,2.329409746772051
1789881272011411200,1.0834111328125,0.8357645954430103,2.8229411597177383,1.814624825656414
1789881272021425200,1.093425048828125,0.9873254223503172,1.1337366114094853,0.27711422911584377
1789881272031440400,1.1034404296875,-0.4811749124586582,-0.2072650323420763,-0.07121230182051658
1789881272041455400,1.113455322265625,0.11982468583080917,0.3041889907851815,0.34305823514461514
1789881272051470300,1.12347021484375,-0.4337818411102518,0.7499763635203242,-0.9265063581198454
1789881272061485000,1.133485107421875,4.27929410674572,0.12340601491630077,-4.3312136790752405
1789881272071500000,1.1435,2.099413242661953,0.7791647563427686,-3.990010131886601
1789881272081515000,1.153514892578125,1.895453681606054,0.8266150743037461,-3.2369390172213315
1789881272091530000,1.163530029296875,3.700087859123945,-1.0991028126627207,-3.186277335998416
1789881272101545200,1.173545166015625,2.788461674749851,-1.8589444443762302,-1.882516458621621
1789881272111559200,1.18355908203125,2.084165404647589,-1.8701357004761694,-1.1032067408502102
1789881272121574100,1.19357421875,2.492373280572891,-3.584022854620218,-3.0509605185359714
1789881272131589000,1.203589111328125,1.8167431329846382,-4.923682143852115,-4.45395216999352
1789881272141604000,1.21360400390625,0.5324374821841716,-4.589831882035732,-3.928167131435871
1789881272151619000,1.223619140625,-0.3667886913547292,-4.1398838824898005,-2.0049141732782125
1789881272161634300,1.23363427734375,-0.17153496279120445,-4.813145547381043,-0.6847451819360256
1789881272171649300,1.243649169921875,-1.375473529934883,-6.008542496150731,-0.04582067093253135
1789881272181664300,1.253664306640625,-4.338503836083412,-6.038544835704565,0.859447084325552
1789881272191679200,1.26367919921875,-5.789256771147251,-5.06716590115726,1.8840128346592186
1789881272201693200,1.273693115234375,-5.248523754304647,-3.429994322425127,2.843438296562433
1789881272211708200,1.283708251953125,-3.8598751009762284,-3.088315558940172,2.868413163343072
1789881272221723100,1.29372314453125,-1.9602654687345027,-4.276303692758083,1.7995868310004473
1789881272231738000,1.303738037109375,-0.7010112570822239,-4.499919555920362,1.0947165604025124
1789881272241753000,1.313753173828125,-0.24958385089980437,-3.7414264162063597,1.2745926505595444
1789881272251768000,1.32376806640625,-0.15301730932593344,-3.7763849168628454,1.5870768837422131
1789881272261783000,1.333782958984375,-0.425997215116024,-3.9750335120290514,2.243382153135538
1789881272271798000,1.343798095703125,-0.2403250059008598,-2.7073107472389935,3.4871102943539616
1789881272281813200,1.353813232421875,1.6116425852000713,-1.6652251223057508,4.500898045563698
1789881272291828200,1.363828125,2.6367823360294103,-2.1056927613228558,3.6303286787211895
1789881272301842200,1.37384228515625,1.8777584504395721,-3.1282880883663893,1.6280542062968015
1789881272311857200,1.383857177734375,1.5264321531653404,-4.968185302445292,1.5280542014092207
1789881272321872100,1.3938720703125,2.427961306416988,-4.001144104841352,1.1352806259810924
1789881272331887400,1.403887451171875,3.456596498146653,-1.714320869386196,0.08909867164492606
1789881272341902300,1.41390234375,3.4454964274615048,-1.729862137389183,-1.182878243458271
1789881272351917300,1.423917236328125,4.072257037940621,-1.9515093308269977,-0.7152753447562455
1789881272361932300,1.433932373046875,3.9709845288991925,-1.783458703020215,-0.2706377265781164
1789881272371947000,1.443947021484375,3.767589615988731,-1.2709966718941925,-0.6156798290163278
1789881272381962000,1.4539619140625,4.21373763872981,-0.7534352718025445,-0.6829711580008268
1789881272391976200,1.46397607421875,3.8860733720719813,-0.5756441712260246,-0.5085509951621294
1789881272401991200,1.4739912109375,2.7022996410787106,-0.13312486037611962,-0.529338931646943
1789881272412006100,1.484006103515625,1.8871610695570706,0.4603314463943243,-0.814509625968337
1789881272422021000,1.494021240234375,1.89430509609282,0.6992752270698547,-1.42063076852262
1789881272432036000,1.5040361328125,2.497723993951082,0.9009533991903066,-1.9776883127003908
1789881272442051000,1.514051025390625,2.913540006792545,0.7759627454310655,-2.7250381271094084
1789881272452066300,1.52406640625,2.5034756893455983,0.5518816028445959,-3.125076725104451
1789881272462081300,1.534081298828125,1.785858749899268,0.31052550033032894,-3.1469226462095974
1789881272472096300,1.54409619140625,1.1198941101484,0.24254677360355853,-2.4716332748830316
1789881272482111200,1.554111328125,-0.19385522340983152,0.7036153021007776,-1.7671359292507172
1789881272492126200,1.564126220703125,-2.8713305120944974,1.1374006868749855,-1.6998253110438584
1789881272502140200,1.57414013671875,-6.336966056743264,1.3661533284038305,-2.0608640240371225
1789881272512155100,1.584155029296875,-4.591529333603382,1.73988259614408,-2.8381787685990334
1789881272522170400,1.59417041015625,-1.3636967290319502,1.5245073225826025,-4.473023950210213
1789881272532185300,1.604185302734375,-0.27418007536008954,0.7506815891802311,-4.474247354525327
1789881272542200300,1.614200439453125,-1.1658102042794227,0.08083353212475776,-3.7230864573955533
1789881272552215300,1.62421533203125,-1.5253040259182453,-0.9658172087669372,-3.7793075263112783
1789881272562230300,1.634230224609375,-1.0880039110213517,-1.6564771677047014,-3.4849317812711
1789881272572245200,1.644245361328125,-1.1486534639038144,-1.1846154425144195,-3.827454009842872
1789881272582260200,1.65426025390625,-1.3853595486551522,-1.4324375261723994,-3.8638714771360156
1789881272592274200,1.664274169921875,-0.4536557680226862,-0.9866226809084415,-3.4312978062391277
1789881272602289200,1.6742890625,0.09789974467270075,-0.7570756741315126,-2.4983441716760395
1789881272612304100,1.68430419921875,0.8217413307875394,-0.789740510892868,-1.466879309478402
1789881272622319000,1.694319091796875,2.079731221592426,-0.4807335984319448,-1.555480552995205
1789881272632334300,1.704334228515625,3.168261202314496,-0.6486264053285121,-1.884211572101712
1789881272642349300,1.714349365234375,2.1076438953906296,-0.6435735058531165,-1.7407658087193965
1789881272652364300,1.7243642578125,2.108859700921178,-0.10251783292740582,-0.8248772907257079
1789881272662379300,1.734379150390625,3.036467882803082,0.6521580865859985,0.46457799792289733
1789881272672394200,1.744394287109375,1.7265888148069382,0.7345055304050445,2.051681769672036
1789881272682409200,1.7544091796875,-1.3496633813738823,0.6102320850044488,0.9507032262653112
1789881272692423400,1.76442333984375,-1.519179990079999,0.983555694553256,3.10616802649498
1789881272702438400,1.7744384765625,-1.0473322934150695,1.2086249713942407,7.301209732583165
1789881272712453400,1.784453369140625,-1.710592788773775,0.3106874128937721,6.999309437257051
1789881272722468000,1.794468017578125,-0.13848785784714854,0.30147388660758734,7.139611057394743
1789881272732483000,1.804483154296875,1.1444617113023996,0.35401685153245926,6.981597839477658
1789881272742498000,1.814498046875,1.1795803709566592,1.3940727242037654,8.362375905561446
1789881272752513300,1.82451318359375,0.9934563263207673,2.7224770444497466,9.405326622891426
1789881272762528300,1.8345283203125,0.9553782323390245,3.581708440198004,9.231323224160075
1789881272772543200,1.844543212890625,0.007014262676239013,3.959237977004051,8.51313520682752
1789881272782558200,1.85455810546875,-1.3094120350062846,4.410009860153496,7.440784207490086
1789881272792572200,1.864572265625,-3.3710575648099184,4.810304478736222,5.865827385130524
1789881272802587400,1.87458740234375,-4.864090721720457,4.372303814354539,3.6747622792094945
1789881272812602400,1.884602294921875,-5.270806897783279,4.415084094677865,1.8242934022337196
1789881272822617300,1.894617431640625,-4.861669632053375,5.126520591923594,0.3886754924595356
1789881272832632300,1.90463232421875,-4.161465599700808,5.09105706435442,-1.4712000952869653
1789881272842647300,1.914647216796875,-3.844730138814449,4.654749175365269,-2.024077138909697
1789881272852662300,1.924662353515625,-5.344580574524402,3.775641405019164,0.7420107914686203
1789881272862677200,1.93467724609375,-6.751881905874609,1.8550027210131286,6.382039708700776
1789881272872692200,1.944692138671875,-4.07686540851891,-2.2308274997279045,9.863356806606054
1789881272882707500,1.95470751953125,-0.361277782446146,-5.038993699640035,7.137598548528552
1789881272892721200,1.96472119140625,2.5064438915014264,-5.342674448642135,4.154166674864292
1789881272902736100,1.974736083984375,6.59516515750885,-5.202780240261554,-5.6139563183426855
1789881272912751000,1.984751220703125,10.427094266939163,-3.1382454187572,-12.587426380944251
1789881272922766300,1.994766357421875,11.070926423728466,-0.015844634863734244,-13.603757971417902
1789881272932781300,2.00478125,1.1076222192049026,1.0184551584988832,-11.515929952609538
1789881272942796300,2.01479638671875,-1.0400959124207496,1.1708838542819022,-9.097982090684772
1789881272952811300,2.024811279296875,-1.6983457400105892,0.2801625107705593,-6.394515743914246
1789881272962826200,2.034826171875,-0.9895429522693157,-4.4864784750670195,-3.8960891546517606
1789881272972841200,2.04484130859375,1.7886591942727565,-9.32633667280674,-3.089388741129637
1789881272982856200,2.054856201171875,2.110286518853903,-10.391931768143177,-0.837740279430151
1789881272992870400,2.064870361328125,3.2200591940909624,-11.230694960880278,1.0045756862282753
1789881273002885400,2.074885498046875,4.727455222874879,-13.53597213691473,0.25272856040000913
1789881273012900400,2.084900390625,1.6549638405323028,-12.64321081200838,0.7521446474701166
1789881273022915300,2.094915283203125,2.0894126576513052,-11.19065053526163,1.1721908452272414
1789881273032930000,2.104929931640625,-0.8284165707677602,-8.840206768289208,-0.5082300926446914
1789881273042945000,2.114945068359375,1.0192863486260175,-7.737918311327696,-3.131324387322366
1789881273052960300,2.124960205078125,6.307280528053641,-4.86261071229577,-6.317265915495157
1789881273062975200,2.134975341796875,5.198973249194026,2.2583663717776536,-8.82440889517665
1789881273072990200,2.144990234375,-6.181522397053241,6.830716957658529,-10.384449887955189
1789881273083005200,2.155005126953125,-8.441407356700301,10.582813236439227,-9.692464817893505
1789881273093019100,2.16501904296875,-13.058158225321769,13.049201011884211,-9.900604879504442
1789881273103034400,2.175034423828125,-15.085254419791697,10.499689547550677,-9.723628017920255
1789881273113049300,2.18504931640625,-10.864940909802913,8.701905966579913,-7.415303144752979
1789881273123064300,2.195064208984375,-6.391559232196212,6.347877911379933,-5.087256503027677
1789881273133079300,2.205079345703125,-4.042131656529009,2.396128244304657,-3.27955650819838
1789881273143094300,2.21509423828125,-5.201373880594969,0.42309915558695793,-0.14984218642115593
1789881273153109200,2.225109130859375,-6.084442079004645,0.3430512208819389,0.5451490797191858
1789881273163124200,2.235124267578125,-3.651362698921561,2.8510815047919746,-1.1967752513855694
1789881273173139500,2.245139404296875,0.15861469094157218,3.3200299728840585,0.5148059639036655
1789881273183154400,2.255154541015625,1.7062673267900943,2.8903128604620694,3.120660077705979
1789881273193168100,2.265168212890625,2.8005764754354954,3.9245255600631235,0.9689069914758205
1789881273203183000,2.27518310546875,6.362925258386134,3.5113407725080847,1.8084627958953379
1789881273213198000,2.285197998046875,8.012195855712891,1.939703157699108,1.7333225069761276
1789881273223213300,2.29521337890625,5.770228245550394,-0.42740269799977537,4.972066527792811
1789881273233228300,2.305228271484375,0.4070353250145912,-1.7165467287421226,4.3328474177569145
1789881273243243300,2.3152431640625,-3.079717241942882,-1.7290218871727585,4.445994488987326
1789881273253258200,2.32525830078125,-2.958006048245728,3.9257717607319353,5.877687334272265
1789881273263273200,2.335273193359375,-3.867119665277004,9.245362855428457,1.4879478164702653
1789881273273288200,2.3452880859375,-9.024346945631503,10.362006585478783,-5.763039210829138
1789881273283303200,2.35530322265625,-6.255615222746133,7.460621711382269,-3.600062719795108
1789881273293318100,2.365318115234375,-5.276483774375915,1.8436317244321108,0.3476607605040073
1789881273303332400,2.375332275390625,-5.560181473535299,2.162766647675633,6.732635353612899
1789881273313347300,2.385347412109375,-6.449909129834174,3.726921797774732,11.82471650031805
1789881273323362300,2.3953623046875,-6.884563114136457,0.2014342803619802,13.6466221306324
1789881273333377300,2.405377197265625,-4.260631199590861,-3.079925331735611,12.727369104641674
1789881273343392300,2.415392333984375,-1.425632814593613,-6.907167744654417,9.102721978688239
1789881273353407200,2.4254072265625,-0.2610202956661582,-7.807876229172945,5.91647094617486
1789881273363422200,2.435422119140625,-0.751144238255918,-6.147580379962921,3.696184421944618
1789881273373437200,2.445437255859375,2.870802981089055,-2.0904080984294415,4.229257279422879
1789881273383452200,2.4554521484375,4.449664701932669,-0.5439467181921005,6.68220455853641
1789881273393467100,2.465467041015625,3.320654826784134,-2.7491166295722125,7.049433358341455
1789881273403482000,2.475482177734375,2.669556770645082,-5.397026216554641,6.2530450799971815
1789881273413496300,2.485496337890625,4.243559068758786,-6.741352328553796,4.596704105892777
1789881273423511300,2.49551123046875,6.488426784276962,-5.770547394502163,1.9925264008700847
1789881273433526300,2.5055263671875,8.44193284187913,-4.008919999539852,-0.7070026064515114
1789881273443541200,2.515541259765625,7.826547027373313,-2.501435707950592,-2.009113378533721
1789881273453556200,2.52555615234375,4.974622642016411,-1.0054285036653279,-2.1904589567214248
1789881273463571200,2.5355712890625,1.5862439400494097,0.6845639801502227,-2.1524235328376293
1789881273473586400,2.54558642578125,-1.005887353348732,2.706498261812329,-2.4183482594192025
1789881273483601400,2.555601318359375,-4.185611614441871,3.1378871068388223,-3.337189489738643
1789881273493616400,2.565616455078125,-11.644999400115012,1.6499369522809981,-5.757499696880578
1789881273503631400,2.57563134765625,-21.789409528851508,-0.5008803144037723,-8.921076540771127
1789881273513646300,2.585646240234375,-14.193215563941001,0.03532558040320873,-8.244142324846983
1789881273523662800,2.595662841796875,-6.681301472216844,1.3948159437865018,-6.601544629412889
1789881273533677800,2.605677734375,-5.0460710906803605,2.442322424724698,-5.148791460442543
1789881273543692800,2.61569287109375,-3.263009278023243,2.4737264477699994,-4.631204341387749
1789881273553707800,2.625707763671875,-1.7437679131448267,1.5377350529462097,-4.377931298847496
1789881273563722800,2.63572265625,-0.4023953902542591,-0.17131167542934417,-3.92925989510864
1789881273573738000,2.645738037109375,3.113862380389869,-1.073062946999073,-3.3420091649800536
1789881273583753000,2.6557529296875,5.555199008947611,-3.673599665170908,-3.5643870107799764
1789881273593768000,2.665767822265625,7.573166140544414,-6.967174761849641,-3.6377941922962664
1789881273603783000,2.675782958984375,8.566172969532012,-8.983580635479091,-2.5558842142358422
1789881273613798000,2.6857978515625,8.144122446215153,-9.043611618071793,-1.1370748889867215
1789881273623812600,2.6958125,6.017407355129718,-6.739771196842193,0.3879351954862475
1789881273633826800,2.705826904296875,2.0350340017318724,-3.156478410062194,0.8480382399521768
1789881273643841800,2.715841796875,-2.1995969335533676,-0.3813666307508945,-1.179473841842264
1789881273653856800,2.725856689453125,-2.3603121039055286,1.4319687396168708,-2.757328869861364
1789881273663871700,2.735871826171875,-1.4489045307181774,2.807871308618784,-2.727059988325834
1789881273673886700,2.74588671875,-1.5838485693454742,3.9639235044717784,-2.0855378620445726
1789881273683901700,2.755901611328125,-1.9299930800676344,3.931107861062884,-1.1339490851163863
1789881273693916700,2.765916748046875,-1.4331296000897884,3.4390181713581085,0.1764329639658332
1789881273703932000,2.775931884765625,-1.0126314207814633,2.28082720991075,1.8508441400289535
1789881273713947000,2.78594677734375,-0.4822610271949321,1.368888306325674,3.609847616228461
1789881273723961900,2.7959619140625,0.655918900424242,0.7508335648715495,5.950816867890953
1789881273733976800,2.805976806640625,2.2162381256222723,-0.0018050035953521728,9.39438846476972
1789881273743990800,2.81599072265625,3.123640554821491,-0.802545631930232,11.233681867736577
1789881273754005800,2.826005859375,4.147028493547439,-1.499015153929591,11.978494857144355
1789881273764020700,2.836020751953125,4.775002571469545,-1.9007997188091277,11.795402727550268
1789881273774035700,2.84603564453125,4.714686926716566,-1.8870120164752004,10.87694114419818
1789881273784050700,2.85605078125,4.879987379032373,-1.2490227404952048,9.521475798547268
1789881273794065700,2.866065673828125,4.357615363788605,-0.1640519135594368,7.487331439131498
1789881273804080600,2.87608056640625,3.0340801108837128,1.1673936740785837,4.696303128764033
1789881273814095600,2.886095703125,1.8578876287996768,1.8445961855500936,2.7134610865622757
1789881273824110800,2.89611083984375,0.7332565532572567,1.6112953791975975,1.9796251259818671
1789881273834125800,2.906125732421875,0.2621440389990806,1.4958213263243436,0.8841293979004025
1789881273844140800,2.916140869140625,0.36229309696853157,1.1320926435947418,-0.4004489323616028
1789881273854154800,2.92615478515625,0.6024012452483177,-0.0421457818120718,-0.8203653662592172
1789881273864169700,2.936169677734375,1.1795778867386282,-1.3548714714109897,-0.6613175445973872
1789881273874185000,2.94618505859375,2.307829198604822,-2.463173489573598,-0.6693734252810478
1789881273884200000,2.956199951171875,3.5461709706097837,-3.413210945406556,-0.40850042913109064
1789881273894215000,2.96621484375,4.512862624123692,-4.054260778000951,0.005563479346036911
1789881273904230000,2.97622998046875,5.084233355814218,-4.559721990454197,0.3681172730773687
1789881273914244900,2.986244873046875,5.165061627241969,-4.707486201557517,0.013852876524627208
1789881273924259800,2.996259765625,4.901336456531286,-4.533280558252335,-0.3560281913548708
1789881273934274600,3.006274658203125,4.253625412482023,-3.9294180082798,-0.7987900787889957
1789881273944289800,3.016289794921875,3.319254896858334,-3.4038591796934603,-1.5831857215225695
1789881273954303700,3.0263037109375,2.346155422128737,-3.0055437522292134,-2.253200951838493
1789881273964318700,3.036318603515625,1.2715559132121503,-2.5432290230631827,-2.5276097213879227
1789881273974333700,3.046333740234375,0.20453999129235742,-2.198134898176789,-2.7342376248702407
1789881273984348700,3.0563486328125,-1.9211101009100675,-2.259277641403675,-3.471697328905761
1789881273994364000,3.066364013671875,-4.746151155516505,-2.4894313819020986,-4.3098938276708125
1789881274004379000,3.07637890625,-9.71763199237585,-3.1909143481492994,-4.396203160858154
1789881274014393900,3.086393798828125,-11.16500989804864,-3.3065549897611137,-3.6997622804313894
1789881274024408800,3.096408935546875,-9.791770995298027,-3.5705998939454555,-4.022311103771627
1789881274034423800,3.106423828125,-8.320065873098374,-3.9727661516189574,-4.350516929960251
1789881274044438800,3.116438720703125,-9.797761175623535,-4.264788027009367,-3.39404973334074
1789881274054453800,3.126453857421875,-10.939979491913318,-4.532029681408405,-2.8921409526720643
1789881274064468700,3.13646875,-7.193208207547665,-4.684789216580986,-4.228642362394929
1789881274074482700,3.146482666015625,-2.845573847286403,-3.871954245826602,-5.632727654308081
1789881274084497700,3.15649755859375,-1.2285492767870425,-3.108668026617169,-6.241192729640007
1789881274094512600,3.1665126953125,-2.6638711262241004,-2.9976936232507225,-7.648674093732238
1789881274104527600,3.176527587890625,-5.196359851825237,-2.957304329717159,-8.89488294585049
1789881274114542800,3.18654296875,-5.289337995252013,-2.9161072269320485,-9.197861099541187
1789881274124557800,3.196557861328125,-3.5684029684230683,-2.953910011103749,-8.893367280590533
1789881274134572800,3.20657275390625,-2.014545924976468,-3.448732925164699,-8.576288705354928
1789881274144587800,3.216587890625,-1.2212667185634374,-4.511627529370784,-8.441154258722067
1789881274154602800,3.226602783203125,-0.9912453722730279,-5.26629321975112,-8.19418557702303
1789881274164617700,3.23661767578125,-1.7818299327746032,-5.615397164800763,-7.996224379599094
1789881274174632700,3.2466328125,-4.24285150501132,-6.031300855925679,-7.965176330384612
1789881274184647700,3.256647705078125,-7.831027972179651,-6.025054070490598,-5.578910139402747
1789881274194662000,3.266661865234375,-8.723950040605663,-5.967220890203118,-2.284188210776448
1789881274204676900,3.2766767578125,-6.458714952102303,-6.317321445074677,-0.6203989664927124
1789881274214691800,3.28669189453125,-3.585360240703821,-6.418406322589516,1.242839960207045
1789881274224706800,3.296706787109375,0.010694923950359224,-6.562058422198891,3.0028251409202813
1789881274234721800,3.3067216796875,2.962639845526218,-6.857911254054308,4.107721442292631
1789881274244736800,3.31673681640625,3.7902281487762925,-7.038128704994916,5.717103389084339
1789881274254751700,3.326751708984375,4.303130324885249,-7.089280800083279,7.639003179067373
1789881274264766700,3.3367666015625,4.494304054126143,-7.018063237565755,8.975981266391276
1789881274274781700,3.34678173828125,4.23181105555892,-6.284860606452822,8.732841787591576
1789881274284796700,3.356796630859375,3.6804239582329985,-5.846474449884891,8.61729759209156
1789881274294811600,3.366811767578125,-0.5414812048614025,-5.99409077695012,6.10446370729208
1789881274304826600,3.37682666015625,-3.3292180724680422,-5.797998880529403,3.5068443378716707
1789881274314841900,3.386841796875,0.3769687245855108,-4.7280561113774775,3.864268367499113
1789881274324855800,3.396855712890625,2.794322091215849,-3.6794361162394282,3.080288904350996
1789881274334870800,3.406870849609375,4.078468752062321,-2.158515419971943,2.012226688248664
1789881274344885800,3.4168857421875,4.47692680286765,-0.4611240580767393,1.6500059258639812
1789881274354900700,3.426900634765625,2.686134103697538,0.4397691353589296,1.643782082913071
1789881274364916000,3.436916015625,0.750741210412979,1.502543912577629,2.2041091502808032
1789881274374931000,3.446930908203125,0.6159529468692839,2.448691375234723,2.692270122234523
1789881274384946000,3.45694580078125,2.0464216571867464,3.310823753121495,3.109697954186797
1789881274394961000,3.4669609375,3.6908138348221775,4.2264603421807285,3.7307770118981596
1789881274404975900,3.476975830078125,4.918888479834795,5.155312386643886,4.103983717069029
1789881274414990800,3.486990966796875,5.483379973405599,6.046283321002125,3.682264325402677
1789881274425005600,3.497005615234375,5.6767222788572305,6.839021260145306,2.941606117586791
1789881274435020800,3.507020751953125,5.574601628553867,7.302285837382078,2.331033256320655
1789881274445035800,3.517035888671875,5.5796706023812295,7.479749021178484,2.463311144478619
1789881274455049700,3.5270498046875,5.620464385062456,7.54230806094408,3.1078879821553826
1789881274465064700,3.537064697265625,5.757151321834326,7.361115627491474,3.984532284997403
1789881274475079700,3.54707958984375,6.0788710008740425,7.310625795704126,5.053724820303916
1789881274485095000,3.557094970703125,6.123641870492697,7.450790053197741,5.8879591374397275
1789881274495110000,3.56710986328125,5.739483563196659,7.752054388707876,6.403735992202162
1789881274505124900,3.577124755859375,5.342690230733156,8.10121444785893,6.518563563865423
1789881274515139800,3.587139892578125,4.885127664530277,8.602617324832082,6.514591737625002
1789881274525152500,3.597152587890625,4.3526083492815495,8.872195897746085,6.344973422110081
1789881274535167500,3.60716748046875,3.599642448556423,8.95962049869895,5.965987549015879
1789881274545182500,3.617182373046875,1.853596069085598,8.74663591966629,5.631202636697888
1789881274555197400,3.627197509765625,-2.1012940879724917,7.380881819713116,4.668393377575278
1789881274565212400,3.63721240234375,-9.605216742551326,4.140344485738873,2.0401801324486732
1789881274575226600,3.6472265625,-17.461316027623415,-0.2594488085657358,-1.1391565175663678
1789881274585241600,3.65724169921875,-18.171593125700948,-5.1431239362001415,-5.932514318481087
1789881274595256600,3.667256591796875,-11.481899088191986,-9.103474842882155,-9.74306980049312
1789881274605271600,3.677271484375,-1.2260649126254022,-11.226000081062317,-9.786423789051174
1789881274615286500,3.68728662109375,1.9929953335560857,-12.716540252113342,-9.438957089814544
1789881274625301500,3.697301513671875,-1.3368880709528923,-12.94899759337902,-9.125520085951685
1789881274635316700,3.707316650390625,-4.544524421322346,-9.789395498338342,-5.856873094302416
1789881274645331500,3.71733154296875,-5.290588287574052,-5.478251378345489,-4.120680584847927
1789881274655346400,3.727346435546875,-2.5247289052546025,-2.6644220381051302,-2.5394807764455676
1789881274665361400,3.737361328125,1.3788368688881396,-2.909780946519971,3.4068355651557445
1789881274675376400,3.74737646484375,-4.272772011500597,-5.89403582700491,9.356037983587383
1789881274685391400,3.757391357421875,-12.07184534101486,-9.221592688262461,12.281685192281007
1789881274695406300,3.76740625,-2.455321607029438,-9.750562202075123,10.200931057381629
1789881274705421600,3.777421630859375,8.474828564786911,-5.906152965778112,7.26595078767538
1789881274715435500,3.787435546875,7.153202360373735,-2.560333887121081,6.400474944579601
1789881274725450500,3.797450439453125,4.18496162610054,1.3022896357804536,4.958405082187056
1789881274735465500,3.807465576171875,2.85144507740736,4.093659306931495,3.7927348709002136
1789881274745480400,3.81748046875,2.368529458761215,5.550411774671077,3.3522461890950797
1789881274755495400,3.827495361328125,2.2698738542199135,6.2335349083632225,3.3793861249551176
1789881274765510700,3.8375107421875,2.3867174418807027,6.32423516998589,3.7639074203446503
1789881274775525600,3.847525634765625,2.5188614745259286,5.832130867233872,4.008492129516601
1789881274785540600,3.85754052734375,2.7441385488986967,4.781067570596933,3.8386774146467446
1789881274795555600,3.8675556640625,2.7943209221720693,3.724274790397286,4.088749323058128
1789881274805570600,3.877570556640625,2.854173625588417,2.8144728988409042,4.648826507318019
1789881274815585500,3.88758544921875,2.9961107379734515,2.0665911695122716,4.806824527665972
1789881274825600500,3.8976005859375,3.03568871512413,1.3696318181693554,4.738818912932277
1789881274835615500,3.907615478515625,3.224063753557205,0.5459282473981381,4.655785824936628
1789881274845630500,3.91763037109375,3.2242531386494635,0.017531565037369728,3.694892044046521
1789881274855645400,3.9276455078125,3.181470812499523,-0.36184827581048007,2.34971165330559
1789881274865659400,3.937659423828125,4.099550118535757,-0.7125999880671501,1.1563108467891812
1789881274875674400,3.94767431640625,5.24932104216218,-0.8896417315810918,0.21108985132724045
1789881274885689600,3.957689697265625,4.835269116383791,-0.4874450787693262,0.7196355857923626
1789881274895704600,3.96770458984375,4.511023133736849,-0.09352876304686068,1.3675295851930975
1789881274905719600,3.977719482421875,4.262635232889652,0.17652151903212068,1.4078133725255726
1789881274915734500,3.987734619140625,3.674650635528564,0.46437224621772766,1.2409183444947003
1789881274925749500,3.99774951171875,3.180294754457474,0.7217237902432679,0.8465084000363945
1789881274935764500,4.007764404296875,2.7721979376912116,0.746265526303649,0.48964083524793384
1789881274945779500,4.017779541015625,2.305227491673827,0.593361029702425,0.036848259925842286
1789881274955794700,4.027794677734375,1.9186989481151102,0.25792086834609507,-0.3848635329559445
1789881274965809700,4.0378095703125,1.8007136430732904,-0.1945247932344675,-0.8802101786300539
1789881274975824600,4.04782470703125,1.9064824406206606,-0.42949733219146724,-0.8396645254909991
1789881274985839600,4.057839599609375,1.3493335648976266,-0.9003677082568406,-1.2716077895298599
1789881274995854600,4.0678544921875,0.09302475904747844,-2.102313055756688,-3.0067464060172435
1789881275005868500,4.07786865234375,-0.564570988547802,-2.8836574942260977,-3.9302605965837834
1789881275015883500,4.087883544921875,-1.3581266738146542,-3.2977474139273166,-4.80070253765434
1789881275025898500,4.0978984375,-2.3685402724161744,-3.4324393774896858,-5.438125119662285
1789881275035913500,4.10791357421875,-3.1154671852380034,-3.4232214672893284,-5.698605024841427
1789881275045928400,4.117928466796875,-5.7447676410794255,-4.090334546422958,-6.5594006011664865
1789881275055943400,4.127943359375,-7.972000623446703,-4.874160280314087,-6.536520660838485
1789881275065958400,4.13795849609375,-6.029920799744128,-4.384042182943225,-5.474349110209942
1789881275075973600,4.1479736328125,-5.442302113085985,-4.247665627294778,-4.751777178704739
1789881275085988600,4.157988525390625,-6.49790363767445,-4.390420485803484,-4.404690418696403
1789881275096003600,4.168003662109375,-8.134662543952464,-4.622027932241559,-4.578472283631563
1789881275106018600,4.1780185546875,-9.044342854955792,-4.827295653286576,-4.533895767541229
1789881275116033500,4.188033447265625,-7.456543502157926,-4.602586734190583,-4.591599768491089
1789881275126048500,4.198048583984375,-4.941453362864255,-4.368634185931087,-5.206139487561583
1789881275136063500,4.2080634765625,-2.768463135077059,-3.8833296263217925,-5.473578125837445
1789881275146077400,4.218077392578125,-1.6818483403265476,-2.843943907997012,-5.8158133541613815
1789881275156092400,4.228092529296875,-2.0593238088577985,-2.0743255631566044,-6.704926677954196
1789881275166107400,4.238107421875,-2.9008213949948547,-1.6181453912228345,-8.180033133029937
1789881275176122400,4.248122314453125,-3.9072032538622614,-1.306177290868759,-9.107181296184658
1789881275186137300,4.258137451171875,-4.342409026828408,-2.047426450315118,-9.885020356881618
1789881275196152600,4.268152587890625,-4.587416637587547,-3.9921564962655305,-11.388088001072406
1789881275206167600,4.27816748046875,-4.1848143265843385,-5.366770779022574,-11.609541133242844
1789881275216182500,4.2881826171875,-4.660964104357362,-5.635660785150527,-9.546258357626199
1789881275226197500,4.298197509765625,-4.123759846162796,-5.129257323411107,-6.024287762293219
1789881275236212500,4.30821240234375,-2.493136666160822,-5.160623937055468,-4.421267459487915
1789881275246227500,4.3182275390625,-1.4873837528467178,-5.677994783011078,-3.317517405541241
1789881275256242400,4.328242431640625,0.0022872250211890786,-6.344962900716066,-1.8601301470294593
1789881275266257400,4.33825732421875,2.4273475584328175,-6.890026640239357,-0.9560084930665791
1789881275276272600,4.348272705078125,3.8157226555168626,-6.871477422592044,0.7176219078823923
1789881275286287600,4.35828759765625,4.578234967744351,-6.856349411565065,3.298509045949578
1789881275296301600,4.368301513671875,5.201710565203428,-7.5050728475272654,5.952209783554077
1789881275306316500,4.378316650390625,6.077082363891601,-8.30114080787599,7.5175459601312875
1789881275316331300,4.388331298828125,7.426352946555614,-8.48249632293582,8.848770013973116
1789881275326346500,4.398346435546875,8.04037565601468,-7.981769153267145,9.916342546862364
1789881275336361500,4.408361572265625,7.610248209226131,-7.360257549357414,8.743587053489685
1789881275346376400,4.41837646484375,6.971537633234262,-6.18270020866096,6.300033625665307
1789881275356391400,4.428391357421875,7.3674588590383525,-4.648661087623238,3.3181296922206878
1789881275366406400,4.438406494140625,4.892406131100654,-2.8526918625980615,0.4566571417957544
1789881275376421400,4.44842138671875,-5.733530792272091,-0.009267594560980797,-3.3256068962335585
1789881275386436400,4.458436279296875,-3.4028315902113913,2.5882939071923494,-2.559191146826744
1789881275396451600,4.46845166015625,1.0659120523311196,3.6693987063497304,-0.8136250982187688
1789881275406466600,4.478466552734375,1.8774140209160743,3.8631408247739074,1.3694846647836267
1789881275416481500,4.4884814453125,1.5366764838039875,4.067781353831291,3.6353456301003693
1789881275426496500,4.49849658203125,1.4399904257699847,4.118116287317871,4.778142038539052
1789881275436510500,4.508510498046875,3.0705487238422036,4.050650186288356,4.331012311284244
1789881275446525700,4.518525634765625,4.752740470778942,3.8661049352765082,3.258045810396969
1789881275456540700,4.528540771484375,5.9722612224578855,3.9690918470203873,2.9931168168544766
1789881275466555600,4.5385556640625,6.838064397811889,4.208552929568291,3.0469770018577575
1789881275476570600,4.548570556640625,7.256778470182418,4.612527697968483,2.9325492431670424
1789881275486585300,4.55858544921875,7.076087556511164,4.759169627043605,3.289806976316869
1789881275496600300,4.568600341796875,6.987622506594658,4.806809330096841,4.294488461007178
1789881275506615300,4.578615234375,6.89296853891015,5.098854001840949,5.683229761055111
1789881275516630500,4.588630615234375,6.473682804131507,5.317689060467481,6.832444804364442
1789881275526646000,4.59864599609375,5.663268923044204,5.591275699979066,7.80105895037353
1789881275536661000,4.608660888671875,5.097862068194151,6.215993990975618,8.33055453388691
1789881275546676000,4.618676025390625,4.488661372064054,6.998765831899642,8.113550197818874
1789881275556691000,4.62869091796875,3.8076512850031254,7.784449176356196,7.77248693588376
1789881275566706000,4.638705810546875,3.2851825313866136,8.445876026546955,7.3997911028444765
1789881275576721000,4.648720947265625,2.507752051490545,8.839048830425739,6.910773660191893
1789881275586734800,4.65873486328125,0.9816668120667338,8.940975419461727,6.455517617365717
1789881275596749800,4.668749755859375,-1.2854045519530772,7.942772775396704,5.540557904654741
1789881275606764800,4.678764892578125,-6.092268242585659,4.81973427812159,3.201622204646468
1789881275616779800,4.68877978515625,-13.920163177436589,0.9087187724947929,0.2263101437475532
1789881275626794800,4.698794677734375,-17.893319789677857,-3.5629514250189063,-3.867227801826596
1789881275636809700,4.708809814453125,-14.12643393804431,-7.750938536420464,-8.76157396107912
1789881275646825000,4.718824951171875,-4.2241070570528505,-10.233130030196904,-10.582531496888398
1789881275656840000,4.72883984375,2.9107717111229894,-11.738299615103006,-10.344753837382793
1789881275666855000,4.73885498046875,1.1250210977733135,-12.968944987386465,-10.36020158188343
1789881275676870000,4.748869873046875,-2.62406372423172,-11.581941178655624,-8.027224498018622
1789881275686884900,4.758884765625,-3.7519080627322197,-7.377903096163273,-4.8660342570036645
1789881275696899800,4.76889990234375,-2.0925451104581354,-3.4784845048278568,-3.460841003848612
1789881275706914800,4.778914794921875,1.7400538610577583,-1.983836898458004,0.3699128147246316
1789881275716929800,4.7889296875,2.337428218054771,-3.616813948109746,6.708841805571318
1789881275726945000,4.798945068359375,-7.341831081306934,-6.888413359823822,10.65737017251253
1789881275736959000,4.808958984375,-10.044144750910997,-8.680558058124781,11.677835501790046
1789881275746974000,4.818973876953125,0.04759414687845856,-7.255512980291247,8.030256413060426
1789881275756988700,4.82898876953125,9.14537454097867,-3.0737954506784675,5.256786555737257
1789881275767003600,4.839003662109375,6.455625753915309,0.22518296634852886,4.86045762591511
1789881275777019000,4.849018798828125,2.8846505969166754,2.5279022745937105,3.9720384218662974
1789881275787033900,4.859033935546875,2.3729963750422,4.176999853441119,3.0242741716623303
1789881275797048800,4.869048828125,2.1638616033054885,5.142509603694081,2.9494091925531625
1789881275807063800,4.879063720703125,2.2381647107481957,5.675464972272515,3.170264358830452
1789881275817078800,4.889078857421875,2.2785773851573468,5.458119275420904,3.5962504680305716
1789881275827093800,4.89909375,2.4939912371635438,4.469731338405609,3.967737509801984
1789881275837108700,4.909108642578125,2.6856653171420097,3.451574286070466,3.9160716199725862
1789881275847124000,4.9191240234375,2.7184020500957966,2.75759833445251,3.7279151927262544
1789881275857139000,4.929138916015625,2.7496330546617505,2.2134236527234314,3.569770749644935
1789881275867154000,4.93915380859375,2.9337282238185405,1.7122475702434776,3.575559854440391
1789881275877169000,4.9491689453125,3.2072353683531283,1.098046581608057,3.563724747478962
1789881275887182800,4.959182861328125,3.387953170031309,0.5499959352284669,3.1191222006142136
1789881275897198000,4.969197998046875,3.36275443136692,0.14684066651761532,2.2460870281800625
1789881275907213000,4.979213134765625,3.227791834169626,-0.1197790565907955,1.3672721033006905
1789881275917228000,4.98922802734375,3.218879044395685,-0.38287294366061686,0.5907099306717515
1789881275927242800,4.99924267578125,3.4440380453467365,-0.766948248848319,-0.0204214412599802
1789881275937257700,5.0092578125,3.911492183227837,-0.8973965834915637,-0.3960226403519511
1789881275947272700,5.019272705078125,4.145716826426983,-0.986520974099636,-0.599944499745965
1789881275957287700,5.02928759765625,3.565758883655071,-0.5121861367940902,-0.054991819381713866
1789881275967303000,5.039302978515625,3.4144121378898618,-0.026078444108366964,0.41684477136731146
1789881275977318000,5.04931787109375,3.3852515098571776,0.043943771144747734,0.15151362676471472
1789881275987332900,5.059332763671875,3.333668622136116,0.0420627797037363,-0.40441637468785047
1789881275997347800,5.069347900390625,3.2382442546010015,-0.039210897403955454,-0.771996764409542
1789881276007362800,5.07936279296875,2.990421586421132,-0.14392156420052052,-0.8095569719970226
1789881276017377800,5.089377685546875,2.8804636666208503,-0.37777123660743234,-1.0126172461256384
1789881276027392800,5.099392822265625,2.7020389443159103,-0.628342911234498,-1.2987941948801278
1789881276037408000,5.109407958984375,1.4932324788749216,-1.2094921096175908,-2.4986253267049787
1789881276047422000,5.119421875,0.22594342932701109,-1.83052206749022,-3.1415985285773873
1789881276057437000,5.12943701171875,-0.6282318520754575,-2.100494608157873,-3.3512133389160037
1789881276067452000,5.139451904296875,-1.8017904785245655,-2.0938526859253646,-3.914895269669592
1789881276077467000,5.149466796875,-2.70643133405596,-1.9486966114938258,-4.350953860072791
1789881276087481900,5.15948193359375,-4.051170410770178,-1.9172902503609657,-4.6846705586373805
1789881276097497000,5.1694970703125,-6.595899317002296,-2.210071419686079,-4.933558810222149
1789881276107511800,5.17951171875,-7.064696393924951,-2.672390825027227,-4.540154535675049
1789881276117526800,5.18952685546875,-6.526714137095213,-3.2267695053845644,-4.1462963798806065
1789881276127541800,5.199541748046875,-6.195629832860827,-3.810874630963802,-3.9099446615248916
1789881276137556700,5.209556640625,-5.958599192330241,-4.337175802350044,-4.134329170972109
1789881276147571700,5.21957177734375,-6.158696817260981,-4.782796001824736,-4.235605771666765
1789881276157586700,5.229586669921875,-6.218058522289991,-5.169502240037918,-4.354338826335966
1789881276167602000,5.239601806640625,-5.431999914780259,-5.11078760074079,-5.071643338832259
1789881276177617000,5.249616943359375,-4.235006052207947,-4.540932534310222,-5.741728127253055
1789881276187631900,5.2596318359375,-3.137812288036942,-3.6450340804219246,-6.235720435708761
1789881276197646800,5.269646728515625,-2.034134422543645,-2.7498084112286567,-6.676582042479515
1789881276207660800,5.279660888671875,-0.9603700492769479,-2.5326409935533998,-7.531995925766229
1789881276217676000,5.289676025390625,-1.0779627017393707,-3.2114176224738356,-8.67677327888906
1789881276227691000,5.29969091796875,-1.3256268183566629,-4.314083680576085,-9.599524668389558
1789881276237706000,5.3097060546875,-1.8402216237276792,-5.200762470698356,-10.636294651257991
1789881276247721000,5.319720947265625,-4.06627270283401,-5.735960065245628,-11.173816304838656
1789881276257736000,5.32973583984375,-6.460583084061741,-6.050152271389961,-10.783956571030616
1789881276267751000,5.3397509765625,-6.595389613914489,-5.827320252081751,-8.336471648976206
1789881276277766000,5.349765869140625,-5.2262721750080585,-4.865945994198322,-4.68032580743134
1789881276287780900,5.35978076171875,-3.0094138716608283,-4.317090461176633,-2.5388059459239245
1789881276297795800,5.3697958984375,-1.1870938153266906,-4.645176168116927,-1.0435486832231282
1789881276307810800,5.379810791015625,1.0780243687987328,-5.4053667593985795,0.22234438192173836
1789881276317825800,5.38982568359375,3.990066830509901,-5.713286461144685,1.771213992344588
1789881276327840800,5.3998408203125,5.192462259864807,-5.908869823521376,4.048822386339307
1789881276337855700,5.409855712890625,4.977624746441841,-6.239006033250689,6.244128783091902
1789881276347870700,5.41987060546875,5.695887582576274,-6.616417788895964,7.4424839971452945
1789881276357886000,5.429885986328125,6.255307764232159,-6.472959750553965,8.019037684431671
1789881276367901000,5.43990087890625,6.231814660441875,-5.990372633209824,7.950107940590381
1789881276377915000,5.449914794921875,6.5000272056996815,-5.5649815672934055,6.73802347639203
1789881276387929900,5.459929931640625,6.7806175864934914,-4.902426589855551,4.788022212040424
1789881276397944800,5.46994482421875,6.387080040955543,-3.8781273815035817,3.653967912983894
1789881276407960000,5.4799599609375,5.55305498265624,-2.594731246763468,1.9749735007837415
1789881276417975000,5.48997509765625,5.1156689430415625,-1.6173054332673549,-0.37886005475744605
1789881276427990000,5.499989990234375,1.2703636346876621,-0.23697394190728663,-2.340817860493064
1789881276438005000,5.5100048828125,-0.7225296997986733,1.0401017576396465,-2.3825921786442397
1789881276448020000,5.52002001953125,1.3656222902670503,1.7964169687926768,0.11127908540144563
1789881276458034700,5.53003466796875,2.418119272968918,2.5417688873827458,2.5050004146948455
1789881276468049700,5.540049560546875,2.5309926418244837,3.7553678477972743,4.243657268436253
1789881276478065000,5.55006494140625,2.397099719685316,4.938853994020819,5.200261535438895
1789881276488080000,5.560079833984375,2.785394103872776,5.2365398865222925,4.416328834041953
1789881276498094800,5.5700947265625,4.125956187163293,5.009132229861617,3.1489807477831837
1789881276508109800,5.58010986328125,5.645325270074606,5.029401110908389,2.9383886168450117
1789881276518124800,5.590124755859375,6.805154646378755,5.262028548043966,3.0863153250336643
1789881276528139300,5.60013916015625,7.06397158678174,5.406165216299891,3.391874727389216
1789881276538154200,5.610154296875,6.985683062964678,5.634923118525744,4.230740503717959
1789881276548168400,5.62016845703125,6.935997533297538,5.8186237354069945,5.024308756205439
1789881276558183400,5.630183349609375,6.582625993931293,5.918495730000734,5.701542247337103
1789881276568198400,5.640198486328125,6.19265870809555,6.0043672562927,6.260532220882177
1789881276578213400,5.65021337890625,5.665953047561645,6.351867857798934,6.602209230801463
1789881276588228400,5.660228271484375,5.09189526874423,6.670722795057296,6.834119459578394
1789881276598243600,5.67024365234375,4.556609995913505,7.119680030000209,7.318296476462483
1789881276608258600,5.680258544921875,3.865862943214178,7.478623232018947,7.4728732901901
1789881276618273300,5.690273193359375,2.73473242264986,7.691153053021431,7.6498115733295675
1789881276628288300,5.700288330078125,0.25421324599981304,7.652205190467834,8.127366541725397
1789881276638303200,5.71030322265625,-5.460871204477549,6.104150403559207,7.675645687288045
1789881276648318200,5.720318115234375,-14.884309822642802,2.11685596037209,4.120462265922129
1789881276658333200,5.730333251953125,-18.698449592882394,-2.3293115470945835,-0.22903620771057903
1789881276668348400,5.740348388671875,-16.91573381718397,-6.427250723302364,-5.469537326014041
1789881276678363400,5.75036328125,-11.661261968129873,-9.67956909596324,-8.750027315670252
1789881276688378400,5.76037841796875,-0.6658978581249714,-10.762591126918792,-9.375974856200815
1789881276698393300,5.770393310546875,4.43862074534893,-10.915869133007526,-11.029576176208257
1789881276708408300,5.780408203125,1.9868530314087867,-10.341087716090678,-9.667295889845489
1789881276718423300,5.79042333984375,-1.119146579716727,-6.879547916322946,-5.901895308333635
1789881276728437500,5.8004375,-2.2084604773581025,-2.314721880728006,-3.0336195076346395
1789881276738452500,5.810452392578125,-0.8548983349800109,-0.2913596120893955,-1.6473652020968497
1789881276748467500,5.820467529296875,0.5450625704795122,-2.3577339239805934,0.6022142713088542
1789881276758482400,5.830482421875,-0.11539514241814612,-6.117687346002459,5.247576828843355
1789881276768497400,5.840497314453125,-3.1777514997154475,-8.079268573510646,8.20600811676383
1789881276778512400,5.850512451171875,-3.830187234199047,-9.723124744573235,7.936385120186209
1789881276788527600,5.860527587890625,1.6643232050299643,-7.743031708818673,5.95352788041532
1789881276798542300,5.870542236328125,6.501990030205249,-2.4117180276244876,4.789734276655316
1789881276808557300,5.880557373046875,3.165894473183155,1.515039237013459,4.425265296952426
1789881276818572300,5.890572265625,1.0557236896634101,3.3031992495924234,3.6131986802220344
1789881276828587300,5.900587158203125,1.2992460303008555,5.100133520257473,3.2843793983101843
1789881276838602200,5.910602294921875,1.2915759340643882,5.974377191698551,3.4910590319797397
1789881276848617200,5.9206171875,1.4754045612394808,5.937221473258734,4.231669601261616
1789881276858632400,5.930632568359375,1.8381448174536228,5.0457209620684385,4.6789062960222365
1789881276868647400,5.9406474609375,2.345211711537838,3.9140614491939543,4.8681940653860565
1789881276878662400,5.950662353515625,2.450384735149145,2.857582557249069,4.811830373129248
1789881276888677400,5.960677490234375,1.9839736765801905,2.1041642365813256,4.552648691067099
1789881276898692400,5.9706923828125,1.7499042239427565,1.5220640210837124,4.182933042882382
1789881276908707300,5.980707275390625,2.0019898102641105,0.9948363825023173,3.8103812944889066
1789881276918722300,5.990722412109375,2.1896073083281515,0.6739870565563439,3.4077018265962598
1789881276928736500,6.000736572265625,2.186113036471605,0.3531950137555599,2.7322645712316036
1789881276938751500,6.01075146484375,2.3083891705751416,0.1340308693051338,1.9274838737256823
1789881276948766500,6.020766357421875,2.6405975104033947,-0.017221183913946152,1.0176441343769431
1789881276958781400,6.030781494140625,3.053407911688089,0.0850976193100214,0.6359747212871909
1789881276968796200,6.040796142578125,3.4682629705429076,0.24310674557387826,0.8202081298708915
1789881276978811400,6.050811279296875,3.831197288024425,0.6038491059690714,0.9427338548213243
1789881276988826400,6.060826416015625,4.003222080159187,0.8755372183829545,0.7117404486283659
1789881276998841300,6.07084130859375,4.10627679644227,1.1071037482887507,0.5202922863602638
1789881277008856300,6.080856201171875,4.171987578237056,1.0945096396535634,0.4329878046557307
1789881277018871300,6.090871337890625,3.781636846041679,0.9093412883073091,0.3298977247983217
1789881277028886300,6.10088623046875,3.2206103982329366,0.7739888150095939,0.26829087119102474
1789881277038901200,6.1109013671875,3.079184742501378,0.3377268109887838,-0.19483985053300856
1789881277048916200,6.120916259765625,2.9557927561104296,-0.12071370709240437,-0.6271329509228467
1789881277058931500,6.130931396484375,2.7497207329452036,-0.3981085067152977,-0.7171350011482834
1789881277068946400,6.140946533203125,3.0295874756395813,-0.6803910783797502,-0.9686097620949149
1789881277078961400,6.15096142578125,1.8880016120344398,-1.3457336407095193,-2.9666911667436358
1789881277088976400,6.160976318359375,0.232260357388854,-2.2423943111419677,-4.093038252423703
1789881277098991400,6.170991455078125,-0.4035188413262367,-2.3860762213677167,-3.936223888902366
1789881277109006300,6.18100634765625,-0.8920683742061257,-2.430216391867399,-4.117399955742061
1789881277119021300,6.191021240234375,-1.5774842950105665,-2.4563217239826916,-4.682277526021004
1789881277129035500,6.201035400390625,-2.3196248503386974,-2.396616320082545,-4.733075108583272
1789881277139050500,6.211050537109375,-5.677624196133017,-2.504762222024798,-4.715877890066802
1789881277149065200,6.221065185546875,-8.016191647350787,-2.885619734209776,-4.15452381773889
1789881277159080200,6.231080078125,-7.661411994752288,-3.1938135767221447,-3.632132221011817
1789881277169095200,6.24109521484375,-7.476095759367943,-3.549529048866033,-3.654737143790722
1789881277179110400,6.2511103515625,-6.874082052132487,-4.171239974740147,-4.283205727231502
1789881277189125400,6.26112548828125,-5.964422783917188,-4.606715796819329,-4.71754143936485
1789881277199140400,6.271140380859375,-5.033495686745644,-4.950631525576115,-5.046774855035543
1789881277209155300,6.2811552734375,-4.868393679611384,-5.1408127366483205,-5.490649087625742
1789881277219170300,6.29117041015625,-4.482575037887692,-5.025814484593272,-5.873543074074387
1789881277229185300,6.301185302734375,-3.506149925866723,-4.509889745792746,-6.3050149212092155
1789881277239200300,6.3112001953125,-2.6074919441372155,-3.4776463004380465,-6.637289896532892
1789881277249215500,6.321215576171875,-2.1089742672115563,-2.5437124226659535,-7.117613160598277
1789881277259230500,6.33123046875,-2.2445582111775875,-2.116511676979065,-8.157678677880764
1789881277269245400,6.341245361328125,-2.45852537150681,-2.605588740864396,-9.53115022034347
1789881277279260400,6.351260498046875,-2.4046022042699158,-3.3111849876493213,-10.331714323067665
1789881277289275400,6.361275390625,-2.9700562592625617,-3.82885744690001,-10.834765551769733
1789881277299290400,6.371290283203125,-4.638993680089712,-4.3211026194274424,-11.443654989993572
1789881277309305300,6.381305419921875,-5.749951181197166,-4.8489703094780445,-10.207677609032391
1789881277319320300,6.3913203125,-4.811232114975154,-5.238351319858432,-6.750188545960188
1789881277329335600,6.40133544921875,-3.743110423770547,-5.45954433978796,-4.2065751997545355
1789881277339350500,6.4113505859375,-2.7067005063861607,-5.802968485635518,-2.6828590275496245
1789881277349365500,6.421365478515625,0.07210307664778083,-6.128090082073212,-0.7402639478012919
1789881277359380500,6.43138037109375,2.509348965293169,-6.582287555757165,2.307002246261388
1789881277369395200,6.441395263671875,2.691460851678252,-7.339609898126125,5.842420790579915
1789881277379409400,6.451409423828125,3.652694239786267,-7.71935448063314,8.252608539897203
1789881277389424400,6.46142431640625,4.644371281474829,-7.861700758340954,9.932544324600697
1789881277399439400,6.471439453125,5.287614240199328,-7.784128858360647,10.653685346519946
1789881277409454300,6.481454345703125,4.92633879584074,-7.350755561518668,10.615775594842434
1789881277419469300,6.49146923828125,0.35978140640854833,-7.019115376967191,9.52721404993832
1789881277429484300,6.501484375,-5.182264690977335,-6.403272466343641,7.454507612416148
1789881277439499300,6.511499267578125,-2.4886522142231464,-4.734491697382927,6.858289439716935
1789881277449514500,6.521514404296875,1.4746319694317875,-3.0768957547813653,5.688587488695979
1789881277459529500,6.531529541015625,3.721110773408413,-1.4348025017380714,4.680066279712319
1789881277469544400,6.54154443359375,5.575172121918201,-0.3830202431768179,3.8733939232409
1789881277479559400,6.551559326171875,6.857615485978126,0.3170183694809675,3.2568378959119317
1789881277489574400,6.561574462890625,4.866523501825332,1.3411544962257147,2.6528321380764246
1789881277499589400,6.57158935546875,2.7953613711357117,2.8021125989615916,2.000726658460498
1789881277509604400,6.581604248046875,2.2816320965528485,3.8047470879942176,1.5914192968606948
1789881277519619600,6.59161962890625,2.838958520799875,4.523109292849898,1.706534453293681
1789881277529635800,6.6016357421875,3.522734857703745,5.281069348600506,1.884927903677523
1789881277539650800,6.61165087890625,4.263330521677434,6.0687944280177355,1.7333967412561178
1789881277549666000,6.621666015625,4.887784901040792,5.863479945221543,2.104521087194979
1789881277559681000,6.631680908203125,4.906925654840469,6.499198938181996,2.8633246080324053
1789881277569696000,6.641696044921875,5.3771641627430915,7.300944359645247,4.388033298406005
1789881277579711000,6.6517109375,5.9941398767888545,7.536505512145161,4.665753384460508
1789881277589726000,6.661725830078125,6.435574315011501,7.179691138848662,5.269828408139944
1789881277599741000,6.671740966796875,6.439973426753282,6.287970847427845,5.011134801855683
1789881277609755600,6.681755615234375,5.280070400691032,6.328030470615625,4.430485077427328
1789881277619771000,6.69177099609375,4.187849164235591,6.677078301563858,4.000674733763933
1789881277629785900,6.701785888671875,4.000717988383769,7.312803139743209,4.410528038808703
1789881277639800800,6.71180078125,3.9213703109025952,8.014523421877621,4.943614340290427
1789881277649815800,6.72181591796875,3.554669918885827,8.598452606368065,5.424184857115149
1789881277659830800,6.731830810546875,2.5532690633013844,8.513207103019953,5.569954679530858
1789881277669845000,6.741844970703125,0.6420996339082717,7.816014527443051,5.554634360802173
1789881277679860000,6.75185986328125,-2.6039596783578394,6.25575200086832,4.996955469855666
1789881277689875000,6.761875,-8.030162889558076,3.5659710651010275,3.1978780496820804
1789881277699890000,6.771889892578125,-13.266127606540918,-0.14716507616639135,0.34506935577131803
1789881277709905000,6.78190478515625,-13.771822043228148,-4.679273083508014,-3.8777977111577986
1789881277719919900,6.791919921875,-8.842726642155647,-8.453255615404247,-7.167381107851862
1789881277729934800,6.801934814453125,-1.2674398561954499,-10.71054412881732,-7.791425445109605
1789881277739949800,6.81194970703125,0.12355389895439148,-11.69425822880268,-7.958743082466721
1789881277749965000,6.821965087890625,-4.315730863261223,-11.292669478756189,-6.908006533566117
1789881277759980000,6.83197998046875,-6.838963392478227,-8.402828911980986,-4.844811436232924
1789881277769995000,6.8419951171875,-6.675552114909887,-4.58228102826476,-3.7446404098168014
1789881277780010000,6.852010009765625,-2.76162627479434,-2.8744945290833708,-0.6588795037955045
1789881277790024700,6.862024658203125,1.2469687305748463,-4.534151495867968,5.466299659267068
1789881277800039700,6.872039794921875,-4.544080184686184,-7.645328874957561,9.70513725246191
1789881277810054700,6.8820546875,-8.485213180679082,-10.525054290431738,11.613286749511957
1789881277820070000,6.89206982421875,1.0781986293870955,-8.946075372949242,9.10264599084258
1789881277830084900,6.9020849609375,8.304308331996202,-3.872196237888932,6.793032831430435
1789881277840099800,6.912099853515625,6.825204916238785,-0.6606359920740127,6.2839499213486905
1789881277850114800,6.92211474609375,4.709254380273818,2.523975456538796,4.719645718167722
1789881277860129800,6.9321298828125,3.465018874055147,4.8025247846454375,3.5136642470195887
1789881277870144800,6.942144775390625,2.9645933176815507,6.322330213147401,2.960250904563069
1789881277880159700,6.95215966796875,2.746752530789375,6.970373265630006,2.9493849348947405
1789881277890175000,6.962175048828125,2.794566421365738,6.77502605009675,3.5650054349392652
1789881277900190000,6.97218994140625,2.9491479112684726,5.912340714502334,3.8213741054072976
1789881277910205000,6.982204833984375,3.1948341519415377,4.748591534405946,3.6479449994325637
1789881277920220000,6.992219970703125,3.2765853834331033,3.6330566423803567,3.255641671864688
1789881277930235000,7.00223486328125,3.530681725054979,2.6736282578676938,2.953296847641468
1789881277940249900,7.012249755859375,3.6305309232950207,1.8188906664073465,3.002433803515136
1789881277950264800,7.022264892578125,3.3576702599704262,1.0512000747591257,3.2867385286569593
1789881277960280000,7.032280029296875,3.32289939084053,0.2576239312261343,3.2381545304909345
1789881277970295000,7.042294921875,3.4640438915431497,-0.5022860895484685,2.9744916113615036
1789881277980308700,7.052308837890625,3.674623747521639,-1.2189245393514632,2.245890336564183
1789881277990323700,7.06232373046875,4.01233594546318,-1.7783131568253039,1.6699550734370945
1789881278000338700,7.072338623046875,4.495009572046995,-1.7942612520635126,1.5055995007559657
1789881278010354000,7.08235400390625,4.8018052381992335,-1.6928291685461998,1.0924208506807684
1789881278020369000,7.092368896484375,4.815756606662273,-1.3604595006763933,0.45129707606732844
1789881278030383900,7.1023837890625,4.830874680817127,-1.0721750582486391,0.3985153339505195
1789881278040398800,7.11239892578125,4.511873028564453,-0.6620318303465843,0.17353461217582225
1789881278050413800,7.122413818359375,4.007297366774082,-0.24953590183854102,-0.24596155048310755
1789881278060428800,7.1324287109375,3.640066813403368,0.0409562797665596,-0.7261322543352842
1789881278070443800,7.14244384765625,3.3426609068870543,0.23521628458499907,-1.2470993712171912
1789881278080458800,7.152458740234375,3.4363474908441303,0.28806641576290126,-1.8562834084734319
1789881278090474000,7.162473876953125,3.80890186958611,0.2679091783970594,-1.898261140242219
1789881278100489000,7.172489013671875,3.544913664025068,-0.17831366314589978,-1.84188897241801
1789881278110504000,7.18250390625,2.1762539057582617,-1.0175047259062528,-2.205909331570566
1789881278120519000,7.192518798828125,0.8433148646920919,-2.1292893254876137,-3.0659719174459577
1789881278130534000,7.202533935546875,-0.20988734366968273,-3.0822067206710577,-4.069652992922068
1789881278140548900,7.212548828125,-1.1539876645386218,-3.554641861835122,-4.538439840711653
1789881278150563800,7.222563720703125,-2.4167875859737395,-3.800438577145338,-5.081314253497124
1789881278160579000,7.2325791015625,-3.815212660168111,-4.00629491173327,-5.324354948097467
1789881278170594000,7.242593994140625,-6.2148372221559285,-4.294835959270596,-5.637441238826513
1789881278180609000,7.252609130859375,-7.768162058421969,-4.175026507541537,-5.1228714217662805
1789881278190623700,7.262623779296875,-7.41462977553606,-3.9970366695225237,-4.431528741261363
1789881278200638700,7.272638671875,-7.387785023230314,-3.9720536194354295,-3.84926924354881
1789881278210653700,7.28265380859375,-8.393138123571871,-4.057663279920816,-3.0975816921964285
1789881278220668700,7.292668701171875,-9.666538933998346,-4.461005595636368,-2.577102358831465
1789881278230684000,7.302683837890625,-8.512560621809959,-5.029952899572253,-3.2740415441691875
1789881278240699000,7.312698974609375,-5.902125025436281,-5.565546215438842,-4.464581408296525
1789881278250713900,7.3227138671875,-2.9890546819821,-5.464086659392714,-5.212382765865326
1789881278260728800,7.332728759765625,-0.7893876058019698,-4.676327093183994,-4.872996497231721
1789881278270743800,7.342743896484375,-1.219541356075555,-3.9985704549610612,-5.560519327187538
1789881278280758800,7.3527587890625,-3.2545068226158618,-3.460277817007899,-7.297829442495107
1789881278290773800,7.362773681640625,-4.64593487752974,-2.9423148503780365,-9.463511100834607
1789881278300789000,7.3727890625,-4.997641114032268,-2.504920627456903,-10.910578040862083
1789881278310804000,7.382803955078125,-3.657918696436286,-2.760923094961047,-11.68025308432579
1789881278320818000,7.39281787109375,-2.170825012577325,-3.719430272975564,-11.68940786616206
1789881278330833000,7.4028330078125,-1.034724229319766,-4.783130932867527,-11.697628582018613
1789881278340847900,7.412847900390625,-1.891504067197442,-5.006709971150755,-11.352248625928162
1789881278350863000,7.422863037109375,-3.6032553783565757,-4.9085132162928575,-9.38040144047141
1789881278360878000,7.432878173828125,-4.044292926216126,-4.945955934980511,-6.135273856097459
1789881278370892800,7.442892822265625,-4.071321218395233,-5.276158780205249,-3.011818594714999
1789881278380907800,7.45290771484375,-3.2361849839836356,-5.962322012245655,-1.0297291244462132
1789881278390922800,7.4629228515625,-0.6939186684727668,-6.595443389928341,0.4970699623353779
1789881278400937700,7.472937744140625,2.186256828856468,-7.104312949520349,2.111008841779083
1789881278410952700,7.48295263671875,3.8441853644132613,-7.457903100073337,4.569454279917478
1789881278420968000,7.492968017578125,5.085377849674225,-7.554976988381147,6.7260232419967645
1789881278430983000,7.50298291015625,5.733146176868677,-7.480217807734012,7.969616358658671
1789881278440998000,7.512997802734375,5.782247184646129,-7.477412102663517,9.249557969030738
1789881278451012900,7.523012939453125,5.3884606327831746,-6.863741859903931,9.743802206420899
1789881278461027800,7.53302783203125,5.138839390748739,-6.077596743154525,9.218438608145714
1789881278471042800,7.543042724609375,4.8678667331278325,-5.048151404085755,7.642041523849963
1789881278481057800,7.553057861328125,4.6872950619220735,-3.8891941344410177,5.779167338809371
1789881278491072800,7.56307275390625,4.733839370954036,-2.656370249074697,3.46583369756937
1789881278501088000,7.573087890625,4.898723643684387,-1.2913099766045808,0.29089681688323615
1789881278511103000,7.58310302734375,2.7612089261651036,0.22824936818182467,-2.2771619654014703
1789881278521118000,7.593117919921875,0.38516602303385733,0.9976642994046211,-1.909351420185715
1789881278531132000,7.6031318359375,-1.6159236235201357,1.611646676853299,-0.11039916076175868
1789881278541147000,7.61314697265625,-1.0692926346801221,2.3973510640978812,2.199057712110132
1789881278551162000,7.623162109375,0.689635438195616,3.032850276827812,3.984436423407495
1789881278561177000,7.633177001953125,2.3764243036642667,3.8625481195777653,4.932607793107628
1789881278571192000,7.643192138671875,4.070258557599782,4.138919421371817,4.609410442730784
1789881278581207000,7.65320703125,5.379155044299364,4.633929382437468,4.072366343533993
1789881278591222000,7.663221923828125,6.213178349032998,5.223906614920496,4.103914743486047
1789881278601237000,7.673237060546875,6.552659894734621,5.844604564359784,3.57914180458039
1789881278611252000,7.683251953125,6.3958724192202085,6.428003002974391,3.268118583860993
1789881278621267200,7.69326708984375,6.266317818546295,6.80756989082694,3.4423806335285305
1789881278631282200,7.7032822265625,6.1672764295578,6.977960944280028,3.682633450976014
1789881278641296100,7.713296142578125,6.400503586152196,6.895809899815917,4.363596484024822
1789881278651310800,7.723310791015625,6.590341682875156,6.807183521857858,5.213837640848755
1789881278661325800,7.733325927734375,6.511397325497866,7.190775427442789,5.979566577035189
1789881278671341000,7.743341064453125,6.1599219751417635,7.50301299238801,6.3163113912492985
1789881278681356000,7.75335595703125,5.815474915987253,7.7946052441895,6.44018327011168
1789881278691371000,7.76337109375,5.393702625089883,8.214666054993867,6.587105769693851
1789881278701386000,7.773385986328125,4.568458254617452,8.363589957526326,6.544334549459815
1789881278711401000,7.78340087890625,3.0584838997781274,8.233154482364654,6.544606352138519
1789881278721416000,7.793416015625,-0.4347463387608528,7.35354957615137,6.840237650197744
1789881278731431000,7.803430908203125,-7.946700177973509,4.224297026666998,5.351810525777935
1789881278741446100,7.813446044921875,-18.126200324791668,-0.8635217864185571,1.2123838855363427
1789881278751461000,7.823461181640625,-19.721590863370896,-6.166899997460842,-3.5903628712967035
1789881278761476000,7.83347607421875,-12.150802557873725,-10.404743318921327,-8.180764954435825
1789881278771491000,7.843490966796875,-2.7206162190139294,-12.89644089218974,-9.49513431958854
1789881278781506000,7.853506103515625,2.4073989953815937,-13.926440942531823,-9.712716747805475
1789881278791521000,7.86352099609375,1.95999074344635,-13.515481137549877,-10.385691412448882
1789881278801536000,7.873535888671875,-1.4986486587047576,-10.5874169308424,-9.100322516331076
1789881278811551000,7.883551025390625,-4.0073523118317125,-5.49369210858345,-5.460349810951948
1789881278821566200,7.893566162109375,-2.783101609021425,-1.1797416989982128,-3.4121295799106357
1789881278831581200,7.903581298828125,0.9485971938967704,1.7299878095954655,-1.2345169530197977
1789881278841596200,7.91359619140625,3.956276204589009,2.8510148692965505,3.5434272248595953
1789881278851611100,7.923611083984375,1.2336579981029032,0.23082418710589409,7.956268801307678
1789881278861626000,7.933626220703125,-11.983545126271247,-5.065214767089486,11.858147645276784
1789881278871640800,7.943640869140625,-6.889315277099609,-10.102537318646908,9.993549705183506
1789881278881655800,7.95365576171875,5.745372036713362,-9.348197791481018,6.564622135207056
1789881278891671000,7.963671142578125,3.8248587326526637,-6.013594518843293,5.037803028550743
1789881278901686000,7.97368603515625,2.33564075011611,-2.849979096508026,3.6722312994271515
1789881278911701000,7.983700927734375,2.372372105664015,0.42490182109475133,2.8387504310071465
1789881278921716000,7.993716064453125,1.853073506516218,2.775938877785206,2.330994385614991
1789881278931731000,8.00373095703125,1.606150417524576,4.517197438457608,2.6563328396737576
1789881278941746000,8.013745849609375,1.5935516327142714,5.449421589702368,3.418973746716976
1789881278951761000,8.023760986328124,1.688322504776716,5.547776165470481,3.8094533659890293
1789881278961776000,8.033776123046875,1.8367793743193148,5.179190105837583,3.6561119392752643
1789881278971791000,8.043791015625,2.0261118596076964,4.637857954058051,3.2717472957521676
1789881278981806000,8.05380615234375,2.0859785915493965,3.9365211182832716,2.817843252056837
1789881278991820000,8.063820068359375,2.2404794174313545,3.050303515931964,2.6962334729075432
1789881279001835000,8.0738349609375,2.507601244843006,2.1699346396088597,2.719119258454442
1789881279011850200,8.083850341796875,2.7526562018752094,1.4667308409184217,2.7498177635788914
1789881279021865200,8.093865234375,2.923250084424019,1.0213806905567646,2.555891813020408
1789881279031880200,8.103880126953126,3.0767700825750826,0.5862152496010065,2.0470421271726487
1789881279041895200,8.113895263671875,3.0781074686586853,0.17143325598239897,1.2920461819246412
1789881279051910000,8.123909912109376,3.105821989536285,-0.11901041030585766,0.5715276758179069
1789881279061924900,8.1339248046875,3.2627988501429557,-0.5299480034559965,0.09227584037631749
1789881279071939800,8.14393994140625,3.703370534056425,-0.7601935138911008,0.0066673489347100256
1789881279081955000,8.153955078125,4.051104944318532,-0.5837883147150278,0.387132354670763
1789881279091970000,8.163969970703125,3.9285412254452705,-0.0772153416275978,0.7496577990904449
1789881279101985000,8.173985107421874,3.628999475944042,0.5104238032966852,0.7718921349912882
1789881279112000000,8.184,3.554295240354538,0.6674433340013027,0.2958016861900687
1789881279122015000,8.194014892578124,3.8645956997573374,0.5427116234391928,-0.48692105489522214
1789881279132030000,8.204030029296876,4.444151491469144,0.3511860120207071,-0.7514020124092697
1789881279142045000,8.214044921875,4.83071919799447,0.31996143719553943,-0.5592401489138603
1789881279152060000,8.224059814453126,5.2784278941810125,0.22542145127952098,-0.3580710953593254
1789881279162075100,8.2340751953125,4.16355117380321,-0.7762345481097698,-2.310731349787116
1789881279172090000,8.244090087890624,1.650727810397744,-1.885435560938716,-4.055608685478568
1789881279182105000,8.25410498046875,0.7343826346777379,-2.454705520957708,-3.807462192171812
1789881279192120000,8.2641201171875,0.17976722295507788,-2.9914322247684,-3.845648422703147
1789881279202135000,8.274135009765626,-0.3147873955585062,-3.548328440904617,-3.998046723347902
1789881279212150000,8.28414990234375,-1.421003985749185,-3.735250357919931,-3.8972611210405823
1789881279222165000,8.2941650390625,-3.2527304605931042,-3.9108787275046106,-3.364467665025592
1789881279232180200,8.30418017578125,-6.40784342752099,-4.359777510258555,-3.3342414535880085
1789881279242195200,8.3141953125,-9.028113604688643,-4.412050718331336,-2.736580973125994
1789881279252210200,8.324210205078124,-11.040400352561473,-4.09695074969232,-2.0962524405434726
1789881279262225200,8.33422509765625,-11.416249096673726,-4.026413570654392,-1.873323975123465
1789881279272239900,8.344239990234374,-8.548957630836963,-4.548440133461356,-2.567769882340729
1789881279282254800,8.3542548828125,-6.742869162857532,-5.030295429399609,-3.437132796002924
1789881279292269800,8.364269775390625,-4.528333749499917,-4.82519897326827,-4.163095246729254
1789881279302285000,8.37428515625,-2.066165345315635,-4.31068117865622,-4.646777465833723
1789881279312300000,8.384300048828125,-1.4123369874298572,-3.783211548012495,-5.04568063005805
1789881279322315000,8.39431494140625,-2.0107285586453973,-2.8241590110749004,-5.737319663161039
1789881279332330000,8.404330078125,-3.0342420234471557,-2.2641946395397183,-6.5803790917873375
1789881279342345000,8.414344970703125,-4.565849533423781,-1.9426357040196656,-7.999647339785098
1789881279352360000,8.42435986328125,-5.506110276129841,-1.666051051735878,-9.494543367958068
1789881279362375000,8.434375,-4.9699189943701025,-1.4281862984687088,-10.269065266931056
1789881279372390100,8.44439013671875,-3.805977506572008,-1.7793173654317855,-10.385549958151579
1789881279382405000,8.454405029296876,-2.6896207767695186,-2.7682699505925177,-10.019209047096966
1789881279392420000,8.464420166015625,-2.72781343704164,-3.9268215620458125,-9.593004326710105
1789881279402435000,8.47443505859375,-3.5686113504767416,-4.590193116563558,-8.48661369512677
1789881279412450000,8.484449951171875,-3.484047984173894,-4.653761041110754,-6.290749079969525
1789881279422464300,8.49446435546875,-2.2650597319364545,-4.828308045199513,-4.112273991030454
1789881279432479200,8.504479248046875,-0.9677607440501451,-5.711437618407607,-2.823054264703393
1789881279442494200,8.514494140625,0.9877999079942703,-6.446324841606617,-1.732868333467841
1789881279452509000,8.524509033203126,2.998381020992994,-7.137364155250787,-0.10616422660574316
1789881279462524000,8.53452392578125,3.7148984747648237,-7.400038355603813,1.910200584360957
1789881279472539000,8.544538818359374,4.0333951001048085,-7.663762357270717,4.474427971789241
1789881279482553900,8.554553955078125,4.777560439258814,-8.442710840514302,7.458074949508905
1789881279492569000,8.564569091796875,6.043662909370661,-9.03371507795751,10.175699585491419
1789881279502584000,8.574583984375,6.665629271310568,-8.684089154860377,10.76813473252058
1789881279512599000,8.58459912109375,6.986356432181596,-8.293824931904673,9.878028306037187
1789881279522614000,8.594614013671874,6.948777519893646,-7.3798670897126195,8.016651666077971
1789881279532629000,8.60462890625,6.041356385993957,-5.67690991038382,5.784325159963965
1789881279542644000,8.61464404296875,4.001329398280382,-3.5405133832395075,3.044260144114494
1789881279552658700,8.62465869140625,0.40623438389524813,-0.8695733415424823,-1.0835822951868175
1789881279562674000,8.634673828125,-0.9857632876001298,0.7601631187528372,-1.4141526585496962
1789881279572689000,8.64468896484375,-2.955001313471794,2.206678854638338,-1.0884956400610506
1789881279582703900,8.654703857421875,-2.592982357269525,3.248627701449394,-0.3751262019913643
1789881279592718800,8.66471875,-0.2981004646517336,3.4124235944211483,1.1171338516548275
1789881279602733800,8.67473388671875,2.196877737722546,3.713743459510803,2.3183111373916265
1789881279612748800,8.684748779296875,4.170673573029041,4.217120851427317,2.9691797686889765
1789881279622763800,8.694763671875,5.459494070905446,4.67907609963119,3.2318361411243677
1789881279632779000,8.704779052734375,6.271285085564851,4.855126494020223,3.2398905605033037
1789881279642794000,8.7147939453125,6.469732020679116,5.028630711057782,2.7971239968940615
1789881279652809000,8.72480908203125,6.14950228793621,5.237094597795605,2.510868137684464
1789881279662824000,8.734823974609375,5.812519573312997,5.316308419764042,2.838725588826835
1789881279672839000,8.7448388671875,5.933064353579282,5.296596588078141,3.805788706001639
1789881279682854000,8.75485400390625,6.381610669633746,5.242427190995216,4.974010063076019
1789881279692868900,8.764868896484375,6.882277633547782,5.3181829814642665,5.979945931741595
1789881279702883800,8.7748837890625,6.90305738672614,5.3797594399332995,6.762451815205812
1789881279712899000,8.784899169921875,6.59708589643836,5.980373801764846,7.292336105775833
1789881279722914000,8.7949140625,6.28240152286291,6.716435913962125,7.241093994316458
1789881279732929000,8.804928955078125,5.873692127156257,7.151565699082613,6.760201990452408
1789881279742944000,8.814944091796875,5.340671292126179,7.800600685212015,6.736421301892399
1789881279752959000,8.824958984375,4.825674774086475,8.145124316734075,6.552737051624059
1789881279762974000,8.834973876953125,3.68876713142544,8.278909686845541,6.254467221754789
1789881279772988700,8.84498876953125,1.894216687157005,7.854824442830681,6.0752890507340425
1789881279783004000,8.85500390625,-1.5990284566901622,5.438502720803022,4.745112752379477
1789881279793019000,8.865018798828125,-11.059675546395779,1.8138824828565119,1.8699772950440645
1789881279803033900,8.875033935546876,-17.86802402037978,-2.2748113106220957,-1.5932178707152604
1789881279813048800,8.885048828125,-16.079610325300692,-6.102745212936401,-5.4974418165057894
1789881279823063800,8.895063720703124,-10.387916102761029,-9.075695440074801,-8.197962757474183
1789881279833078800,8.905078857421875,-2.5461481253802773,-10.762337444418668,-8.115018516805767
1789881279843093800,8.91509375,0.9105681997537612,-11.46182193032503,-7.542613181370497
1789881279853109000,8.92510888671875,0.21954879638645797,-11.156217519783974,-7.50547441406548
1789881279863124000,8.9351240234375,-1.9564123004376888,-8.777449575603008,-6.6753510393798345
1789881279873139000,8.945138916015624,-3.9561820965647696,-4.185407616302371,-5.012686707472801
1789881279883154000,8.95515380859375,-2.6495827808916568,-0.19310908121764658,-3.029227994677424
1789881279893169000,8.9651689453125,1.4909183567136526,2.9013591551333664,0.8750053034633397
1789881279903184000,8.975183837890626,2.578534729722142,4.404371269744634,4.787355564825236
1789881279913198800,8.98519873046875,-1.3707616989821194,2.9288363601237535,8.425554538530111
1789881279923214000,8.995214111328124,-17.631048324906825,-2.0284803423047064,15.41843540404439
1789881279933229000,9.00522900390625,-8.16443458188176,-7.802950463208556,12.637197250807285
1789881279943244000,9.015244140625,4.87148726171255,-7.840090984079241,8.754819810643792
1789881279953259000,9.025259033203126,3.7282583070755004,-7.511006329229474,7.356561617448926
1789881279963274000,9.03527392578125,3.481635662335157,-6.146265205711126,5.117677360254526
1789881279973289000,9.0452890625,3.3754175135850906,-3.2860967236220833,3.7410572906330226
1789881279983304000,9.055303955078125,3.101434568232298,-0.894206847539544,3.18804142306149
1789881279993319000,9.06531884765625,2.959851676112413,1.2284785496383905,3.3359184468895196
1789881280003334000,9.075333984375,2.637853764653206,2.720873993167281,3.579586625738442
1789881280013348900,9.085348876953125,2.555162621963024,3.7390339681118725,3.4067817891418932
1789881280023363800,9.09536376953125,2.662690099745989,4.618679206335544,2.7130694568961857
1789881280033378800,9.10537890625,2.614581610137224,5.1073839297771455,1.8553110563099384
1789881280043393800,9.115393798828125,2.507720487308502,5.152608972904086,1.219079729913175
1789881280053408800,9.12540869140625,2.44882756883502,4.556979413747787,1.1123071621507405
1789881280063423700,9.135423828125,2.4986837788939473,3.4291263074189424,1.2736596074931323
1789881280073439000,9.14543896484375,2.65461200723052,2.323508413773775,1.6012344423018394
1789881280083454000,9.155453857421875,2.887411878323555,1.500604468947649,1.7128385218739508
1789881280093469000,9.165468994140625,3.023330753332376,0.6209323427170514,1.4045800896927714
1789881280103484000,9.17548388671875,3.176712804317474,-0.2634703191667795,0.6310244054034352
1789881280113499000,9.185498779296875,3.2374574881374834,-0.8102122210353613,0.16050415794998407
1789881280123513900,9.195513916015624,3.673196345067024,-1.4347843815594912,-0.22389263427704573
1789881280133528800,9.20552880859375,4.741631047743558,-1.8181179284691809,-0.48388241785168645
1789881280143544000,9.2155439453125,4.881339962685108,-1.523157661539316,-0.3043032648146152
1789881280153559000,9.22555908203125,4.448052590560913,-1.234240181905031,0.12495733601152896
1789881280163574000,9.235573974609375,4.263433689790964,-0.8159200772881507,0.3823270002156496
1789881280173589000,9.245589111328124,4.358475780010223,-0.39194004721343517,-0.06028641865849495
1789881280183604000,9.25560400390625,4.303424339395761,0.004303250151872635,-0.531241258136928
1789881280193619000,9.265618896484375,4.169838875770568,0.4787848024517298,-0.5922223810613155
1789881280203634000,9.275634033203126,4.028867978069186,0.9766150816351175,-0.43312049112468953
1789881280213649000,9.28564892578125,2.8851112001657486,0.8295306694895028,-2.0329279693633318
1789881280223663900,9.295663818359374,1.6886626965165137,0.18783026403188705,-3.8961046444818375
1789881280233678800,9.305678955078125,1.75931619541049,-0.09154314218759536,-4.905142863076925
1789881280243693800,9.31569384765625,2.6220965158119798,-0.8726730611234903,-5.306727521470189
1789881280253708800,9.325708740234376,2.0124509985238315,-1.4263538223445416,-5.057527719718218
1789881280263723800,9.335723876953125,1.039786554210633,-1.6674521507054567,-4.951773681348562
1789881280273738800,9.34573876953125,0.07737900775671004,-2.023511321720481,-4.394888278867304
1789881280283754000,9.35575390625,-1.0597139283433556,-2.4455928246974943,-3.456801373068988
1789881280293769000,9.36576904296875,-1.7474036392986774,-3.157152948322892,-2.7751711082831023
1789881280303784000,9.375783935546876,-2.6418226682841777,-4.025719158649444,-2.77736686476171
1789881280313799000,9.385798828125,-6.619267333108186,-6.232541805672645,-3.751769531044364
1789881280323814000,9.39581396484375,-12.992829720842838,-8.067229760670662,-4.160976354879141
1789881280333828900,9.405828857421875,-15.322506009596585,-6.6706953225284815,-2.571274383330345
1789881280343843800,9.41584375,-14.531506438553333,-6.886206789690256,-3.3282638404831286
1789881280353859000,9.425859130859376,-8.963414045763015,-6.81581340303719,-4.216226240675151
1789881280363874000,9.4358740234375,-4.176292581954598,-6.114594640684127,-4.508595029807091
1789881280373889000,9.445888916015624,-4.1137297427967185,-4.963724231383204,-5.645444512540101
1789881280383904000,9.455904052734375,-2.2432558964073657,-3.1876468707859513,-6.106116150674223
1789881280393919000,9.4659189453125,-1.5303385129541158,-2.3866063827216624,-6.564568943715095
1789881280403934000,9.475933837890626,-2.2683289628654717,-2.1446119823038576,-7.879601741212606
1789881280413949000,9.485948974609375,-3.555722058287263,-2.6044255423039195,-9.526108719044924
1789881280423964000,9.4959638671875,-4.286369451959431,-3.8721523987472053,-11.246278314459323
1789881280433979000,9.505978759765625,-3.7269513161301613,-5.0316737320154905,-12.600478754740953
1789881280443993900,9.515993896484375,-3.633958559656143,-5.677599061691761,-12.466478280574083
1789881280454008800,9.5260087890625,-3.8985423930227756,-5.985044716185331,-10.113906269401312
1789881280464023800,9.53602392578125,-4.490069777557253,-5.598627816307545,-5.963477027499676
1789881280474038800,9.546038818359374,-4.65498152281642,-5.266733364734053,-2.320189936875552
1789881280484053800,9.5560537109375,-3.6109231365054844,-5.336420064422488,0.0994594682700932
1789881280494068700,9.56606884765625,-1.5276514658272264,-5.654775235465169,1.5284709655165671
1789881280504084000,9.576083984375,1.0974965465098618,-6.075889354714751,2.7938451213538644
1789881280514099000,9.586098876953125,2.0419453885555265,-6.577561696279049,4.788040624479949
1789881280524114000,9.596114013671874,2.5792788260877133,-6.997163657400011,6.783179545935988
1789881280534128000,9.606128173828125,3.4027170239210127,-7.166916412949561,7.998200063586235
1789881280544143000,9.61614306640625,4.029366575241089,-6.995590124472975,8.83158623946011
1789881280554158300,9.626158447265626,3.7109821781039236,-6.355750836712121,8.715366336655617
1789881280564173300,9.63617333984375,3.3949534041821954,-5.657721225789189,7.863299425709247
1789881280574188300,9.646188232421874,3.55488794555068,-4.930016607570648,6.920313057431578
1789881280584203300,9.656203369140625,3.6939796053767204,-3.8621962374001737,5.258600911682844
1789881280594218200,9.66621826171875,2.3093279127299784,-2.724314489009976,2.8441590120524167
1789881280604233200,9.676233154296876,0.9801146872539073,-1.5183786105692385,0.2015504540875554
1789881280614248200,9.686248291015625,2.799103480273485,-0.39738954479098315,-0.7945184658844023
1789881280624263200,9.69626318359375,2.924122191083431,0.9346376421272754,0.11371617635525762
1789881280634278100,9.706278076171875,1.0964753867685795,1.8316870196163653,1.0383723765637725
1789881280644293000,9.716293212890625,0.28837255910262466,2.5742495997488497,2.2429320712804794
1789881280654308000,9.72630810546875,1.2736384185746312,3.41657896053493,2.9208032757937907
1789881280664323000,9.736322998046875,2.7188518396899104,4.0546524076670405,3.3577316347688435
1789881280674338000,9.746338134765624,3.954836527174711,4.373119222390652,3.4335552297770975
1789881280684353000,9.75635302734375,5.049746564322709,4.753333175975084,3.2255531153321266
1789881280694368000,9.766367919921874,5.662072991257905,5.465634473356604,2.9125509957551956
1789881280704383200,9.77638330078125,5.706257000899314,5.899670618021488,2.7400138701841232
1789881280714398200,9.786398193359375,5.802268812933564,6.1090475279510015,3.09578896356076
1789881280724413200,9.7964130859375,6.256254689693451,6.178942317432165,3.6171430339336395
1789881280734428200,9.80642822265625,6.759249804294109,6.091439975067972,4.175744884943962
1789881280744443100,9.816443115234375,7.053567097145319,5.941036647632718,4.988674548244476
1789881280754458000,9.8264580078125,6.836659207189083,5.916494327050447,5.801239469885826
1789881280764473000,9.83647314453125,6.311159415313601,6.095055242955684,6.3483011052280665
1789881280774488300,9.84648828125,5.7924318940520285,6.800601220858097,6.522330222922563
1789881280784503300,9.85650341796875,5.352337180000544,7.121583817794918,6.4745981654107565
1789881280794518300,9.866518310546875,4.921439333361387,7.616289242956042,6.637266515657306
1789881280804533200,9.876533203125,4.248471098458767,7.746378096637129,6.538440815246105
1789881280814548200,9.88654833984375,3.2967256696641445,7.49342683339715,6.500445138850807
1789881280824563200,9.896563232421874,1.6696400161385536,6.818502203729748,6.704340402498841
1789881280834578200,9.906578125,-2.8889795660316944,4.807821722009778,6.4132280431687825
1789881280844593200,9.91659326171875,-12.933220178532599,1.0167261427491903,3.442605382195115
1789881280854608100,9.926608154296876,-18.52111383485794,-3.360592869418859,-1.52374744412601
1789881280864623000,9.936623046875,-16.142869622290135,-6.9744467986792325,-6.168866329097748
1789881280874638000,9.94663818359375,-8.979302519768476,-9.379243502607942,-8.899367982310055
1789881280884653000,9.956653076171875,-0.8956042932473123,-10.771069032406807,-8.777547190758586
1789881280894668000,9.96666796875,1.0625473982036113,-11.397378391987084,-8.638174375903606
1789881280904683000,9.97668310546875,-0.44448330439925193,-10.60384316498637,-8.941437191754579
1789881280914698200,9.9866982421875,-1.4443945059478283,-7.904630968528986,-7.86211869149208
1789881280924713200,9.996713134765624,-0.7990624659895896,-3.826383750262856,-4.06654362872988
1789881280934728200,10.006728271484375,2.0261194583922624,-0.9275713570028543,1.7227241022028028
1789881280944743200,10.0167431640625,2.065582284730673,-0.9164648565769195,6.84783585024178
1789881280954758100,10.026758056640626,-6.568190056821703,-3.8623540583103892,10.101987868070601
1789881280964773000,10.036773193359375,-13.362289640700816,-7.998897982722521,11.85988835146427
1789881280974788000,10.0467880859375,-0.3483347142428159,-9.483454987710713,9.201501501870155
1789881280984803000,10.056802978515625,4.4866222674518825,-6.331502530640363,6.089141050475836
1789881280994818300,10.066818359375,2.177836206513643,-3.293510799270868,4.914117027649283
1789881281004833300,10.076833251953126,2.037048848685622,0.0919511384665966,4.366218064700067
1789881281014848300,10.08684814453125,1.6807652212649582,2.162386708447337,4.132913751216233
1789881281024863200,10.09686328125,1.5414894370436667,3.492576743066311,4.092469804885983
1789881281034878200,10.106878173828125,1.6968553553223609,4.371730982902646,4.239441404306889
1789881281044893200,10.11689306640625,1.7914684064745903,4.654945866981149,4.619276295445859
1789881281054908200,10.126908203125,1.7412825260698794,4.724473576715588,4.5417222233831875
1789881281064923100,10.136923095703125,1.7104910819649695,4.653194639399647,3.851110779762268
1789881281074938000,10.146938232421874,1.6668097611486912,4.24779305306673,3.4214944973662496
1789881281084953000,10.156953125,1.7874562482237815,3.586639174598455,3.322219007360935
1789881281094968000,10.166968017578125,2.0110534066855905,2.82852363602519,3.4212086661621925
1789881281104983000,10.176983154296876,2.4077964702665806,2.106302417653799,3.699148532447219
1789881281114998000,10.186998046875,2.7252982393503187,1.6130968756616115,3.7047102582275864
1789881281125013000,10.197012939453124,2.8321862501859663,1.2697715140134096,3.387487306085229
1789881281135028200,10.2070283203125,2.7415537931025025,0.8261638234049081,2.3802520452588793
1789881281145043200,10.217043212890625,2.6910218757390973,0.3701408878594637,1.1585619867168366
1789881281155058200,10.22705810546875,2.9180840799629686,-0.07776654576957226,0.4044438472166657
1789881281165073200,10.2370732421875,3.2488369602859017,-0.5553384653002024,-0.004969020584225654
1789881281175088000,10.247088134765624,3.694850542992353,-1.1646183641463517,0.28733956279307604
1789881281185103000,10.25710302734375,3.860675895965099,-1.2314058352619408,0.6658227470621466
1789881281195118000,10.2671181640625,3.953778542554378,-1.1197978101670742,0.9279711699754
1789881281205133300,10.27713330078125,4.329192402380705,-0.9055383888930082,1.2145800804063678
1789881281215148300,10.287148193359375,4.307901777070761,-0.72921736086905,0.9343106021299957
1789881281225163300,10.297163330078124,4.576638053941727,-0.4191986410170793,0.26363661564439533
1789881281235178200,10.30717822265625,5.354483544379472,-0.07993629102408885,-0.02503068862110376
1789881281245193200,10.317193115234375,5.489679950332642,-0.40511458608508105,-0.9724670220449566
1789881281255208200,10.327208251953126,4.759187747222185,-0.8924673103958368,-2.901147850470245
1789881281265223200,10.33722314453125,4.036380837917328,-1.5730688166558742,-4.8067926712229845
1789881281275238400,10.34723828125,4.0390643779128785,-2.29048877222538,-5.2965270299732685
1789881281285253000,10.357253173828125,3.101115419280529,-2.926803977513313,-5.228323262318969
1789881281295268000,10.36726806640625,1.4156142555348574,-3.265916689902544,-5.2810664259910585
1789881281305283000,10.377282958984376,0.2809089452236891,-3.477548100760579,-4.848778294037282
1789881281315298000,10.387298095703125,-0.6941650444492697,-3.5846512156516313,-4.324016168786585
1789881281325313000,10.39731298828125,-1.6321791772723198,-3.607323066186905,-3.897664733405411
1789881281335328000,10.407327880859375,-2.8380007816836237,-4.0031677196234465,-3.8396114806264636
1789881281345343200,10.41734326171875,-6.630195554357766,-4.693218606752157,-4.343362382030487
1789881281355358200,10.427358154296876,-8.44745189756155,-4.885452658700943,-4.262521835643053
1789881281365373200,10.437373291015625,-8.681573957169055,-4.90918015576899,-4.442132845123112
1789881281375388200,10.44738818359375,-11.022203017091751,-5.211259314793348,-4.745587676414847
1789881281385403100,10.457403076171875,-9.876285261762142,-5.74349046075046,-5.703441943478584
1789881281395418000,10.467418212890625,-5.36174389077127,-6.019502281582355,-7.1604738126814365
1789881281405433000,10.47743310546875,-3.362816682948172,-5.634250333830714,-7.626907083082199
1789881281415448000,10.487447998046875,-3.030024698013067,-4.945695822739601,-7.7311249979257575
1789881281425463300,10.49746337890625,-3.111490098300576,-4.084557716587185,-7.694393057855963
1789881281435478300,10.507478271484375,-2.5731904460847375,-2.7848288712054488,-7.875030195513367
1789881281445493200,10.5174931640625,-1.1192729825753718,-1.0750649344712495,-8.546702545386552
1789881281455508200,10.52750830078125,-2.9717803065761923,-0.10392156224548817,-9.131878515067696
1789881281465523200,10.537523193359375,-5.5674266223579645,-0.15717852065861224,-10.139448706936836
1789881281475538200,10.5475380859375,-5.021780699032544,-1.662240553537011,-11.403481969559191
1789881281485553200,10.55755322265625,-3.380650153541565,-3.3956174210488794,-11.624029092800617
1789881281495568400,10.567568359375,-2.6111060429811475,-4.591873616996407,-11.268073966681957
1789881281505583000,10.5775830078125,-2.07094001237154,-5.652936329600214,-10.144239448344706
1789881281515598000,10.58759814453125,-1.6215531538397072,-5.772411434808373,-7.087468782225251
1789881281525612000,10.597612060546876,-2.2521955741882325,-5.100576003327966,-3.929009719739854
1789881281535628800,10.60762890625,-2.4107260939776896,-5.163909534597397,-2.212188704100996
1789881281545642800,10.617642822265625,-0.559960206816718,-5.463008801028132,-0.9589110826402902
1789881281555658800,10.62765869140625,1.656167955625057,-6.073016429626941,0.540720303491503
1789881281565673000,10.6376728515625,3.073879037308693,-6.7956795465469355,2.7036796972602604
1789881281575689000,10.64768896484375,3.5615164237797257,-7.570219565698504,5.043937585783005
1789881281585703000,10.657702880859375,3.734385265523195,-8.125307271108031,7.02794048845768
1789881281595718000,10.6677177734375,4.511664938771724,-8.226302716773748,9.042660016435384
1789881281605732900,10.67773291015625,5.4678842981100075,-8.123951180323958,10.635862105059623
1789881281615748900,10.687748779296875,5.8695607264399525,-7.284839612540602,11.124076999157667
1789881281625762800,10.6977626953125,5.735501800084114,-6.423872186779976,10.266887338370084
1789881281635778000,10.707778076171875,5.9361915456891055,-5.3574044002622365,7.855064096805453
1789881281645793000,10.71779296875,6.363291169089078,-3.728805419564247,4.594766415828466
1789881281655808000,10.72780810546875,6.265955414974689,-1.5278993031084536,2.256500577905774
1789881281665823000,10.737822998046875,4.7123827414274215,0.9843401229292154,0.4038125635758042
1789881281675837700,10.747837646484374,0.29434432698860763,2.539474638965726,-1.568809405645728
1789881281685852700,10.757852783203125,-2.6859435495615003,3.602973054283857,-2.259036087732762
1789881281695868000,10.767867919921875,-2.3799369879603383,4.380527452820539,-1.4162600060924886
1789881281705883000,10.7778828125,-0.9471884961426258,4.363206315663457,0.30575346362292766
1789881281715897900,10.78789794921875,1.366262633997202,4.191437544116377,1.8157257726356386
1789881281725912800,10.797912841796874,3.637421559591591,4.1639428034693005,2.517047410841286
1789881281735927800,10.807927734375,5.308765749299526,4.101508266866207,2.4739722392246124
1789881281745942800,10.81794287109375,6.5508291721761225,4.096356290930509,2.2370376064144075
1789881281755957800,10.827957763671876,7.216439445531368,4.414088946160674,2.499641225749254
1789881281765972700,10.83797265625,7.120490177339315,4.589191246044636,2.995395867702365
1789881281775988000,10.847988037109374,6.932670434701443,4.7556958134531975,3.6158801743909716
1789881281786003000,10.8580029296875,6.8805673224985595,4.797068272805213,4.573541841492057
1789881281796018000,10.868017822265625,6.7665551588714115,4.6433325860768555,5.754051602253318
1789881281806033000,10.878032958984376,6.551186899572611,4.39275974240601,6.976306747332215
1789881281816047900,10.8880478515625,6.233277134209871,4.65850443624556,8.019512316206097
1789881281826062800,10.898062744140624,5.733612040814757,5.221627564072609,8.21661777358353
1789881281836077800,10.908077880859375,4.855139645762741,6.168237383544445,7.994577196913957
1789881281846093000,10.918093017578125,3.912664734138548,6.793418615877628,7.742182983034849
1789881281856108000,10.92810791015625,3.1537481083154675,7.404452664914727,7.555037194135784
1789881281866123000,10.938123046875,2.4048434656798836,7.9108561266541475,7.372893159046769
1789881281876138000,10.948137939453124,1.1656629047632217,8.087110519182682,7.065456856903434
1789881281886153000,10.958153076171875,-1.9417969151079653,7.728628504934907,6.74932462260723
1789881281896167700,10.968167724609375,-9.768237559497356,4.341228877133131,4.057925437988341
1789881281906182700,10.9781826171875,-18.689286627739666,-0.5242167663276195,-1.166256340611726
1789881281916198000,10.988197998046875,-18.349410529762505,-4.860374331545829,-5.801618240070343
1789881281926212900,10.998212890625,-11.732618062335252,-8.393059213116764,-9.031263008630274
1789881281936227800,11.008227783203125,-0.5894049855530261,-10.548957728588581,-9.039009677234292
1789881281946242800,11.018242919921875,5.899720886904001,-12.016963411748408,-8.487731300979853
1789881281956257800,11.0282578125,4.679188912355899,-12.930631915605067,-8.656059576684235
1789881281966272800,11.038272705078125,1.4919313331484794,-11.603030728435515,-8.462460666123032
1789881281976287700,11.048287841796874,-0.8625947347015142,-7.607245520278811,-7.082633032631874
1789881281986303000,11.058302978515625,-0.17123802567124366,-3.049592152792215,-5.382694324341416
1789881281996318000,11.06831787109375,2.292478484737873,0.5293395161688328,-2.8076097350731493
1789881282006333000,11.0783330078125,2.8591625199168917,2.9140169766545294,1.3999880857273936
1789881282016348000,11.088347900390625,1.8171581435263156,2.8131811054646967,5.634615660011768
1789881282026363000,11.09836279296875,-0.8003308784902096,-0.3408113330006599,7.417937584909796
1789881282036377900,11.1083779296875,-8.207115785744787,-4.4997781016230585,7.091515427267551
1789881282046392800,11.118392822265625,-0.42032209208905696,-6.547527792543172,4.782124386173487
1789881282056407800,11.12840771484375,5.15237750223577,-5.638930016079545,3.919497795028984
1789881282066423000,11.138423095703125,1.9361843359231947,-3.679654727426171,2.4353087465703487
1789881282076438000,11.14843798828125,0.7784826192975044,-2.047426450315118,1.4004939894229174
1789881282086453000,11.158452880859375,0.3132674925148487,-0.38570436769425864,1.819378742185235
1789881282096468000,11.168468017578125,-0.9806547124147414,0.9118699300020933,3.3461326746508475
1789881282106483000,11.17848291015625,-7.105452182683348,2.583774968463182,6.726949124670028
1789881282116497700,11.18849755859375,-5.7098670080900185,3.4584611229747533,6.941744552516937
1789881282126512600,11.1985126953125,0.5005184222888202,3.4952667128026484,4.41769544622004
1789881282136528000,11.20852783203125,0.706729050207138,3.8974388156950472,3.795439745944738
1789881282146542800,11.21854296875,0.781534408083558,3.853974352499842,3.447256422871351
1789881282156557800,11.228557861328126,1.0496259573101996,3.519624324467778,3.2852085426107047
1789881282166572800,11.23857275390625,1.2667968821167945,2.802739790949225,3.142373312342167
1789881282176587800,11.248587890625,1.4282827445805073,1.8851123203337192,3.0447102259695527
1789881282186602800,11.258602783203125,1.5292577319800853,1.1512526866167783,2.9474224026501177
1789881282196617700,11.26861767578125,1.666483597934246,0.653188598677516,2.51116478254348
1789881282206633000,11.278633056640626,1.8127531865656374,0.29684125837087627,1.7481220167011022
1789881282216648000,11.28864794921875,2.0341408522844313,-0.14204232632517813,1.009296285009384
1789881282226663000,11.298662841796874,2.2356454214036465,-0.20627894391417503,0.7377651167228817
1789881282236678000,11.308677978515625,2.367649168795347,0.0377449165046215,1.1076707345217465
1789881282246692900,11.31869287109375,2.45522457639575,0.14864333202540875,1.172951015944779
1789881282256707800,11.328707763671876,2.48222948769927,0.46482758876979346,0.9747589323744177
1789881282266722800,11.338722900390625,2.5756524522840976,0.5650006121367216,0.5320820928752422
1789881282276738000,11.348738037109374,2.9218180057942864,0.5611801770657301,0.20193360818624495
1789881282286753000,11.3587529296875,3.1141864977777,0.4012164096027612,-0.2579129773005843
1789881282296768000,11.36876806640625,3.2532091840207573,0.10650514899790287,-0.5830509403511881
1789881282306783000,11.378782958984376,3.5130747566938396,0.009440613040328026,-0.643984717002511
1789881282316798000,11.3887978515625,4.371157566928863,-0.004188099339604377,0.028801439331471917
1789881282326813000,11.39881298828125,3.5424808839201924,-0.954112742447853,-2.0834332909807562
1789881282336827600,11.40882763671875,1.893126699963212,-1.5827368087112903,-3.1428584655106064
1789881282346843000,11.4188427734375,1.6741285597294568,-1.7589111217409372,-3.1467677479088305
1789881282356857900,11.42885791015625,1.7791915470950304,-2.0689608212530612,-3.6535792059272527
1789881282366872800,11.438872802734375,1.4692002997718752,-2.039510854884982,-3.769192667271197
1789881282376887800,11.4488876953125,0.21360651032328604,-1.8216922798246145,-3.6687586548805236
1789881282386902800,11.45890283203125,-1.4461606388375163,-1.5610440323412418,-2.920883355292678
1789881282396917800,11.468917724609375,-2.8166020198240873,-1.331453770944476,-2.261754552911222
1789881282406932700,11.4789326171875,-4.776082183399796,-1.3742290828317403,-2.24275349984318
1789881282416948000,11.488947998046875,-7.176156534981727,-2.0675983007282017,-2.7364529628321526
1789881282426963000,11.498962890625,-7.5660571853220455,-2.7454291732311247,-3.0315266270086165
1789881282436978000,11.50897802734375,-7.000310138732194,-3.2145266944050785,-3.656489248155057
1789881282446993000,11.518992919921875,-6.694445031428336,-3.9263276410490273,-4.382038441905379
1789881282457007900,11.5290078125,-6.405778896206617,-4.5027591632604596,-4.955132344126701
1789881282467022800,11.53902294921875,-6.15724369584322,-4.907418406793475,-5.340549711573123
1789881282477037800,11.549037841796874,-5.4186880132645365,-4.968155491828918,-5.898799680405855
1789881282487052800,11.559052734375,-3.86337872518301,-4.406120159238577,-6.082748134568333
1789881282497068000,11.569068115234375,-2.0412009999290106,-3.5010628318607804,-6.1095402799040075
1789881282507083000,11.5790830078125,-0.7601042281724513,-2.950096005773544,-6.78069591242671
1789881282517098000,11.589097900390625,-1.6307786628246306,-3.037316608586907,-7.861777915230393
1789881282527113000,11.599113037109374,-3.7631770602434873,-3.7961756590038536,-9.355421897515654
1789881282537127700,11.609127685546875,-5.813443702420592,-4.7387809190094465,-10.801638358193635
1789881282547142700,11.619142578125,-7.1344093970984215,-5.592971982502937,-11.848752040421962
1789881282557157600,11.62915771484375,-6.797566967728733,-6.354843074217438,-11.54293135678172
1789881282567172900,11.6391728515625,-4.940369659280777,-6.589036445495486,-9.288998583537339
1789881282577187800,11.649187744140624,-3.940426309028268,-5.776406641924381,-5.567316147720813
1789881282587202800,11.659202880859375,-2.661946587902307,-4.8931823761701585,-2.3522268509969115
1789881282597217800,11.6692177734375,-0.9720879595994949,-5.051187995302677,-1.158409280373156
1789881282607232800,11.679232666015626,0.6901905878603458,-5.250934907099604,-0.042545448654145
1789881282617247700,11.689247802734375,2.2545810080200432,-5.870457967540621,1.8185498901456594
1789881282627262700,11.6992626953125,3.1216274614334103,-6.700358054864406,3.950075596383214
1789881282637278000,11.70927783203125,3.8348657474040984,-7.212906595230102,5.8377989759981626
1789881282647293000,11.71929296875,5.76602085698843,-8.12349934490323,7.886455260369181
1789881282657308000,11.729307861328126,6.496197418278455,-8.325020865157246,8.938968171292544
1789881282667322600,11.739322509765625,5.732193406188488,-8.077461231827735,8.957861672332882
1789881282677337600,11.749337646484374,5.700734438085556,-7.843744830411672,8.27924403336644
1789881282687352600,11.7593525390625,4.8920706155359746,-6.9908344543784855,6.663789780923723
1789881282697367600,11.769367431640624,0.9871428323250263,-5.620519330120087,4.192605126591027
1789881282707382800,11.7793828125,-3.1336534147918225,-3.3468642037957905,1.5054330581478774
1789881282717397800,11.789397705078125,-1.871329148044437,-1.2106079619050025,1.0065763585262
1789881282727412700,11.799412841796874,-0.1923099667292088,0.3496417051881551,1.2318693611204623
1789881282737427700,11.809427734375,0.2905972494147718,1.9340064073622225,2.726138781827688
1789881282747442700,11.819442626953125,0.19761764468327164,2.7807839797288176,4.12412458782196
1789881282757457700,11.829457763671876,1.5714416538454592,3.2346038522720333,4.820838732232153
1789881282767472600,11.83947265625,3.7311528594732284,3.390312300378084,4.729420385468006
1789881282777488000,11.84948779296875,5.253862777245044,4.150353254055976,4.056735351420938
1789881282787502800,11.8595029296875,5.950649110108613,5.1871641534566875,2.936332268837094
1789881282797517800,11.869517822265625,6.00274520804882,6.302459976029396,2.060310335677117
1789881282807532800,11.87953271484375,5.672967310237884,7.175957797539234,1.7235019547075032
1789881282817547800,11.8895478515625,5.136020241674781,7.489345117041468,2.0423831954509017
1789881282827562800,11.899562744140624,5.174242712563276,7.12353962803781,3.037993484935164
1789881282837578800,11.909578857421875,5.93534398894906,6.584971095752715,4.309441992250084
1789881282847593700,11.91959375,6.655147624784708,6.1501651357591145,5.458568188232183
1789881282857608700,11.929608642578126,6.904155118834972,6.068380001997947,6.301566826581954
1789881282867623700,11.939623779296875,6.701440589404106,6.320072789609432,7.009420496904849
1789881282877639000,11.949638916015624,6.23704613135457,6.871815860766172,7.131503738784789
1789881282887654000,11.95965380859375,5.672560483002663,7.51379157603383,6.881043707838654
1789881282897668900,11.9696689453125,5.143741191315651,8.204477838456631,6.911415465226769
1789881282907683800,11.979683837890626,4.477293590353429,8.444705813723802,6.640429948124289
1789881282917698800,11.98969873046875,3.4026129790246484,8.387092413666844,6.090982878950238
1789881282927713500,11.999713623046874,1.7309845655478535,7.6968901353687045,5.5173453713715075
1789881282937728800,12.009728759765625,-2.35512505665645,5.682154825299978,4.378770380020141
1789881282947743700,12.01974365234375,-11.66193884447813,2.5068980650097132,2.1665186936855316
1789881282957758700,12.0297587890625,-17.4877504455626,-1.8101573248535394,-1.1357278582919388
1789881282967773700,12.039773681640625,-16.09737160744071,-6.132094057017564,-5.400913287121057
1789881282977788700,12.04978857421875,-9.18524945524931,-9.36604266025126,-8.543146314209698
1789881282987803600,12.0598037109375,1.5497909630514681,-10.951301680916547,-9.241818314689397
1789881282997818600,12.069818603515625,2.9483646519362923,-12.130514972126484,-9.09675459471643
1789881283007833600,12.07983349609375,-0.8101438319742679,-12.244506092965603,-7.921536510622501
1789881283017848800,12.089848876953125,-3.0825369755387304,-9.43353506476581,-7.341089907550812
1789881283027863800,12.09986376953125,-2.470525021380186,-4.559061480718851,-5.815289038026332
1789881283037878800,12.109878662109375,-0.003691831122105941,-0.2776747856080532,-2.823186366650462
1789881283047893800,12.119893798828125,2.331770046162605,2.876206593698263,1.1364281885810197
1789881283057908700,12.12990869140625,2.188386826622486,4.28848863607049,4.816059389001131
1789881283067923700,12.139923828125,1.1460638858020304,1.8210843770593403,7.529482481640577
1789881283077938700,12.149938720703124,-8.29866185054183,-3.589328559812903,10.594206737112998
1789881283087954000,12.159953857421876,-5.763652958813309,-8.626823545327783,9.224623434260486
1789881283097969000,12.169968994140625,3.2705683151006695,-8.06712045507729,6.969681191712618
1789881283107984000,12.17998388671875,1.7016303146392107,-6.801932177200913,5.114061507844925
1789881283117998800,12.189998779296875,1.8245546835184097,-4.658777407968044,3.0297797833412883
1789881283128013800,12.200013916015624,1.9431939224243162,-1.8971014488130806,2.2866347271457315
1789881283138028800,12.21002880859375,1.7348054390102623,0.36741876941919327,2.2854499012753364
1789881283148043500,12.22004345703125,1.475952842772007,2.0256378123551606,2.7287451649338004
1789881283158058800,12.230058837890626,1.3367138834297656,3.0935441072434187,3.494187393133342
1789881283168073700,12.24007373046875,1.134449435853958,4.034219860491157,3.9518069502204654
1789881283178088700,12.250088623046874,0.9983119496583938,4.6780677993714805,3.6232968803882595
1789881283188103700,12.260103759765625,1.0799579672098159,5.000690564730763,3.0424276679903266
1789881283198118700,12.27011865234375,1.2881892142355442,4.745644375038147,2.5553034917384383
1789881283208133600,12.280133544921876,1.4736591788768767,3.9623406191945074,2.2786929743610322
1789881283218148600,12.290148681640625,1.6374924812495708,3.0593361326932906,2.2769664428293703
1789881283228163800,12.300163818359374,1.7686919265210628,2.23929400703907,2.2577594919256865
1789881283238178800,12.3101787109375,1.8688871617197989,1.4813392119854687,1.926677964170277
1789881283248193800,12.32019384765625,1.9772598581552505,0.8257137415498494,1.3623276326358318
1789881283258208800,12.330208740234376,2.114545345342159,0.3348784358203411,0.9130141316011547
1789881283268223700,12.3402236328125,2.391577156871557,-0.09349018460214137,0.6442880838632583
1789881283278238700,12.35023876953125,2.4949592054128646,-0.3835381295710802,0.4040642002493143
1789881283288253700,12.360253662109375,2.619462367916107,-0.3040980976313352,0.491268728710711
1789881283298268700,12.3702685546875,2.6223276942193507,-0.10406827723979949,0.7892895522549748
1789881283308284000,12.380283935546874,2.5304782625615596,-0.08565700675845146,0.7222542438581585
1789881283318299000,12.390298828125,2.67486569070816,-0.04437339473366737,0.46779140701144933
1789881283328313900,12.40031396484375,2.8871383220791813,-0.06811199771761894,0.21201456495672463
1789881283338328800,12.410328857421876,3.577002746725082,-0.14209376425147055,0.05416413638591766
1789881283348343800,12.42034375,4.469620279246568,-0.2779822441220283,-0.17927812426388262
1789881283358358800,12.43035888671875,4.565612802058458,-0.5574152715742587,-1.1532479520872234
1789881283368373800,12.440373779296875,3.6943694814771413,-0.8790852662533521,-3.0501927490338683
1789881283378388700,12.450388671875,2.9426275695890185,-1.125348430031538,-4.028663395407795
1789881283388403700,12.46040380859375,3.0231624110281468,-1.4677438173532484,-4.350573336322605
1789881283398418700,12.470418701171875,3.1181776132404804,-1.9614982253998516,-4.682188678693771
1789881283408433700,12.48043359375,2.567444011387229,-2.3272037611603738,-4.6534296171993015
1789881283418448600,12.49044873046875,1.342161773572117,-2.3184540529936553,-4.304355482766032
1789881283428463600,12.500463623046874,0.2604943720959127,-2.247709368684888,-3.978242244942486
1789881283438478600,12.510478515625,-0.7023606258645654,-2.239100530293584,-3.5928608255922794
1789881283448493800,12.520493896484375,-1.4489675129517912,-2.3561726660132405,-2.973291587921977
1789881283458508800,12.5305087890625,-2.418599603831768,-2.87565305146873,-3.027081630298495
1789881283468523800,12.540523681640625,-5.569816147843003,-4.530872328066826,-4.382015937812626
1789881283478538800,12.550538818359374,-10.6607837803483,-6.409485934031009,-5.999769991630315
1789881283488553700,12.5605537109375,-12.313595411282778,-5.616606540590524,-5.4240287897706025
1789881283498568700,12.570568603515625,-14.063299728739262,-5.733610871770978,-6.027943362191319
1789881283508583700,12.580583740234376,-8.201931076583266,-5.699501096898317,-7.2937950724124905
1789881283518599000,12.590598876953125,-3.7793759153723716,-5.258816600260138,-7.462576937103271
1789881283528614000,12.60061376953125,-2.375183655953407,-4.879981533813476,-7.275525840750336
1789881283538629000,12.610629150390626,-2.134993236217648,-4.365667152819038,-7.684482489216327
1789881283548644000,12.62064404296875,-4.074649486035108,-3.61744055557549,-9.014100276905298
1789881283558659000,12.6306591796875,-6.337936947602033,-2.569640644648671,-11.417765346455573
1789881283568674000,12.640674072265625,-6.467487456622719,-2.381703413110971,-13.006226962554454
1789881283578689000,12.65068896484375,-6.788324507609009,-3.274609114924073,-14.148814112156629
1789881283588704000,12.6607041015625,-3.238749281513691,-4.152279253682494,-13.561463136523962
1789881283598719000,12.670718994140625,-1.6528694986015557,-5.1205970470935105,-11.79560263403654
1789881283608734000,12.68073388671875,-2.4125316820949316,-5.939093696871399,-8.340742750424146
1789881283618749000,12.6907490234375,-2.3818559733241793,-6.639408788383006,-5.0389399236261845
1789881283628764000,12.700763916015624,-1.3831523939996957,-7.3850716726183885,-3.2753450279831884
1789881283638779000,12.71077880859375,0.36916532082557674,-7.942876820293068,-0.948555838973075
1789881283648793900,12.7207939453125,2.0886638851106167,-8.42417682043612,2.1556670448035002
1789881283658808800,12.730808837890624,2.4010353055685756,-9.088883422949909,5.312839866870641
1789881283668824000,12.740823974609375,2.689157250910997,-9.832879835277796,8.00708771891892
1789881283678839000,12.750839111328125,4.09674558250904,-10.564890626257657,10.277017102718352
1789881283688854000,12.76085400390625,5.480444504475593,-10.695689089512824,12.005796705567835
1789881283698869000,12.770868896484375,5.516950234574079,-10.10012558133006,12.13652853332758
1789881283708884000,12.780884033203124,5.464636694490909,-9.463476029521226,10.95463462473154
1789881283718899000,12.79089892578125,5.429556028759479,-8.273570079383253,8.289591239857673
1789881283728914000,12.800913818359374,0.07768186316080392,-5.518687433630228,5.442732321196794
1789881283738929200,12.81092919921875,-5.283135633480549,-2.1534861936330794,3.164016404351592
1789881283748944100,12.820944091796875,-1.4694097047388552,-0.2395019990801811,2.064050545118749
