time,seconds_elapsed,z,y,x
1789911829536946700,0.05094677734375,0.053825113689899444,-0.08315320724397897,0.08496069505736231
1789911829546954800,0.060954833984375,-0.19632745874226093,-0.02599982591420412,0.003191927909106016
1789911829556962800,0.070962890625,-0.3123006933093071,0.07997136233747006,0.007550853770971298
1789911829566969900,0.080969970703125,-0.3780523916363716,0.12834493262320756,-0.02142901086732745
1789911829576977700,0.090977783203125,-0.4106465012490749,0.10100304445028305,-0.06445848017875105
1789911829586985500,0.1009853515625,-0.45781449513733385,0.073997840885818,-0.08142218220029025
1789911829596992500,0.110992431640625,-0.4510469006985426,0.061681964670121665,-0.0194283751020208
1789911829607000600,0.12100048828125,-0.36987668396532536,0.059121466532349586,0.0034269422413781285
1789911829617008400,0.13100830078125,-0.2950286559909582,0.04121113131046295,0.013157916530407964
1789911829627015700,0.141015625,-0.18512509672641753,0.009527414540946483,0.02187591438461095
1789911829637023500,0.1510234375,-0.0822960058927536,-0.0002262099713087082,0.018732794053293762
1789911829647031600,0.161031494140625,-0.022484219008684157,0.000793196204304695,-0.01760605504568666
1789911829657038300,0.171038330078125,0.050257776597142215,0.061814943400025364,-0.004972198922000825
1789911829667046700,0.181046630859375,0.0583452214628458,0.09145838651359081,0.03876552825663238
1789911829677053400,0.191053466796875,-0.0009065934509038925,0.029314065028727052,-0.022880707512982188
1789911829687061500,0.2010615234375,0.09794541044533252,0.05241232428252697,-0.07358410898577422
1789911829697069300,0.2110693359375,0.14068331293165684,-0.020562895557284355,-0.041584385069645936
1789911829707076600,0.22107666015625,0.07753565962314606,-0.13733283345997332,-0.09626118368543683
1789911829717084400,0.23108447265625,-0.14608487971425055,-0.06226181038469076,-0.18151899852585046
1789911829727092500,0.241092529296875,-0.3167085728794336,-0.06251344705820083,-0.17985636254325507
1789911829737099500,0.251099609375,-0.2743056014358997,-0.09453706330657005,-0.029663791781850156
1789911829747107600,0.261107666015625,-0.13137246375083922,-0.08808277260065078,0.08847758060451597
1789911829757115400,0.271115478515625,-0.03029927667379379,0.12058861940801142,0.5312798731142655
1789911829767122400,0.281122314453125,-0.19903204152584075,-0.07689648493677377,0.07158044101316481
1789911829777130200,0.291130126953125,-0.19240531686246393,-0.08813976348489523,0.10955664552301168
1789911829787138600,0.301138671875,-0.14723112713992595,-0.15583762744367122,-0.39867805023156105
1789911829797145300,0.311145263671875,-0.14025076673328876,-0.17141688936948776,-0.38080782782435413
1789911829807153400,0.3211533203125,-0.1696627391785383,0.08056348301172256,-0.09671141167096793
1789911829817161500,0.331161376953125,-0.01929389853477478,-0.03367021441161632,-0.016588512033596636
1789911829827168500,0.34116845703125,-0.01722469104528427,-0.03755611593425274,-0.00834295399673283
1789911829837176600,0.351176513671875,-0.028714053308963775,-0.08166092285960912,0.0854324772875756
1789911829847184400,0.361184326171875,-0.02999474076926708,-0.07831044338792562,0.08479132983982562
1789911829857191700,0.371191650390625,0.35557226428091526,-0.14950579407364128,0.1335230659134686
1789911829867199500,0.381199462890625,0.44371173550486565,-0.08822042750567197,0.2500274847477674
1789911829877206500,0.39120654296875,0.43663375994265075,-0.05526362206041813,0.2432499534368515
1789911829887214300,0.40121435546875,0.3912356983363628,-0.07647709048092365,0.23085041752569377
1789911829897222400,0.411222412109375,0.3937333603709936,-0.08206570426821708,0.2365511864505708
1789911829907229400,0.4212294921875,0.2274064876168966,0.02016132901906967,0.27463972876109183
1789911829917237500,0.431237548828125,0.08469254564046859,-0.017246902877092362,0.16842954412177205
1789911829927245300,0.441245361328125,0.08754793507158756,-0.02245353160947561,0.17977438334822654
1789911829937252600,0.451252685546875,-0.06293897899389267,-0.012393909887969493,0.0769992877241224
1789911829947260400,0.461260498046875,-0.11517185505628585,0.032601416136324404,0.028133403876796362
1789911829957268500,0.4712685546875,0.038600656551122665,0.044508127029240126,-0.1484648336533457
1789911829967275300,0.481275146484375,0.07453647780716419,0.10187982728481292,-0.19195523500740527
1789911829977283600,0.49128369140625,0.07421382172405719,0.1022422308564186,-0.19418693958222866
1789911829987291600,0.501291748046875,0.13335340843498705,0.14500409874022005,-0.17848215158060193
1789911829997298400,0.51129833984375,0.2283393845528364,0.06795008515417575,-0.2039963859349489
1789911830007306500,0.521306396484375,0.26333821721971035,0.0037979309782385823,-0.09694975047148764
1789911830017314600,0.531314453125,0.17829495844542978,-0.027486557340621946,0.03450900332331657
1789911830027321600,0.541321533203125,0.17905074524879455,-0.03112812871336937,0.027199922418966887
1789911830037329400,0.551329345703125,0.05910393087565899,-0.08648410523235797,-0.0056100949667394154
1789911830047337500,0.56133740234375,-0.08058569484353065,-0.021448738481104374,-0.026163857369497417
1789911830057344500,0.571344482421875,-0.15950550230145452,0.008085106778144837,-0.05788790614940226
1789911830067352600,0.5813525390625,-0.1814133827269077,-0.009046353025734423,-0.020546236683428285
1789911830077360400,0.5913603515625,-0.1826215894728899,-0.006878069075942039,-0.02570003925003111
1789911830087367400,0.601367431640625,-0.13430033389627932,-0.06074935999512672,-0.0943929055955261
1789911830097375500,0.61137548828125,-0.10662205337584019,-0.07054623912721872,-0.1344217683188617
1789911830107383600,0.621383544921875,-0.0369043740272522,-0.05842968487590551,-0.09298048151433468
1789911830117390300,0.631390380859375,0.003859598037600517,-0.06593406915664672,0.012795184165239334
1789911830127398400,0.6413984375,-0.025941665986180303,-0.10173398907333611,0.033550679685175416
1789911830137405400,0.651405517578125,-0.06647708999216556,-0.1119891333669424,-0.03488448557220399
1789911830147413500,0.66141357421875,-0.05127659825086593,-0.07240618778020143,-0.08565919871553779
1789911830157421600,0.671421630859375,0.0009650456398725509,-0.002322013206779957,-0.1498508081190288
1789911830167428600,0.6814287109375,0.00812719235420227,0.020674831499159337,-0.16506847019083798
1789911830177436700,0.691436767578125,-0.04521861338615417,0.003571428745985031,-0.15392485262490807
1789911830187444500,0.701444580078125,-0.10517594622075557,-0.00137421096265316,-0.14034217134378849
1789911830197451300,0.711451171875,-0.18570377339720726,-0.007014262676239013,-0.09249898160770535
1789911830207459300,0.721459228515625,-0.25800445497632024,0.018359540294110775,-0.10106843783669173
1789911830217467600,0.731467529296875,-0.33218320538699625,0.05472644644379616,-0.1595384547229856
1789911830227474400,0.741474365234375,-0.37184827629923817,0.0850625479966402,-0.14493198335208
1789911830237482500,0.751482421875,-0.3029495121181011,0.144013918659091,-0.0376753583997488
1789911830247490300,0.761490234375,-0.2533189275085926,0.12149462833702564,0.03146338854972273
1789911830257497600,0.77149755859375,-0.2640016495645046,0.05591653301119804,0.08433394146114587
1789911830267505400,0.78150537109375,-0.23455635937154293,0.02283347083777189,0.08948799975607544
1789911830277513500,0.791513427734375,-0.30379648433625694,-0.04864245035499334,-0.07279938834886998
1789911830287520500,0.8015205078125,0.44013621510565276,0.13787965368777513,-0.16148162468001245
1789911830297528600,0.811528564453125,0.44070846203565595,0.13491554318517446,-0.16945505124460905
1789911830307536400,0.821536376953125,0.6361725819468498,0.13156331014782188,-0.15968637529369442
1789911830317543400,0.83154345703125,0.5768114614397287,0.11304507216066122,-0.22362886877432464
1789911830327551500,0.841551513671875,0.3405933063358068,0.10702712704539298,-0.13317421594318002
1789911830337558500,0.85155859375,-0.00027998598515987394,0.10068915619552135,0.0740451506262645
1789911830347566300,0.86156640625,-0.2467752049535513,0.045482232758402824,0.12663144323620945
1789911830357574400,0.871574462890625,-0.45806642407178877,0.00097118311971426,0.09830934838689863
1789911830367581400,0.88158154296875,-0.26039631854891776,-0.06988982104510068,0.09542385607846081
1789911830377589500,0.891589599609375,-0.26491759536564347,-0.058192368988692754,0.09297580533921718
1789911830387597600,0.90159765625,-0.02613572725355625,-0.0662903352484107,0.00718888859078288
1789911830397604400,0.911604248046875,0.14603636439740658,-0.021585516603291034,-0.140416515221633
1789911830407612700,0.92161279296875,0.22635317917168138,-0.01751929007768631,-0.18459380286131052
1789911830417620500,0.931620361328125,0.2802636330574751,-0.05279693968594074,-0.10259696257822215
1789911830427627500,0.94162744140625,0.3968693203091621,-0.03218640559464693,0.04472250043228268
1789911830437635300,0.95163525390625,0.240477566114068,-0.03203472216427326,0.08237813121825456
1789911830447643400,0.961643310546875,-0.2920622074007988,0.0073345806717872615,-0.04739420385956764
1789911830457650400,0.971650390625,-0.4567126713752746,0.08947948765605687,-0.06681004827357828
1789911830467658500,0.981658447265625,-0.5244651881307363,0.09996288774758577,-0.05474208240434527
1789911830477666300,0.991666259765625,-0.5201841498106717,0.09201309778690338,-0.03724025491811335
1789911830487673600,1.001673583984375,-0.5337047256410121,0.02923924622684717,-0.019174509938806296
1789911830497681400,1.011681396484375,-0.4525532136082649,0.032492110542953014,0.11694865547046064
1789911830507689500,1.021689453125,-0.33055238931477066,0.06479658955931664,0.11899623565003276
1789911830517696300,1.0316962890625,-0.21487433830201624,-0.015484861640632152,-0.054553501029685134
1789911830527704600,1.04170458984375,-0.11308160477876662,-0.03604074293524027,-0.17880444233752785
1789911830537711400,1.05171142578125,-0.10021861607432365,-0.059815001754462714,-0.13847608521096408
1789911830547719400,1.061719482421875,0.2833779656857252,-0.17308920649588108,-0.005901479128748178
1789911830557727500,1.0717275390625,0.3058966714859009,-0.21623335169553756,0.048257834951579565
1789911830567734500,1.081734619140625,0.10822598144114016,-0.22627105384618043,0.3975418127432465
1789911830577742300,1.091742431640625,-0.16867139005362985,-0.21719342889934776,0.3925764454208314
1789911830587750400,1.10175048828125,-0.2362345217168331,-0.4628595035672188,0.5537924049019813
1789911830597757400,1.11175732421875,-0.27570786944925785,-0.5560203100845217,0.42420463261082764
1789911830607765500,1.121765625,-0.23489596658945083,-0.4217664456784725,0.2967743306145072
1789911830617773600,1.131773681640625,0.1154571017384529,-0.456855586977303,-0.02444528994858265
1789911830627780400,1.1417802734375,-0.08893266742825508,-0.08210019105970859,0.06626783115565776
1789911830637788400,1.151788330078125,-0.24244974296987054,0.18622721274942158,0.09421192300543188
1789911830647796500,1.16179638671875,-0.139621821179986,0.16140315261632204,0.0506593431353569
1789911830657803500,1.171803466796875,-0.10753273847997188,0.11949585573524237,0.12518018498197198
1789911830667811300,1.181811279296875,-0.02189969711899757,0.020073942996561525,0.13990180716514586
1789911830677819400,1.1918193359375,0.004038461735844612,0.05899345623850822,0.26698095763623714
1789911830687826400,1.201826416015625,0.09693594114184378,0.058029871903359884,0.60866805055812
1789911830697834500,1.21183447265625,0.31660452798306943,-0.11683014365732669,1.0041869791716336
1789911830707842300,1.22184228515625,0.5343231498003006,-0.40707565702497955,1.1902381047017871
1789911830717849600,1.231849609375,0.6931821708917617,-0.7770859042420983,1.1767056923031807
1789911830727857400,1.241857421875,0.6416787781476974,-0.8339902792468666,1.2602844314828514
1789911830737864400,1.251864501953125,0.6032020402371883,-0.7363523273155093,1.2619701926127076
1789911830747872300,1.261872314453125,0.6028028117865324,-0.6446750373542308,1.1337325197562576
1789911830757880600,1.271880615234375,0.43977322701215743,-0.40211043583303685,0.9732169636294246
1789911830767887400,1.281887451171875,0.07808394115567206,0.0010033318236470222,0.876556624558568
1789911830777895400,1.2918955078125,-0.4697486785590648,0.3233163005813956,0.7225976504683495
1789911830787903500,1.301903564453125,-0.805684514477849,0.32987697427123785,0.7196411387503147
1789911830797910500,1.31191064453125,-0.8468997374415397,-0.12214198632985353,0.49385289998501536
1789911830807918600,1.321918701171875,-0.6276625277549028,-0.5859001923024654,0.20725714129656553
1789911830817926400,1.331926513671875,-0.14856851322352885,-0.8206652259886265,0.25865239749103786
1789911830827933200,1.34193310546875,0.4944166713476181,-0.5951286238968372,0.6444523345142602
1789911830837941500,1.35194140625,0.9072253190666436,-0.11002017138153314,1.024455275696516
1789911830847949600,1.361949462890625,0.8818401179194449,0.1588376860424876,0.9692308166027068
1789911830857956400,1.371956298828125,0.4176800531476736,0.11029138953834772,0.8380357552453875
1789911830867964400,1.38196435546875,-0.13447335237562655,-0.05103928236365318,0.7992600343883037
1789911830877972500,1.391972412109375,-0.3521487195730209,-0.24930706151872872,0.5548381145626307
1789911830887979500,1.4019794921875,-0.5242693732976913,-0.23085984294116496,0.7018459543406963
1789911830897987300,1.4119873046875,-1.6006944902062414,0.165427878087759,1.3277683604300021
1789911830907994600,1.42199462890625,-1.7702666284918784,0.45169951938837766,1.4235200602233409
1789911830918002400,1.43200244140625,-0.8089139979183674,-0.07910714672356843,0.7530828051030636
1789911830928010500,1.442010498046875,-0.4756149402439594,-2.143279272395372,0.3371779449343681
1789911830938017300,1.452017333984375,0.9454676636993884,-3.4307302354842424,1.27581313226521
1789911830948025300,1.462025390625,2.242209602224827,-4.54524221420288,1.8290905733823775
1789911830958033400,1.472033447265625,1.9870348177164792,-5.249807364374399,1.5117559775590896
1789911830968040400,1.48204052734375,-0.16995850725471973,-4.827139878202974,0.8575625857532024
1789911830978048300,1.49204833984375,-0.9341641793966293,-3.9600551386058327,0.6214584124177694
1789911830988056300,1.502056396484375,-1.4961083265721797,-3.1405253463879226,0.8946165973842144
1789911830998063400,1.5120634765625,-1.402342832159996,-1.8427876748234033,2.999653525146842
1789911831008071400,1.522071533203125,-1.4475947632938622,-1.9230875384628772,2.8891660285145044
1789911831018079500,1.53207958984375,1.9696873770743608,-1.4625368963599203,6.273593947029114
1789911831028086500,1.54208642578125,1.6616764899134635,-2.1934955479383467,5.513007634428143
1789911831038094600,1.552094482421875,0.622658435857296,-3.6608380910143254,3.5915567572563885
1789911831048102400,1.562102294921875,1.8946879579305647,-5.063035084962845,1.6825813307762145
1789911831058109400,1.572109375,3.4521991399705407,-6.074195994800329,0.2167413012176752
1789911831068117500,1.582117431640625,2.7676217158168552,-6.542884935173392,-0.35457857706844803
1789911831078124500,1.59212451171875,2.7263036170005797,-6.258250247424841,-0.24427169770002363
1789911831088132400,1.60213232421875,1.919982558184862,-6.15188947533369,0.38210312833189963
1789911831098140400,1.612140380859375,-0.564856235229969,-5.42582385649383,1.8469681753784417
1789911831108147500,1.6221474609375,-0.751735482147336,-5.472904756620526,2.233988301846385
1789911831118155500,1.632155517578125,-0.20819033049345015,-5.614863496315479,2.5341169113248587
1789911831128163300,1.642163330078125,0.7405933258861302,-6.026752691102027,2.559265381106734
1789911831138170400,1.65217041015625,0.4028735291600227,-5.994142799398302,1.8166122000813483
1789911831148178400,1.662178466796875,-1.0311772774279118,-5.274527964133024,0.49455695660114285
1789911831158186500,1.6721865234375,-1.7384779900431633,-4.697077328006923,-1.098684294989705
1789911831168193300,1.682193359375,-2.197264545083046,-4.308436322338879,-2.1528221767663953
1789911831178201300,1.692201416015625,-2.4602678312599657,-3.7761686437636612,-2.9013270064294336
1789911831188209400,1.70220947265625,-1.9747294628947971,-3.125867875482142,-3.7590474130928513
1789911831198216400,1.712216552734375,-0.4596458022177219,-2.6247072828322646,-4.541186801332235
1789911831208224500,1.722224609375,0.3604232114434242,-2.13112837748304,-5.474113547888398
1789911831218232300,1.732232421875,0.1766080282717943,-0.961563642975688,-6.144201843440532
1789911831228239600,1.742239501953125,0.3095341512054205,0.06480389608293771,-6.6261904103696345
1789911831238247400,1.752247314453125,0.8180442298352718,0.5909273728147149,-7.116884261801839
1789911831248254500,1.76225439453125,1.0608008467972279,0.9600570378050207,-7.136749822744727
1789911831258262300,1.77226220703125,1.237778292903304,0.9707026427209376,-8.021665110325813
1789911831268270600,1.7822705078125,0.8883961154341697,1.043110876327753,-9.198387753763795
1789911831278277400,1.79227734375,0.8215779569193721,1.6241659666866064,-9.99786581481695
1789911831288285400,1.802285400390625,1.1132102484703064,2.520932435581088,-10.318291362392902
1789911831298293200,1.812293212890625,2.0106173533558844,3.1123055063366887,-10.309141256731747
1789911831308300500,1.822300537109375,4.266755235429108,3.361346902656555,-10.046274748677014
1789911831318308400,1.832308349609375,5.7537108259916305,3.6604052525550124,-9.382132794308662
1789911831328316400,1.84231640625,4.329744483305514,3.9033272892117497,-8.418436815479398
1789911831338323500,1.852323486328125,4.689489941617846,4.272697777220607,-6.85529551859796
1789911831348331500,1.86233154296875,5.036903449362516,4.828694414168596,-5.320133531010151
1789911831358339600,1.872339599609375,5.096932678389549,5.862997130140662,-4.584181893450022
1789911831368346400,1.882346435546875,6.3321805760324,6.862781490439176,-4.48377272323966
1789911831378354400,1.8923544921875,7.651730558693409,6.970283833780885,-3.9605408762961622
1789911831388361500,1.902361572265625,8.050114959740638,6.395548009571432,-2.963675618314743
1789911831398369300,1.912369384765625,7.181718260762095,5.6683735527068375,-1.7910475507140158
1789911831408377300,1.92237744140625,5.150533920195699,4.918765145716071,-0.941833691111207
1789911831418384400,1.93238427734375,2.8668787933826443,4.179164922520518,0.18470482548773287
1789911831428392400,1.942392333984375,1.2917659036785363,3.2343887482166287,1.5931617566138505
1789911831438400500,1.952400390625,0.9566823006749152,2.60110487344861,2.251961180910468
1789911831448407300,1.9624072265625,1.4942105301268398,2.604185888329148,2.448385085764527
1789911831458415600,1.97241552734375,3.0723925981432196,2.3897657235354184,2.4895062007039783
1789911831468423400,1.98242333984375,7.576358799105882,0.7428191852420568,2.4050848732203245
1789911831478430500,1.992430419921875,9.956666373944282,-1.4852894109159707,1.647760777285695
1789911831488438300,2.002438232421875,7.025364500489831,-1.945173113542795,0.2705892112612724
1789911831498446600,2.012446533203125,4.193628624419868,-0.8036427795171737,-0.14201017762124538
1789911831508453400,2.022453369140625,1.8027578622519969,0.2461144029572606,1.5254624313503502
1789911831518461400,2.03246142578125,1.6889952894717455,-0.552851324659586,2.7270792775481936
1789911831528468500,2.042468505859375,0.18348609734773635,-1.6408523130714892,2.9340666619926687
1789911831538476500,2.0524765625,-0.19992723679989574,-2.045983850291371,3.1544360905796287
1789911831548484400,2.062484375,0.2849490143947303,-3.0451161764219403,2.824917135965824
1789911831558491400,2.072491455078125,0.4661474391967058,-2.854488682886958,2.020345551165938
1789911831568499200,2.082499267578125,1.249928749424219,-1.8792197551637886,1.3362182088673114
1789911831578507500,2.092507568359375,0.6770283239483833,-1.0371370626151561,0.7922229753583669
1789911831588514300,2.102514404296875,-0.33329730410873887,-0.2974678658366203,0.496341501930356
1789911831598522400,2.1125224609375,-0.5304296494930982,0.10878478436768055,0.37878070591092106
1789911831608530200,2.1225302734375,0.45773616920411586,-0.04543868587762117,0.29144962846040723
1789911831618537500,2.132537353515625,1.2268880655765533,-0.6593465367853641,0.19332476979494093
1789911831628545300,2.142545166015625,1.6082009203135967,-1.3671411703974008,0.09911971492171287
1789911831638553300,2.15255322265625,2.126955329582095,-1.8295412397593258,0.3163543526142835
1789911831648560400,2.162560302734375,1.547878553558886,-1.66096483451277,0.658317193737626
1789911831658568400,2.172568359375,0.5256155272096396,-1.2392194316223264,1.0580734676599501
1789911831668575200,2.1825751953125,-1.198916939589381,-0.819349467214942,1.3257254564255476
1789911831678583300,2.192583251953125,-1.2052668931379913,-0.8382020517230033,1.3317051153570414
1789911831688591400,2.20259130859375,-4.564829542726278,-0.11372194850891827,0.6387438937395811
1789911831698598400,2.212598388671875,-3.999339101245999,0.24400077180415392,-0.2254951010376215
1789911831708606200,2.222606201171875,-2.437510640528798,0.524273757211864,-0.8439584232926368
1789911831718614300,2.2326142578125,-1.5636761344105004,0.6924564869657158,-1.3173966040194034
1789911831728621300,2.242621337890625,-2.0798291290089486,1.0254255820333957,-1.5987380954414605
1789911831738629400,2.25262939453125,-2.242018171305954,1.2062272626027464,-1.7207921112269162
1789911831748637400,2.262637451171875,-2.2859780168026687,1.1869152438893913,-1.72733115760684
1789911831758644200,2.272644287109375,-1.0373735017195342,1.337334061154723,-2.3587480694591996
1789911831768652500,2.282652587890625,0.37570904338061806,0.9732061499744653,-2.0748726756453513
1789911831778659300,2.292659423828125,1.9513871657520532,0.036025545366108414,-1.6293442461073397
1789911831788667400,2.30266748046875,2.752745049202442,-1.072902788001299,-1.096774661976099
1789911831798675200,2.31267529296875,2.603309397755563,-1.904633597883582,-0.11045417888462543
1789911831808682500,2.3226826171875,2.6629601488590238,-2.42763134381026,0.7759417026430367
1789911831818690300,2.332690185546875,3.522859653127193,-2.6037369755178688,1.1198732134908438
1789911831828698400,2.342698486328125,3.5212872892439364,-2.6670357277348637,1.142154018881917
1789911831838705400,2.352705322265625,3.404875663259625,-1.6675360295966266,1.6850801618546247
1789911831848713500,2.36271337890625,1.615848512457311,-0.1644698467105627,2.5994758109420535
1789911831858721300,2.37272119140625,1.4965657149508595,0.4360273184821009,2.597202020791173
1789911831868728300,2.382728271484375,1.1890753445327282,0.734597884863615,1.511594649517536
1789911831878736400,2.392736328125,-0.2666168004989624,0.9745283384889364,0.6721487352132797
1789911831888744400,2.402744384765625,-1.3805623775064944,1.3211390054181218,0.07587561745643616
1789911831898751200,2.412751220703125,-2.6875787495478987,1.613916667611897,-0.2411275544553995
1789911831908759300,2.42275927734375,-3.908668065717816,1.5105442636817692,-0.24303484938144682
1789911831918766300,2.432766357421875,-4.546713163538277,0.9977356110751628,-0.5512713619917631
1789911831928774400,2.4427744140625,-5.121059403908252,0.268107623578608,-1.7546183929830788
1789911831938782500,2.452782470703125,-6.030114276489615,0.13125877424329518,-2.8455671252846715
1789911831948789200,2.462789306640625,-6.387638843882083,0.6649161536112427,-3.0218992592245337
1789911831958797600,2.472797607421875,-5.637843389886617,1.3649173568680881,-2.479751114886999
1789911831968805400,2.482805419921875,-4.340185797820985,2.0723805665686728,-1.1949825227499007
1789911831978812400,2.4928125,-3.06695508326441,2.2707325168758627,0.3129483435630798
1789911831988820200,2.5028203125,-2.3130764516085387,1.837812516759336,1.6872142512738704
1789911831998828300,2.512828369140625,-1.4789952792078256,0.5925447448834776,3.250216431945562
1789911832008835300,2.52283544921875,-1.3852581341072916,-0.5768488708406686,4.0846097390353675
1789911832018843400,2.532843505859375,-1.7159215825811027,-1.17681850502789,4.262310823240876
1789911832028851200,2.542851318359375,-0.6720017279580235,-1.6230539137914777,3.849588684761524
1789911832038858500,2.5528583984375,1.0112532642960548,-2.0519386670425535,2.1985896562069653
1789911832048866300,2.5628662109375,2.353510461066663,-1.7945353928297758,1.2558949643522501
1789911832058873300,2.572873291015625,2.5546131713867184,-1.157797578215599,1.350489895325899
1789911832068881200,2.582881103515625,2.2861440210193393,-1.0356503311887384,1.418301448792219
1789911832078889500,2.592889404296875,2.4590631316453218,-1.3329562844619154,1.2400246105253696
1789911832088896300,2.602896240234375,2.2581179499745367,-1.0070034978970885,0.836332166197896
1789911832098904300,2.612904296875,3.3480057750463486,0.05902531268149614,-0.9795745159626007
1789911832108912000,2.622912109375,5.111684841841459,1.8958686921477317,-3.1013018817633387
1789911832118919400,2.63291943359375,7.223928339982033,4.057755342118442,-5.064270764237642
1789911832128927200,2.64292724609375,6.438191804033518,4.01112364706397,-4.897358785071969
1789911832138935300,2.652935302734375,5.32765048251152,3.1328432674527167,-4.395568954607844
1789911832148942300,2.6629423828125,3.4669986496955154,1.611670934511721,-3.646781800872087
1789911832158950400,2.672950439453125,0.813877465544641,0.23702391852885482,-2.485868136462569
1789911832168957200,2.682957275390625,-1.7823183008134365,-0.8078492912963032,-1.3631716822445392
1789911832178965200,2.69296533203125,-3.4936607389107346,-1.6864306996807454,-0.21215981864631175
1789911832188973300,2.702973388671875,-3.0247680926591154,-2.4354257970787585,1.0947954708576202
1789911832198980400,2.71298046875,-2.344371753582358,-2.9353073097035285,2.2945032685637474
1789911832208988400,2.722988525390625,-1.9273422732979058,-2.716485695080459,3.30665611204803
1789911832218996200,2.732996337890625,-1.875595427186787,-2.142503173456341,4.356610570660234
1789911832229003500,2.74300341796875,-2.404052899824083,-2.3561580529659985,5.379522708567976
1789911832239011300,2.75301123046875,-3.3387364269196986,-3.119554746812582,5.4068210498601195
1789911832249019400,2.763019287109375,-3.459106727401912,-3.163148389345407,5.351677254787087
1789911832259026200,2.773026123046875,-3.9292695397198196,-3.2098084337115287,5.665558495286107
1789911832269034500,2.783034423828125,-2.9898107610464093,-2.633267605906725,6.407505573868751
1789911832279041300,2.793041259765625,-2.1244366247594355,-1.6428592689797281,5.846132504579424
1789911832289049300,2.80304931640625,-0.3184790896832943,-0.16189751200452446,2.3196277729481456
1789911832299057200,2.81305712890625,3.2855186314731832,0.8723134340308606,-2.5282798757344485
1789911832309064400,2.823064453125,5.460911536487937,1.6430097833663224,-5.80744066261351
1789911832319072300,2.833072265625,4.769068505245447,3.0952915354326365,-7.562289941743016
1789911832329080300,2.843080322265625,4.769131049087643,3.055349693405628,-7.554780004504322
1789911832339087400,2.85308740234375,2.929694438257813,4.629364266479015,-4.809372458583116
1789911832349095400,2.863095458984375,2.5380133342415094,4.609837728232145,-2.6580647780328985
1789911832359103500,2.873103515625,1.8996563939929008,4.161389027333259,-1.1772703404486178
1789911832369110300,2.8831103515625,1.3150462415009736,3.749661452849209,0.45594051795899865
1789911832379118300,2.893118408203125,1.0933306590020655,3.5537349761232733,1.6414882728874682
1789911832389125400,2.90312548828125,1.473733413156867,3.5616982100874184,2.249430201128125
1789911832399133400,2.913133544921875,3.064201692903042,3.576187923210859,2.626644972896576
1789911832409141200,2.923141357421875,2.295522090217471,3.0449595245555043,2.48219207829833
1789911832419148500,2.9331484375,1.4183143082737921,2.8559114091664553,2.3782675934433937
1789911832429156400,2.94315625,1.02631288626194,1.6882821727663277,1.133209664925933
1789911832439164400,2.953164306640625,1.05783147559762,1.6555296577215193,1.1565063693612814
1789911832449171200,2.963171142578125,-1.7369652473926542,3.3130215554267166,0.8393909692466258
1789911832459179500,2.973179443359375,-2.593884274545312,1.5578735856115817,0.15134090054631233
1789911832469187300,2.983187255859375,0.6408604475021362,-2.740632586604357,0.28615093753039833
1789911832479194400,2.9931943359375,1.0351794988065957,-4.139375348445773,-0.16002455773949623
1789911832489202200,3.0032021484375,1.806245119845867,-3.295178732483089,-0.3553828791886568
1789911832499209500,3.01320947265625,0.7315139473736286,-1.9311990948565303,0.22530454690158366
1789911832509217300,3.02321728515625,0.5682078837454319,-1.0454762902848422,2.6570184838503597
1789911832519225300,3.033225341796875,2.469877955648303,-1.9356125273846088,4.295812695348262
1789911832529232400,3.043232421875,-0.4998690915346145,-2.6310288870692253,3.9130519798904655
1789911832539240400,3.053240478515625,-3.4380893660753964,-1.4366376082107424,4.003669823926687
1789911832549248500,3.06324853515625,-4.679904367148876,-0.900970861781761,3.4575907698810098
1789911832559255300,3.07325537109375,-4.364208186182379,-1.0896547469682991,2.9189146855682133
1789911832569263400,3.083263427734375,-2.7548984278440476,-1.0909469787359236,2.3289871374458073
1789911832579271400,3.093271484375,-3.0244612186670303,-1.2439267325304448,1.2766665342241525
1789911832589278200,3.1032783203125,-2.74187586466372,-1.1758167806394397,-0.3527636366009712
1789911832599286300,3.113286376953125,-2.340471823534369,-1.075135515489429,-1.560605056402087
1789911832609294300,3.12329443359375,-1.143522676886618,0.3815485631890595,-0.3248912948131561
1789911832619301400,3.13330126953125,-0.45836043858230113,1.7853297575891016,-0.6825222451895475
1789911832629309400,3.143309326171875,1.352533968374133,0.819756002189219,-3.3406904835969207
1789911832639316200,3.153316162109375,2.4445056139826775,-0.918500454057753,-5.688930018523335
1789911832649324500,3.163324462890625,1.9448463658064603,-1.0410197492673992,-5.72808655539155
1789911832659332400,3.173332275390625,1.065179792533815,-0.5927163020581007,-5.369945901927352
1789911832669339400,3.18333935546875,1.2420832966208457,0.10236761080175638,-4.631246426963806
1789911832679347200,3.19334716796875,3.2498671801164742,-0.3662438804209232,-3.5033863063722848
1789911832689355300,3.203355224609375,3.6378146505624054,-1.149688506039977,-3.3075925161153075
1789911832699362300,3.2133623046875,2.260769341266155,-1.317212771885097,-3.8744770423024892
1789911832709370400,3.223370361328125,-1.628442913353443,-1.1469941523894667,-2.1063146926134824
1789911832719378200,3.233378173828125,-2.557747377759218,-0.5324111786991358,-0.5869324579596519
1789911832729385500,3.243385498046875,-2.827927131436765,-0.4191863660573959,0.9201116886466741
1789911832739393300,3.253393310546875,-2.878709516429901,0.6106219611048698,2.4782079770982266
1789911832749400300,3.263400390625,-2.9141788892179727,0.5764297686457633,2.477535192403197
1789911832759408000,3.273408203125,-1.3746516921579837,0.9598165070474147,3.7828245945215224
1789911832769416400,3.28341650390625,-0.534120905226469,-0.2671604058563709,4.5189813992649315
1789911832779423200,3.29342333984375,0.4876645667389035,-2.0921549420967698,5.488153763678669
1789911832789431300,3.303431396484375,1.897804044124484,-3.945445890755951,6.4788207515418526
1789911832799439000,3.313439208984375,2.4518571457892655,-5.584101862826943,7.083314585155248
1789911832809446400,3.3234462890625,1.6332070590153336,-5.118348975905776,7.001283367678522
1789911832819454200,3.3334541015625,0.044915246525406835,-3.0438714370578523,6.030532209640741
1789911832829462300,3.343462158203125,-0.682552932588756,-2.261011917850375,5.202808881834149
1789911832839469300,3.35346923828125,-0.9417916055351495,-1.7373448943600058,4.744845333614945
1789911832849477400,3.363477294921875,-0.8607833013653755,-1.3579989557817578,4.0448762790620325
1789911832859484200,3.373484130859375,-0.5448287617236376,-1.1692086145460605,3.5061505103886126
1789911832869492200,3.3834921875,-0.35253508854210375,-0.9977803269997239,3.1827684510946272
1789911832879500300,3.393500244140625,-0.6260311271607876,-0.968178677201271,2.8077748625069856
1789911832889507300,3.40350732421875,-1.505233297792077,-1.1297297138556837,2.133253552943468
1789911832899515400,3.413515380859375,-2.577219847731292,-1.1358955430090427,1.136141042202711
1789911832909523200,3.423523193359375,-3.446989588628709,-0.7118664130955934,-0.003933832317590713
1789911832919530500,3.433530517578125,-3.6514305034607646,1.6678645308986306,-1.9442630129605531
1789911832929538300,3.443538330078125,1.4968272884964942,4.125959986555576,-5.0449938168376685
1789911832939546400,3.45354638671875,7.202023966687917,3.4251217479526996,-6.120612293538451
1789911832949553200,3.46355322265625,4.526008229161799,2.981532762044668,-4.642281031197309
1789911832959561500,3.4735615234375,2.0458973410516976,3.1343168471366165,-4.983565242406725
1789911832969568300,3.483568359375,3.439980878910422,1.2875766352951525,-5.177315544137358
1789911832979576300,3.493576416015625,3.886683905185759,-1.2733154702305793,-5.48382654812932
1789911832989584100,3.503584228515625,3.706930564625561,-5.9976189510762685,-7.584080333268642
1789911832999591400,3.51359130859375,4.1027012760430575,-7.11365477836132,-7.180685410583019
1789911833009599200,3.52359912109375,2.2364111450791357,-3.5483354551672934,-3.7892303699105976
1789911833019607300,3.533607177734375,2.150904068185389,-3.575976910808682,-3.811824479034543
1789911833029614300,3.5436142578125,0.5762292776376009,0.5816746835619211,-1.2804361158907414
1789911833039622400,3.553622314453125,0.20521394503116608,1.6783102293282746,-1.266042848879099
1789911833049629200,3.563629150390625,0.10963087980300187,1.9220073420107364,-2.7437042491346597
1789911833059637200,3.57363720703125,0.542119795025885,1.4970593436866997,-3.949543681463599
1789911833069645300,3.583645263671875,0.6381967812508345,1.5011428136080502,-3.958193436387181
1789911833079652400,3.59365234375,-0.01206423954218626,1.09263215534389,-3.0895804643094538
1789911833089660400,3.603660400390625,-0.40141631608903405,0.19660218403041363,-1.6383394534677267
1789911833099668200,3.613668212890625,-0.37049919977784157,-0.35282734948694705,-0.0508206711769104
1789911833109675500,3.623675537109375,-0.553770777592063,-0.24133447520434856,2.0702882704645393
1789911833119683300,3.633683349609375,-1.0851038056656717,0.7625333550155162,4.661161088234186
1789911833129691400,3.64369140625,-1.1374848580271004,0.8602548935770988,6.657641195166111
1789911833139698200,3.6536982421875,-1.7278195256456732,1.4863918191999197,8.25763192101717
1789911833149706200,3.663706298828125,-1.995610630621016,2.7392186281532047,9.51156932156086
1789911833159713300,3.67371337890625,-1.9698335075467823,3.3398166233718394,9.807545487535
1789911833169721300,3.683721435546875,-2.0443004272490737,4.364974494379759,9.794287946555018
1789911833179729200,3.693729248046875,-2.3385241965979335,5.1020700412780045,10.15449313133359
1789911833189736400,3.703736328125,-2.6550626736074685,4.27946069548428,10.187634353435039
1789911833199744300,3.713744140625,-3.7545080160975455,1.9528917250961064,8.84952989242971
1789911833209752300,3.72375244140625,-4.497295637157559,-0.785790311962366,6.120688865906
1789911833219759000,3.733759033203125,-3.8278567454248664,-3.572764378502965,2.34759480728209
1789911833229767400,3.743767333984375,-2.271603162230551,-6.880575505805015,-3.1047698501348493
1789911833239775500,3.753775390625,-0.9796569335490465,-9.745538820955156,-10.415953279721736
1789911833249782300,3.7637822265625,3.3068972273275254,-10.851896719312668,-16.86726526209116
1789911833259790300,3.773790283203125,7.410929751974344,-8.880109155088663,-18.327686189210414
1789911833269797400,3.78379736328125,8.204937272661924,-5.260645569252968,-16.348415575754643
1789911833279805400,3.793805419921875,6.034296530610322,-1.0343670133799314,-11.718418856590986
1789911833289813200,3.803813232421875,4.056925028774142,1.830207010191679,-7.386552851086854
1789911833299820500,3.813820556640625,3.310576208101213,2.796582437363267,-4.386358643192053
1789911833309828400,3.823828369140625,2.6102690076351163,3.2280501928448677,-2.354059327121079
1789911833319836400,3.83383642578125,1.9180808162167666,3.556429914295673,-1.9590815196469424
1789911833329843200,3.84384326171875,1.0679109710633754,3.402804702204466,-1.7451488461092113
1789911833339851300,3.853851318359375,0.3447024952203035,2.939609683072567,-0.908757643200457
1789911833349858300,3.8638583984375,-0.25819208650290965,3.1694910363703963,-0.04127952037155628
1789911833359866400,3.873866455078125,-0.5592755124881863,3.4737399406492706,1.1265952152222394
1789911833369874200,3.883874267578125,-1.1040057822734117,4.592114440014958,1.99951932849735
1789911833379881500,3.893881591796875,-1.3891910896420478,5.885695284160971,3.1060902850836514
1789911833389889300,3.90388916015625,-1.6776443127654492,6.707508511140942,4.100173511131108
1789911833399897300,3.9138974609375,-1.892086981651932,7.102385780850052,4.686626953402161
1789911833409904000,3.923904052734375,-2.034258925706148,6.9494456284135575,4.7855429624453185
1789911833419912400,3.933912353515625,-1.926756290103495,6.1769923524081705,4.995888717406988
1789911833429920300,3.943920166015625,-1.817065789067745,5.813402201366424,5.095264452916384
1789911833439927300,3.95392724609375,-1.6139765811055897,5.32994356188476,4.750526594121754
1789911833449935000,3.96393505859375,-1.4014818314164876,3.4528567270964383,4.458675399123132
1789911833459942400,3.9739423828125,-1.3680553626328706,1.2647060473173857,4.251825085061788
1789911833469950200,3.9839501953125,-0.47228038899376984,-0.6790688898652791,4.042934789605439
1789911833479958300,3.993958251953125,0.20918745177201925,-3.1823727297753095,2.794004695829749
1789911833489965300,4.00396533203125,-0.04466163709051907,-5.937204522123933,0.7293611532539129
1789911833499973400,4.013973388671875,-0.2519804089138284,-8.077461231827735,-1.063862572455406
1789911833509981400,4.0239814453125,0.2130932635715231,-9.602752398264407,-1.9371262929484248
1789911833519988200,4.03398828125,1.4025146815955638,-11.47482052810788,-1.2035785016596316
1789911833529996300,4.043996337890625,2.637005038869381,-11.0717178663671,-1.1500301590844988
1789911833540004400,4.05400439453125,2.783435371020436,-8.317489300608635,-2.156746948994696
1789911833550011400,4.064011474609375,1.9998095436155794,-4.3417613765746355,-3.780939803688228
1789911833560019200,4.074019287109375,1.26098673453331,-0.4552449369102716,-3.950114174827933
1789911833570026500,4.084026611328125,0.7648784568369388,2.341140516576171,-2.397002689051628
1789911833580034300,4.094034423828125,0.0392483068048954,3.4758757836341854,-0.7900260498359799
1789911833590042000,4.1040419921875,-0.4448509686678648,3.2891274696201083,0.36412323500514027
1789911833600049200,4.114049072265625,-0.7646762122631072,2.160999053481221,0.5557368169680238
1789911833610057200,4.12405712890625,-0.8424889352619648,0.653992316275835,0.4756348139882087
1789911833620065300,4.134065185546875,-0.596738397181034,-0.23633330591619015,0.6792249572098255
1789911833630072000,4.144072021484375,-0.3208288676798344,-0.656084904640913,0.8164519922077655
1789911833640080100,4.154080078125,-0.007165069323778152,-0.6950935574710368,0.6544125875145197
1789911833650087200,4.164087158203125,0.25486791051626206,-0.3182043643951416,0.4762906475484371
1789911833660095200,4.17409521484375,0.5287058944404125,0.20742986751496792,0.36980186516344543
1789911833670103000,4.18410302734375,0.7556640537679195,0.579796614730358,0.32176176461577416
1789911833680110300,4.1941103515625,0.7989847245782613,0.6781412536263466,0.3074444854497909
1789911833690118100,4.2041181640625,0.7516226694226265,0.5409738398611545,0.24176059166193006
1789911833700126200,4.214126220703125,0.6577274111509323,0.33493630348742004,0.08743629139065742
1789911833710133000,4.224133056640625,0.585429067659378,0.15285188963115215,-0.11057049874067305
1789911833720141000,4.23414111328125,0.5373562338858843,0.02946633298099041,-0.2206318789154291
1789911833730148000,4.244148193359375,0.43163083708882327,-0.07235095046162605,-0.3982031992614269
1789911833740156200,4.25415625,0.41463527862429617,-0.1030482865422964,-0.37453064725100993
1789911833750164200,4.264164306640625,0.42397009320259094,-0.14289105210900305,-0.3456225326746702
1789911833760171300,4.274171142578125,0.4224316315889358,-0.16640344512164593,-0.398978859809041
1789911833770179300,4.284179443359375,0.35663901672959325,-0.17109540233016013,-0.45681613174974917
1789911833780187100,4.294187255859375,0.29444705671072,-0.09457681079506873,-0.5041080442786217
1789911833790194200,4.304194091796875,0.21998598222732543,0.02901274399459362,-0.4406055861830711
1789911833800202200,4.3142021484375,0.13918752141594887,0.11320610794126987,-0.36398061166405676
1789911833810209300,4.324209228515625,0.05625205770903267,0.24375673391520974,-0.24201544320583343
1789911833820217000,4.334217041015625,0.01752860589530319,0.26354104631543157,-0.2606470784395933
1789911833830225200,4.34422509765625,0.027772973066568372,0.1685048013150692,-0.2704272986978292
1789911833840232200,4.354232177734375,0.01929855644358322,0.020889643293619156,-0.2819920642852783
1789911833850240300,4.364240234375,0.03027240693317726,-0.03833703717887401,-0.14266191952824592
1789911833860248000,4.374248046875,0.13809210912836714,-0.11921440844535827,0.07827215720415115
1789911833870255000,4.384255126953125,0.23698736764444037,-0.19485387905836105,0.2736141120404005
1789911833880263200,4.39426318359375,0.3712286465635523,-0.223534030097723,0.45746085939407344
1789911833890271200,4.404271240234375,0.5158393986046313,-0.21803251007199287,0.6421896502792834
1789911833900278000,4.414278076171875,0.6223685130000114,-0.1664046141654253,0.8167553590685128
1789911833910286000,4.4242861328125,0.6487222669184207,-0.1559866805255413,0.8869599451512098
1789911833920293000,4.434293212890625,0.608191519087553,-0.08235445808172226,0.8093944749116897
1789911833930301200,4.44430126953125,0.5414204145848751,0.004636427628993987,0.7559832027196883
1789911833940309200,4.454309326171875,0.519027380990982,0.08408464287519454,0.7628595182299613
1789911833950316300,4.46431640625,0.4232173020739108,0.07898410486578941,0.7223480596214532
1789911833960324400,4.474324462890625,0.27765487533118577,0.031741876697540285,0.6402022758543491
1789911833970332200,4.484332275390625,0.07753101998064667,-0.018927987831830976,0.5922346560209989
1789911833980339200,4.494339111328125,-0.07875610479619354,-0.033469723403453826,0.5547486827135085
1789911833990347300,4.50434716796875,-0.22108371433615684,-0.05585808082222938,0.5623065507471561
1789911834000354300,4.514354248046875,-0.3066530793437734,-0.1415606802880764,0.5781394951730966
1789911834010362000,4.524362060546875,-0.23373627516031265,-0.03958089976012707,0.598351677596569
1789911834020370200,4.5343701171875,-0.2440168461561203,0.07447393396496772,0.5867430728673935
1789911834030377200,4.544377197265625,-0.21147183638215064,0.1638508380293846,0.5631500158339738
1789911834040385300,4.55438525390625,-0.1783867283821106,0.144884856274724,0.5537047266185283
1789911834050393000,4.56439306640625,-0.16282207950353622,0.056654784157872194,0.46240766814649104
1789911834060400000,4.574400146484375,-0.12189853296279907,-0.009164718708395957,0.3357277461260557
1789911834070408200,4.584408203125,-0.13494506154060362,-0.12327508201301098,0.3119248457342386
1789911834080415200,4.594415283203125,-0.12342059143092482,-0.24575989043116567,0.296608618658781
1789911834090423000,4.604423095703125,-0.11046524826791136,-0.34781858141422267,0.196603353074193
1789911834100431000,4.61443115234375,-0.14885668251514433,-0.4915326403439045,0.1729272939324379
1789911834110438100,4.624438232421875,-0.1970294695317745,-0.5709843627214432,0.06259878725409507
1789911834120446200,4.6344462890625,-0.15645773210339248,-0.6367974358469247,-0.06711304980814456
1789911834130454000,4.6444541015625,-0.15636187051348388,-0.4319517396062612,-0.15307809960246085
1789911834140461300,4.65446142578125,0.07996259450912475,-0.7028507474690675,0.07064414654374122
1789911834150469000,4.66446923828125,0.3715291273474693,-0.8040121973514557,0.11117489437460899
1789911834160476200,4.67447607421875,0.5425473727881908,-0.75711775970757,0.10523322936594486
1789911834170484000,4.68448388671875,0.8524841865103692,-0.6570557954996824,0.008994038316607474
1789911834180492300,4.6944921875,1.207570786166191,-0.5260802221119404,-0.14138240111172198
1789911834190499000,4.7044990234375,1.269777943754196,-0.38537119021713734,-0.35355858637094495
1789911834200507100,4.714507080078125,1.222129911264032,-0.17408289370834826,-0.47103404219448564
1789911834210515200,4.72451513671875,1.136607490670681,0.0019569792866706848,-0.567515809828043
1789911834220522200,4.734522216796875,0.87506083304286,0.27717618843615055,-0.6544821456193923
1789911834230530300,4.7445302734375,0.39016587714776396,0.537350973188877,-0.8550538178026675
1789911834240537000,4.754537109375,-0.23291809064522384,0.7709890486717224,-1.0754717617064713
1789911834250545200,4.764545166015625,-0.7079167986869812,1.1282020658969878,-1.2664309714138506
1789911834260553200,4.77455322265625,-0.6939256827354431,1.4567881235748528,-1.3957155229747296
1789911834270560300,4.784560302734375,-0.5160007266461849,1.607099681073427,-1.3830594550192354
1789911834280568000,4.794568115234375,-0.2827004317503422,1.5902666196942328,-1.1781102984040974
1789911834290576100,4.804576171875,0.0422680199522525,1.3490402810394764,-0.7958493491619825
1789911834300583200,4.814583251953125,0.3456033165175468,1.0749982989758253,-0.3814081318050623
1789911834310591200,4.82459130859375,0.6478150889456272,0.8829203143715858,-0.03806991067528724
1789911834320598000,4.834597900390625,0.9298772958576679,0.7157242575675249,0.17450550303459167
1789911834330606300,4.8446064453125,1.3674877918779849,0.5524854139566421,0.2938122659385204
1789911834340614100,4.8546142578125,1.656418130993843,0.49807460933327674,0.2939011132657528
1789911834350621200,4.86462109375,1.7274258501529693,0.5724585269272328,0.20114625720083712
1789911834360629000,4.87462890625,1.6039876865327358,0.7402946352005004,0.20148644894063472
1789911834370637000,4.884636962890625,1.251460196775198,0.958443465128541,0.18917641794383525
1789911834380644000,4.89464404296875,0.8584989898204803,1.0400684398919344,-0.015363573348522185
1789911834390652200,4.904652099609375,0.5638765765428543,1.1166717871010303,-0.2683160056322813
1789911834400659200,4.9146591796875,0.35816688388399776,1.1936065582215785,-0.3415513377130031
1789911834410667300,4.924667236328125,0.39789698285646735,1.1973235329180956,-0.3217740395754575
1789911834420675300,4.93467529296875,0.5556874979335814,1.1483452747374772,-0.39522915188670155
1789911834430682000,4.94468212890625,0.6497848546486348,1.1417577130407095,-0.41461423583626744
1789911834440690200,4.954690185546875,0.7413678904552012,1.1801543714523315,-0.3612339433044195
1789911834450698200,4.9646982421875,0.8583819393120705,1.0734013851732016,-0.30808453691899773
1789911834460705300,4.974705322265625,0.8852375052727758,1.0067091911256312,-0.3194423817574978
1789911834470713000,4.984713134765625,0.9025906450033188,0.923726372012496,-0.2736035906463861
1789911834480720400,4.994720458984375,0.9348504080951213,0.7661316717684269,-0.21386253091096877
1789911834490728200,5.004728271484375,0.9378396530389785,0.627494185450673,-0.19479542686939239
1789911834500736300,5.014736328125,1.0630069054741411,0.4166390196621418,-0.18656126700937747
1789911834510743000,5.024742919921875,1.0801859307467936,0.30536417204439636,-0.23072891003787516
1789911834520751400,5.03475146484375,1.2295429639995097,0.19887129800617695,-0.2218254726141691
1789911834530759200,5.04475927734375,1.2820913357518613,0.13837854312062262,-0.22309446963667867
1789911834540766200,5.05476611328125,1.3299100486338138,0.17997253626883028,-0.22698972350955007
1789911834550774000,5.06477392578125,1.3873274877272546,0.1103162317186594,-0.3169330292850733
1789911834560781300,5.07478125,1.424184077090025,0.01691664800941944,-0.5531354022979736
1789911834570789000,5.0847890625,1.3162835282109677,-0.04636836794316768,-0.8043652485728263
1789911834580797200,5.094797119140625,1.3228772273875773,-0.13811550827026367,-1.0095862078666686
1789911834590804500,5.104804443359375,1.4043452580235898,-0.1963414872676134,-1.1624568021982908
1789911834600812500,5.1148125,1.523545784074068,-0.2348141335248947,-1.3455606222301721
1789911834610820600,5.124820556640625,1.6701380287885665,-0.26374913610816,-1.4952987637549637
1789911834620827400,5.134827392578125,1.9156990356467662,-0.33234862508177754,-1.6630507008761166
1789911834630835500,5.14483544921875,2.182562650513649,-0.4262152417808771,-1.9225854341596365
1789911834640842500,5.154842529296875,2.4859368177846073,-0.46947979848980903,-2.203465153288841
1789911834650850600,5.1648505859375,2.8601965391397473,-0.49923663884997366,-2.667482594719529
1789911834660858400,5.1748583984375,3.243247761976719,-0.5286842671304941,-3.1590883002996444
1789911834670865400,5.184865478515625,3.553653435319662,-0.47660628936886784,-3.556969427999854
1789911834680873500,5.19487353515625,3.5526188315749168,-0.3600023556828499,-3.9525925476402044
1789911834690881500,5.204881591796875,3.1131881343901155,-0.24836101284027098,-4.2961335978657
1789911834700888300,5.214888427734375,2.2564986782096326,-0.015303367593884468,-4.675147528010607
1789911834710896400,5.224896484375,1.2976385951042175,0.025395138019323346,-5.10403520387113
1789911834720903400,5.2349033203125,0.7110404836654662,-0.18261106807887553,-5.338423805460334
1789911834730911500,5.244911376953125,0.48098085119128225,-0.36526889790892597,-5.220780591854453
1789911834740919600,5.25491943359375,0.41596674642376597,-0.30442426084578034,-4.731774839639663
1789911834750926600,5.264926513671875,0.48439212093949313,0.04738485150933265,-3.764064948993921
1789911834760934400,5.274934326171875,0.3029939357817173,0.5948012916386127,-2.3377555503129956
1789911834770941400,5.28494140625,0.0022901932964101432,1.2061924835503102,-0.8488017716705799
1789911834780949200,5.29494921875,-0.17040679901149122,1.6551707612812518,0.23208558534383772
1789911834790957600,5.30495751953125,-0.3523381046652794,2.0158055696487427,1.1403127749294042
1789911834800964400,5.31496435546875,-0.5089385331749916,2.289013438975811,1.9474346287339925
1789911834810972400,5.324972412109375,-0.7415326525628566,2.501682960709929,2.5715216360896824
1789911834820980500,5.33498046875,-1.0449556274116039,2.5817104371488093,3.0492391015708447
1789911834830987500,5.344987548828125,-1.1999310850679874,2.5115666413426396,3.438140219479799
1789911834840995600,5.35499560546875,-1.4792355177044867,2.3153145859241486,3.643281099274754
1789911834851002400,5.36500244140625,-2.0148025300860404,1.9349995100528001,3.6749306215137243
1789911834861010400,5.375010498046875,-2.5584511421144005,1.3195067280411719,3.471425233966112
1789911834871018500,5.3850185546875,-3.0602877343297004,0.6964058091133832,3.1740210810154674
1789911834881025500,5.395025634765625,-3.524145601284504,0.18265958339571953,2.927148845428228
1789911834891033300,5.405033447265625,-4.044739500939846,-0.28355039964318274,2.7622406073004004
1789911834901040600,5.41504052734375,-4.414382960671186,-0.7264303604990243,2.6779665793329475
1789911834911048400,5.42504833984375,-4.60352489182353,-1.1006114636600017,2.6578771465063094
1789911834921056500,5.435056396484375,-4.533365898448229,-1.395048583498597,2.4758728121489284
1789911834931063300,5.445063232421875,-3.930977512681484,-1.5090356126844882,2.216971116071939
1789911834941071600,5.455071533203125,-3.0288264281392094,-1.4442548052161932,1.90070210365355
1789911834951079400,5.465079345703125,-2.1020352617286147,-1.307699385869503,1.3640133937656878
1789911834961086500,5.47508642578125,-1.2750326494120061,-1.2600655280351638,0.9470371049731969
1789911834971094300,5.48509423828125,-0.36742826789990063,-1.5406389576941728,-0.06410393112003802
1789911834981101600,5.4951015625,0.6508090100646019,-1.7369985651403665,-1.2745406281113625
1789911834991109400,5.505109375,1.4266460832893848,-1.7991566228896378,-2.5613521242529154
1789911835001117400,5.515117431640625,1.7605623960793018,-1.841098406562209,-3.858251299166679
1789911835011124500,5.52512451171875,1.8365408893883228,-1.7527631205052137,-4.272415453147888
1789911835021132500,5.535132568359375,1.455374165123701,-1.1112053383886813,-3.1454303618252277
1789911835031140600,5.545140625,0.7695172225534915,-0.34992987447977064,-2.1011609631121155
1789911835041147400,5.5551474609375,-0.018485577826574444,0.36876024715602396,-1.208576163816452
1789911835051155500,5.565155517578125,-0.9669539577119052,0.8830909947633743,-0.3277361628502607
1789911835061162500,5.57516259765625,-1.9624774456955492,1.158450489166379,0.3832850315928459
1789911835071170600,5.585170654296875,-2.779547131410241,1.4481816232711076,1.089987778314948
1789911835081178400,5.595178466796875,-3.2613241014152763,1.907628688046336,2.106326383051276
1789911835091185700,5.605185546875,-2.7142817552953957,2.3018436944544316,3.117795920446515
1789911835101193500,5.615193359375,-1.6405629747360944,2.32394680519104,3.6893414241820572
1789911835111200500,5.625200439453125,-0.5168500369518995,2.190475907856226,3.5916958734661337
1789911835121208300,5.635208251953125,0.6069353815466165,1.8694144004642963,3.3210417802751064
1789911835131216600,5.645216552734375,1.6161159312218427,1.4629402164638041,2.8363731804817913
1789911835141223400,5.655223388671875,2.2429449307620524,1.2514537670344112,2.438579146543145
1789911835151231500,5.6652314453125,2.5995976837560533,1.0645967319488525,2.27888835080266
1789911835161239300,5.6752392578125,2.4995976788684726,1.1455635350644588,2.1018962916493416
1789911835171246600,5.68524658203125,2.4588690703779457,1.299006376326084,1.9117951600760221
1789911835181254400,5.69525439453125,2.4545725422278046,1.4417296706527472,1.8026853815376758
1789911835191261400,5.705261474609375,2.2425848652780056,1.5950865871965885,1.6187638153821229
1789911835201269500,5.71526953125,2.063697055505961,1.6667700136601924,1.3043781324923038
1789911835211277600,5.725277587890625,1.9118769931405781,1.5679232704609631,0.9764578452467918
1789911835221284400,5.735284423828125,1.7113642115376888,1.3784592677474021,0.5261965419679879
1789911835231292400,5.74529248046875,1.3734659895047545,1.124195752865076,0.04983984344601631
1789911835241299500,5.755299560546875,1.1300532467216253,0.8138426864922046,-0.41819092527925966
1789911835251307500,5.7653076171875,0.9090371907941996,0.3835942436724901,-1.0475205094635487
1789911835261315600,5.775315673828125,0.7043387940697372,-0.09757423904538154,-1.7769915528327225
1789911835271322400,5.785322265625,0.5284484125480056,-0.6302957988679408,-2.480902038487792
1789911835281330700,5.79533056640625,0.41656215503364796,-1.0390122088372706,-3.0844425168991085
1789911835291338500,5.80533837890625,0.5108182094417512,-1.2304781990230083,-3.6044776136279104
1789911835301345500,5.815345458984375,0.8495153267674148,-1.0652344453305005,-3.8448043730944392
1789911835311353300,5.825353271484375,1.3720049770414828,-0.4827309097290039,-3.6505969752460716
1789911835321360600,5.835360595703125,1.9537267146155237,0.5067348856508731,-2.9068741191625596
1789911835331368400,5.845368408203125,2.4196537890598178,1.790342032793164,-1.4974310996085405
1789911835341376500,5.85537646484375,2.8657988891914483,2.8892841019362208,0.12191840670704841
1789911835351383600,5.865383544921875,3.2910911709085107,2.7626059334814546,1.0077461329579354
1789911835361391600,5.8753916015625,3.765547881028056,1.7303069585472344,0.48939913544654845
1789911835371398400,5.8853984375,3.769498079958558,0.6933113502293825,-1.1908955456972121
1789911835381406500,5.895406494140625,2.8194629622131586,-0.05082125569880008,-2.3479928666889665
1789911835391414500,5.90541455078125,1.5530024724438785,-0.850358937984705,-2.378764437049627
1789911835401421600,5.915421630859375,0.4889069680154323,-1.7069716756671667,-1.7826432949841022
1789911835411429400,5.925429443359375,-0.4309856710530817,-2.045637813332677,-1.0047720855832099
1789911835421437400,5.9354375,-1.1521715550273657,-2.3671423883169886,-0.20358605156838894
1789911835431444500,5.945444580078125,-1.7357846593059598,-2.528475690567493,0.15707973645925521
1789911835441452500,5.95545263671875,-2.117240575775504,-2.196499990451336,0.16729776361286638
1789911835451459300,5.965459228515625,-2.419820670059323,-1.583699516263604,0.3409738300859928
1789911835461467400,5.97546728515625,-2.491414664673805,-0.8772107045531272,1.0179998159468173
1789911835471475500,5.985475341796875,-2.3958215164430436,-0.05645195506215095,1.7458645931631325
1789911835481482500,5.995482421875,-2.342249354600906,0.5825760163158178,2.2369395528674123
1789911835491490300,6.005490234375,-2.322445168456435,0.9300269334614276,2.5734219167530537
1789911835501497600,6.01549755859375,-2.3802111287266015,1.1865385195314884,2.7724352535784242
1789911835511505400,6.02550537109375,-2.5127508826911447,1.2021955228686332,2.795170816999674
1789911835521513500,6.035513427734375,-2.777279186478257,1.0728145251959562,2.576536833903193
1789911835531520300,6.045520263671875,-3.2280449321478604,0.8585609491407871,2.3017875803530217
1789911835541528600,6.055528564453125,-3.6770840001553293,0.6372849271029234,2.0227660563111303
1789911835551535400,6.065535400390625,-4.068299240225553,0.3302607128918171,1.704104595798254
1789911835561543400,6.07554345703125,-4.312030839699506,-0.0916980404883623,1.3063240058630705
1789911835571551500,6.085551513671875,-4.138419655156135,-0.504176433339715,0.7336527129679918
1789911835581558500,6.09555859375,-3.8874528437316416,-1.0885077688902616,0.22476795580685138
1789911835591566000,6.105566162109375,-3.3277707962691783,-1.5712579678416252,-0.3711041799336672
1789911835601574000,6.115573974609375,-2.556111885511875,-1.9964093797832727,-0.8806471087425947
1789911835611581200,6.125581298828125,-1.7326877162039278,-1.9027987836718558,-1.2993453990221022
1789911835621589000,6.135589111328125,-0.7117150219261645,-1.504998319992423,-1.5568109248161315
1789911835631596000,6.145595947265625,-0.2135691009223461,-1.0835878481447696,-1.6353221514731644
1789911835641603800,6.155603759765625,-0.2062801129579544,-0.5420037674307823,-1.4317039512008427
1789911835651612200,6.165612060546875,-0.267779414537549,0.10689970127344131,-0.8762894980549811
1789911835661619000,6.175618896484375,-0.5461871905952692,0.6341074661105871,-0.10812369011044502
1789911835671627000,6.185626953125,-0.8525181618452071,0.9951841730266809,0.40045828471183775
1789911835681634000,6.195634033203125,-0.8792951096117496,1.2224521289557218,0.6933247942328453
1789911835691642000,6.20564208984375,-0.9090169517237693,1.3304238433748483,1.0310907681882382
1789911835701650000,6.21564990234375,-0.8496247784912586,1.290944065901637,1.3241302961885928
1789911835711657000,6.225656982421875,-0.7445646406698971,1.1865005256086587,1.6094938827335834
1789911835721665000,6.2356650390625,-0.663744479483366,1.0843132398098707,1.7176877154707908
1789911835731673000,6.245673095703125,-0.6042933426052332,1.0656915414482355,1.6191934389710425
1789911835741679900,6.255679931640625,-0.4967226832676679,1.0110416673719882,1.4508715930074452
1789911835751688000,6.26568798828125,-0.26610870484635235,0.9633996262311935,1.1116484059810638
1789911835761695000,6.275695068359375,0.10635858013406395,0.9302274244695902,0.8053495834350586
1789911835771703000,6.285703125,1.0364812290549277,0.8340390868246554,0.6385393110781907
1789911835781710800,6.2957109375,2.276467261135578,0.7825432928651571,0.5529635528624057
1789911835791718000,6.3057177734375,3.227062935373187,0.9899988793432712,0.6112012222975493
1789911835801726000,6.315725830078125,3.688398005852103,1.3232213646501303,0.6303063202619552
1789911835811733000,6.32573291015625,3.332614729169011,1.6361311297684906,0.46617082007229327
1789911835821740800,6.33574072265625,2.3339397914171216,1.8852490984559058,0.13804711920917034
1789911835831748900,6.345748779296875,1.5776735339723527,1.8820459185004232,-0.37335342016518114
1789911835841756000,6.355755859375,1.1154324545644223,1.807080986148119,-0.8408908524155616
1789911835851764000,6.365763916015625,0.7486182269096374,1.685159656831622,-1.1943933246850966
1789911835861770800,6.375770751953125,0.6077258012719452,1.4918027383327483,-1.4380167876094578
1789911835871779000,6.385779052734375,0.6223597451716661,1.1456687490046025,-1.421293031823635
1789911835881787100,6.395787109375,0.5460503394078463,0.8290782495468855,-1.3449457052022218
1789911835891794000,6.4057939453125,0.5945253973066806,0.44344928517639637,-1.2535732434064148
1789911835901802000,6.415802001953125,0.7567296371728182,0.012760112851858138,-1.2693266928553582
1789911835911809000,6.42580908203125,0.9576198007207364,-0.41070203082859513,-1.3360574653476476
1789911835921817000,6.435817138671875,1.0433937849223613,-0.76114628457129,-1.2978612979441881
1789911835931825000,6.445824951171875,1.201079524450749,-1.0050830512285231,-1.4375760581046342
1789911835941832200,6.455832275390625,1.6000141067266462,-1.2378577878803014,-1.7865122453719378
1789911835951840000,6.465840087890625,1.9102339021086692,-1.180032206377387,-1.916968763321638
1789911835961848000,6.47584814453125,2.3662422246068715,-0.8952624940723181,-2.054283476603031
1789911835971854800,6.485854736328125,3.0097715990573164,-0.6153156718790531,-2.043352332744002
1789911835981863000,6.49586279296875,3.001649082878232,-0.22094868977963922,-1.8705775990247726
1789911835991870000,6.505869873046875,2.67359786272943,0.07928279555141925,-1.9863240390986203
1789911836001878000,6.5158779296875,2.263953231999278,-0.055929392492771145,-2.1463947740674016
1789911836011885800,6.5258857421875,1.8369371952295301,-0.45887247975766654,-2.138119697675109
1789911836021893000,6.53589306640625,1.3760202040322125,-0.9212661193788051,-2.1089199066758155
1789911836031901000,6.54590087890625,1.0211544075202197,-1.2341145096987485,-2.5365204653352498
1789911836041908000,6.555907958984375,0.34211730103269217,-1.3562649715960025,-3.2119559671342373
1789911836051915800,6.565915771484375,-0.7202326749026775,-1.1233096176803112,-3.576683597773313
1789911836061924000,6.575924072265625,-1.6672931607514618,-0.5462082333832979,-3.0662106946378946
1789911836071931000,6.585930908203125,-2.16680160228014,0.22618483686745167,-1.9597516739934682
1789911836081939000,6.59593896484375,-2.4370412694513797,1.0155956774145365,-0.7343611534982919
1789911836091946000,6.605946044921875,-2.6150153253793715,1.6641963637799024,0.37459085300564765
1789911836101954000,6.6159541015625,-2.6763462846547363,2.129920609128475,1.3366706288099288
1789911836111962000,6.625962158203125,-2.676841374695301,2.2781208735615013,2.204818905985355
1789911836121969000,6.635968994140625,-2.573682613515854,2.0646821210205553,2.9397224957972763
1789911836131977000,6.64597705078125,-2.3629941825963554,1.4090245018810033,3.1935797679662703
1789911836141984000,6.65598388671875,-2.1111784992575644,0.36303134811520577,3.0605080990821123
1789911836151992000,6.665991943359375,-1.9624946890912949,-0.658265171289444,2.6622540464162827
1789911836162000000,6.675999755859375,-2.066131735306978,-1.6642986551105976,2.233553417560458
1789911836172007200,6.686007080078125,-2.0403841305881736,-2.618665664580464,1.5112527042120694
1789911836182015000,6.696014892578125,-1.8719250681109725,-3.6916789272189137,0.2727852600008249
1789911836192023000,6.70602294921875,-1.4841275275297463,-4.793898410597444,-1.2342355057299137
1789911836202029800,6.71602978515625,-0.5985701426528394,-5.415027152669429,-2.271330482769012
1789911836212038100,6.7260380859375,1.0973691207379102,-5.556586663913727,-2.959212793686986
1789911836222045000,6.736044921875,2.3075402986608444,-4.952229608422518,-2.8006664918065067
1789911836232053000,6.746052978515625,2.616801039752364,-3.728710142496228,-2.2034686604201794
1789911836242060800,6.756060791015625,2.1558733810305593,-2.3494477416723965,-1.5526806931436061
1789911836252068000,6.766068115234375,1.0811641281291842,-0.9186275875687598,-0.8774860143631696
1789911836262076000,6.776075927734375,-0.36867724504768845,0.49871115367114544,-0.14615034616589545
1789911836272083000,6.7860830078125,-1.778113542599976,1.6424030496448276,0.4893295773416757
1789911836282091000,6.796091064453125,-2.85502527398169,2.4356793334484097,1.176509292948246
1789911836292099000,6.80609912109375,-3.3825592020332813,3.0439252130717036,1.7747984267026184
1789911836302105900,6.81610595703125,-3.5500866827487942,3.4584868419378996,2.2722581190079447
1789911836312114000,6.826114013671875,-3.524330310201645,3.6442917376220225,2.579015791237354
1789911836322121000,6.836120849609375,-3.1510894105002283,3.55164326454103,2.6988316727072
1789911836332129000,6.84612890625,-2.4668404876485464,3.306707549974322,2.6511019532829523
1789911836342136800,6.85613671875,-1.9103233339577912,2.936985179787874,2.5607664333194493
1789911836352144100,6.86614404296875,-1.7120614000216126,2.4985101758927106,2.751745516771078
1789911836362152000,6.87615185546875,-1.3878133715480565,2.0497744747459885,2.984049128779769
1789911836372160000,6.886159912109375,-0.868600404857099,1.581000778698921,3.1142835284113883
1789911836382166800,6.896166748046875,-0.3871203719720244,1.2923890040129422,3.210478295797109
1789911836392174800,6.9061748046875,0.302798705470562,1.15835521209836,3.436736197900772
1789911836402182000,6.916181884765625,0.9385837494045496,1.0151876811355351,3.514042140421271
1789911836412190000,6.92618994140625,1.3903127871483563,0.8283353222250938,3.3667619134426117
1789911836422198000,6.936197998046875,1.629468749269843,0.6503104128926992,3.1123218729496
1789911836432205000,6.946205078125,1.6736027822896837,0.5229126979917288,2.571794607812166
1789911836442213000,6.956213134765625,1.6375734375312923,0.36204642873108384,2.290044535589218
1789911836452220000,6.966219970703125,1.6579934174865483,0.3717120826989412,2.0050743322759867
1789911836462228000,6.97622802734375,1.746783169312775,0.47224517154991624,1.622170993477106
1789911836472236000,6.986236083984375,1.6400611626937984,0.5993541326373815,1.0328677147328853
1789911836482243000,6.9962431640625,1.565256681600213,0.5606348181426525,0.29833003562390803
1789911836492251000,7.0062509765625,1.5204247294440865,0.3956266267716884,-0.48238779537975784
1789911836502258200,7.016258056640625,1.368231888243556,0.14082418270707128,-1.4289093520462512
1789911836512266000,7.026265869140625,1.1506710873365402,-0.2863882534176111,-2.3252438592642544
1789911836522274000,7.036274169921875,1.1620625421836972,-0.8431243105560541,-3.1138392917752262
1789911836532280800,7.04628076171875,1.1514254128351806,-1.11141284365952,-3.720306471288204
1789911836542289000,7.056288818359375,1.122562014183402,-1.2406342668563126,-3.965527432537079
1789911836552297000,7.066296875,1.0903840841561556,-1.1817705744773148,-3.803798993489146
1789911836562304000,7.076303955078125,1.1992495325446129,-0.904388049814105,-3.3699469732195135
1789911836572311800,7.086311767578125,1.2643407211363316,-0.3952110317081213,-2.5721178484171627
1789911836582319000,7.096319091796875,1.9238997316285966,0.3260112387537956,-1.2087854226529597
1789911836592327400,7.106327392578125,3.1705297317683696,1.0874468616604804,0.7551882529497146
1789911836602335500,7.11633544921875,4.0588986669346685,1.1913596560776234,1.9508084890812634
1789911836612342300,7.12634228515625,4.269682521052658,0.4930477210819721,2.2038217116415497
1789911836622350300,7.136350341796875,3.342636941489577,-0.3214198193103075,1.3190069618254898
1789911836632357400,7.146357421875,1.6241858404308556,-1.0627800379157066,0.16373627173900604
1789911836642365400,7.156365478515625,0.23884558099806308,-1.687127157512307,-0.36064416071772576
1789911836652373200,7.166373291015625,-0.5626785989299417,-2.6006080298423764,-0.47196577008664603
1789911836662380500,7.176380615234375,-0.9845765620335936,-3.529426172035932,-0.1297001466244459
1789911836672388400,7.186388427734375,-1.1970064297929406,-4.111892298236489,0.36075288178920745
1789911836682395400,7.1963955078125,-1.7113208107873796,-4.405010152170062,1.089174708366394
1789911836692403200,7.2064033203125,-2.39170166003406,-4.07787312425673,1.6498118645966051
1789911836702411500,7.21641162109375,-2.7398788456276058,-3.6186417480587956,2.18213185788095
1789911836712418300,7.226418212890625,-2.663034383139014,-3.0467858631998297,2.3386551295012232
1789911836722426400,7.23642626953125,-2.41590963409543,-2.0964725130349398,1.821711569046974
1789911836732434400,7.246434326171875,-2.2796327394291755,-0.9956862773299217,1.5599907238960264
1789911836742441500,7.25644140625,-2.346958555205166,0.09982815545201301,1.6262684919238088
1789911836752449500,7.266449462890625,-2.820034916882217,1.0303811586141585,1.7440777097463607
1789911836762456300,7.276456298828125,-3.299743848441541,1.6519196505308151,1.7717776175767181
1789911836772464600,7.286464599609375,-3.504061136893928,1.8224720320254564,1.6000807422220706
1789911836782472400,7.296472412109375,-3.592435878178477,1.5798060159564018,1.328548112630844
1789911836792479500,7.3064794921875,-3.531094397509098,0.7799784108132124,0.8821241955578326
1789911836802487300,7.3164873046875,-3.183050482906401,-0.37147125968039035,-0.02153729354739189
1789911836812495400,7.326495361328125,-2.5443144802123308,-1.8273598040670156,-0.8764268606990575
1789911836822502400,7.33650244140625,-1.6807054539017379,-3.007404285404086,-1.3595628440976142
1789911836832510500,7.346510498046875,-0.8006646404892206,-3.6697114255607124,-1.5094628981858491
1789911836842517200,7.356517333984375,-0.03900777604728937,-3.5153263350129125,-1.6130711566984652
1789911836852525600,7.366525634765625,0.5908734506703913,-2.7427064702689647,-1.5959703842937945
1789911836862533400,7.376533447265625,0.6534691691845655,-1.710473546308279,-1.1334569176852702
1789911836872540400,7.38654052734375,0.11290683273375034,-0.7101023260325193,-0.6336462783396244
1789911836882548200,7.39654833984375,-0.23815993682146072,0.1356435651987791,0.05003332019150257
1789911836892556500,7.406556640625,-0.41093569345399733,0.8446019818931817,0.8400684301167726
1789911836902563300,7.416563232421875,-0.7956511962413787,1.2821055104076862,1.6161586013197897
1789911836912571400,7.4265712890625,-1.2495359507143498,1.6773913609176874,2.266911497282982
1789911836922578400,7.436578369140625,-1.5613970835626125,2.003609520420432,2.5481740782499314
1789911836932586500,7.44658642578125,-1.6297488813854752,2.2231664635807276,2.3723522319197654
1789911836942594600,7.456594482421875,-1.4862491958588362,2.2735849836975333,2.0226234329700468
1789911836952601300,7.466601318359375,-1.2615857233397663,2.041917916026711,1.747670765802264
1789911836962609400,7.476609375,-0.9342220470637083,1.5103613083302974,1.5176491272509096
1789911836972616400,7.486616455078125,-0.6004512802243233,0.8349754908919333,1.0635118593215942
1789911836982624500,7.49662451171875,-0.2742074017584324,0.17433131551146505,0.33564766662716866
1789911836992632300,7.50663232421875,-0.07056348252296447,-0.31831074737906456,-0.35995150227844713
1789911837002639600,7.5166396484375,-0.0167658413618803,-0.467336941242218,-0.8160112627029419
1789911837012647400,7.5266474609375,0.020673370194435117,-0.2264624847650528,-1.0470230813354253
1789911837022655500,7.536655517578125,-0.03818681505322456,0.398479093593359,-0.9079425274252891
1789911837032662300,7.546662353515625,-0.16088965013623235,1.1985247254014015,-0.5744511620491742
1789911837042670600,7.556670654296875,-0.3308914120107889,2.0331021568864585,-0.2629746446043253
1789911837052677400,7.566677490234375,-0.37028365733101964,2.619002933710813,0.009570961421728134
1789911837062685400,7.576685546875,-0.04572144834175706,2.9192870260119435,0.3173725897461176
1789911837072693200,7.586693359375,0.46904199159443377,2.9169466003656384,0.5434066199660301
1789911837082700500,7.596700439453125,0.8499281453520059,2.328569788816571,0.4941366853624582
1789911837092708400,7.606708251953125,1.2538831861384212,1.5825018309116363,0.3833978443175554
1789911837102716400,7.61671630859375,1.4254226789742708,0.8027654121607541,0.09917465997934341
1789911837112723500,7.626723388671875,1.2764724729567765,0.014812369206547736,-0.14250117600858211
1789911837122731500,7.6367314453125,0.9270067088574171,-0.6410299588501454,-0.5185112481623888
1789911837132738300,7.64673828125,0.4655418745189905,-1.145495730525255,-0.6810299608051776
1789911837142746400,7.656746337890625,-0.0011047463715076445,-1.4251912083059548,-0.7584265042185783
1789911837152754400,7.66675439453125,-0.32254341651275753,-1.5969032812297344,-0.5369453149974346
1789911837162761500,7.676761474609375,-0.35211131017208097,-1.7402713032007215,-0.38880467179715633
1789911837172769500,7.68676953125,-0.2423778467774391,-1.7004150936305522,-0.26014029796123506
1789911837182777300,7.69677734375,0.015504370058700442,-1.5763193428844213,0.045849312505126
1789911837192784600,7.70678466796875,0.3110088268678635,-1.4335153845369815,0.3356137643575668
1789911837202792400,7.71679248046875,0.5500454734586179,-1.3383727565526962,0.6655401307284832
1789911837212799500,7.726799560546875,0.6311882907282561,-1.3577695309400557,0.887865954080224
1789911837222807300,7.736807373046875,0.5597272017784416,-1.6844447865605354,0.7602145566791295
1789911837232815600,7.746815673828125,0.41455278797261413,-2.3213158721655605,0.4866232409924268
1789911837242822400,7.756822509765625,0.29033728330433367,-3.1253549575239417,0.2760012994378805
1789911837252830500,7.76683056640625,0.214309690156579,-4.05627679399848,-0.2257119586586952
1789911837262838300,7.77683837890625,0.16460677096322177,-4.929640759995579,-1.0848539225578306
1789911837272845600,7.786845458984375,0.28883498898260296,-5.273272995635867,-2.2731109364449975
1789911837282853400,7.796853271484375,0.39166999810039993,-4.7479725257247685,-3.7651176729172464
1789911837292860400,7.8068603515625,0.11494389151930809,-3.3969776034861803,-4.513994843024015
1789911837302868500,7.816868408203125,-0.8135346434563397,-1.7794687566012144,-4.119262534743547
1789911837312876500,7.82687646484375,-2.615769943138957,-0.5371954903662205,-3.4180250676900146
1789911837322883300,7.83688330078125,-4.560412895327806,0.5471522362351418,-2.3811773434102532
1789911837332891400,7.846891357421875,-5.806855556201935,1.487569630807638,-0.9598866496741771
1789911837342899200,7.856899169921875,-5.808585156473517,2.1909183909267185,0.3409977954834699
1789911837352906500,7.866906494140625,-4.4412125154078,2.1965227868050334,1.4827829810529947
1789911837362914300,7.876914306640625,-2.5893863786041735,0.9480459897547959,1.9992372966855763
1789911837372921300,7.88692138671875,-0.8295289159238338,-0.6384814434111118,0.9524456860184669
1789911837382929400,7.896929443359375,0.6071686057806015,-1.7570435743033885,-0.38639468804597854
1789911837392937500,7.9069375,1.4104716319493948,-2.406552023163438,-0.8456289868533611
1789911837402944300,7.9169443359375,1.5156535695195197,-2.58284674770236,-0.6000397768139839
1789911837412952300,7.926952392578125,1.3003040149211882,-2.6292384965211153,-0.03514730122685432
1789911837422960600,7.936960693359375,0.6420883818618953,-2.471500588414073,0.7106050148576497
1789911837432967400,7.946967529296875,0.3290530906677246,-1.8015093234956263,1.3631582382410763
1789911837442975500,7.9569755859375,0.08772957524880766,-0.4740203645288944,1.2165420281291008
1789911837452982500,7.966982421875,-0.03446355674639344,0.8019406517744064,1.1111714361190794
1789911837462990600,7.976990478515625,0.04963628369793296,1.8407132066369056,1.0449661488056183
1789911837472998400,7.986998291015625,0.14582535199522972,2.516366735100746,0.8673340381830931
1789911837483005400,7.99700537109375,0.13216975160837172,2.772733944264054,0.8606874397754669
1789911837493013500,8.007013427734375,0.006649521017074584,2.7901135336101053,0.7952864545822144
1789911837503021600,8.017021484375,0.0786877522677183,2.8341742091327906,0.9981552977919578
1789911837513028400,8.0270283203125,0.19075696513354778,2.756937240195274,1.3092381397441029
1789911837523036400,8.037036376953125,0.4912426809540018,2.7068425452053546,1.455678116506338
1789911837533043500,8.04704345703125,0.6323714360982179,2.7961002068042755,1.6402145996898412
1789911837543051500,8.057051513671874,0.7661234884619712,2.8612767355918884,1.6224819591224193
1789911837553059300,8.067059326171876,0.8074135302275419,2.9084231021702287,1.640380603906512
1789911837563066400,8.07706640625,0.6258055017113685,2.9058061976701017,1.7023948692709208
1789911837573074400,8.087074462890625,0.40726445759534835,2.8193045567810535,1.6524577029302716
1789911837583082500,8.09708251953125,0.1025122799694538,2.5919138512551783,1.7070371421188115
1789911837593089500,8.107089599609376,-0.08278468445884063,2.209372331506014,1.8440800527215002
1789911837603097600,8.11709765625,0.05655481264842674,1.75978205935657,1.8078057932913303
1789911837613104600,8.127104736328125,0.5412883126378059,1.2498054153054952,1.684117162041366
1789911837623112700,8.13711279296875,1.1272948879241942,0.7304483639687299,1.4996899844512344
1789911837633120800,8.147120849609376,1.653335362547636,0.28441490751802917,1.3695645981520415
1789911837643127600,8.15712744140625,1.8762158971726892,0.1299532446026802,1.1661536108896136
1789911837653136000,8.167135986328125,1.9721978985905646,0.12599661593139172,0.9605193946197629
1789911837663143700,8.177143798828125,1.9003548976510762,0.14161620986759663,0.663684858250618
1789911837673150700,8.187150634765626,1.8821891263633965,0.14285714983940123,0.5773492215782403
1789911837683158500,8.197158447265625,2.1608190207391975,0.07102934646904469,0.5493956312477588
1789911837693165800,8.207165771484375,2.4113082777798174,-0.07815817543566227,0.35719197443723677
1789911837703173600,8.217173583984374,2.5897908677518364,-0.383102076241374,0.144097797550261
1789911837713181700,8.227181640625,2.454842299079895,-0.46456806105077264,0.031178105334937572
1789911837723188700,8.237188720703125,2.0814988157868384,-0.32610476225614543,-0.022154548662900925
1789911837733196800,8.24719677734375,1.8256945012032986,-0.08771803094148635,-0.07697656443566084
1789911837743204600,8.25720458984375,1.6450795753777026,0.17528817784488201,-0.33476123918145895
1789911837753211600,8.267211669921876,1.4008300895094872,0.3764256672173738,-0.5981166997969151
1789911837763219700,8.2772197265625,1.1475871498465537,0.4462234260648489,-0.7115633384957909
1789911837773227800,8.287227783203125,0.9500422050733118,0.4084247335463762,-0.7935778970986604
1789911837783234600,8.297234619140625,0.8554735045194626,0.37672085077166556,-0.8129743792250752
1789911837793242600,8.30724267578125,0.9625626639503985,0.35641806745529175,-0.603045972892642
1789911837803249700,8.317249755859375,1.1290847670156507,0.44801147852540013,-0.26434739426225423
1789911837813257700,8.3272578125,1.4548831667363642,0.4084779250383377,0.17393500967025755
1789911837823265800,8.337265869140625,1.8944389516055582,0.08557575821578502,0.3975219389989972
1789911837833272600,8.3472724609375,2.269011099910736,-0.2897282114952803,0.4257461629644036
1789911837843281000,8.357281005859376,2.326030041205883,-0.5772036756277084,0.24503128389567136
1789911837853288700,8.367288818359375,2.0014532191693784,-1.0080389784246682,0.3581654956445098
1789911837863295700,8.377295654296875,2.02916423291564,-1.838847412765026,0.6530509437724947
1789911837873303600,8.387303466796874,2.2995161282896994,-3.306825038874149,0.5690811594486236
1789911837883310800,8.397310791015625,1.9726563098825514,-5.4174248614609235,0.023747370812296865
1789911837893318700,8.407318603515625,0.6788989401258528,-7.829658437392115,-0.6227174725681544
1789911837903326700,8.41732666015625,-0.804101044678688,-10.183533347856997,-2.5271353818744418
1789911837913333800,8.427333740234374,-1.4978899492919444,-11.099025560009478,-5.072524213320016
1789911837923341800,8.437341796875,-2.2254899380922315,-8.282205805781484,-4.603118356849253
1789911837933349600,8.447349609375,-1.793207797487825,-1.9736551116615533,-0.9031953328981995
1789911837943356700,8.457356689453125,-0.590720159804821,1.436319336041808,1.5768617791980504
1789911837953364700,8.46736474609375,0.351744303490594,2.0766624816715717,2.6837349336013196
1789911837963372800,8.477372802734376,0.3376455624461174,2.1372405767530203,3.514759056518972
1789911837973379600,8.487379638671875,-0.4606920233350247,2.0992180123507977,4.180049888661504
1789911837983387600,8.4973876953125,-1.6485950361527502,2.1812749487906693,4.498573694269359
1789911837993394700,8.507394775390624,-2.540733114594221,2.3701462463080882,4.45625372493416
1789911838003402800,8.51740283203125,-3.2463363756418224,2.551525726765394,4.1119641944289205
1789911838013410600,8.52741064453125,-3.887283332383632,2.6654747620284556,3.513820314364135
1789911838023417600,8.53741748046875,-4.051086239618063,2.46152806045413,2.806750780156255
1789911838033425700,8.54742578125,-3.5865924128472804,1.786442687267065,1.8192881412923334
1789911838043433700,8.557433837890626,-2.5248762047708033,0.681145111617446,1.0339821057155727
1789911838053440500,8.5674404296875,-1.2168738904319703,-0.7112269461482763,0.37254064247757196
1789911838063448600,8.577448486328125,-0.19291575060263275,-2.1674884155005216,-0.3526636833578348
1789911838073455600,8.58745556640625,0.3045804743207991,-3.4214135410845277,-0.700182989564538
1789911838083463700,8.597463623046876,0.20636428411006927,-3.974935312351584,-0.6790688898652791
1789911838093471700,8.6074716796875,-0.11886954053044319,-3.6056694537609815,-0.29310674801766873
1789911838103478800,8.617478759765625,-0.4282366646058857,-2.534735335484147,0.18710954854190348
1789911838113486800,8.62748681640625,-0.6306171397767961,-1.574229092606902,0.6739338650643825
1789911838123494700,8.63749462890625,-0.7862626056492328,-0.952438087233901,1.1093152868583798
1789911838133501700,8.647501708984375,-1.1356819002583622,-0.40861937933564185,1.2338956062510609
1789911838143509500,8.657509521484375,-1.6197499038100243,0.008639233529567717,1.2989160676941274
1789911838153516800,8.667516845703124,-1.972655140838772,0.3423854504495859,1.1851909043148159
1789911838163524600,8.677524658203126,-2.0404593877814707,0.6104974579423665,0.8313567158728837
1789911838173532700,8.68753271484375,-2.111940423540771,0.7815805853128432,0.5184095413535833
1789911838183539700,8.697539794921875,-2.001596719293296,0.9239742092937231,0.09097206430137157
1789911838193547800,8.7075478515625,-1.8631646924197673,1.06221422072649,-0.2829161933928728
1789911838203555600,8.7175556640625,-1.5742473589159547,1.206317571234703,-0.5858797340363264
1789911838213562600,8.727562744140625,-1.0823020461179316,1.3461357917696237,-0.8174743209928274
1789911838223570700,8.73757080078125,-0.6505040357686579,1.4879337879449128,-1.116562481507659
1789911838233578800,8.747578857421875,-0.44518005449175835,1.5890543212950228,-1.2657652009814977
1789911838243585500,8.75758544921875,-0.31496962025761605,1.7392857992947102,-1.4097270971924065
1789911838253593600,8.767593505859375,-0.21805486803427337,1.880265464824438,-1.3425322143197058
1789911838263600600,8.7776005859375,-0.228797065192461,1.873202686831355,-1.2990297572016716
1789911838273608700,8.787608642578125,-0.2804385512329638,1.7384890959590673,-1.3730577009648084
1789911838283616800,8.79761669921875,-0.2246061893738806,1.593390304672718,-1.3444634746432305
1789911838293623800,8.807623779296875,-0.34711730127707124,1.4055080181926487,-1.1088701734393835
1789911838303632000,8.8176318359375,-0.36497780600786206,1.402907480305433,-0.5692313815742731
1789911838313639700,8.8276396484375,-0.7122608192406594,1.2939140216231346,0.111243867957592
1789911838323646700,8.837646728515624,-0.7685691280484199,1.202063420921564,0.6188946994096041
1789911838333654500,8.847654541015626,-0.7298175187192857,1.238310207822919,0.7277706691920757
1789911838343662800,8.857662841796875,-0.5647977830410004,1.2285194661706684,0.9210849175930023
1789911838353669600,8.867669677734375,-0.18912081529907881,1.2618290305763482,1.2168483175992966
1789911838363677700,8.877677734375,0.2539652625881135,1.2238602421879767,1.3949942229628562
1789911838373684700,8.887684814453126,0.7259468878310174,1.0130559298038482,1.2972633320510387
1789911838383692800,8.89769287109375,1.300196462893486,0.6929185515195131,1.0444763194620608
1789911838393700600,8.90770068359375,2.0622493409156797,0.01547229442000389,0.6707108113646507
1789911838403707600,8.917707763671874,3.2527614402532574,-0.8920353487193584,0.3758849844694137
1789911838413715700,8.9277158203125,4.144720801126956,-1.5988462319910526,0.29795886422395707
1789911838423723800,8.937723876953125,4.6688113107264035,-2.173563936021924,0.11896131046712398
1789911838433730600,8.94773046875,4.704404017633199,-2.6139772145032882,0.07227730070352553
1789911838443738600,8.957738525390624,4.141668427819013,-2.899340216526389,0.06225976455807686
1789911838453745700,8.96774560546875,3.5405005237579346,-3.030716771930456,0.1487368555277586
1789911838463753700,8.977753662109375,2.858371661800146,-3.1298253809362646,0.42731648102104663
1789911838473761800,8.98776171875,2.309599130886793,-3.1744056964188814,0.6584194850683212
1789911838483768600,8.9977685546875,2.0917840629577635,-3.231410024666786,0.7341285137861967
1789911838493777000,9.00777685546875,1.4822411292612552,-3.125407564494014,0.7117711360275745
1789911838503784700,9.01778466796875,0.7137362986207008,-2.605150933969021,0.5748188263177871
1789911838513791500,9.02779150390625,-0.12201784849353134,-1.984392778775096,0.23117665380537508
1789911838523799600,9.037799560546874,-1.0050175847768783,-1.4383289222985505,0.21808044086694717
1789911838533807900,9.047807861328126,-1.6251006171882152,-1.0982973414987325,0.2828384519815445
1789911838543814700,9.057814697265625,-1.7492390380322933,-0.9603525136202573,0.37190614396631716
1789911838553822700,9.06782275390625,-1.7407130556188524,-1.0935609606266021,0.545613190099597
1789911838563830500,9.07783056640625,-1.5838906549215317,-1.4065063815802334,0.5462473963499069
1789911838573837800,9.087837890625,-1.4510907887160778,-1.8032880236059425,0.4535474853426218
1789911838583845600,9.097845703125,-1.6633341939926147,-2.187168683004379,0.002530395260453224
1789911838593852200,9.10785205078125,-2.3253297839820384,-2.321758939757943,-0.7001601932108402
1789911838603860200,9.117860107421874,-2.989612023603916,-2.0014251621186734,-1.1526274821013212
1789911838613868000,9.127867919921876,-3.3707658883869644,-1.1549053639054299,-0.7008329779058694
1789911838623875000,9.137875,-3.6647652013301846,-0.06765782420933246,0.08738660703003406
1789911838633883000,9.1478828125,-3.95426018859148,0.9819412450939417,0.9675497316479682
1789911838643891200,9.15789111328125,-4.0938229730606075,1.84740013705492,1.8190414730548858
1789911838653898000,9.16789794921875,-3.8155572358220815,2.218507239598036,2.712418299511075
1789911838663906000,9.177906005859375,-3.105444972917437,1.8330472020536661,3.4385850406378506
1789911838673913000,9.1879130859375,-2.4839123262196776,0.8326888412594795,3.8424686236232515
1789911838683921200,9.197921142578124,-2.03455410926044,-0.12205109317600726,4.131404807958007
1789911838693929200,9.20792919921875,-1.5350433296442032,-1.13608726618886,4.368784408056736
1789911838703936000,9.21793603515625,-0.8122089478105307,-2.169826503059268,4.437858528804779
1789911838713944300,9.2279443359375,0.35443485774882133,-3.275325154238939,4.327458710455894
1789911838723952000,9.2379521484375,2.0116338369220492,-4.460140503239631,3.8089971466541286
1789911838733959200,9.247959228515626,3.765273740261793,-5.668718420621753,2.6499282333284615
1789911838743967000,9.257967041015625,5.235891067224741,-6.496015631970763,1.2591425679713486
1789911838753975000,9.26797509765625,5.974306464549898,-6.180867732536792,0.166718502420187
1789911838763982000,9.277982177734375,5.603422064846754,-4.774465980374813,-0.17305355066061018
1789911838773990100,9.287990234375,4.520459070602059,-3.045626171770692,-0.3500286586791277
1789911838783997200,9.2979970703125,3.080079645514488,-1.3472171572655438,-0.20498422792851922
1789911838794005200,9.308005126953125,1.0263478114448488,0.03614391104876995,0.15586276188492773
1789911838804013000,9.318012939453125,-0.8740088397718966,1.133846793785691,0.6283890884637833
1789911838814020000,9.32802001953125,-2.5469635334163905,1.771785800883174,1.2140244923502206
1789911838824028000,9.33802783203125,-3.8406472534149882,2.2692203587472437,1.8755904587507246
1789911838834036200,9.3480361328125,-4.4379444535225625,2.841665441671014,2.4310528426915408
1789911838844043000,9.35804296875,-4.453380507585406,3.2205104449898,2.701604644551873
1789911838854051000,9.368051025390624,-4.263240797567367,3.553071251517534,2.546240479838848
1789911838864059100,9.37805908203125,-4.275049308782815,3.84543682577908,2.1689713475346566
1789911838874066200,9.388066162109375,-3.8475159701406954,3.940592897766828,1.836355595949292
1789911838884074200,9.39807421875,-3.158382197856903,3.867598973226547,1.8192665139824151
1789911838894081000,9.4080810546875,-2.386179681742191,3.6714492091387507,1.7885896361678837
1789911838904089000,9.418089111328126,-1.6419557442687451,3.345488823789358,1.8581196839898824
1789911838914097200,9.42809716796875,-0.9033037617087364,3.006577771452069,2.112255773100257
1789911838924104200,9.438104248046875,0.09203881675004959,2.752997562658787,2.5881775873363018
1789911838934112000,9.448112060546874,1.1305752247691154,2.3824212059915064,3.052246466693282
1789911838944120000,9.4581201171875,2.3054075244158505,1.7830547983944416,3.3580765026837587
1789911838954127000,9.468127197265625,3.6851983330279587,0.9752660051137209,3.4474861399739978
1789911838964135200,9.47813525390625,5.1810325188338755,-0.10366378809213637,3.196573104563355
1789911838974143000,9.48814306640625,6.388543099245429,-1.4954554156213997,2.592231831163168
1789911838984150300,9.498150390625,6.710054103970527,-3.020442046153545,1.8588667029649018
1789911838994158000,9.508157958984375,6.331766150012612,-4.289673461940884,0.7202098785489797
1789911839004165000,9.5181650390625,5.86712151659429,-4.959382402786612,-0.9395084630340337
1789911839014173000,9.5281728515625,5.283964485520124,-5.052498493379354,-2.380385316249728
1789911839024181200,9.53818115234375,4.577856782081723,-4.610836676141619,-3.228877291318774
1789911839034188000,9.54818798828125,3.8848844545483585,-3.7506893345922228,-3.4499709425270555
1789911839044196000,9.558196044921875,3.3357202939689157,-2.8510096085995436,-3.08527896772325
1789911839054204000,9.568203857421874,2.457806994104385,-2.3006179520517587,-2.1611013448119163
1789911839064211200,9.578211181640626,1.5494025482557714,-1.7912720071196555,-1.4355834229826927
1789911839074219000,9.588218994140625,1.1365605827890335,-1.0884387953072785,-1.0578004959374665
1789911839084227000,9.59822705078125,0.996432565652579,-0.3443669796556234,-0.3736906892955303
1789911839094234000,9.608234130859374,1.071219218828529,0.3465326332569122,0.7619710449576378
1789911839104242200,9.6182421875,1.61267075920403,0.29562369927465915,1.9266402625083923
1789911839114249000,9.6282490234375,2.600961665585637,-0.549223781812191,2.2735160101145504
1789911839124257000,9.638257080078125,3.5324884822160003,-1.2666139267653227,1.6869933019995689
1789911839134265000,9.64826513671875,3.811632171332836,-1.8169027074605226,0.9341466437399387
1789911839144272100,9.658272216796876,3.1586312041819093,-2.1137229230433703,0.7999731510937214
1789911839154280200,9.6682802734375,1.9449715996213257,-1.9179840778440236,1.237211306670308
1789911839164288000,9.6782880859375,0.8092681451182812,-1.5154799665182828,1.5078712450802325
1789911839174295300,9.68829541015625,0.06894435688853263,-1.480987914329767,1.6447206789374351
1789911839184303000,9.69830322265625,-0.9446404921602457,-1.6204373015522955,1.0950099903911352
1789911839194311200,9.708311279296876,-1.7340566664695738,-1.899575729972124,0.45259822179377074
1789911839204318000,9.71831787109375,-1.961367292496562,-1.8767817143619059,0.2415811434417963
1789911839214326000,9.728325927734375,-2.036846019589901,-1.6199036330670118,0.4925748428732156
1789911839224333000,9.7383330078125,-2.137011444172263,-1.2889941008776427,1.0290127928704023
1789911839234341000,9.748341064453125,-2.3777847783625123,-0.9704320090860128,1.6466373262137173
1789911839244349000,9.758348876953125,-3.013001082497835,-0.8023504016190767,2.0947394056320188
1789911839254356200,9.768356201171875,-3.6221710912287235,-0.6346329512894153,2.179309786197543
1789911839264364000,9.778364013671874,-3.9340579430401323,-0.6573088934779167,2.0206676227271556
1789911839274372000,9.7883720703125,-3.955388900360465,-0.8064549143284558,1.8327777374625205
1789911839284379000,9.79837890625,-3.8408781395614144,-0.8932505697280168,1.4541057526230812
1789911839294387200,9.80838720703125,-3.5793244676709173,-0.9992717346012592,0.988289152815938
1789911839304395300,9.818395263671874,-3.2064965326845645,-1.1402695203095674,0.5553320355594158
1789911839314402000,9.828402099609375,-2.7348399746775627,-1.2048656188607214,0.1523351722806692
1789911839324410000,9.83841015625,-2.289175936061144,-1.2136889767855406,-0.3017693624228239
1789911839334418200,9.848418212890625,-1.8525135345458983,-1.0891963356763124,-0.5749883376657963
1789911839344425200,9.85842529296875,-1.7170482485234737,-0.7932815445005893,-0.6451292108625173
1789911839354433000,9.86843310546875,-1.7482991268336772,-0.3760942433059215,-0.6227443605750799
1789911839364440300,9.8784404296875,-1.875638389545679,0.20504501820504664,-0.5543260733872651
1789911839374448000,9.8884482421875,-2.207055871257186,0.7783388269126414,-0.5734042833447456
1789911839384456200,9.898456298828124,-2.5591654278635976,1.1816034012168646,-0.6304577114313841
1789911839394463000,9.908462890625,-2.698546426025033,1.4187088605493305,-0.423100909152627
1789911839404471000,9.918470947265625,-2.718079978534579,1.544538303220272,-0.1646826126784086
1789911839414479000,9.92847900390625,-2.673683787447214,1.6634113508820534,0.18153730136752128
1789911839424486100,9.938486083984374,-2.540079034599662,1.6870669517576693,0.4068570458382368
1789911839434494000,9.948493896484376,-2.392540887337178,1.5696353350758552,0.7294476624935865
1789911839444502000,9.958501953125,-2.132425285425782,1.426792798283696,1.1853156997382641
1789911839454509000,9.968509033203125,-1.7374170828133821,1.3019120346397162,1.5394564699113369
1789911839464517000,9.97851708984375,-0.9957974826194346,1.0406897866606712,1.7864765895366668
1789911839474524000,9.98852392578125,-0.19009192535355687,0.7223954058945179,1.935637223434448
1789911839484532200,9.9985322265625,1.2266063260257243,0.4097188650101423,2.194078316262364
1789911839494540300,10.008540283203125,2.3945471125930546,0.1857972968995571,2.411346271702647
1789911839504547000,10.018547119140624,3.509937627711892,0.0741957015454769,2.5883973675668237
1789911839514555100,10.02855517578125,4.386626646478474,-0.03854629601538181,2.597979434904456
1789911839524563200,10.038563232421875,3.39787309102118,-0.037412908071279526,2.755465998598933
1789911839534570000,10.048570068359375,2.136381621836126,0.017444471275806426,2.374303365987539
1789911839544578000,10.058578125,1.749917229554802,0.07853402301073074,1.5971996338278054
1789911839554586000,10.068586181640624,1.4834348690904675,0.29739830773174764,0.9535101003795862
1789911839564593200,10.07859326171875,1.3846604604750872,0.5100526318967342,0.4892249479234218
1789911839574601200,10.088601318359375,1.2580362141646444,0.6365835008352995,0.13762217179536818
1789911839584608000,10.09860791015625,1.1220504113994538,0.6551888325840234,-0.2454144379943609
1789911839594616000,10.108615966796876,0.9989607689559459,0.5227572151690721,-0.6698030488699674
1789911839604624100,10.1186240234375,0.6201281867273152,0.4072404921978712,-0.8849497743725776
1789911839614631000,10.128630859375,0.33732422153726216,0.3560410508364439,-1.0177940642416476
1789911839624639000,10.138638916015625,0.34238179718777534,0.21689035429954528,-1.117927340120077
1789911839634647000,10.14864697265625,0.6136217274427413,-0.03520809150338173,-1.046971643409133
1789911839644654000,10.158654052734375,0.9996458286106585,-0.4361830935657024,-0.8450386197447777
1789911839654662100,10.168662109375,1.2930613503165542,-0.7710808186084032,-0.6678308720141649
1789911839664670000,10.178669921875,1.892747929778695,-1.1092027663946151,-0.8175222517877817
1789911839674677200,10.18867724609375,2.560055070179701,-1.4696300694912672,-1.0963555597811936
1789911839684685000,10.19868505859375,3.148752784246206,-1.652289068365097,-1.3487830914080141
1789911839694692000,10.208692138671875,3.5763346382051706,-1.6668687978595493,-1.509679171285033
1789911839704700000,10.218699951171875,3.781245216375589,-1.4888444730490444,-1.56293086900115
1789911839714708000,10.2287080078125,3.760079094228148,-1.175938799583912,-1.5012579644203186
1789911839724715000,10.238715087890625,3.390396471530199,-0.9219704682558775,-1.72845051702559
1789911839734723000,10.24872314453125,2.6041929025918242,-0.6162386319428682,-2.02120012216866
1789911839744731000,10.25873095703125,1.8703104725211859,-0.5373094721347094,-2.4360721321582792
1789911839754738200,10.26873828125,1.2682587713629005,-0.7008066744208336,-2.9192256512135266
1789911839764746000,10.27874609375,0.73880351985991,-0.9615472763627767,-2.9780402437537905
1789911839774754000,10.288754150390625,0.42820656172856686,-1.2370242596656083,-2.6285516833007336
1789911839784760800,10.2987607421875,0.27543913551047444,-1.3764783230632542,-2.3598101457327605
1789911839794769200,10.30876904296875,-0.03858428993821144,-1.2599234892159699,-2.247501863414049
1789911839804776000,10.31877587890625,-0.5665408273160457,-0.7959194917887449,-1.89339148837924
1789911839814784000,10.328783935546875,-0.9751783268302678,-0.1405062027990818,-1.26548112334311
1789911839824792000,10.3387919921875,-1.3823289487875998,0.5390267974466085,-0.5676502498626709
1789911839834799000,10.348799072265624,-1.9243349081754684,1.1733727484881877,0.10136603254377842
1789911839844807200,10.35880712890625,-2.6202920967385173,1.7006927415281534,0.6866419554680585
1789911839854815000,10.36881494140625,-3.0253932388201354,1.9839362671792506,1.2452192565590143
1789911839864822300,10.378822265625,-3.461294885095954,2.1327917806506154,1.7061907544225454
1789911839874830000,10.388830078125,-3.868595583048463,2.161739642715454,2.0415666183710095
1789911839884838100,10.398838134765626,-4.050682042731345,1.9289239895313977,2.3025369374155997
1789911839894845000,10.408844970703125,-4.016000313189625,1.4164689726680517,2.398293897905946
1789911839904853000,10.41885302734375,-3.7573239503011107,0.7023620871692895,2.313660973498225
1789911839914860000,10.428860107421874,-3.600024725872278,-0.07865735712945461,2.221065691909194
1789911839924868000,10.4388681640625,-3.4446284124553204,-0.9162526751309633,2.0733394747287033
1789911839934876000,10.4488759765625,-3.0474931346863507,-1.7544634946823119,1.7900930264681576
1789911839944883200,10.45888330078125,-2.440948944414407,-2.537976509362459,1.4082745602965354
1789911839954891000,10.46889111328125,-1.6655074463784694,-3.154525522428751,0.9927075537800788
1789911839964899000,10.478899169921876,-0.5799649570345878,-3.8616818581372496,0.4978910694599151
1789911839974905900,10.48890576171875,1.3797729806944727,-4.486118994104862,-0.3712479723185301
1789911839984914200,10.4989140625,4.0356273892015215,-4.921636317238211,-2.903116227933764
1789911839994922200,10.508922119140625,5.598936443865299,-4.466721050673723,-3.9305771151870488
1789911840004929000,10.518928955078126,4.971798816767334,-2.3105226754724977,-2.2600825280457735
1789911840014937000,10.52893701171875,3.6977632155686613,-0.3148872026711702,-1.118695986405015
1789911840024944000,10.538944091796875,2.0742843543633818,0.9972329222500323,-0.14814999555051325
1789911840034952200,10.5489521484375,0.33080753311961886,1.8348241485983132,0.4245768269240856
1789911840044960000,10.5589599609375,-1.168064412946999,2.5393577345877882,1.0856395199775695
1789911840054967000,10.568967041015625,-2.1821689750209448,2.96386734149456,1.5914233885139226
1789911840064975000,10.57897509765625,-2.6794217465773222,3.273366421386599,1.7806804704785346
1789911840074983200,10.588983154296875,-2.9200206009835004,3.480537345704436,1.836652533069253
1789911840084990000,10.598989990234376,-3.049780368840694,3.4779385613828895,1.7834189555317161
1789911840094998000,10.608998046875,-3.0359789302423597,3.341072760912776,1.9107646479845046
1789911840105006000,10.619006103515625,-2.8993504456594583,3.076511723899841,2.0730355233460664
1789911840115013000,10.62901318359375,-2.5587729214146733,2.792732776197791,2.1385680259644984
1789911840125021000,10.63902099609375,-1.9742676906019447,2.3955191724956033,2.38178057000041
1789911840135028200,10.6490283203125,-1.062874145939946,1.9714017797768115,2.7188907103955744
1789911840145036000,10.6590361328125,-0.3338631212979555,1.7453431996375321,3.4749791270554065
1789911840155044000,10.669044189453125,0.5730377881199121,1.5669570557773111,4.072582616633176
1789911840165051000,10.67905078125,1.5157456317171454,1.3839122724562882,4.0863428464382885
1789911840175059200,10.68905908203125,2.3654607188403607,1.140827738714218,3.6554707187622784
1789911840185067000,10.69906689453125,2.986273819091916,1.0019751483410597,2.9470792883008716
1789911840195074000,10.709073974609375,3.2149691774755715,1.0951064365029335,2.092902253332734
1789911840205081900,10.719081787109374,3.148368461103737,1.2274696648567913,1.3496756563335657
1789911840215089200,10.729089111328125,3.186752552294731,1.1662135243833065,0.6383329748511314
1789911840225097000,10.739096923828125,3.0490894639670847,1.0515116249263285,-0.05947451775372028
1789911840235105000,10.74910498046875,2.759013169686496,0.7614221789032221,-0.9475304414480924
1789911840245112000,10.759112060546874,2.2625199843257664,0.1966682350039482,-2.0986212155014274
1789911840255120100,10.7691201171875,1.6236159315884113,-0.4348679193139076,-3.3826895504146814
1789911840265128200,10.779128173828125,1.0835752809241412,-0.9173743726372718,-4.436739169386029
1789911840275135000,10.789135009765625,0.6059688746020198,-1.1240016915977,-4.868237904527783
1789911840285143000,10.79914306640625,0.018419746048748492,-1.1336211683362722,-4.268444795951247
1789911840295150000,10.809150146484376,-0.2638043734267354,-0.9596423195242881,-3.1461686129719015
1789911840305158100,10.819158203125,0.20179186162799595,-0.5931722291320563,-2.1983301284879446
1789911840315166000,10.829166015625,1.1678273893207312,-0.23448446317911148,-1.3172323533684014
1789911840325173200,10.83917333984375,2.2037556606680155,-0.12785598006248475,-0.18900398398637772
1789911840335181000,10.84918115234375,3.1555016739845274,-0.664468117582798,0.5410621026664972
1789911840345189000,10.859189208984375,3.781105223383009,-1.5590531507849692,0.5719418095767498
1789911840355196000,10.86919580078125,3.357995254141092,-2.361723870399594,-0.17870061663687228
1789911840365204000,10.879203857421874,2.109750804542005,-2.976255113902688,-1.3520669353842734
1789911840375212000,10.8892119140625,0.741725837047398,-3.5359435911059376,-2.0387328562498093
1789911840385219000,10.899218994140625,-0.5342743422225117,-4.155694030562043,-1.8272651115208862
1789911840395227000,10.909226806640625,-1.549377852205932,-4.423835264149308,-0.833762023448944
1789911840405234200,10.919234130859374,-2.3530239927239713,-4.081253998866677,0.4019499845743179
1789911840415242000,10.929241943359376,-2.865521533554792,-3.471684177163243,1.5540484743654728
1789911840425250000,10.93925,-3.0497558189213274,-2.6701182039201257,2.4800427913099528
1789911840435256800,10.9492568359375,-3.099407446318865,-1.941543817129731,3.138365245744586
1789911840445265200,10.95926513671875,-3.0741420721590518,-1.356901515933871,3.4133401247441766
1789911840455273200,10.969273193359374,-3.0279332786917683,-0.9528712179541587,3.3515473931759594
1789911840465280000,10.979280029296875,-2.85256385230422,-0.671198887142539,3.0169542040377855
1789911840475288000,10.9892880859375,-2.558103936111927,-0.43330724586844444,2.5113082826673985
1789911840485295000,10.999295166015624,-2.2540584454506636,-0.2843652231574058,1.9513579396575689
1789911840495303200,11.00930322265625,-1.9855928022146223,-0.2832382649540901,1.4316566049277781
1789911840505311000,11.01931103515625,-1.9078963990718125,-0.3683271164357662,1.1047691678613423
1789911840515318300,11.029318359375,-1.9811913523852824,-0.36541152125000953,0.9148094905853271
1789911840525326000,11.039326171875,-2.0676941623181104,-0.4148305089354515,0.6942068377643823
1789911840535334100,11.049334228515624,-2.1512952594600616,-0.5592717130959034,0.2964057895630598
1789911840545341000,11.0593408203125,-2.4152245744407175,-0.4394388804912567,-0.1496346811503172
1789911840555349000,11.069348876953125,-2.767786550989747,-0.08442074296176433,-0.5157593191057444
1789911840565357000,11.079357177734375,-2.860038718229532,0.05532791946828365,-1.120249645587802
1789911840575364000,11.089364013671876,-2.7026895171791314,0.31870588417649265,-1.6670885780900715
1789911840585372000,11.099371826171875,-2.5219945118546483,0.4608081239953637,-1.7714356722712516
1789911840595379500,11.10937939453125,-2.2177070291310548,0.5888683944582939,-1.5111293700933455
1789911840605387500,11.119387451171875,-1.787666091582179,0.48677872381508347,-0.9609510640352964
1789911840615395300,11.129395263671874,-0.8549006730675697,0.3668926997184753,-0.1021118824750185
1789911840625402400,11.13940234375,0.0374444722533226,0.2929579871967435,0.8486533031105995
1789911840635410400,11.149410400390625,0.6823074333950877,0.2367819264665246,1.4390256723910568
1789911840645417500,11.15941748046875,1.286802143791318,0.10244389090836048,1.6828689155459402
1789911840655425300,11.16942529296875,1.7584069716110824,-0.016856149993836878,1.8163439045339822
1789911840665433300,11.179433349609376,1.9361732300072907,0.0027142273947596547,1.8905045347660778
1789911840675440400,11.1894404296875,1.792687573006004,0.20615239492505788,1.895662940442562
1789911840685448400,11.199448486328125,1.4696651408046484,0.5134253232002258,1.7772177628040313
1789911840695456300,11.209456298828124,1.1079589038133622,0.8853066249862312,1.6527660382270812
1789911840705463300,11.21946337890625,0.8552792971216142,1.0991250244945288,1.395125155866146
1789911840715471400,11.229471435546875,0.7600367158941924,1.1521171944916249,1.057615202498436
1789911840725478400,11.239478515625,0.6745118110828101,1.0665098720937967,0.6907499753087759
1789911840735486200,11.249486328125,0.554187395568937,1.0235065966695547,0.4233429012149572
1789911840745494300,11.259494384765626,0.40912908242344853,1.0598813938647509,0.1332820967644453
1789911840755501300,11.269501220703125,0.19528730203956365,1.1524942111104726,-0.09197101221084594
1789911840765509400,11.27950927734375,0.1296865564905107,1.2556985649973154,-0.08266542372703552
1789911840775517400,11.289517333984374,0.1811217063039541,1.3577122477948664,-0.10033084427714348
1789911840785524500,11.2995244140625,0.43093160277828574,1.407555598372221,-0.2180091291964054
1789911840795532500,11.309532470703125,0.5378055850885808,1.5092717595279217,-0.41470951290428637
1789911840805540400,11.319540283203125,0.6306186010815202,1.7109873410493135,-0.6219079097509383
1789911840815547400,11.32954736328125,0.7557067238658666,1.729414393621683,-0.709272889471054
1789911840825555200,11.33955517578125,0.8274057862900197,1.622417077192664,-0.6348562386512756
1789911840835562200,11.349562255859375,0.8705952319361269,1.3852005587011575,-0.41464053932130335
1789911840845570300,11.3595703125,0.872145822378993,1.0124690698266028,-0.31718320465385913
1789911840855578400,11.369578369140624,0.9390082584269345,0.5839899747669697,-0.2856786438435316
1789911840865585400,11.37958544921875,1.1529898856729268,0.15640636724233625,-0.4155032936304807
1789911840875593500,11.389593505859375,1.381680567881465,-0.17549159146249294,-0.504021535038948
1789911840885600300,11.399600341796875,1.7915319732300936,-0.4890618663161993,-0.6520376750767231
1789911840895608300,11.4096083984375,2.3161931223243473,-0.6542530130386353,-1.0129121374189853
1789911840905616400,11.419616455078126,2.94676481552422,-0.6645633946508169,-1.5349994905024766
1789911840915623400,11.42962353515625,3.4784704763025043,-0.5865554413408041,-1.9083704463243483
1789911840925631200,11.43963134765625,3.622516543665528,-0.39784839447438713,-2.027619341561198
1789911840935639300,11.449639404296875,3.3376971469998358,-0.303367445269227,-2.198457554259896
1789911840945646300,11.459646240234376,2.719463541847467,-0.4306804044961929,-2.5270278298467397
1789911840955654400,11.469654296875,1.8361796548604965,-0.6633575259923935,-3.1545734532237053
1789911840965661200,11.4796611328125,1.0693974102288484,-1.0911486387878655,-3.666283204677701
1789911840975669500,11.48966943359375,0.5875356845498084,-1.708764988824725,-3.8200557162851094
1789911840985677300,11.49967724609375,0.4099778082072735,-2.3397014236837625,-3.6818905236542223
1789911840995684400,11.509684326171875,0.07458280116692186,-2.6231314118176696,-3.3195588482409715
1789911841005692200,11.519692138671875,-0.47984527129009363,-2.456671852594614,-2.738746334466338
1789911841015700200,11.5297001953125,-1.0143442160487175,-1.8975480235368012,-1.842474955612421
1789911841025707300,11.539707275390626,-1.5465173482082784,-1.0471715498954057,-0.720373544678092
1789911841035715300,11.54971533203125,-2.053073954682797,-0.26956746699810025,0.2538280460745096
1789911841045722400,11.559722412109375,-2.5060563534885643,0.289633518949151,1.1528946086049079
1789911841055730400,11.56973046875,-2.904436662882566,0.5857207440823317,1.9476064781695603
1789911841065738500,11.579738525390624,-3.286498874682188,0.6576560994803905,2.6707120781600473
1789911841075745300,11.589745361328125,-3.575900338441133,0.389773224568367,3.3036481624037024
1789911841085753300,11.59975341796875,-3.606244623300433,-0.1644955656737089,3.718201023441553
1789911841095761400,11.609761474609375,-3.402281555113196,-0.9042951108336448,3.8374955113857983
1789911841105768400,11.6197685546875,-3.2587656491041184,-1.672766623726487,3.612053601840138
1789911841115776300,11.6297763671875,-3.2473774091273544,-2.2674007421046496,3.1986049026519057
1789911841125783600,11.639783447265625,-2.9771266360402104,-2.6788977227032182,2.9290672462701797
1789911841135791400,11.649791259765625,-2.5333693078279493,-3.0895711119592186,3.0344992130786177
1789911841145799400,11.65979931640625,-2.1920009254664183,-3.6282507034033533,2.925558361366391
1789911841155806200,11.66980615234375,-1.6441080999970434,-3.9278830537974834,2.510660047891736
1789911841165814300,11.679814208984375,-0.5508803168475628,-3.826408300182223,1.9044459663569926
1789911841175822300,11.689822265625,1.113635049753636,-3.4047897385418415,1.150285302889347
1789911841185829400,11.699829345703124,2.702164032000303,-2.837339979687333,-0.04818798458576202
1789911841195837200,11.709837158203126,3.6635476422339677,-2.3951047464758157,-1.9332050278514623
1789911841205844500,11.719844482421875,3.65841495552063,-1.2672189069211481,-1.7604729642301797
1789911841215852300,11.729852294921875,2.463414312592149,0.16582126131951808,-0.7224713937401771
1789911841225860400,11.7398603515625,0.7498004224315286,1.2226824305802584,-0.2858388028413057
1789911841235867100,11.7498671875,-0.9957793624408543,2.1493495322197673,0.149159464854002
1789911841245875500,11.75987548828125,-2.3588838246680797,3.021469635635614,0.7584744350135326
1789911841255883500,11.769883544921875,-2.925408723762631,3.6688410724669693,1.3448895911008119
1789911841265890300,11.779890380859374,-3.1384371419370174,3.970347984561324,1.6795096682459114
1789911841275898400,11.7898984375,-2.9521286806449294,4.056850794494152,2.007201407432556
1789911841285905400,11.799905517578125,-2.7515760054230687,3.8822295561254023,2.2404811709970236
1789911841295913500,11.80991357421875,-2.0138927217647433,3.375006010174751,2.564863931766152
1789911841305921300,11.81992138671875,-1.1397148090362548,2.544125679641962,2.6245430321812626
1789911841315928600,11.829928466796876,-0.25007687684744595,1.6628911264002322,2.551410575953126
1789911841325936400,11.839936279296875,0.5871744500219822,0.8848895686179399,2.711071561077237
1789911841335944400,11.8499443359375,1.3003200892731546,0.3304857538193464,2.879537783947587
1789911841345951200,11.859951171875,1.9246312607735394,-0.16117840394973754,3.030698067229986
1789911841355959300,11.869959228515626,2.5642817479640243,-0.7083148580938577,3.0362329050034282
1789911841365966300,11.87996630859375,3.1442040349006652,-1.307535135218501,2.787435838833451
1789911841375974400,11.889974365234375,3.642051265218854,-1.7521160547733305,2.376398292440176
1789911841385982200,11.899982177734374,3.8282711714446545,-1.881767101559043,1.768954376849532
1789911841395989500,11.909989501953126,3.525786354228854,-1.601903865996003,1.0233867696821688
1789911841405997300,11.919997314453125,2.8968457693621517,-1.13908995513618,0.622492431640625
1789911841416005400,11.93000537109375,1.9063088376194237,-0.716257341530919,0.3778343649715185
1789911841426012200,11.94001220703125,0.8434025429755448,-0.32870179301202296,0.12158698279559611
1789911841436020500,11.9500205078125,-0.002528933955729008,0.006287117445468902,-0.2681155146241188
1789911841446027300,11.96002734375,-0.7939560827612876,0.299111541390419,-0.9040963733911513
1789911841456035300,11.970035400390625,-1.1594468067273498,0.4572673826485872,-1.8199223475426434
1789911841466043100,11.980043212890624,-0.81439213706851,0.5039964005976915,-2.725284210824966
1789911841476050400,11.990050537109376,-0.22517127591073513,0.3263122675269842,-2.8903958625704047
1789911841486058200,12.000058349609375,0.29936916941329833,-0.030731822872161862,-2.718250074404478
1789911841496066300,12.01006640625,1.1839587321713565,-0.2788385686904192,-2.6061598187506196
1789911841506073300,12.0200732421875,2.3031056772142646,-0.4495861804962158,-2.125597485232353
1789911841516081400,12.030081298828126,3.281890211842954,-0.44857612667083735,-1.2613619975864887
1789911841526088200,12.040088134765625,3.884244403079152,-0.1967892310351133,-0.018317162457108495
1789911841536096300,12.05009619140625,3.9888270595818756,0.04483925867974758,1.1215320866137741
1789911841546104300,12.060104248046875,3.5945386956766248,-0.4013374056339264,1.69294022770524
1789911841556111400,12.070111328125,2.9265219457015395,-1.3375707925200462,1.727370320573449
1789911841566119400,12.080119384765625,2.057750275930762,-2.232687740641832,1.2394681456863879
1789911841576127200,12.090127197265625,1.1200644982792436,-3.114555915611982,0.6625163989931344
1789911841586134500,12.100134521484375,0.6476987690895796,-3.94340620162189,0.13840309303998946
1789911841596142800,12.110142822265624,0.605529168010503,-4.344384126293659,-0.43081659809648987
1789911841606149600,12.120149658203125,0.8843393873892724,-4.222182226470113,-0.7074199550807475
1789911841616157700,12.13015771484375,0.9340659797191619,-3.823253051021695,-0.42256607162356374
1789911841626165500,12.14016552734375,0.35443814568445087,-3.5283518208026883,0.23002748377025126
1789911841636172800,12.1501728515625,-0.5076287657506764,-3.3353666582256554,1.0268921474546193
1789911841646180600,12.1601806640625,-1.427192026734352,-3.1211703653156757,1.9955811122655867
1789911841656187600,12.170187744140625,-2.214630690425634,-2.7698236097753046,2.621644972652197
1789911841666195700,12.18019580078125,-2.78257086314559,-2.3691765244930982,2.9079823726654053
1789911841676203800,12.190203857421874,-3.1807033352583645,-1.924551765796542,3.0100252815574406
1789911841686210600,12.20021044921875,-3.3345436514049767,-1.3819015171557665,2.7271108417302368
1789911841696218600,12.210218505859375,-3.381433412873745,-0.762780023252964,2.263411964729428
1789911841706227000,12.22022705078125,-3.380370167556405,-0.2128594913482666,1.851799833318591
1789911841716233700,12.230233642578124,-3.172444040957093,0.031958734318614006,1.5385966382116079
1789911841726241800,12.24024169921875,-2.933484478190541,0.12325754635632037,1.2141156777650117
1789911841736248800,12.250248779296875,-2.681009600290656,0.14847791233062743,0.7550333546489477
1789911841746257000,12.2602568359375,-2.4977251629948616,0.24713468591570853,0.24689853907227516
1789911841756264700,12.2702646484375,-2.5517542748242614,0.3801978792324662,-0.40203649381399154
1789911841766271700,12.280271728515626,-2.5327263337492942,0.3690954704597592,-1.1525988405287264
1789911841776279800,12.29027978515625,-2.57782979632318,0.3704612058550119,-1.7606950825482606
1789911841786287900,12.300287841796875,-2.2767156829386948,0.4240308834791183,-2.1612404610216616
1789911841796294700,12.310294677734374,-2.0156097548156975,0.33144115484803915,-2.3050544731944798
1789911841806302700,12.320302734375,-1.450164467651397,0.35160628325939175,-2.2480209188520908
1789911841816309800,12.330309814453125,-0.15447627596259117,0.4005731432631612,-1.6664923657625912
1789911841826317800,12.34031787109375,0.9653127663761377,0.3824459504202008,-0.6877262435734272
1789911841836325600,12.35032568359375,1.3174420505963265,0.3840329273506999,0.35047815601229665
1789911841846332700,12.360332763671876,1.5428917050570248,0.27246932591944933,1.0258750793665647
1789911841856340700,12.3703408203125,1.4441278178356587,0.19833616821616887,1.4656190802842377
1789911841866348800,12.380348876953125,1.135100593239069,0.1895905517026782,1.8363924208283424
1789911841876355600,12.39035546875,0.9076315617799758,0.04854863459169864,1.926594085279107
1789911841886363600,12.40036376953125,0.7068887708134949,-0.005661386762559413,1.9060943180859087
1789911841896370700,12.41037060546875,0.595796732416749,-0.010201660540699958,1.8326982424855232
1789911841906378800,12.420378662109375,0.591623684515804,-0.005723638343811035,1.8358511535584925
1789911841916386600,12.430386474609374,0.6657318539083004,-0.011194763231277466,1.882345193707943
1789911841926393900,12.440393798828126,0.745262925132364,-0.08322685700207948,1.9160598317831754
1789911841936401700,12.450401611328125,0.8374215688697993,-0.15363281087577343,1.8989736724257469
1789911841946408700,12.46040869140625,0.8940694848954677,-0.1752943153247237,1.6161019026964902
1789911841956416500,12.47041650390625,0.8007797913014888,-0.07974632140994072,1.395057935848832
1789911841966424600,12.480424560546876,0.53313072514534,0.16715630931556225,1.2973942649543284
1789911841976431600,12.490431640625,0.30798852919861675,0.4178837590262294,1.0857716219246387
1789911841986439700,12.500439697265625,0.252284908285737,0.6524348577007651,0.7747036852806806
1789911841996447700,12.51044775390625,0.346721433827281,0.8396762159287929,0.5863157873660325
1789911842006454800,12.520454833984376,0.4258211278967559,0.9474912784814834,0.3722749772787094
1789911842016462800,12.530462890625,0.43789866531193256,0.9874527019917965,0.152857734850049
1789911842026469600,12.5404697265625,0.4232470396250486,0.9886036255925893,0.02417465631365776
1789911842036477700,12.550477783203124,0.3084836192391813,0.9527864622801542,-0.16233984894454478
1789911842046485800,12.56048583984375,0.10801029286384582,0.9058914401143788,-0.2970686373859644
1789911842056492800,12.570492919921875,0.15218144302368164,0.7436801859855652,-0.47075814786255354
1789911842066500600,12.58050048828125,0.38238779049217697,0.49220834764838217,-0.7245230655729771
1789911842076508700,12.5905087890625,0.6786893890284001,0.21511282323300837,-0.9298895708173512
1789911842086515700,12.600515625,1.0562350001864134,0.007342179456353187,-1.0559469770252703
1789911842096523800,12.610523681640625,1.6006073964446783,-0.17643617883622645,-1.2411509842067956
