time,seconds_elapsed,z,y,x
1789757615621332700,0.049332763671875,0.2954781533241272,-0.05543664053976535,0.06732442753650247
1789757615631346400,0.059346435546875,0.46867958802282805,0.07981471047103404,-0.005015891933254898
1789757615641360600,0.069360595703125,0.4259633128464222,0.18644436263144015,-0.06108061950979754
1789757615651374600,0.07937451171875,0.03445230470001697,0.12900398105382918,-0.10360708033568225
1789757615661388500,0.089388427734375,-0.26434827104508873,-0.038324762219190595,-0.061597875716397535
1789757615671402800,0.09940283203125,-0.37226445588469503,-0.1599818876415491,0.0004588314170949161
1789757615681416400,0.10941650390625,-0.441021765768528,-0.19766835195720195,0.019414063448878003
1789757615691431400,0.119431396484375,-0.5144020592778921,-0.07293138069808483,-0.000700796079961583
1789757615701445600,0.129445556640625,-0.6109603992789984,0.10960896023213863,0.0065284245212096715
1789757615711459600,0.13945947265625,-0.6363467694699764,0.2356558450460434,0.039410694292373954
1789757615721473800,0.149473876953125,-0.4632008643507957,0.33775662160515785,0.1362902747376356
1789757615731487500,0.159487548828125,-0.12080196989774704,0.3768552908062935,0.26214933622870595
1789757615741501700,0.169501708984375,0.12000877369344234,0.3328174116373062,0.44611463192813094
1789757615751515600,0.179515625,0.0654424862474203,0.13677519957721232,0.6440669153932481
1789757615761530600,0.189530517578125,0.03264496301710605,-0.06139642572700977,0.8637083219666033
1789757615771544600,0.199544677734375,0.17335107230246066,-0.1777507685661316,1.023670993451029
1789757615781558500,0.20955859375,0.3801642692238092,-0.2031213566660881,1.0796750586152075
1789757615791572500,0.219572509765625,0.4743769228816032,-0.14531447986364363,1.1009594003148375
1789757615801586700,0.229586669921875,0.5382955605626106,-0.01995265470445156,0.9327582581214606
1789757615811600600,0.2396005859375,0.7866840459316968,0.21924247038364408,0.6829194278135895
1789757615821614600,0.249614501953125,1.187052314272523,0.36982758412659167,0.5623119575746357
1789757615831628500,0.259628662109375,1.4761235231637955,0.3430336852252483,0.5772182156097143
1789757615841643500,0.2696435546875,1.269638243022561,0.08885726410448551,0.8449781217291951
1789757615851657700,0.27965771484375,0.554026213657856,-0.2426139936208725,1.2294202144026756
1789757615861671700,0.289671630859375,-0.3687485567182302,-0.4966764329731464,1.506300050240755
1789757615871685600,0.299685546875,-1.0956558870792388,-0.8132458896428346,1.7759981578812003
1789757615881699600,0.309699462890625,-1.6050830805540084,-1.0997948865801095,1.931491501931846
1789757615891713500,0.319713623046875,-1.7563930014401674,-1.191574760133028,1.8749433930188417
1789757615901727700,0.329727783203125,-1.748154165405035,-1.0883230599731206,1.5949784506469964
1789757615911741400,0.339741455078125,-1.8439590566903352,-0.6980331180542707,1.2459433330498635
1789757615921756400,0.34975634765625,-2.2262527391582725,-1.0885188748061656,1.6462797449477016
1789757615931770600,0.3597705078125,-1.4745266093611715,-2.133195685276389,1.8935110231056809
1789757615941784600,0.36978466796875,0.6600111381739378,-1.1980933482468128,0.7380690681055188
1789757615951798800,0.379798828125,1.9090315405815839,-0.6243371827244758,0.29673662895262237
1789757615961812500,0.3898125,1.814714257505536,-0.7650561514914035,-0.2926259787634015
1789757615971826400,0.399826416015625,0.7760831569403409,-1.1785101113766432,-0.4115212382569909
1789757615981840600,0.409840576171875,0.9042933572679758,-1.480904327699542,0.17662790201604364
1789757615991854600,0.4198544921875,0.8244920908004045,-2.101798091971874,-0.19581600208878516
1789757616001869600,0.42986962890625,0.2569838797569275,-2.3506416276320814,-0.1895297614261508
1789757616011883500,0.439883544921875,-0.027656068688631057,-1.9589605236157774,0.013559446536004542
1789757616021897500,0.4498974609375,-1.0705085863411425,-1.4211542078748345,0.19940145936012266
1789757616031911700,0.45991162109375,-1.531509310299158,-0.9038742550730705,0.4563175345778465
1789757616041925600,0.469925537109375,-2.14166073128283,-0.5722276407808065,0.4419853501036763
1789757616051939600,0.479939697265625,-2.7481635666310784,-0.1712228281021118,0.041753275363147255
1789757616061953500,0.48995361328125,-2.633416658988595,0.6054582947313785,-0.6148620828926563
1789757616071967500,0.499967529296875,-2.5013877771556374,1.317292559123039,-1.0859271047472954
1789757616081982700,0.509982666015625,-2.6462708798646926,1.598669998641312,-1.362213358606398
1789757616091996700,0.51999658203125,-2.9696009167104958,2.9119392935976385,-3.3540076458096504
1789757616102010400,0.53001025390625,-2.356338085708022,4.8545194680377834,-5.50997279677689
1789757616112024600,0.540024658203125,-0.8472919516295194,5.658713159435987,-5.528672821071743
1789757616122038500,0.55003857421875,0.9209639215618372,0.6044165305934847,-0.07309153969585895
1789757616132052700,0.560052734375,2.2266507985651494,-1.2107596453353762,2.2424822816863657
1789757616142066400,0.57006640625,2.7153379863500593,0.5606802647195757,1.2078513566732405
1789757616152080600,0.58008056640625,2.769994290167093,0.5250314437113702,2.426052550186217
1789757616162095600,0.590095703125,2.686054608720541,0.6921557504534721,3.9556209555506703
1789757616172109600,0.600109619140625,1.8131880708515642,0.9678396545052528,4.580434815876186
1789757616182123800,0.610123779296875,1.1319091037213802,0.3886155789658427,5.128180634090304
1789757616192137500,0.620137451171875,2.30632171665132,-0.5858182131074369,5.589038734707236
1789757616202151400,0.6301513671875,2.5864263597548005,-1.0840570730917156,5.5378819634437555
1789757616212165600,0.64016552734375,1.5282552769392728,-1.1275954783059656,5.161805840316415
1789757616222179600,0.6501796875,0.7867319767266512,-0.5805271209619939,4.666168687263131
1789757616232194600,0.660194580078125,0.2530500474393368,0.17238149661794303,4.896254915483295
1789757616242208500,0.67020849609375,-0.2453969023376703,0.19065496606379748,4.844538756771385
1789757616252222500,0.680222412109375,-0.6692857469975948,-0.04741027821153402,4.1245226472288365
1789757616262236700,0.690236572265625,-1.0993477273344994,-0.23150924676060675,3.6324300349146124
1789757616272250600,0.700250732421875,-1.81392339938879,-0.26619857508689165,3.500411382214725
1789757616282264600,0.7102646484375,-2.320249704238772,-0.10022270772755146,3.4987627382248636
1789757616292278500,0.720278564453125,-2.9118039767801758,-0.2427382045224309,3.5123484882459044
1789757616302292500,0.73029248046875,-3.1943221107661723,0.24883213748335836,3.3891441333815453
1789757616312306700,0.740306640625,-2.905823148804903,-0.3154538966432214,3.6664942170798778
1789757616322321700,0.75032177734375,-2.668660990849137,-2.0264526358693837,3.825720317918062
1789757616332335400,0.76033544921875,-2.3638030147612095,-2.301405887559056,3.0031773153588173
1789757616342349600,0.770349609375,-2.0622522635251284,-1.8188745920553802,1.7716309025824069
1789757616352363500,0.780363525390625,-1.4594371767789125,-1.6511258698046207,1.0001778165955095
1789757616362377700,0.790377685546875,-0.9389555053263902,-2.896806898656487,0.4166952798940241
1789757616372391400,0.800391357421875,-0.2205184816688299,-3.3877652462437746,0.37159510525576767
1789757616382405600,0.810405517578125,-0.2829144398272037,-2.2037407553598283,-0.16196970045790074
1789757616392419600,0.820419677734375,-0.2551023037940264,-2.620508369837701,-0.8413376463349909
1789757616402434600,0.8304345703125,-0.7178069090604782,-2.679927650272846,-0.47699645773023364
1789757616412448800,0.84044873046875,-2.0963497634381056,-0.8435892977192997,-0.738365128442645
1789757616422462500,0.85046240234375,-2.79931741528511,-0.8983516922593117,-0.05650207781419157
1789757616432476400,0.860476318359375,-3.1394319981932637,-1.5430278986573218,0.6747207776583731
1789757616442490600,0.87049072265625,-2.600903797918558,-1.5308379869088529,0.6772066031247377
1789757616452504600,0.880504638671875,-2.3048457988798616,-1.206768822133541,0.40451282079964873
1789757616462518800,0.890518798828125,-2.462932666555047,-0.6292018661513924,0.017487141373753547
1789757616472532500,0.900532470703125,-1.4764578696846962,-0.9724690678715705,0.401052743473649
1789757616482547500,0.91054736328125,0.7187976736634969,-1.2733221922323108,0.2999965075314045
1789757616492561700,0.920561767578125,2.741663098695874,-0.7301520113706589,-0.4516004429280758
1789757616502575600,0.93057568359375,3.8309067806452513,-1.6301654993623493,-1.3938281017929315
1789757616512589600,0.940589599609375,3.0659470752656457,-2.0758660705968737,-2.071525703305006
1789757616522603500,0.950603515625,2.7567355801433324,-0.6846969588801264,-1.6444576440870762
1789757616532617500,0.960617431640625,3.326176805076003,-0.15718465813845395,-1.3989362385869026
1789757616542631700,0.970631591796875,3.8529917712032793,-0.38887773703336714,-1.1786162020996211
1789757616552645600,0.980645751953125,3.367452818316221,-0.06007131460309028,-1.190032206866145
1789757616562660600,0.99066064453125,2.522323597678542,0.8810632883280515,-1.1901774605557323
1789757616572674600,1.000674560546875,2.3080805430173874,0.5100923793852329,-1.3362328219145536
1789757616582688500,1.0106884765625,2.215000692781806,0.26817045968174935,-1.6551736838907003
1789757616592702700,1.02070263671875,1.9632962147325277,0.721727589635551,-2.2549334747195244
1789757616602716700,1.030716552734375,1.5186305395036934,1.161231059795618,-2.9389953505665063
1789757616612730600,1.040730712890625,1.1128782400369643,1.8099656016737222,-3.3043624481528995
1789757616622744600,1.05074462890625,0.612719810166955,2.2420611336648464,-2.9672406173199413
1789757616632758500,1.060758544921875,0.7750076366633176,2.388630582025647,-2.1374492510676384
1789757616642773500,1.0707734375,1.5973305667310953,2.387839723908901,-1.0346557671934367
1789757616652787700,1.08078759765625,2.633427180382609,2.14263527540341,0.1993295631676912
1789757616662801400,1.090801513671875,3.7243700674653053,1.9181399990580974,1.0463327609837054
1789757616672815600,1.100815673828125,4.550204805046319,1.7796135718993842,1.215681611907482
1789757616682829600,1.11082958984375,4.853488663685321,1.847966392635554,0.6770148799449205
1789757616692843800,1.12084375,4.95410826177597,2.2405442993611095,-0.04614800319075584
1789757616702857700,1.130857666015625,5.041883575862646,2.786130601453781,-0.47678632211089134
1789757616712871400,1.140871337890625,4.933651164680719,3.11671367816776,-0.4182815261721611
1789757616722886700,1.15088671875,4.860926120209694,3.1397754048034545,-0.054713002440333364
1789757616732900600,1.160900634765625,4.537131972983479,3.6071743053659793,0.6996639341264963
1789757616742914600,1.17091455078125,4.2264094887763255,3.847404910981655,1.77421741194427
1789757616752928800,1.1809287109375,3.8790304678231475,3.736067519521713,2.84510418394804
1789757616762942500,1.1909423828125,3.831877086982131,3.27785964115262,3.189724846103787
1789757616772956700,1.200956787109375,3.209076612305641,3.6321973952025175,3.834907832980156
1789757616782970600,1.210970703125,2.556314714607596,3.433161262023449,4.944789229288697
1789757616792984800,1.22098486328125,2.7319097664445637,2.680057998654246,4.289124011364579
1789757616802998500,1.23099853515625,2.3791700952410695,2.9917537118077275,3.479862222921848
1789757616813013500,1.241013427734375,2.173489701741934,3.1130373277425765,2.4089152451634406
1789757616823027700,1.25102783203125,2.2875831139117477,2.5993779035255313,1.173991172647476
1789757616833041700,1.261041748046875,2.1223416983067986,1.7733169559732078,0.5153285264730453
1789757616843055600,1.2710556640625,1.5576076281517743,1.2077230541184545,-0.048335868623852724
1789757616853069600,1.281069580078125,1.0179179828822613,0.9177873373523354,-0.6441764401823282
1789757616863083500,1.29108349609375,0.7555763754844665,0.9529664950221777,-0.8291437159985303
1789757616873097700,1.30109765625,-0.6484621546775102,1.1599284527644513,-0.9950924030900001
1789757616883111700,1.311111572265625,-1.1770914767503737,1.5896753758028148,-1.349894852042198
1789757616893126700,1.321126708984375,-1.2419108626633881,2.0029095554575322,-1.3365168995529413
1789757616903140600,1.331140625,-1.2747469643384217,2.04679779702276,-1.3549953900516032
1789757616913154600,1.341154541015625,-1.300405137208104,1.8616876056045293,-1.5471873564243315
1789757616923168800,1.351168701171875,-1.4346750759661198,1.6473790844917295,-1.8074977502554654
1789757616933182700,1.3611826171875,-1.1744313176304102,1.4246572475597261,-1.7322656913995742
1789757616943196400,1.371196533203125,-0.641148032271862,0.8134811597034335,-1.4619476982951163
1789757616953210600,1.381210693359375,-0.7286462829828262,0.4549956383243203,-1.459836989751458
1789757616963224600,1.391224609375,-0.9784738612443208,0.39197365722209215,-1.297481066454947
1789757616973239600,1.401239501953125,-1.0687181957930325,0.3571563186019659,-1.130644782873988
1789757616983253800,1.411253662109375,-1.193327741280198,0.1605699166625738,-0.9160901780456304
1789757616993267500,1.421267333984375,-1.411656603950262,-0.14050707958191633,-0.7087658167317509
1789757617003281700,1.43128173828125,-1.5337813468843697,-0.34901305189579723,-0.6599141075402498
1789757617013295600,1.441295654296875,-1.5760983936101198,-0.48732875891327854,-0.7895730453714728
1789757617023309800,1.451309814453125,-1.6826707626253365,-0.6621271074146032,-1.0183861849159002
1789757617033323500,1.461323486328125,-1.779079465022683,-0.715199941432476,-1.4531260939359665
1789757617043337500,1.47133740234375,-1.8681974258899687,-0.7186267010107636,-1.9107567569389938
1789757617053351700,1.4813515625,-2.049206903991103,-0.7875573216348886,-2.24984024323374
1789757617063366700,1.49136669921875,-2.2084125465631486,-0.9211959767520427,-2.4236095409482714
1789757617073380600,1.501380615234375,-2.3082933089852333,-1.000180373878777,-2.411179098442197
1789757617083394600,1.51139453125,-2.2813211309075356,-1.0474079889997838,-2.263492628750205
1789757617093408500,1.521408447265625,-2.0484955408513543,-1.14269850102216,-1.935574095070362
1789757617103422700,1.531422607421875,-1.804544161146879,-1.2366852369695902,-1.6618673363104461
1789757617113436700,1.541436767578125,-1.612946653535962,-1.274802201656997,-1.453535259258747
1789757617123450600,1.55145068359375,-1.4400164369940758,-1.3569199283733964,-1.2491677019238472
1789757617133464600,1.561464599609375,-1.3436246857315302,-1.494515212161839,-1.0707827271074055
1789757617143478500,1.571478515625,-1.1762988650679587,-1.8316303209930658,-1.108986493295431
1789757617153493800,1.58149365234375,-1.3885469465196132,-2.0813041699975727,-1.496271992701292
1789757617163507700,1.5915078125,-1.2168144153296947,-0.8673907368063927,-0.9474521155148744
1789757617173521400,1.601521484375,-0.5074971021950244,-0.8459341072797775,-0.46705344812571997
1789757617183535600,1.61153564453125,-0.729823510068655,-1.7343854600325226,-0.05121522345244884
1789757617193549600,1.621549560546875,-1.1294576189160346,-1.7922741698995233,0.4410550835162401
1789757617203563800,1.631563720703125,-1.0899386784762144,-1.495488441108167,0.8703501711338758
1789757617213577500,1.641577392578125,-0.7141869649976491,-1.282200787475705,1.6500959422349928
1789757617223591700,1.651591796875,-0.20754268023967742,-1.0633709895461798,2.3883096795082093
1789757617233606700,1.661606689453125,0.34094518851339817,-0.9016951574683189,2.8643261862903833
1789757617243620600,1.67162060546875,0.8261451187044382,-0.8509449211791157,3.189803172037005
1789757617253634800,1.681634765625,1.144082356595993,-1.034856258201599,3.3004940822869537
1789757617263648500,1.6916484375,1.2960492800861596,-1.2638576137945055,3.0314824956059456
1789757617273662500,1.701662353515625,1.3946166218221188,-1.3403767898514867,2.538114456528425
1789757617283676700,1.7116767578125,1.2526064442008733,-1.1922794012710451,2.040145061135292
1789757617293690600,1.721690673828125,0.8251601993203163,-0.9699959557563066,1.4441291330099104
1789757617303704600,1.73170458984375,0.32869302518367766,-0.7845268678978085,0.8810837465941905
1789757617313718500,1.741718505859375,-0.08895371021628379,-0.576534982585907,0.48035365920364853
1789757617323733500,1.7517333984375,-0.45936873884201046,-0.2683779649525881,0.1783341214120388
1789757617333747700,1.761747802734375,-0.8541063078194856,-0.04921645085066557,-0.1911959410727024
1789757617343761700,1.77176171875,-1.126786353880167,0.06565525221526622,-0.5734177273482084
1789757617353775600,1.781775634765625,-1.2300643575251102,0.18873802652657032,-0.9741875622272491
1789757617363789600,1.79178955078125,-1.1371008271455765,0.3216358001485467,-1.4321329902678728
1789757617373803500,1.801803466796875,-0.9423042312324047,0.4042721439115703,-1.8255770123034714
1789757617383817700,1.811817626953125,-0.7943442052960396,0.4310077367544174,-2.1498288401693104
1789757617393831700,1.821831787109375,-0.6572428425043821,0.45703547358885405,-2.4186861130714417
1789757617403846400,1.831846435546875,-0.6392407373458147,0.608264292062819,-2.6025983268767594
1789757617413860600,1.841860595703125,-0.7815443449556827,0.7314101947382092,-2.735659474366903
1789757617423874600,1.85187451171875,-0.8998778789132833,0.8440721128001809,-2.7806127148151396
1789757617433888800,1.861888671875,-0.9224602975994348,1.2695059949450194,-3.022081630054116
1789757617443902700,1.87190283203125,-1.1176643052697182,1.5701590666890144,-3.233959709149599
1789757617453916700,1.881916748046875,-1.353048932158947,1.7306358982406556,-3.370993267402053
1789757617463930600,1.8919306640625,-1.3481319340229034,1.9928271373823283,-3.641094402885437
1789757617473944600,1.901944580078125,-1.0954361068487166,2.073144244417548,-3.8416356799304485
1789757617483958800,1.911958740234375,-0.734053110462427,1.9055816923886537,-3.8853783755451436
1789757617493973800,1.921973876953125,-0.26278116785883904,1.854651715618372,-4.020754229718446
1789757617503987500,1.931987548828125,0.21523557282984254,1.7094018254235386,-3.84019600251615
1789757617514001700,1.942001708984375,0.5734335094392299,1.5413152495205402,-3.488354156935215
1789757617524015600,1.952015625,0.9698983406007289,1.5919949047915636,-3.2883518090724944
1789757617534029800,1.96202978515625,1.4070529095470905,1.8967711939454077,-3.3615146604388952
1789757617544043500,1.97204345703125,1.5745318749457597,2.4425769840076565,-3.480807394817471
1789757617554057500,1.982057373046875,1.112069846263528,3.0423762300640345,-3.2531139069527386
1789757617564071700,1.99207177734375,0.30448154399096966,3.302941767700016,-2.5646324610978364
1789757617574086700,2.002086669921875,-0.04600537984967232,3.2879958352416754,-1.6144558890551328
1789757617584100600,2.0121005859375,0.24720599758625028,3.3327281264156103,-0.4411643891096115
1789757617594114600,2.022114501953125,0.9164707017958164,3.225400262857973,0.6719757167339324
1789757617604128500,2.03212841796875,1.6691402499228716,3.062895286479592,1.3531190747857094
1789757617614142700,2.042142822265625,2.519036246570945,2.9546067611962554,1.8147002289801835
1789757617624156700,2.05215673828125,3.5350597940087316,2.9319097762197255,2.0736130309730765
1789757617634170600,2.062170654296875,4.48996456361711,2.93403655911535,2.2063737342119216
1789757617644184600,2.0721845703125,5.198638902673125,2.767192676749825,2.3098089742451906
1789757617654198500,2.082198486328125,5.56018030449152,2.6491221776425835,2.3392577715694904
1789757617664213800,2.0922138671875,5.5635109102189535,2.698072378772497,2.350816107416153
1789757617674227700,2.102227783203125,5.296030770888924,2.810346174299717,2.442064650571346
1789757617684241400,2.112241455078125,4.933970313632488,2.85981835347712,2.904778023666143
1789757617694255600,2.122255615234375,4.907980716851354,2.7643419634938238,3.8779052631855007
1789757617704269600,2.13226953125,5.064465410026908,2.6055297041535375,4.928354811838269
1789757617714283800,2.14228369140625,5.138889659631252,2.4362891359098255,5.81479044085443
1789757617724297500,2.15229736328125,5.218806661432981,2.2071792053759096,6.49712037834227
1789757617734311700,2.162311767578125,5.422102790144086,1.8338330917343497,6.897154300162196
1789757617744325600,2.17232568359375,5.811971876302361,1.275850249405205,6.701814683413505
1789757617754340600,2.182340576171875,6.18361323185265,0.6576082417506725,5.884897411781549
1789757617764354800,2.192354736328125,6.318615576538443,0.07884250443801283,4.532427740815281
1789757617774368500,2.202368408203125,6.109725573343038,-0.3826039174608886,3.048121495717764
1789757617784382500,2.212382568359375,5.500358580735326,-0.6795069890215992,1.7248089456528424
1789757617794396700,2.222396728515625,4.611373267236352,-0.9936391355417669,0.6243950503915549
1789757617804410600,2.23241064453125,3.575249765577912,-1.2536698356486857,-0.23146949927210805
1789757617814424600,2.242424560546875,2.492565588274598,-1.4429025138244032,-0.7588397611945867
1789757617824438500,2.2524384765625,1.463121418249607,-1.6185225539721548,-0.9726637136608361
1789757617834453500,2.26245361328125,0.4949216982603073,-1.8249243936136363,-0.9151438371062278
1789757617844467700,2.2724677734375,-0.36384500258564945,-1.9937486361414194,-0.7327858670055866
1789757617854481700,2.282481689453125,-1.0883797585964203,-2.149602922458947,-0.6146563311874866
1789757617864495600,2.29249560546875,-1.6892612469315529,-2.3133298418477177,-0.6277268251627683
1789757617874509600,2.302509521484375,-2.163046633660793,-2.3930758709967135,-0.8237935871422291
1789757617884523500,2.3125234375,-2.5241256786644457,-2.392103226572275,-1.2421639606416224
1789757617894537700,2.322537841796875,-2.8044880959212777,-2.4301707991600034,-1.8046634036123752
1789757617904551400,2.332551513671875,-3.0314111839354037,-2.483009824422002,-2.3958611178010703
1789757617914566400,2.34256640625,-3.1300738027393815,-2.538718852162361,-2.9164520948469637
1789757617924580600,2.35258056640625,-3.057880088666081,-2.6752178651466965,-3.318289266696572
1789757617934594600,2.362594482421875,-2.863386859613657,-2.8376746184691783,-3.6342163338094946
1789757617944608800,2.37260888671875,-2.730073783189058,-2.7419772792115804,-3.9185353797376155
1789757617954622500,2.38262255859375,-2.486532737851143,-2.554804894566536,-4.076446890845895
1789757617964636700,2.39263671875,-2.133786636906862,-2.4714529498800633,-4.001694139939547
1789757617974650600,2.402650634765625,-1.7831775479912757,-2.5186753043040633,-3.550389465087652
1789757617984664600,2.41266455078125,-1.4437673139601945,-2.6601240486502644,-2.7879204074800015
1789757617994678800,2.4226787109375,-1.1574164699435234,-2.768589976327121,-2.1002157912164927
1789757618004693500,2.432693603515625,-0.9897545491933822,-2.792692151926458,-1.7256962498813866
1789757618014707500,2.44270751953125,-0.9559072246491909,-2.7644468851730224,-1.6710756018996238
1789757618024721700,2.4527216796875,-1.0407318722367287,-2.672676656231284,-1.7890864797741173
1789757618034735600,2.462735595703125,-1.1654442935764788,-2.626460263979435,-1.9832517920464277
1789757618044749600,2.47274951171875,-1.2569383359253405,-2.627388777001202,-2.101429258659482
1789757618054763500,2.482763427734375,-1.2420458872199058,-2.5772730392232535,-1.9648329227805137
1789757618064777700,2.49277783203125,-1.2686837187767028,-2.500129301527142,-1.639584485092759
1789757618074791700,2.502791748046875,-1.3704203381985425,-2.558243344582617,-1.3791846594125032
1789757618084805600,2.5128056640625,-1.4526935477375984,-2.6229195226326585,-1.2372925552129745
1789757618094820600,2.522820556640625,-1.511926657950878,-2.7506369710072875,-1.204993044632673
1789757618104834600,2.53283447265625,-1.4815969861388205,-2.8475585913628336,-1.1204875459969044
1789757618114848500,2.5428486328125,-1.4332026653259993,-2.9796918103531,-0.9986609092265367
1789757618124862700,2.55286279296875,-1.3928642251968384,-3.247435861316323,-0.7205740356862544
1789757618134876700,2.562876708984375,-1.395076640549302,-3.4429958428174254,-0.42138533740639683
1789757618144890600,2.572890625,-1.3959586840808391,-3.504614094601571,-0.1661333960086107
1789757618154904600,2.582904541015625,-1.3786708646714687,-3.5839357608586546,0.08102525530457497
1789757618164918800,2.592918701171875,-1.4141899218201637,-3.6715707896918057,0.2682511237025261
1789757618174933800,2.602933837890625,-1.542311274820566,-3.5071351375117894,0.4329641315191984
1789757618184947700,2.61294775390625,-1.6402163532555103,-2.988807429222762,0.889009278896451
1789757618194961700,2.622961669921875,-1.5385855322957038,-2.5541923156261443,2.0471774439901114
1789757618204975600,2.6329755859375,-1.2745891434282064,-2.409522563406825,3.654574062183499
1789757618214989600,2.642989501953125,-0.8895172284185886,-2.375107960368693,5.104964009153843
1789757618225003800,2.653003662109375,-0.23607845437228678,-2.571975517337024,6.324388899242877
1789757618235017500,2.663017578125,0.30717677442431446,-2.8783181790247556,6.987043829923868
1789757618245031700,2.67303173828125,0.8039788796037435,-3.203221748797595,6.892531316536664
1789757618255045600,2.683045654296875,1.2728916918605566,-3.2149688852146268,6.111255267128348
1789757618265060600,2.693060546875,1.6017898842275142,-2.7846587753355503,4.84560229434967
1789757618275074800,2.70307470703125,1.7564561298042536,-2.2173291357293725,3.766783560302853
1789757618285088500,2.713088623046875,1.8529402355253695,-1.566209744541347,3.0493045680224893
1789757618295102700,2.723102783203125,1.8908353741556405,-1.001647816082835,2.561957104408741
1789757618305116700,2.73311669921875,1.8349521588921547,-0.5905836739435791,2.424530162924528
1789757618315130600,2.743130615234375,1.6232897683739662,-0.37113662089854477,2.476011343836784
1789757618325144600,2.75314453125,1.3786673575401305,-0.2473100424826145,2.4991870522409676
1789757618335158500,2.763158447265625,1.2289058351397513,-0.05436725774258375,2.295630226767063
1789757618345173500,2.773173583984375,1.0511346083074808,0.11148235288858413,1.9486580330491066
1789757618355187700,2.783187744140625,0.8297533723294734,0.17188742949068544,1.4930436783045529
1789757618365201700,2.79320166015625,0.6007347733408213,0.24584669193178413,1.044705452042818
1789757618375215600,2.803215576171875,0.41749943588376043,0.37292934953421353,0.5591349349737167
1789757618385229600,2.8132294921875,0.18363748851716516,0.551845947009325,-0.12749299196898936
1789757618395243500,2.823243408203125,-0.1573287427842617,0.7651856230899691,-0.9408575395554304
1789757618405257700,2.8332578125,-0.5600561414718628,0.9929626975849271,-1.6964572959154842
1789757618415271400,2.843271484375,-0.8949398379892111,1.168955808828771,-2.2811229779869318
1789757618425286700,2.85328662109375,-1.0590139633804558,1.2208422095410525,-2.571882286095619
1789757618435300600,2.863300537109375,-1.1681214038312435,1.2117699914216995,-2.6514240248441694
1789757618445314600,2.873314453125,-1.2443220154583454,1.3044742863431573,-2.5886294227570295
1789757618455328800,2.883328857421875,-1.3328086926847695,1.408048788716644,-2.576679457244277
1789757618465342500,2.893342529296875,-1.3438503111809492,1.4698982189081609,-2.6408646369069815
1789757618475356700,2.903356689453125,-1.3322300160139797,1.5525373391501605,-2.7974299941033123
1789757618485370600,2.91337060546875,-1.2300368849962948,1.6757595219321548,-2.996736760917306
1789757618495384600,2.923384521484375,-1.1164543449580668,1.7095796662084757,-3.3611037415504454
1789757618505398500,2.9333984375,-1.0790209786206484,1.6053795792825518,-3.801956580492854
1789757618515413500,2.94341357421875,-1.0301812521278857,1.4604716343931854,-4.2511277504473926
1789757618525427500,2.953427490234375,-0.9399825102865695,1.314516518538445,-4.643608480408788
1789757618535441700,2.963441650390625,-0.9088234019130468,1.0528000573016703,-4.918875035831332
1789757618545455600,2.97345556640625,-0.8688964651942253,0.7291783440329134,-5.123354236847162
1789757618555469600,2.983469482421875,-0.9074082744181156,0.5167804788470268,-5.2648634792089455
1789757618565483500,2.9934833984375,-0.8458394147336482,0.3989642467617988,-5.333261308130622
1789757618575497700,3.003497802734375,-0.6310726284593343,0.26309315641745923,-5.274632009029388
1789757618585511700,3.01351171875,-0.500166613176465,0.22848872989565133,-5.257452326169609
1789757618595526400,3.0235263671875,-0.1663093370974064,0.5142654272861779,-5.140433381941914
1789757618605540600,3.03354052734375,0.5973878010004758,0.7579555257059634,-4.075230500793457
1789757618615554600,3.043554443359375,1.7185422864735125,0.009741495683044195,-1.432580149513483
1789757618625568500,3.053568603515625,3.3586212770849464,-1.2583281828485429,2.2262498165488243
1789757618635582700,3.063582763671875,5.437862669333815,-1.8719222916319964,5.555751966655254
1789757618645596400,3.073596435546875,6.934585328412056,-1.746534309118241,7.8877102288663385
1789757618655610600,3.083610595703125,7.290211953228711,-1.7649373962931334,9.451879115229845
1789757618665624600,3.09362451171875,6.897928207144141,-1.9452390183858572,10.143923806524276
1789757618675638800,3.103638671875,6.184128780159353,-1.6895041157767177,9.760689628335832
1789757618685653800,3.11365380859375,5.545756642341614,-1.463554695100337,8.929059940740466
1789757618695667500,3.12366748046875,5.0879795566052195,-1.3793418958008288,7.676603718665242
1789757618705681700,3.133681640625,4.765041149425507,-1.304955201727897,6.061631696781515
1789757618715695600,3.143695556640625,4.399696263670921,-1.3277597387321292,4.292053050553799
1789757618725709600,3.15370947265625,3.999538423210382,-1.490258723761141,2.5554449460357427
1789757618735723500,3.1637236328125,3.485776415401697,-1.6225984251089394,0.9487982694268227
1789757618745737500,3.173737548828125,2.736836116930842,-1.7303073969386518,-0.5744610989212989
1789757618755751700,3.183751708984375,1.8108078977167605,-1.844171092005819,-1.987527569669485
1789757618765766700,3.1937666015625,0.762740860286355,-1.9071812365397809,-3.196435741919279
1789757618775780600,3.203780517578125,-0.28479075509309765,-1.9438300283707677,-4.07294794281423
1789757618785794600,3.213794677734375,-1.243106794449687,-1.8905375602528451,-4.756871871495247
1789757618795808500,3.22380859375,-2.108417217850685,-1.7644909676998852,-5.2230847771435975
1789757618805822700,3.23382275390625,-2.943399138483405,-1.5921712842717766,-5.4314884581267835
1789757618815836700,3.243836669921875,-3.6398020249873397,-1.4472209615454077,-5.349449057343602
1789757618825850400,3.253850341796875,-4.068666319972277,-1.2787141144037246,-5.037445301154255
1789757618835864600,3.263864501953125,-4.2445150543093675,-1.103290912002325,-4.533530149099231
1789757618845879600,3.273879638671875,-4.122706537717581,-0.8710393224418163,-4.009959863981605
1789757618855893500,3.2838935546875,-3.72398779014945,-0.6173620830148459,-3.5560131501883268
1789757618865907700,3.29390771484375,-3.2012744141221043,-0.5783809027135371,-2.955987986421585
1789757618875921400,3.30392138671875,-2.6554449509233233,-0.6681205026105046,-2.1165777279525995
1789757618885935600,3.313935546875,-1.9499673620820044,-0.6499298891425133,-1.2338871306836605
1789757618895949600,3.323949462890625,-1.2193681914657353,-0.6125023680239915,-0.3366974679410457
1789757618905963800,3.3339638671875,-0.6402326709926128,-0.577420825509727,0.492840800333023
1789757618915977500,3.3439775390625,-0.215708451038599,-0.5989163257420063,1.2694529495835303
1789757618925991400,3.353991455078125,0.1364589732348919,-0.6730062288254499,2.0624872413247823
1789757618936006700,3.364006591796875,0.5585615189999341,-0.8019260387271642,2.8659914891541
1789757618946020600,3.3740205078125,1.079454109340906,-0.8853560170859098,3.5072394746690985
1789757618956034600,3.38403466796875,1.6289830115795134,-0.9608733226239681,3.868662218543887
1789757618966048500,3.394048583984375,2.121492388001084,-1.1306275394782423,4.050409947791695
1789757618976062500,3.4040625,2.490105920162797,-1.4042533419564365,3.92037311655879
1789757618986076700,3.41407666015625,2.601036484387517,-1.5420789273694158,3.388355905613303
1789757618996090600,3.424090576171875,2.293411381673813,-1.513062676243484,2.4305828870922324
1789757619006104600,3.4341044921875,1.7094529710888862,-1.4029752848446368,1.2184323719203471
1789757619016119600,3.44411962890625,1.126189557030797,-1.1525371734693646,-0.05460018971562385
1789757619026133500,3.454133544921875,0.5369938303142786,-0.8747788012310862,-1.1463438717871903
1789757619036147700,3.464147705078125,0.1460141525655985,-0.7332201667696238,-1.9770839170664547
1789757619046161700,3.47416162109375,-0.07443827812969685,-0.627995997492969,-2.4507027150571346
1789757619056175400,3.48417529296875,-0.17208792049884794,-0.5586196789279579,-2.6390771689683197
1789757619066189600,3.494189453125,-0.29482582689523695,-0.48721740749329323,-2.689652340951562
1789757619076203500,3.50420361328125,-0.5612456435173749,-0.3714297586262226,-2.673665082746744
1789757619086217700,3.5142177734375,-0.8842828348964452,-0.2064610224828124,-2.616563723865151
1789757619096232700,3.524232666015625,-1.2892249870240688,0.12243132466524839,-2.759446008145809
1789757619106246400,3.534246337890625,-1.7779817329138516,0.4517573870554566,-2.9611972455024715
1789757619116260600,3.544260498046875,-2.113993556678295,0.7585144747629762,-2.9944606326788663
1789757619126274600,3.554274658203125,-2.1262679318398234,0.9076938133612275,-2.6412311321318147
1789757619136288800,3.564288818359375,-1.7341203793555497,0.6300602365463972,-1.7944617430716752
1789757619146302500,3.574302490234375,-0.7622796725153923,0.20566344236433504,-0.6259346810489893
1789757619156316400,3.58431640625,0.36050972068309783,-0.30144641407877204,0.8306161266386508
1789757619166330600,3.59433056640625,1.3673317245334387,-0.9385276353031397,2.2825685006201266
1789757619176345600,3.604345703125,1.9183797991633413,-1.3888263479828833,3.0184739609509705
1789757619186359600,3.614359619140625,1.9013094218969344,-1.6322425978973507,2.7684207572400568
1789757619196373500,3.62437353515625,1.3084949201613665,-1.5998755750387905,1.6122686081439255
1789757619206387500,3.634387451171875,0.4802338322162628,-1.6145084960252045,0.1491582958102226
1789757619216401700,3.644401611328125,-0.5347708935678005,-1.6219979749977587,-1.1928583702027797
1789757619226415600,3.65441552734375,-1.4873106876105069,-1.4164946916311978,-2.2469190950900315
1789757619236429600,3.6644296875,-2.3501509215056893,-1.1531553053677082,-2.8359885650783774
1789757619246443500,3.674443603515625,-3.007137158900499,-1.0218532765045762,-2.8237112673074005
1789757619256457500,3.68445751953125,-3.32935251250267,-0.805162244169414,-2.278707149016857
1789757619266472700,3.69447265625,-3.430020041388273,-0.6701964321017265,-1.4768997682332992
1789757619276486700,3.704486572265625,-3.3401626603305337,-0.6514367865741253,-0.7206985388487577
1789757619286500600,3.71450048828125,-3.0752649387091395,-0.5434945905104279,-0.1552624579042196
1789757619296514600,3.7245146484375,-2.829075424689054,-0.41534927211254835,0.15208148978054523
1789757619306528500,3.734528564453125,-2.692904620745778,-0.26749767498672006,0.15256079773008824
1789757619316542700,3.744542724609375,-2.6375720251023766,-0.0476835421949625,-0.09272036927342414
1789757619326556700,3.754556640625,-2.6601877615362404,0.1292065178886056,-0.4465671249359846
1789757619336570600,3.764570556640625,-2.671660757187009,0.19737930588275193,-0.8152993150413036
1789757619346585600,3.774585693359375,-2.483079382526874,0.2829945193260908,-1.112860119858384
1789757619356599600,3.784599609375,-2.23187174808383,0.3737432962656021,-1.2457079168587923
1789757619366613500,3.794613525390625,-1.9013994382679462,0.3588882569611072,-1.1778373266816138
1789757619376627700,3.804627685546875,-1.5521838495373725,0.36070378195047376,-0.9575532382905483
1789757619386641400,3.814641357421875,-1.1609165870189666,0.3590495850026607,-0.7031652202457189
1789757619396655600,3.824655517578125,-0.7371130825549363,0.3536342819556594,-0.48056233351826666
1789757619406669600,3.834669677734375,-0.39243338368833064,0.31903321643471716,-0.24548224253356454
1789757619416683800,3.844683837890625,-0.11459960812628268,0.1911640846297145,-0.004655132329463958
1789757619426697500,3.854697509765625,0.15455693998336792,-0.004564239175617694,0.20045184519588946
1789757619436712400,3.86471240234375,0.45649756731986996,-0.11421616176664828,0.11264905858039856
1789757619446726700,3.8747265625,0.7917313924491405,-0.15185615659207105,0.16082067655324936
1789757619456740600,3.88474072265625,1.1993003859490154,0.16395663649141787,0.568927430191636
1789757619466754600,3.894754638671875,1.733524751549959,0.46375937501639125,2.037073398604989
1789757619476768500,3.9047685546875,2.5815035163998603,0.17965923253595828,4.495022431528568
1789757619486782500,3.914782470703125,3.78182155495882,-0.19416852714270352,6.749952983638644
1789757619496796700,3.924796630859375,4.634289447921514,-0.6982450072392821,8.288952357432246
1789757619506810600,3.934810546875,4.911681909456849,-1.2086606272295117,8.708622707614301
1789757619516825600,3.94482568359375,4.988385209909081,-1.5367857893973589,7.689691748297214
1789757619526839600,3.954839599609375,4.709228076788783,-1.4688237215444444,5.699696911731362
1789757619536853500,3.964853515625,4.2319297135025264,-1.2028946110486984,3.5570962692499157
1789757619546867700,3.97486767578125,3.5183272703945634,-0.7291235451057553,1.5716811616897581
1789757619556881700,3.984881591796875,2.754011123615503,-0.31344898656159637,0.0670592737942934
1789757619566895600,3.9948955078125,2.0778975764244794,-0.14748685546666382,-0.7254103698015213
1789757619576909600,4.00490966796875,1.4484294605523347,-0.24925474680960177,-0.9381272378087043
1789757619586923500,4.014923583984375,0.8361930499881506,-0.3385834278181195,-0.9490466912299395
1789757619596938500,4.0249384765625,0.28948329682350155,-0.3635471886828541,-1.1181734238356351
1789757619606952700,4.03495263671875,-0.3233294523239136,-0.3979340269312262,-1.4843588520675897
1789757619616966700,4.044966552734375,-1.0514905821382998,-0.4434866945773363,-1.9857775111317633
1789757619626980600,4.054980712890625,-1.77065533554852,-0.38972032533735035,-2.496275548708439
1789757619636994600,4.06499462890625,-2.379049683731794,-0.16264672293663024,-3.026926731997728
1789757619647008800,4.0750087890625,-2.895582325297594,0.06431815839260817,-3.422511273193359
1789757619657022700,4.085022705078125,-3.280968713083863,0.29769787520021196,-3.6736972803264853
1789757619667036400,4.095036376953125,-3.3335897116810083,0.49394554670453067,-3.709220429128408
1789757619677051600,4.1050517578125,-3.0646371617108583,0.7041743972882628,-3.3906156672388312
1789757619687065600,4.115065673828125,-2.5668548133224247,0.9398615142554044,-2.7311142321527004
1789757619697079600,4.12507958984375,-1.9322440738648174,1.0291282359436154,-1.7445885818779467
1789757619707093800,4.13509375,-1.1774094566583633,0.8863087877660989,-0.45799218979179857
1789757619717107500,4.145107421875,-0.40044484070837494,0.6940344038069248,0.7189625088363886
1789757619727121700,4.15512158203125,0.2569616679251194,0.7231552843511104,1.394599086165428
1789757619737135600,4.165135498046875,0.778744485104084,0.7590875984758139,1.6247709468424318
1789757619747149800,4.17514990234375,0.9591723639249801,0.6934794002726674,1.6068699639707802
1789757619757164800,4.185164794921875,1.063915179425478,0.6621031420171261,1.384229667842388
1789757619767178500,4.195178466796875,1.2376000137269496,0.6768801476493478,1.1101923619538545
1789757619777192700,4.205192626953125,1.1728040086895226,0.577943095818162,0.9203910901099442
1789757619787206700,4.21520654296875,1.0988567289471625,0.5182429526150226,0.7009983976006507
1789757619797220600,4.225220703125,1.0898813953310251,0.5031690098628402,0.4400269095122814
1789757619807234600,4.235234619140625,0.9645862056672573,0.5443707888230681,0.09082593382894992
1789757619817248500,4.24524853515625,0.8123357890605926,0.675229165571928,-0.25815818423330783
1789757619827262700,4.2552626953125,0.6666542294502258,0.7711570987150073,-0.46743923257291314
1789757619837276700,4.265276611328125,0.5075462020337581,0.7452455356061458,-0.5911182192116975
1789757619847291600,4.275291748046875,0.2099392199873924,0.6377139661699534,-0.6908551892489194
1789757619857305600,4.2853056640625,-0.17856150042712687,0.6243190625458955,-0.8598556651264428
1789757619867319600,4.295319580078125,-0.5564981567293406,0.6731900609597563,-1.0349842684954405
1789757619877333800,4.305333740234375,-0.7275573187023401,0.7836582683697343,-1.1466940003991126
1789757619887347700,4.31534765625,-0.6702618985533714,0.9276225026682019,-0.886291836631298
1789757619897361400,4.325361328125,-0.1995955206274986,0.7679913281604647,-0.03550853575468063
1789757619907375600,4.335375732421875,0.6869996828645467,0.33203590587079523,1.1879928099930286
1789757619917389600,4.3453896484375,1.4592857856094836,-0.17164017673134802,2.188608360418677
1789757619927404500,4.355404541015625,1.9760750322848557,-0.5823731872200966,2.925248564764857
1789757619937418800,4.365418701171875,2.271830248984694,-0.8343716797798871,3.1435131300270553
1789757619947432400,4.375432373046875,2.261650215753913,-0.9902218744441866,2.853100443398952
1789757619957446700,4.38544677734375,1.8760826261818409,-1.0712617427960038,2.2282038732260463
1789757619967460600,4.395460693359375,1.3957149384528398,-0.9751523156061768,1.514653452566266
1789757619977474800,4.405474853515625,0.8550450499743223,-0.7964639739289879,0.846554285004735
1789757619987488500,4.415488525390625,0.30235972953140733,-0.8238231054976582,0.3027303164094686
1789757619997502500,4.42550244140625,-0.19511983651816844,-0.8351765664219856,-0.1887654990553856
1789757620007516700,4.4355166015625,-0.7083201187908649,-0.9358721523582935,-0.5670376709222793
1789757620017531600,4.44553173828125,-1.217932605704665,-0.9529504206702113,-0.9927940630197525
1789757620027545600,4.455545654296875,-1.8170020761817693,-0.922523425963521,-1.455803204190731
1789757620037559600,4.4655595703125,-2.552333536016941,-0.899697553910315,-1.9481950917124746
1789757620047573500,4.475573486328125,-3.2101334278821945,-0.7676476292893291,-2.3559493786513803
1789757620057587700,4.485587646484375,-3.7073885375261306,-0.5712544118344783,-2.6583517782807347
1789757620067601700,4.4956015625,-4.052402582913637,-0.3552905247300863,-2.787965415665507
1789757620077615600,4.50561572265625,-4.27140364575684,-0.1112809850975871,-2.823292749634385
1789757620087629600,4.515629638671875,-4.418630681243538,0.09573971709460019,-2.887250550282001
1789757620097644500,4.52564453125,-4.51171053147912,0.26542116097360846,-2.819011126792431
1789757620107658800,4.53565869140625,-4.444638982725143,0.3110080231502652,-2.6874299887269735
1789757620117672700,4.545672607421875,-4.220002544343472,0.3344289384871721,-2.5631705718517304
1789757620127686400,4.555686279296875,-3.908262992048263,0.5108651173233986,-2.4986913776785133
1789757620137700600,4.56570068359375,-3.5507115366488695,0.6208133925125002,-2.5162556759417054
1789757620147714600,4.575714599609375,-3.014060236161947,0.5790589481055736,-2.5116391220569607
1789757620157728800,4.585728759765625,-2.3345161300003525,0.5342611904799938,-2.3568752613246438
1789757620167742700,4.59574267578125,-1.5481196688383816,0.5203036845371127,-2.260804412579536
1789757620177757400,4.60575732421875,-0.8511503806233406,0.4418550017222762,-2.148707142663002
1789757620187771600,4.615771728515625,-0.32921149609982964,0.3900128785431385,-1.9382810159415005
1789757620197785600,4.62578564453125,0.23545827664732932,0.41722266476899383,-1.6362702459782361
1789757620207799600,4.635799560546875,0.7650807014107703,0.5066600668489932,-1.1486457189887762
1789757620217813800,4.645813720703125,1.407939629253745,0.6091296767205,-0.4001946653395891
1789757620227827500,4.655827392578125,2.3519641084074974,0.6439616283878684,0.9110662124037742
1789757620237841700,4.665841552734375,3.534682192867994,0.5061027252271771,2.8933465290695426
1789757620247855600,4.675855712890625,4.889473000258207,0.24074177000820635,5.061664965653419
1789757620257869800,4.685869873046875,6.069352646422386,-0.052529520921409126,6.9290732869923115
1789757620267884800,4.695884765625,6.7449921463608735,-0.25384412042647597,8.177964510062337
1789757620277898500,4.7058984375,7.068408107924461,-0.283029590639472,8.670530585107207
1789757620287912700,4.71591259765625,7.1918930332958695,-0.24725100577175615,8.630064134684204
1789757620297926700,4.7259267578125,7.124016597899794,-0.2966881136357784,8.2931603305161
1789757620307940600,4.735940673828125,6.694670656877756,-0.476630254766345,7.608640774029493
1789757620317954600,4.74595458984375,5.9271069064795965,-0.6087269411385059,6.363331501099467
1789757620327968500,4.755968505859375,4.824776363942027,-0.6585495411887764,4.479532601451874
1789757620337982700,4.765982666015625,3.46926601010561,-0.8259618710920215,2.4199264685213566
1789757620347997700,4.775997802734375,2.0149802247405053,-0.9931327934548259,0.4306383189201355
1789757620358011600,4.78601171875,0.5823392849504947,-1.0409241799384354,-1.4536065709292887
1789757620368025600,4.796025634765625,-0.8491513157606124,-1.0657701596423983,-2.9885727436840535
1789757620378039600,4.80603955078125,-2.3280735297322273,-1.0756541325360536,-4.113399780189991
1789757620388053800,4.8160537109375,-3.62846171580553,-1.0768556172803043,-4.948050861433148
1789757620398067700,4.826067626953125,-4.715991579574347,-1.076373094460368,-5.498253132888674
1789757620408081400,4.836081298828125,-5.631378577786684,-1.0774927461400627,-5.856204985782504
1789757620418095600,4.846095703125,-6.432772701594233,-1.0282461924120783,-6.09998685413897
1789757620428110600,4.856110595703125,-6.996785471737384,-0.9677721422269939,-6.21518851981163
1789757620438124500,4.86612451171875,-7.056326624986529,-0.6756900610819458,-6.379339802092313
1789757620448138800,4.876138671875,-6.712952163499593,-0.6819403536483645,-6.135330554720759
1789757620458152400,4.88615234375,-6.754965258842707,-0.9758142866462468,-5.713603272008895
1789757620468166700,4.896166748046875,-5.913384670597314,-0.36542379620969295,-5.699148630198836
1789757620478180600,4.9061806640625,-4.654754728323221,-0.17555384304374455,-5.407105127498507
1789757620488194800,4.91619482421875,-3.7441789297848938,-0.2604173613369465,-4.766496608930826
1789757620498208500,4.92620849609375,-2.6168226670622823,-0.17297522472739219,-4.008149599689245
1789757620508222500,4.936222412109375,-1.471646085488796,0.0790671069741249,-3.03708747600615
1789757620518237700,4.94623779296875,-0.6126812317222357,0.275243174546957,-1.8291005102545022
1789757620528251600,4.956251708984375,0.10766484042704105,0.5711261092796921,-0.49731999157369133
1789757620538265600,4.966265625,0.7262380527973175,0.8677972717806697,1.2913321884363889
1789757620548279600,4.976279541015625,1.3746487695485352,1.0975003459021448,3.2901568126678464
1789757620558293500,4.98629345703125,2.1433201889276505,1.2244570390373468,4.877804189774394
1789757620568307500,4.996307373046875,2.751559054288268,1.2799337193265556,5.66861086859405
1789757620578321400,5.0063212890625,3.279915404638648,1.2673743897438048,5.7562856449157
1789757620588335600,5.016335693359375,3.99032986536026,1.3939046741604804,5.346515341979265
1789757620598349600,5.026349609375,4.717599599292874,1.4571031808733939,4.772520691525936
1789757620608364500,5.036364501953125,5.255742015120386,1.2427937829777598,4.331688310849667
1789757620618378500,5.04637841796875,5.693754077678919,0.9177277161195874,3.968717753010988
1789757620628392400,5.056392333984375,6.009303543651104,0.608715542961657,3.6799201003640887
1789757620638406400,5.066406494140625,6.2415294142484665,0.3812982416898012,3.3928310052007435
1789757620648420600,5.076420654296875,6.345019599339365,0.23547581230401993,3.132527625632286
1789757620658434300,5.086434326171875,6.294658946889639,-0.006979483623802661,2.939747045716643
1789757620668448500,5.096448486328125,6.046867842891812,-0.21541589783281087,2.8164509209156035
1789757620678462500,5.10646240234375,5.393963906374573,-0.31478286551386114,2.6351070962935683
1789757620688477400,5.1164775390625,4.425069189858436,-0.40776276250630616,2.316526884323358
1789757620698491600,5.12649169921875,3.1928701583921906,-0.4676785942867398,1.787880611115694
1789757620708505300,5.13650537109375,1.8708084851711988,-0.5104354937344789,1.0773761340230703
1789757620718519600,5.14651953125,0.6257610780477524,-0.5135305371403693,0.32398762397170067
1789757620728533500,5.156533447265625,-0.5990110182881355,-0.5396501900419592,-0.33819910467565056
1789757620738547500,5.16654736328125,-1.7486738053649662,-0.5776698318347334,-0.8256254787445068
1789757620748561400,5.1765615234375,-2.8473692062705753,-0.5843763437360525,-1.132129468473792
1789757620758575400,5.186575439453125,-3.8079444227308032,-0.567808655294776,-1.3956412886947394
1789757620768589600,5.196589599609375,-4.676816922527552,-0.4675578905165195,-1.6912936295419931
1789757620778604500,5.2066044921875,-5.409082565051317,-0.33813130013644693,-1.9333733701556919
1789757620788618500,5.216618408203125,-5.984294190078973,-0.2558431852892041,-2.086391848525405
1789757620798632400,5.226632568359375,-6.3324558858424425,-0.18349603421986102,-2.2810651103198527
1789757620808646400,5.236646484375,-6.545613483354449,-0.05972586216628551,-2.4803560950428247
1789757620818660600,5.24666064453125,-6.5985992236107585,0.027005495825409887,-2.601623344364762
1789757620828674600,5.256674560546875,-6.328237391364574,0.05967822363227605,-2.6989000617682932
1789757620838688300,5.266688232421875,-5.909575925964116,0.09978343952745199,-2.795194197875261
1789757620848702500,5.276702392578125,-5.447770899885892,0.04808101707994938,-2.810179001039266
1789757620858716400,5.28671630859375,-4.686059967169165,0.06355915671885014,-2.7519249649912116
1789757620868731400,5.2967314453125,-3.7984552943736314,0.09137363083958626,-2.6010516819566485
1789757620878745600,5.30674560546875,-2.9657611924171445,0.08504764268845319,-2.362153493988514
1789757620888759300,5.31675927734375,-2.1904946125566958,0.13280191203206776,-2.1053835492432116
1789757620898773500,5.3267734375,-1.6441659676641225,0.142488316527009,-1.669426665648818
1789757620908787500,5.336787353515625,-0.9074339933812617,0.5241682510107756,-1.0560849241912365
1789757620918801700,5.3468017578125,-0.8875456360846757,0.516263469235599,-1.0772884557396172
1789757620928815600,5.356815673828125,-0.8026479232609272,0.8102236192122101,-0.7780354600518942
1789757620938829300,5.366829345703125,-0.6929582990080118,1.0843968264400958,-0.41310909197032447
1789757620948844500,5.376844482421875,-0.47896717328131194,1.2695382897794245,-0.06572773292958736
1789757620958858500,5.3868583984375,-0.10879296767413615,1.379490948882699,0.2273644020408392
1789757620968872400,5.39687255859375,0.47217444440126416,1.4804472315818071,0.41958559450805183
1789757620978886700,5.40688671875,1.2847282601267098,1.626059817609191,0.4958405666708946
1789757620988900400,5.416900390625,2.297318325984478,1.7384075551554559,0.717471393495798
1789757620998914600,5.42691455078125,3.422212582507729,1.8117025084689258,0.9253460821688174
1789757621008928500,5.436928466796875,4.5366170091986655,1.7654019450649618,1.3505004167199135
1789757621018942700,5.446942626953125,5.581435858488082,1.6108312688171862,2.1658646136909723
1789757621028956400,5.456956298828125,6.559889261466265,1.3509692032754421,3.256746125975251
1789757621038971400,5.466971435546875,7.25175859619379,1.0685203351333736,4.480648453739285
1789757621048985600,5.476985595703125,7.466809460106492,0.8642208745986223,5.501804103368521
1789757621058999600,5.48699951171875,7.133186577305198,0.6319716231256723,6.009616847383976
1789757621069013500,5.497013427734375,6.3993590922921895,0.44319268006682394,5.976678454378247
1789757621079027500,5.50702734375,5.358617867705226,0.37043314880430694,5.482720632714033
1789757621089041400,5.51704150390625,4.262482672676444,0.339848917709291,4.703281151083112
1789757621099055600,5.5270556640625,3.2597336173534393,0.2579237909555435,3.8177760809153316
1789757621109069600,5.537069580078125,2.375667055556178,0.0713292061984539,2.848464600291848
1789757621119083500,5.54708349609375,1.620128673994541,-0.12072978144437074,1.7518606187075376
1789757621129098500,5.557098388671875,0.8371031505703925,-0.3634872751891613,0.5951835689544678
1789757621139112400,5.567112548828125,-0.023729250633716583,-0.6131631700202822,-0.5538163702994585
1789757621149126700,5.577126708984375,-0.897522840219736,-0.8638815596416592,-1.6724503973841667
1789757621159140600,5.587140625,-1.8774422240972517,-1.0580635307878254,-2.6885698064118624
1789757621169154300,5.597154296875,-2.8689316342592237,-1.1680863325178623,-3.572030803531408
1789757621179168500,5.60716845703125,-3.831367383894324,-1.1259721148878334,-4.374553639107942
1789757621189182500,5.617182373046875,-4.808094109210372,-1.0259805855676531,-5.0042608244329685
1789757621199196700,5.62719677734375,-5.634031138122081,-0.8779536318749189,-5.476007983332872
1789757621209210400,5.63721044921875,-6.184519825303554,-0.6440709339812397,-5.844708609256148
1789757621219225300,5.647225341796875,-6.466470388534665,-0.4318777975872159,-6.036528235185146
1789757621229239600,5.657239501953125,-6.472990145692229,-0.25366759481579065,-6.055276190274953
1789757621239253500,5.66725341796875,-6.0705263663768765,-0.13958148916959762,-5.827217960751057
1789757621249267500,5.677267333984375,-5.277267033708095,-0.07090308974087238,-5.474741908919811
1789757621260533500,5.688533447265625,-4.326815736377239,0.00535305146574974,-4.944002462825178
1789757621270547500,5.69854736328125,-3.399926516419649,0.033406010517477984,-4.145155685412884
1789757621280561400,5.7085615234375,-2.3923709375977515,0.1043944404542446,-3.174605602905154
1789757621290575600,5.71857568359375,-1.1677221753805875,0.3628048458829522,-2.0777631363898514
1789757621300589600,5.728589599609375,0.0330003523260355,0.48773675519227977,-0.9103098410785198
1789757621310603300,5.738603271484375,0.88917879024446,0.4660144604668021,0.16374737765491007
1789757621320617500,5.748617431640625,1.3214268824487925,0.40629385899752374,1.1264794798880815
1789757621330632400,5.758632568359375,1.540422100073099,0.5473600337669253,1.7831337088495491
1789757621340646400,5.768646484375,1.664953904148936,0.9556064881369472,2.1034452746570107
1789757621350660600,5.77866064453125,1.7536451640367507,1.2758534642755985,2.5090122806847095
1789757621360674300,5.78867431640625,2.072867765563726,1.4734157255098224,3.025283640965819
1789757621370688500,5.7986884765625,2.9503192931354043,1.740585483716428,3.6111353179514407
1789757621380702500,5.808702392578125,4.040315839278698,1.98514009001106,4.286159900861978
1789757621390716700,5.818716552734375,5.233469977557659,1.82671741451025,5.126028424492478
1789757621400730600,5.828730712890625,6.601424217903614,1.525772520212829,5.900027760896086
1789757621410744300,5.838744384765625,8.047228590649366,1.1051368321299553,6.376819343703985
1789757621420759600,5.848759521484375,9.32538448664844,0.4734107081979513,6.6005959503859275
1789757621430773500,5.8587734375,10.028008439624308,-0.014611001415550709,6.307824717932939
1789757621440787500,5.868787353515625,9.89671079467535,-0.22420096957385538,5.45279252744019
1789757621450801700,5.8788017578125,9.006645284724234,-0.21878099035173654,4.303031540685891
1789757621460815400,5.8888154296875,7.4994608528643845,-0.20875527089983223,3.0697488056361673
1789757621470829600,5.89882958984375,5.677399155205488,-0.15987082848250864,1.8296113823860882
1789757621480843500,5.908843505859375,3.6770594502359626,-0.03629471769630909,0.5242202734589576
1789757621490857700,5.918857666015625,1.575148545539379,0.1949143770739436,-0.6907020445138216
1789757621500871400,5.928871337890625,-0.350811333489418,0.49421004285961384,-1.6416671365857123
1789757621510886400,5.938886474609375,-1.8675661422491072,0.8811144339933991,-2.2370120335817334
1789757621520900600,5.948900634765625,-2.9349551352649925,1.2243594238817692,-2.3430413817614317
1789757621530914600,5.95891455078125,-3.623103988164663,1.4107114320546388,-2.0188941833138463
1789757621540928500,5.968928466796875,-3.9726773042917247,1.3630439642116428,-1.3405974468648434
1789757621550942500,5.9789423828125,-3.9847932740211482,1.1596300543397664,-0.5153361252576113
1789757621560956200,5.9889560546875,-3.821535141187906,0.8949339927703142,0.29388182404339314
1789757621570970400,5.998970458984375,-3.6079572724372144,0.7174333995729685,0.858217834791541
1789757621580984000,6.008984130859375,-3.329183001154661,0.5261965419679879,0.9438666582435369
1789757621590998300,6.018998291015625,-3.161498284050822,0.2643710673987865,0.41220892826020716
1789757621601013200,6.02901318359375,-2.985421001654863,0.09587035773694515,-0.5295008442103862
1789757621611027200,6.039027099609375,-2.812859618425369,-0.03662789517343044,-1.5860118848592042
1789757621621041400,6.04904150390625,-2.705261998015642,-0.12304741073697804,-2.446321138972044
1789757621631055000,6.05905517578125,-2.6359885553032156,-0.21308599358052013,-3.0432132654100656
1789757621641069000,6.069069091796875,-2.5163532910972832,-0.25758944443464277,-3.2861791412085295
1789757621651083300,6.079083251953125,-2.3924048398673534,-0.2965475361213088,-3.193783181583881
1789757621661097200,6.08909716796875,-2.3127076182961464,-0.3885743701726198,-2.8205969346791506
1789757621671111200,6.099111083984375,-2.271330482769012,-0.4126905742973089,-2.3330320289224384
1789757621681125000,6.109125,-2.2558821537464855,-0.3857937995433807,-1.9210440499365329
1789757621691140000,6.11914013671875,-2.256222930008173,-0.38691052861362696,-1.600367157948017
1789757621701154300,6.129154296875,-2.230533777478337,-0.36111353179514405,-1.317857791790366
1789757621711168300,6.139168212890625,-2.233559262779355,-0.29735329954624173,-1.086121750536561
1789757621721182200,6.14918212890625,-2.185011797231436,-0.27075492321699857,-0.847649094504118
1789757621731196200,6.159196044921875,-2.140788040101528,-0.24109686705619096,-0.6494564264118671
1789757621741210000,6.169210205078125,-2.0784031878590583,-0.29054098918288945,-0.47862815058529373
1789757621751224300,6.179224365234375,-1.79670922973752,-0.38970162063688035,-0.18266835122406483
1789757621761238000,6.189238037109375,-1.2806629103839398,-0.4948953947752714,0.22504326561689375
1789757621771252200,6.199252197265625,-0.5953296994268894,-0.5957081773504614,0.6765022542476654
1789757621781267200,6.20926708984375,0.28906594819426534,-0.5863675175532699,1.2592793460935354
1789757621791281200,6.21928125,1.294534199348092,-0.7034861227631568,2.0695155325263737
1789757621801295400,6.22929541015625,2.5132535715162754,-1.1525132080718874,3.2809605297774076
1789757621811309000,6.23930908203125,3.9386499470055103,-1.6104913693383336,4.54520538932383
1789757621821323300,6.2493232421875,5.345497104847431,-1.9643691046610474,5.578302236637473
1789757621831337200,6.259337158203125,6.5409121737957,-2.2519509517773986,6.395084483712911
1789757621841351200,6.26935107421875,7.534041752380133,-2.575486740328371,7.158008299350738
1789757621851365000,6.279365234375,8.423555473667383,-3.001953326521814,7.733278961089253
1789757621861379000,6.289379150390625,8.70741508539021,-3.3593858317166565,7.616618913301825
1789757621871394000,6.29939404296875,8.14179371100664,-3.524337032203376,6.643367170619964
1789757621881408300,6.309408203125,6.882212167096138,-3.510601352317631,5.168550638401508
1789757621891422200,6.319422119140625,4.894740711528063,-3.3956863946318623,3.6016438515067097
1789757621901436200,6.329436279296875,2.70425895845294,-3.164348120523989,2.3218957178801296
1789757621911450000,6.3394501953125,0.7836468701928854,-2.7501085632190105,1.5513257714033126
1789757621921464300,6.34946435546875,-0.7844558484882116,-2.316404134726524,1.3510054436326027
1789757621931478300,6.359478271484375,-1.9713789834231137,-2.1148472508981824,1.7431348759382963
1789757621941492200,6.3694921875,-2.769087696716189,-2.032798205503821,2.1883488326996563
1789757621951506200,6.379506103515625,-3.0515929712206122,-2.161843979872763,2.58586814135015
1789757621961521200,6.389521240234375,-2.988569821074605,-2.4551962270841,2.9823014083296058
1789757621971535000,6.39953515625,-2.5726111848920583,-2.715277488334477,3.0293694489747285
1789757621981549300,6.40954931640625,-2.0128607483685017,-2.9063050871029494,2.4034376905351875
1789757621991563000,6.41956298828125,-1.5032915160745381,-3.0781603678897023,1.415038063082099
1789757622001577200,6.4295771484375,-0.9847913738280534,-3.133140789094567,0.31331308522224427
1789757622011591200,6.439591064453125,-0.6097703127115964,-3.1021584985926745,-0.7010808151870965
1789757622021605400,6.44960546875,-0.37386779942810533,-3.0402950398758053,-1.4236305348604916
1789757622031619300,6.459619384765625,-0.22219547497034073,-2.9214579403102396,-1.8000415890306234
1789757622041633000,6.469633056640625,-0.1331342127263546,-2.8061004995539784,-1.7809937742114066
1789757622051647200,6.479647216796875,-0.2963186958014965,-2.6376915598288178,-1.4572370363861322
1789757622061662200,6.489662109375,-0.6072603757172823,-2.494353640735149,-1.0311007050603627
1789757622071676200,6.49967626953125,-0.8603302969008684,-2.3959961423575877,-0.5043582196474075
1789757622081690400,6.5096904296875,-1.0217746583104133,-2.248520685067773,-0.03094283527433872
1789757622091704000,6.5197041015625,-1.2770453044086694,-2.116932240478694,0.2824596817970276
1789757622101718300,6.52971826171875,-1.6610972287207841,-1.9989815683588383,0.37928690186738967
1789757622111732200,6.539732177734375,-2.1005448770403863,-1.8351067649319768,0.3299707900345325
1789757622121746200,6.54974609375,-2.580219321808219,-1.7802783194184302,0.23235563445687293
1789757622131760000,6.559760009765625,-2.913506104522943,-1.7415452686592936,0.1702344015866518
1789757622141774000,6.569774169921875,-3.0707723034650085,-1.7927999473392962,0.22521803766191004
1789757622151789300,6.579789306640625,-3.1379648482501503,-1.8507485706999898,0.44736295148879285
1789757622161803300,6.58980322265625,-3.011037088948488,-2.0571546481251715,0.6476145979374647
1789757622171817200,6.599817138671875,-2.482984689980745,-2.210888289026916,0.81511022220999
1789757622181831200,6.6098310546875,-1.758946777576208,-2.42311825029999,0.9857026434540748
1789757622191845000,6.61984521484375,-0.7587789709180593,-2.7889474124401805,1.0506532545313239
1789757622201859300,6.629859375,0.4153957416027784,-3.146746997381747,0.9443620405450462
1789757622211873300,6.639873291015625,1.593888317322731,-3.4739611821845173,0.6272422565162181
1789757622221887200,6.64988720703125,2.6359260114610192,-3.6647827369868753,0.26098171722143887
1789757622231901200,6.659901123046875,3.3770027369499203,-3.7837247582316396,0.07197159575521946
1789757622241915100,6.6699150390625,3.897625862699747,-3.8352909870788454,0.11337445024549961
1789757622251930000,6.67993017578125,3.9692520060181615,-3.8526185539767144,0.4489934753000736
1789757622261944300,6.6899443359375,3.4167788670212027,-3.94578432893008,0.9801385795861483
1789757622271958000,6.6999580078125,2.4560884997487067,-3.9311663132518526,1.6196934974476693
1789757622281972200,6.70997216796875,1.3226537938952445,-3.7746640844196078,2.2349302588716147
1789757622291986200,6.719986083984375,0.04951718736290931,-3.542828382183611,2.507308399376273
1789757622302000400,6.73000048828125,-0.9694804074496031,-3.266742911593616,2.59330004491657
1789757622312014000,6.74001416015625,-1.4221616313517094,-3.018961452206969,2.607973882435262
1789757622322028300,6.7500283203125,-1.2564853314608335,-2.969568768006563,2.699023103626072
1789757622332042200,6.760042236328125,-0.6477104595273733,-3.0720833860635754,2.946327593150735
1789757622342057200,6.77005712890625,0.13408406079709528,-3.180016522037983,3.196904820735752
1789757622352071200,6.7800712890625,0.9032587535232305,-3.0340748501867054,3.2099943116724488
1789757622362085000,6.790085205078125,1.3138678453713655,-2.7711037127137184,2.875248270060122
1789757622372099000,6.80009912109375,1.3631395335406065,-2.5655291176766157,2.4171397604122755
1789757622382113300,6.81011328125,1.3662632185190915,-2.3809198615178464,1.9287498020082712
1789757622392127200,6.820127197265625,1.390401049953699,-2.2585884900957343,1.5504200547352431
1789757622402141200,6.83014111328125,1.4832184498608112,-2.1462498126387595,1.2890449542820452
1789757622412155100,6.840155029296875,1.624828229987621,-1.8631550478085874,1.1578805803239345
1789757622422169000,6.850169189453125,1.6700585338115692,-1.5722987090662122,1.1570137343615292
1789757622432183300,6.860183349609375,1.5871148776650428,-1.2206462485775351,1.3773434154599904
1789757622442198300,6.8701982421875,1.4958271715432405,-0.8818006626918912,1.8589044046267866
1789757622452212000,6.8802119140625,1.4108797743588686,-0.6516942684665322,2.438096331462264
1789757622462226200,6.89022607421875,1.3265940559536218,-0.5642690829917788,3.0024107149004933
1789757622472240000,6.900240234375,1.2707903356671333,-0.500153461433947,3.4116654695302246
1789757622482254300,6.91025439453125,1.1619815859019755,-0.42088995510488747,3.544821894088387
1789757622492268000,6.92026806640625,0.8492693891823291,-0.3666144672989845,3.3849230085551736
1789757622502282200,6.9302822265625,0.419805374738574,-0.26687106752097606,2.9792589718937874
1789757622512296200,6.940296142578125,-0.08056523657739162,-0.2059095260798931,2.5831387163862582
1789757622522310100,6.95031005859375,-0.6394996805429458,-0.13306231653392314,2.2420982508048413
1789757622532325400,6.960325439453125,-1.1832967611312866,-0.11772972284555434,2.0345903496176003
1789757622542339000,6.970339111328125,-1.6708189967900513,-0.265142344032228,1.9777818362027406
1789757622552353000,6.98035302734375,-1.9621078817307949,-0.48505730684995646,2.0810618856742975
1789757622562367200,6.9903671875,-2.119908918201923,-0.7739236408188939,2.1264023718744514
1789757622572381200,7.000381103515625,-2.089858647853136,-1.1402975773602724,2.1500576804891227
1789757622582395400,7.0103955078125,-1.9089263266414402,-1.5418980178445576,1.9464821503147482
1789757622592409000,7.0204091796875,-1.722312452661991,-1.9125532849669455,1.513286548127234
1789757622602423300,7.03042333984375,-1.6207564505040644,-2.2590607837826013,0.9293255071938037
1789757622612437200,7.040437255859375,-1.5877677886158228,-2.5327502991467714,0.32094518753588197
1789757622622451200,7.050451171875,-1.4975427432894706,-2.6953265871956944,-0.20980770256221293
1789757622632466400,7.060466552734375,-1.5330729063540696,-2.8355519272267817,-0.5187742830127478
1789757622642480000,7.070480224609375,-1.6243366470783949,-2.9044033451348543,-0.6944672422662377
1789757622652494000,7.080494140625,-1.715960453286767,-2.9274770544692874,-0.703247053310275
1789757622662508300,7.09050830078125,-1.8031828096657991,-2.9538518511757252,-0.6195131235688924
1789757622672522200,7.100522216796875,-1.8240981719225644,-2.975205020327866,-0.5350386045932769
1789757622682536200,7.1105361328125,-1.7834066805720328,-2.959659660671651,-0.4999713828653097
1789757622692550100,7.120550048828125,-1.675720797356963,-3.001777677693963,-0.4206102613806724
1789757622702564400,7.130564453125,-1.525834187272191,-2.99594590280056,-0.2763718863159418
1789757622712578300,7.140578369140625,-1.4633295080423354,-2.957334432594478,-0.20954174510240553
1789757622722592300,7.15059228515625,-1.4317717557400464,-2.94918999684453,-0.12679887222498654
1789757622732607200,7.160607177734375,-1.3611743709474802,-2.8865023622632027,-0.036165538358688354
1789757622742621200,7.17062109375,-1.2127753690719605,-2.7078403240710496,-0.10509791254848241
1789757622752635100,7.18063525390625,-1.1127882236659525,-2.509638303628564,-0.24051380647122858
1789757622762649300,7.1906494140625,-1.0996078395754099,-2.468892744003236,-0.2478352354004979
1789757622772663300,7.200663330078125,-1.0397124660611152,-2.415467735546827,-0.19566548770219086
1789757622782677200,7.21067724609375,-1.0504022023797035,-2.3091510948583482,-0.19159166239202022
1789757622792691200,7.220691162109375,-1.0956395204663276,-2.251196334017813,-0.26211189029514786
1789757622802705400,7.230705322265625,-1.0550029741734266,-2.083237476147711,-0.27382453992068767
1789757622812719400,7.24071923828125,-0.9582020575881004,-1.8947829427376388,-0.2493149525642395
1789757622822733000,7.250733154296875,-0.7260217796981334,-1.7871596033647656,-0.22131752309203145
1789757622832748300,7.260748291015625,-0.17400398325324057,-1.6663497424215077,-0.1386105983108282
1789757622842762200,7.27076220703125,0.693955493351817,-1.4898001663386822,-0.23875498010516166
1789757622852776200,7.280776123046875,1.740231555712223,-1.5370198904141783,-0.4413420837640762
1789757622862790400,7.290790283203125,2.879945780226588,-1.626820572848618,-0.8178045758605003
1789757622872804000,7.30080419921875,4.032835128134489,-1.5884557708799838,-1.3007570193856954
1789757622882818300,7.310818359375,4.963589791348577,-1.4431667177185414,-1.703755636230111
1789757622892832300,7.320832275390625,5.63903230741024,-1.2642879680357872,-1.9309990422397851
1789757622902846500,7.330846435546875,6.141484985697269,-1.0512215559385716,-2.073444104146957
1789757622912860200,7.340860107421875,6.411123764365911,-0.5570543293073773,-2.43640589415729
1789757622922874000,7.3508740234375,6.439713314512372,0.04928454765081405,-2.9889772328317163
1789757622932889300,7.360889404296875,6.449690518647432,0.4739864622592926,-3.403447676283121
1789757622942903300,7.3709033203125,6.641203270584344,0.8776045261763036,-3.620308804488182
1789757622952917200,7.380917236328125,6.820636877670884,1.181233398860693,-3.82456822527349
1789757622962931200,7.39093115234375,7.001401441100239,1.4330207328878342,-4.031255165466666
1789757622972945200,7.400945068359375,7.119079141497612,1.7233884113304316,-4.334427380424738
1789757622982959400,7.41095947265625,7.088575282162427,1.8861983620047569,-4.535519277089834
1789757622992973300,7.420973388671875,6.992495665588975,1.956744747262448,-4.544775765734911
1789757623002987300,7.4309873046875,6.85363489190936,2.1252514482736586,-4.372870800587535
1789757623013001200,7.441001220703125,6.52953445521295,2.3199527671188114,-4.042424209734797
1789757623023015200,7.45101513671875,6.0361921350985765,2.4786481220811605,-3.6415666965723035
1789757623033030100,7.461030029296875,5.40577475567758,2.589930276222527,-3.226165694272518
1789757623043044400,7.47104443359375,4.697925761529803,2.64144448262155,-2.7981045323640106
1789757623053058000,7.48105810546875,4.050889840263128,2.6806448586314917,-2.444704351425171
1789757623063072300,7.491072265625,3.452531148403883,2.698492065489292,-2.313388586297631
1789757623073086200,7.501086181640625,2.815987395057082,2.541227620112896,-2.329010518321395
1789757623083100400,7.511100341796875,2.311402965438366,2.3551311941362916,-2.404528408381343
1789757623093114000,7.521114013671875,1.9166005145311356,2.1483888704940677,-2.573573892444372
1789757623103128300,7.53112841796875,1.511359671717882,1.8771204447969794,-2.7680110073953865
1789757623113142300,7.541142333984375,1.1335118627429008,1.5844097103595733,-3.0069319917172193
1789757623123156200,7.55115625,0.6961328373908996,1.411358205525577,-3.2736008146643636
1789757623133171200,7.561171142578125,0.052578913021087643,1.1688061712250113,-3.434154949235916
1789757623143185200,7.57118505859375,-0.6702069534957409,0.9833397137150168,-3.573358837264776
1789757623153199000,7.58119921875,-1.3814929363548756,0.8847171346604824,-3.671443363919854
1789757623163213300,7.59121337890625,-2.102050020906329,0.8392045067638159,-3.716404787674546
1789757623173227300,7.601227294921875,-2.6698580916792154,0.7704168017417192,-3.686421152821183
1789757623183241200,7.6112412109375,-3.0941870813220738,0.6868745951801538,-3.5285815379053354
1789757623193255200,7.621255126953125,-3.219073105663061,0.7183008300572633,-3.3363790501385924
1789757623203269000,7.63126904296875,-3.150052760928869,0.6768605661660433,-3.0001246497899294
1789757623213283300,7.641283447265625,-2.9239269607722758,0.5319330397933721,-2.5533231315761804
1789757623223297300,7.65129736328125,-2.6632038944870233,0.4337675568565726,-2.1046511433154342
1789757623233312300,7.661312255859375,-2.441719782656431,0.3995587055236101,-1.788026157066226
1789757623243326200,7.671326171875,-2.171252736470103,0.2929211623176932,-1.314060737594962
1789757623253340200,7.681340087890625,-1.8789514596164225,0.2720350261554122,-0.8963748392283916
1789757623263354400,7.691354248046875,-1.5734242059648036,0.462299531596899,-0.5332295093446969
1789757623273368300,7.701368408203125,-1.263506023877859,0.5865192009836435,-0.12537936081588266
1789757623283382300,7.71138232421875,-1.1012538532167673,0.9858516965359448,0.0881166748702526
1789757623293396200,7.721396240234375,-0.5816068790227175,1.2778618814885616,0.5511380910009145
1789757623303410200,7.73141015625,-0.8801210390418768,0.13910744191706179,2.041079711636901
1789757623313424400,7.74142431640625,-0.7016799501240253,0.9730796009853482,2.0617823079258204
1789757623323438000,7.75143798828125,-0.011152093133330345,1.4636898657873272,2.3363573739528656
1789757623333453000,7.761453125,-0.045725978386402126,0.9673100776731968,2.6602590732067823
1789757623343467300,7.77146728515625,0.013261632633209227,0.5460673636078834,3.004893763887882
1789757623353481200,7.781481201171875,0.25778993544280526,0.48296442622393365,2.8755858314514158
1789757623363495400,7.791495361328125,0.32881051408350465,0.5574971046388149,2.5892338183909653
1789757623373509000,7.801509033203125,0.1458265210390091,0.2872451625078916,2.4346891533672808
1789757623383523300,7.8115234375,0.02460077277123928,0.2645207050025463,2.379844633501768
1789757623393537300,7.821537353515625,0.0859644652724266,0.342558761189878,2.445026422986388
1789757623403551200,7.83155126953125,0.11050853942036629,0.37038726383596654,2.548237791135907
1789757623413565200,7.841565185546875,0.3787134858936071,0.4997048408836126,2.6820681694328785
1789757623423579100,7.8515791015625,0.8485656248271465,0.7036918744683265,2.9051825128138065
1789757623433594000,7.861593994140625,1.611094888189435,0.8085004486814141,3.1403052738964554
1789757623443608300,7.8716083984375,2.8066923279672857,0.593068184235692,3.537008005467057
1789757623453622300,7.881622314453125,4.081825661274791,0.3012023761898279,3.8084862745225427
1789757623463636200,7.89163623046875,4.931059394621848,-0.08389993395805359,3.886692965275049
1789757623473650200,7.901650146484375,5.041944366139173,-0.3660530340239405,3.678189331048727
1789757623483664400,7.911664306640625,4.480465498387813,-0.34542496427595615,2.9410931996285914
1789757623493678300,7.92167822265625,3.247508342030644,-0.08080956672728061,1.7642653422504662
1789757623503692000,7.931692138671875,1.6888310388207435,0.2265685754880309,0.7413684019118547
1789757623513706200,7.941706298828125,0.21015490856468677,0.46859161747843026,-0.009682020580768584
1789757623523720200,7.95172021484375,-1.001812066733837,0.7058183651030063,-0.5289817887723446
1789757623533735200,7.961735107421875,-1.8619301821887493,0.9938795201689005,-0.9106295745521783
1789757623543749400,7.971749267578125,-2.351186694294214,1.1682868235260246,-1.0566595092087983
1789757623553763000,7.98176318359375,-2.5526462552279234,1.1917625377900898,-1.0949924547344445
1789757623563777300,7.99177734375,-2.535012983381748,1.2109978380054234,-1.322080377921462
1789757623573791200,8.001791259765625,-2.3808429968893527,1.151160039897263,-1.680547779121995
1789757623583805200,8.01180517578125,-2.210821361270547,1.079511246355623,-2.0589315946698186
1789757623593819100,8.021819091796875,-2.1663129419803617,1.04424937883839,-2.3814994149714708
1789757623603833000,8.0318330078125,-2.230077265882492,1.1194038424134254,-2.622002700048685
1789757623613847300,8.041847412109375,-2.3115958576619624,1.2632573098137974,-2.6856939587146043
1789757623623861200,8.051861328125,-2.429545360738039,1.4160045700266957,-2.6980729632943867
1789757623633875200,8.061875244140625,-2.5010896709918975,1.6123125934161244,-2.7221616948902607
1789757623643890200,8.07189013671875,-2.5469290466248986,1.6983572843179107,-2.657215467727184
1789757623653904100,8.081904052734375,-2.2847920218884945,1.8091208214126526,-2.4729689074009658
1789757623663918300,8.09191845703125,-1.8156331259161234,1.9199508478723466,-2.2580349478662014
1789757623673932300,8.101932373046875,-1.2565128039896487,2.008897982217371,-2.116675343108177
1789757623683946200,8.1119462890625,-0.538747980505228,2.283100269409269,-2.0684528717309236
1789757623693960200,8.121960205078125,0.1429109258532524,2.5874934044644236,-1.9997516759485006
1789757623703974100,8.13197412109375,0.788705322626233,2.8234166682749984,-1.7359610387861728
1789757623713988400,8.14198828125,1.2827414702236652,3.047627282460034,-1.4508809453576803
1789757623724002000,8.152001953125,1.6067787785559893,3.3813384280666705,-1.348589614662528
1789757623734016300,8.162016357421875,1.795286503458023,3.6216187180429693,-1.270235039871931
1789757623744031200,8.17203125,2.13407013002336,3.6586695148035884,-1.0243903937667607
1789757623754045200,8.182045166015625,2.702632234033942,3.459432890616357,-0.5083499196320772
1789757623764059400,8.192059326171876,3.3511744682103393,3.12484496217519,0.15771803436279297
1789757623774073000,8.202072998046875,3.91220383862853,2.6184116898193954,0.8622253168672322
1789757623784087300,8.21208740234375,4.24081853787899,1.9541984237805008,1.559087053054571
1789757623794101200,8.222101318359375,4.199977408924698,1.3297668407708405,1.913335959777236
1789757623804115200,8.232115234375,3.8026661900669336,0.8581067756325006,1.7308277675509451
1789757623814129200,8.242129150390625,3.0783798558592794,0.5865098486334085,1.1460299835324286
1789757623824143000,8.25214306640625,2.262965974527597,0.3559372982010245,0.4920680623948574
1789757623834157300,8.2621572265625,1.4964596242278814,0.22313772425651549,-0.05908464165329933
1789757623844172300,8.27217236328125,1.100504496154189,0.6460413572713732,-0.6686591395318507
1789757623854186200,8.282186279296875,1.129663955143094,1.42088298971802,-1.2410621368795633
1789757623864200200,8.2922001953125,1.8932208079874515,1.5335454923018812,-1.0946282975971697
1789757623874214100,8.302214111328125,3.563284017974138,0.7798644290447234,0.11401157910525798
1789757623884228400,8.312228271484376,5.5546261774957175,0.1055035707399249,1.4879922401338814
1789757623894242300,8.3222421875,7.1051435551255935,-0.2669786195486784,2.65422096208632
1789757623904256000,8.332256103515626,7.920803520172834,-0.7409618669375777,3.505284833469987
1789757623914270200,8.342270263671875,8.070355783736705,-1.0374646871343254,3.665777593243122
1789757623924284200,8.3522841796875,7.410390822792053,-1.1059694835618137,3.1404636793285605
1789757623934298400,8.36229833984375,6.113960434433817,-1.0844129007920622,2.0351567513287065
1789757623944313300,8.372313232421876,4.617257649099827,-1.161113570895791,0.9543658404260873
1789757623954327000,8.3823271484375,3.233814163199067,-1.3255463004663586,0.12150281164348124
1789757623964341200,8.39234130859375,1.9948539670348167,-1.5142656222924589,-0.40311610574424267
1789757623974355200,8.402355224609375,0.8981149608939886,-1.8298305780947208,-0.5636427677869796
1789757623984369200,8.412369140625,-0.15699030461013316,-2.081077960026264,-0.4440443284600973
1789757623994383000,8.422383056640625,-1.1214128441482782,-2.3131088925734162,-0.09726502696573734
1789757624004397000,8.43239697265625,-1.9119716856867073,-2.6268632918223735,0.1842600043296814
1789757624014411300,8.442411376953125,-2.6090853508085012,-2.8944509831801053,0.26298165886700153
1789757624024425200,8.45242529296875,-3.3363352109968663,-3.0975764314994216,0.13290858727693558
1789757624034439200,8.462439208984375,-3.9241076269119977,-3.259458307543397,-0.16993395733535288
1789757624044454100,8.4724541015625,-4.170399432262778,-3.4304128400981426,-0.46744273970425126
1789757624054468000,8.482468017578125,-4.0396997532069685,-3.588923778404295,-0.6007148995965719
1789757624064482300,8.492482421875,-3.5825475213706492,-3.795809456039965,-0.46502048099339005
1789757624074496300,8.502496337890625,-2.9170494762182235,-4.113857460829616,-0.10597440312206745
1789757624084510200,8.51251025390625,-2.2896908998459575,-4.484946735455096,0.6227630652755498
1789757624094524200,8.522524169921875,-1.69741649633646,-4.97874469038248,1.451506383779645
1789757624104538000,8.5325380859375,-1.1559703627884388,-5.447056029614806,2.3052117095828053
1789757624114552300,8.54255224609375,-0.6645359221220016,-5.868416232579946,3.2397417996823785
1789757624124566300,8.552566162109375,-0.24917758992016315,-6.085348672455549,3.8751527496069667
1789757624134580200,8.562580322265624,0.13047931430339813,-6.103778647637367,4.423920019823313
1789757624144595200,8.57259521484375,0.7071954986751079,-5.888106436955929,4.853057286530733
1789757624154609200,8.582609130859375,1.508499021589756,-5.594339179202914,5.075113060769438
1789757624164623400,8.592623291015625,2.349536004477739,-5.485332276517153,5.3304971041142934
1789757624174637300,8.60263720703125,3.0998131045103072,-5.423703211078047,5.6053287752509116
1789757624184651300,8.6126513671875,3.679641283422708,-5.150405909901857,5.435393064349889
1789757624194665200,8.622665283203125,3.7844694391191003,-4.702390047462284,4.884553079512715
1789757624204679200,8.63267919921875,3.5732951243788,-4.205140783037245,4.259391720923781
1789757624214693400,8.642693359375,3.247002730596065,-3.6309082321748134,3.585947100681066
1789757624224707000,8.65270703125,2.4851912601143122,-3.1318177237972615,2.7667238901942968
1789757624234721300,8.66272119140625,1.1547440358638763,-2.4753204389631747,1.7965151684701441
1789757624244736300,8.672736328125,-0.29453707308173177,-1.528859088051319,0.8572720783740282
1789757624254750200,8.682750244140625,-1.4596423439621924,-0.9804407774031162,0.20685235988795755
1789757624264764400,8.692764404296875,-2.253171725744009,-0.8295616491496562,-0.21367606842815876
1789757624274778000,8.702778076171874,-2.5287685360342262,-0.8605076992943882,-0.2587520584732294
1789757624284792000,8.7127919921875,-2.4791490573406216,-1.0613622800722717,0.08984802870750427
1789757624294806300,8.72280615234375,-2.1749626969039437,-1.3465569397911428,0.7601794853657483
1789757624304820200,8.7328203125,-1.9170330607295034,-1.6542746892243623,1.361993286114931
1789757624314834200,8.742834228515624,-2.157170435103774,-1.8112156017348169,1.415841780680418
1789757624324848000,8.75284814453125,-2.7975883995354174,-1.7105504109367726,0.8911620730161667
1789757624334863000,8.762863037109375,-3.547528814959526,-1.3762562047451734,-0.19829905107617377
1789757624344877300,8.772877197265625,-4.230311756911874,-0.8723591728687285,-1.4600690449416636
1789757624354891300,8.782891357421875,-4.208818887028098,-0.41799043427109717,-2.3907184942156077
1789757624364905200,8.7929052734375,-3.2383003687024114,-0.28893092363774775,-2.656684137329459
1789757624374919200,8.802919189453124,-1.8579834903895853,-0.40854835992604493,-2.139377588781714
1789757624384933000,8.81293310546875,-0.5235591792017221,-0.39473946867361664,-1.5337316625237465
1789757624394947300,8.822947265625,0.5105518135905266,-0.40463133261278267,-1.1581056212514638
1789757624404961000,8.8329609375,1.140846443414688,-0.41629444400817156,-1.107653198865056
1789757624414975200,8.842975341796874,1.1767799265831709,-0.25607158721759915,-1.500730725675821
1789757624424989200,8.8529892578125,0.7263450203031301,0.008844692973792553,-2.235913132429123
1789757624435004200,8.863004150390625,0.05472995357513427,0.32666853361874815,-2.9075504109889265
1789757624445018400,8.873018310546875,-0.4917623574465513,0.7433847101703286,-3.4605344221174716
1789757624455032000,8.883031982421874,-0.844482154905796,1.136365644738823,-3.797387372881174
1789757624465046300,8.89304638671875,-0.7115092702209949,1.3945719058975576,-3.643880234211683
1789757624475060200,8.903060302734374,-0.174290398979187,1.7860893437847494,-3.4236803169727326
1789757624485074200,8.91307421875,0.2576987500280142,2.168122329489887,-3.0798417451053854
1789757624495088000,8.923088134765624,0.8048843040108681,2.4736495831415057,-2.530824299520254
1789757624505102000,8.93310205078125,1.7128204016953705,2.9495658444195985,-1.9633985060632229
1789757624515116300,8.9431162109375,2.584986097818613,3.2212615556180477,-1.2837065158635377
1789757624525130200,8.953130126953125,3.09796192368567,3.2881688537210225,-0.677957713752985
1789757624535145200,8.963145263671874,3.4576971528649327,3.3808111893221735,-0.28819851770997046
1789757624545159200,8.9731591796875,3.537147706198692,3.494073703625798,-0.1414244866877794
1789757624555173000,8.983173095703124,3.4428497123450037,3.4710406185626983,-0.045720717689394945
1789757624565187800,8.993187744140625,3.3617993225991722,3.1762384648039936,0.11135784972608088
1789757624575202000,9.0032021484375,3.3385587322652337,2.764147317704558,0.22827742523252964
1789757624585216000,9.013216064453125,3.540644316142797,2.234980235493183,0.343112595680356
1789757624595230000,9.02322998046875,3.8762954899013042,1.4486553782626985,0.7546551689863205
1789757624605244000,9.033243896484375,3.900165610310435,0.8609843768954276,1.174977845597267
1789757624615257900,9.0432578125,3.5410914753884075,0.6677358872070908,0.9774965406447649
1789757624625272000,9.05327197265625,3.0303648897528648,0.6624073856607079,0.5158341379076242
1789757624635287000,9.063287109375,2.5503578520298005,0.7654270306304096,-0.23997370824515818
1789757624645301000,9.073301025390625,2.125273075583577,0.8033630857929587,-0.9284802885413169
1789757624655315000,9.08331494140625,1.7809563648104667,1.0215981326997279,-1.2934896587312221
1789757624665329000,9.093328857421875,1.5866197876244783,1.472729789072275,-1.4370944120675324
1789757624675343000,9.103343017578124,1.8584008390188216,1.6991858440965413,-1.2380588634103535
1789757624685356800,9.113356689453125,2.9853683946847913,1.526222309806943,-0.6627338411360979
1789757624695371000,9.12337109375,4.538219183698296,0.913571180962026,-0.07138707386553288
1789757624705385000,9.133385009765625,6.214435071095824,0.25221008948385715,0.3099474081814289
1789757624715399000,9.14339892578125,7.565439345684647,-0.2729416196063161,0.4279436730086803
1789757624725412900,9.153412841796875,7.911040251049399,-0.5482099285945295,0.13752338759601115
1789757624735427800,9.163427734375,7.189401801002025,-0.5343532526776195,-0.597596475315094
1789757624745441800,9.17344189453125,5.514036392953992,-0.5237321976810694,-1.4316443299680948
1789757624755456000,9.1834560546875,3.1559803974121805,-0.6926356429249048,-2.1599691259115934
1789757624765470000,9.193469970703125,0.8330021449923515,-0.7363742468863725,-2.7379396942585705
1789757624775484000,9.20348388671875,-1.3268307873189449,-0.8863117103755473,-3.021558482962847
1789757624785497900,9.213497802734375,-3.3180139568865297,-1.0919567403003574,-3.1021459313720463
1789757624795512000,9.223511962890624,-4.886344639104604,-1.2629755702629684,-3.1548692212998866
1789757624805526000,9.233526123046875,-5.919914364627004,-1.5573510230422019,-2.981929652407765
1789757624815539700,9.243539794921874,-6.362277608132362,-1.9251427174270153,-2.632390823072195
1789757624825554000,9.253553955078125,-6.313226284715533,-2.304861873231828,-2.321561371359229
1789757624835569000,9.26356884765625,-6.00321165651679,-2.740480610913038,-2.2999983588486907
1789757624845582800,9.273582763671875,-5.569377756425738,-3.2050495487466453,-2.368917581295967
1789757624855597000,9.28359716796875,-5.026474994328618,-3.5522403536513445,-2.5283412505328653
1789757624865610800,9.29361083984375,-4.519304055348038,-3.86573756326884,-2.7848370545119043
1789757624875625000,9.303625,-4.0669104162156575,-4.2127404443860055,-2.8619331536740065
1789757624885639000,9.313638916015625,-3.7040544246673583,-4.612310255825519,-2.620363116148114
1789757624895653000,9.323653076171874,-3.223324917888641,-4.772100128026306,-2.2435317907392975
1789757624905667000,9.3336669921875,-2.5522937885284422,-4.659545469731092,-0.7107067216664552
1789757624915680800,9.3436806640625,-2.4522265636235474,-4.727384787987172,-0.7670517092227935
1789757624925695000,9.353695068359375,-2.2218992201238867,-4.760647882902622,0.3472480880498886
1789757624935710000,9.3637099609375,-2.2517677041649815,-4.477077901776135,1.3528601315885782
1789757624945724000,9.373723876953125,-2.588171742117405,-4.165437133680284,2.2994658594071864
1789757624955738000,9.383738037109374,-2.995969283676147,-3.709990828979015,3.1986610167533156
1789757624965751800,9.393751708984375,-3.1996336611777543,-3.3019621090129014,3.9956250491589307
1789757624975766000,9.40376611328125,-2.8411960705935955,-3.075512483729422,4.641780095937848
1789757624985780000,9.413780029296875,-1.667261012047529,-2.9789804472133516,5.098168357664346
1789757624995794200,9.423794189453124,-0.038728666844964024,-3.0223014102846384,5.573571700984239
1789757625005807900,9.433807861328125,1.7366320699155329,-3.0939176167309284,5.816518872082233
1789757625015821800,9.44382177734375,3.341244025826454,-2.9573166046768424,5.774144542211294
1789757625025837000,9.453837158203125,4.271500676390528,-2.6408210900261997,5.650113673394918
1789757625035851000,9.46385107421875,4.53429645729661,-2.23853851249665,5.45999149903357
1789757625045865000,9.473864990234375,4.440052823978662,-1.9556740492910145,5.153612012466788
1789757625055879000,9.48387890625,4.218857465961575,-1.8111662096351384,4.757829318350553
1789757625065892900,9.493892822265625,3.7983763839185234,-1.877971508668363,4.401386700975895
1789757625075907000,9.503906982421874,3.1579514052242037,-1.9364722129538654,3.874613235902786
1789757625085921000,9.513921142578125,2.2273750211864707,-1.846727060098946,3.1566672106325626
1789757625095935000,9.52393505859375,0.9745248313575983,-1.6361565564706921,2.408254150906205
1789757625105949000,9.533948974609375,-0.23798107312321662,-1.4463845107212663,1.6430448546797036
1789757625115963000,9.543962890625,-1.181473637357354,-1.3709367632880807,1.0244558602184057
1789757625125978000,9.55397802734375,-1.6575415820658206,-1.1869503152027725,0.4080997393757105
1789757625135992000,9.563991943359374,-1.8550363310217857,-0.9402326856553554,-0.5239946480095387
1789757625146005800,9.574005859375,-2.0523276663601395,-0.8101458778008818,-1.457351018154621
1789757625156020000,9.58402001953125,-2.2552426867991686,-0.6567965600416064,-2.183483272489905
1789757625166034000,9.594033935546875,-2.400594576063752,-0.40494039856195446,-2.646426947209239
1789757625176048000,9.604048095703124,-2.48506441886425,0.03491232342720031,-2.642273334661126
1789757625186061800,9.614061767578125,-2.388069441011548,0.5671393777310848,-2.4703502493351697
1789757625196076000,9.624075927734374,-2.1156448310166596,0.975935282677412,-1.9773796851426362
1789757625206090000,9.634090087890625,-1.7828595680832862,1.3326932496115564,-1.5270207667082547
1789757625216105000,9.64410498046875,-1.26467915931046,1.4274724511109291,-1.1172165615022183
1789757625226119200,9.654119140625,-0.40688802549839015,1.523421719302982,-0.9402133964329957
1789757625236132900,9.6641328125,0.40202363433241844,1.5989152055740357,-1.1120166547715664
1789757625249902000,9.677902099609375,0.8861983131289481,1.787439443219453,-1.609474008989334
1789757625259916000,9.687916015625,1.1635580414384603,2.00628502324,-2.2451398104578257
1789757625269930000,9.697929931640624,1.4461153383910654,2.0850069700382647,-2.738731721419096
1789757625279944000,9.70794384765625,1.6428151375770568,2.1692299984708425,-3.108503775966167
1789757625289959000,9.717958984375,1.646406440067291,2.2740865034788844,-3.298005772602558
1789757625299973000,9.72797314453125,1.4326923777163028,2.3785028635039924,-3.366338135072589
1789757625309987000,9.737987060546875,0.9557996726214885,2.4566259676262736,-3.2142396941572424
1789757625320000800,9.748000732421875,0.44598201852440833,2.4912831472486254,-2.919706128206849
1789757625330015000,9.758014892578124,0.06208090085983276,2.4588246467143295,-2.373285713377595
1789757625340029000,9.76802880859375,-0.30683366007506846,2.428031595174223,-1.8814654882639645
1789757625350043100,9.778043212890625,-0.7620920409888029,2.391629033189267,-1.6114625524580477
1789757625360056800,9.788056884765625,-1.0118231731384992,2.2284992029108106,-1.3604384578883648
1789757625370071000,9.798071044921874,-0.9423989237785338,2.225625693301111,-1.1569067668557167
1789757625380085000,9.8080849609375,-0.8233300612837076,2.2145954729817805,-1.0806617315649987
1789757625390100000,9.818099853515625,-0.47235097001194953,2.271056195872277,-0.9517840072393416
1789757625400114200,9.8281142578125,0.126249713909626,2.2460312063395977,-0.6947194634616375
1789757625410128000,9.8381279296875,0.7086398522645234,2.0175975676320492,-0.435025740224123
1789757625420141800,9.848141845703125,1.2850444864690302,1.636338488908857,-0.1949345430791378
1789757625430156000,9.858156005859374,1.8616145403683184,1.1073938172765077,0.07102934646904469
1789757625440170000,9.868169921875,2.4386902057021853,0.70810077695176,0.17992752808332443
1789757625450184000,9.878183837890624,3.0025369716286656,0.6841419553458691,-0.048126025265455244
1789757625460198000,9.888197998046875,3.349267173284292,1.0704634320251643,-0.6191121415525674
1789757625470212000,9.898212158203124,3.695835462376475,1.6380331639975307,-1.1647680017501114
1789757625480226000,9.90822607421875,3.991800522434711,2.080204245931655,-1.3294336632937191
1789757625490241000,9.918240966796875,4.277359923812747,2.416491379506141,-1.2306664150714874
1789757625500255000,9.9282548828125,4.658107545882463,2.7394045061141252,-0.7834329351812601
1789757625510269000,9.93826904296875,5.4065661983162165,2.9873101764023304,0.03852466870546341
1789757625520283000,9.948282958984375,6.6514832570582625,3.0939281381249426,1.2502426376789808
1789757625530297000,9.958297119140624,8.202644777810573,2.888681459867954,2.7596184421032666
1789757625540310800,9.968310791015625,9.729855514132977,2.320375522575527,3.9914322736442087
1789757625550325000,9.978324951171874,10.502885713243485,1.6324667620420454,4.409463039925694
1789757625560339000,9.9883388671875,10.1047538256526,1.1153760482020676,3.6809745778530836
1789757625570352600,9.9983525390625,8.627026958945393,0.8282057044960558,2.262371515765786
1789757625580367600,10.00836767578125,6.564572450846433,0.5949494679376482,0.8288006016492843
1789757625590381300,10.01838134765625,4.162877220064401,0.19781258273348212,-0.268864871686697
1789757625600395500,10.0283955078125,1.9010124847769736,-0.061076253861933945,-0.9784849671602248
1789757625610409500,10.038409423828124,-0.16710779399871825,-0.29934476562440393,-1.3965864605903624
1789757625620423700,10.048423583984375,-2.073451702931523,-0.5872443003877997,-1.4873434208363294
1789757625630437400,10.058437255859374,-3.565399402692914,-0.8930869035989045,-1.388202078604698
1789757625640451300,10.068451416015625,-4.632596672528982,-1.2362690573841333,-1.3512141179472208
1789757625650465500,10.078465576171874,-5.18964077270329,-1.6293533061966299,-1.5087135411232708
1789757625660479500,10.0884794921875,-5.228804908356071,-1.9640873651102184,-1.7470412357270717
1789757625670494500,10.098494384765624,-4.944405198407173,-2.378205341862142,-1.9261475105553865
1789757625680508400,10.10850830078125,-4.538645300155878,-2.8084654751196503,-2.1934943788945676
1789757625690522400,10.1185224609375,-4.220908553272485,-3.1359114228516813,-2.7026176209867
1789757625700536600,10.12853662109375,-4.150736700415611,-3.5122096642971035,-3.176187903660536
1789757625710550500,10.138550537109374,-4.2214901525527235,-3.9059500389307735,-3.563866201776266
1789757625720564500,10.148564453125,-4.230894525235891,-4.15152229783535,-3.7434593833386898
1789757625730578400,10.158578369140624,-4.1232606644690035,-4.225405864691734,-3.7418753290176388
1789757625740592400,10.16859228515625,-3.994645390471816,-4.340537095476686,-3.569610298386216
1789757625750606600,10.178606689453124,-3.8582325944662093,-4.314119920933246,-3.201497116962075
1789757625760620300,10.188620361328125,-3.6322459105193614,-4.173270019263029,-2.664427298802137
1789757625770635300,10.19863525390625,-3.453883147534728,-3.957822557248175,-1.8729525114625691
1789757625780649500,10.2086494140625,-3.0933354329288005,-3.7374051978662606,-0.844345961305499
1789757625790663400,10.218663330078124,-2.66171745532155,-3.3900942737132307,0.15627251172959802
1789757625800677600,10.228677734375,-2.236774133172631,-3.065993252494931,1.0287310533195733
1789757625810691300,10.23869140625,-1.6317635822087526,-3.0031703010961412,1.891905049213767
1789757625820705500,10.24870556640625,-0.6941092226088047,-2.8333064863875506,2.6649469387620686
1789757625830719500,10.258719482421874,0.4881985274851322,-2.610672327739,3.3567309332937
1789757625840733400,10.2687333984375,1.711461972823739,-2.484223876386881,3.9395910272479053
1789757625850747400,10.278747314453126,2.95282630752027,-2.357245848202705,4.587849768307805
1789757625860762400,10.288762451171875,4.045723835802078,-2.135997006432712,5.22576597905159
1789757625870776300,10.2987763671875,4.793085925170779,-2.0828993302345276,5.931712938970327
1789757625880790500,10.30879052734375,5.220445660811662,-1.9926760384738444,6.352009896618127
1789757625890804500,10.318804443359374,5.14172751340568,-1.8373294094175099,6.315851957044005
1789757625900818400,10.328818359375,4.455418735414743,-1.5153773829266428,5.798243795201182
1789757625910832400,10.338832275390626,3.429744731578231,-0.9730883688136934,4.979595754253864
1789757625920846300,10.348846435546875,2.4195664030373094,-0.44052638346701856,4.171236467608809
1789757625930860500,10.358860595703124,1.7380974662929771,-0.014428630585968494,3.5412037035912274
1789757625940874200,10.368874267578125,1.5203145470678805,0.25268530578017234,3.170480047407746
1789757625950889500,10.378889404296874,1.447955413299799,0.32474048816561696,2.988518967670202
1789757625960903400,10.3889033203125,1.3978303231716156,0.15160422765761614,2.915823149293661
1789757625970917400,10.39891748046875,1.1844804179579018,-0.06915902255252003,2.731459100067615
1789757625980931600,10.408931640625,0.7721370496630668,-0.32536461141332984,2.24636204572916
1789757625990945300,10.4189453125,0.20250234798490999,-0.5481538144931197,1.634146093431115
1789757626000959500,10.42895947265625,-0.5239291815578937,-0.6185805188938975,0.953631680932641
1789757626010973400,10.438973388671876,-1.5503087033152578,-0.5782448552437126,0.19971534761488435
1789757626020987400,10.4489873046875,-2.716442148199677,-0.37520123998895283,-0.6191518890410661
1789757626031001600,10.459001708984376,-3.939101782426238,-0.15180135766491293,-1.4782470911890266
1789757626041015300,10.469015380859375,-5.047884862104058,0.13786299481391906,-2.3295593843758104
1789757626051030300,10.4790302734375,-5.89507802953422,0.5163340502537787,-3.039946372568607
1789757626061044500,10.48904443359375,-6.215607037484645,0.7722197595104575,-3.510282495626807
1789757626071058400,10.499058349609374,-5.82801174147725,1.018032987564057,-3.8636534504711624
1789757626081072600,10.50907275390625,-4.7753702357381576,1.1136910177245736,-3.727809394264221
1789757626091086300,10.51908642578125,-3.4106846417993304,1.0281009387224913,-3.2893823211640116
1789757626101100500,10.5291005859375,-1.9806395637214183,1.0478688845098019,-2.8530659566074608
1789757626111114500,10.539114501953126,-0.5461398443222045,1.0301917735219002,-2.340161442410946
1789757626121128400,10.54912841796875,0.7325286773741245,1.0888403618454932,-2.01959619410336
1789757626131142400,10.559142333984376,1.6597253558456897,1.1884564819820225,-2.1128718591719866
1789757626141157400,10.569157470703125,2.014794346779585,1.2367230847619473,-2.64275030452311
1789757626151171300,10.57917138671875,2.0035569134503604,1.2901793651394546,-3.3668560214668513
1789757626161185500,10.589185546875,1.8892419674843548,1.3682757273852824,-3.9979882711589334
1789757626171199500,10.599199462890626,1.6883324416488408,1.32549267058298,-4.448849293896556
1789757626181213400,10.60921337890625,1.3589280533254147,1.3161091945573686,-4.5009179193079465
1789757626191227400,10.619227294921876,1.0473498290717602,1.3514651700988412,-4.257278089770675
1789757626201241600,10.62924169921875,0.6886597250312566,1.3290765204191206,-3.838142577117681
1789757626211255600,10.639255615234376,0.20998598173856733,1.2087038818493485,-3.266474323785305
1789757626221269200,10.649269287109375,-0.25451895094811916,1.0209789778880773,-2.688271700248122
1789757626231284500,10.659284423828124,-0.5216781877607107,0.8912921291366219,-2.100903188958764
1789757626241298400,10.66929833984375,-0.7585030765861273,0.7861670363202691,-1.6335130562245845
1789757626251312400,10.6793125,-1.09330377099514,0.6029913200959562,-1.3129027997314928
1789757626261326600,10.68932666015625,-1.3059843986451625,0.505783868536353,-1.0284066436707973
1789757626271340300,10.69934033203125,-1.5450369003921747,0.48831587025448675,-0.7882219230234623
1789757626281354500,10.7093544921875,-1.8197750480264425,0.5102879019573331,-0.637369682776928
1789757626291368400,10.719368408203126,-1.9844629214018583,0.6555984362982213,-0.5463438424617052
1789757626301382700,10.729382568359375,-2.0748364352881907,0.9852661517329513,-0.6409779364019632
1789757626311396400,10.739396240234376,-2.17567873621881,1.5974902873374521,-0.9312456616014242
1789757626321410300,10.749410400390625,-2.10014623311162,2.269029804611206,-1.1115344242125749
1789757626331425500,10.759425537109376,-1.684993652614951,2.8786659695491195,-1.0167448474496603
1789757626341439500,10.769439453125,-1.1164666199177502,3.3790152458161113,-0.722505296009779
1789757626351453400,10.779453369140626,-0.3719575818926096,3.9159801422968505,-0.25698504880070683
1789757626361467400,10.78946728515625,0.48552375531792635,4.40740026217699,0.2636263865113258
1789757626371481300,10.7994814453125,1.3876982207357882,4.73487748183012,0.7687444846153259
1789757626381495600,10.80949560546875,2.274714279988408,4.882891283780336,1.189842237251997
1789757626391509500,10.819509521484376,3.077487875455618,4.601350470393895,1.6175129385381937
1789757626401523500,10.8295234375,3.754184775492549,4.082551052939891,2.0472966864556073
1789757626411537400,10.839537353515626,4.301714612868428,3.596058160328865,2.3890309795200824
1789757626421552400,10.849552490234375,4.397995304971933,2.918299184018373,2.5567057597517966
1789757626431566600,10.859566650390626,3.9857326006978746,2.1481185291200875,2.434213352549076
1789757626441580500,10.86958056640625,3.3615544079273936,1.6392425397872923,2.1086212159901856
1789757626451594200,10.87959423828125,2.8893969146609306,1.2774046392403542,1.7257009260565042
1789757626461608400,10.8896083984375,2.7245430370688437,0.7536173503711819,1.5236550896674395
1789757626471622400,10.899622314453126,2.7315356724351645,0.19871479227021335,1.7363421470582485
1789757626481636600,10.90963671875,2.7103672122001647,-0.3779626675263047,2.655546657732129
1789757626491650300,10.919650390625,2.74558699414134,-0.4340174399644136,3.5306747107923027
1789757626501664500,10.92966455078125,2.6981659022748468,-0.13592296666204928,4.1013194662958385
1789757626511679500,10.939679443359376,2.7767636381715533,-0.14654986687749624,4.684019985774159
1789757626521693400,10.949693359375,2.7763562264144417,-0.3356771849825978,5.01050585630238
1789757626531707600,10.959707763671876,2.602380300211906,-0.503877012001723,4.879239775535464
1789757626541721300,10.969721435546875,2.3598189135611056,-0.5859276648312807,4.316579589045047
1789757626551735300,10.9797353515625,1.893641079226136,-0.6180395438849926,3.451385485500097
1789757626561749500,10.98974951171875,1.4349977320492266,-0.6994491223320365,2.5231793377250433
1789757626571763700,10.999763671875,1.0758400104969739,-0.8463587624326347,1.650683386734128
1789757626581778000,11.00977783203125,0.6424374875605106,-1.030298448766768,0.8513485335439444
1789757626591791900,11.0197919921875,0.18463526738286018,-1.1968337035745382,-0.019447043269872663
1789757626601805800,11.029805908203125,-0.2303168221056461,-1.3002620754756034,-0.7960206140756606
1789757626611821000,11.039821044921876,-0.6248457167685032,-1.3238885963872074,-1.5133762722373008
1789757626621834800,11.049834716796875,-1.0489385595679281,-1.3505213133774696,-2.2600562245607376
1789757626631848700,11.0598486328125,-1.5419745902121067,-1.2770341984927653,-2.8831811088860033
1789757626641863000,11.06986279296875,-2.087496010375023,-1.1367838701508939,-3.3270395593851805
1789757626651876900,11.079876953125,-2.6123440603435037,-0.9454641565680503,-3.6312703434854745
1789757626661891000,11.08989111328125,-3.016891660195589,-0.7961153066217899,-3.65778016474843
1789757626671904800,11.09990478515625,-3.225039320591092,-0.6127206869497895,-3.481439847502112
1789757626681919000,11.1099189453125,-3.3391075983196497,-0.4227570641510188,-3.190730808275938
1789757626691933000,11.119932861328126,-3.4635125611454245,-0.2780361662663519,-2.8668396304160355
1789757626701948000,11.129947998046875,-3.549747660052776,-0.15985270830392836,-2.781555548623204
1789757626711962000,11.139962158203126,-3.5545232038915153,-0.13404679752662776,-2.8387241275221107
1789757626721975800,11.149975830078125,-3.5148253997534513,-0.12500643585026264,-2.8407091638594864
1789757626731989800,11.15998974609375,-3.3799469737082717,-0.05215615756437182,-2.8890573074430224
1789757626742004000,11.17000390625,-3.2378876962482925,0.03041837300881743,-2.9334768794059753
1789757626752018000,11.180017822265626,-3.1694051116526123,0.14709814841002225,-2.8606700018703934
1789757626762031900,11.190031982421875,-3.030356121924519,0.12644099869802594,-2.7491929096788166
1789757626772045800,11.2000458984375,-2.7363544708937404,0.03150719115883112,-2.6628116802990434
1789757626782060000,11.21006005859375,-2.3811902028918266,-0.046911096517741675,-2.5255805536478757
1789757626792075000,11.220074951171876,-2.065559488376975,-0.17098799643293022,-2.3443191466122864
1789757626802089000,11.2300888671875,-1.8877274712681769,-0.3963106635130942,-2.1500807691037656
1789757626812103000,11.24010302734375,-1.8410750256866215,-0.592322042043507,-2.1310124960184096
1789757626822116900,11.250116943359375,-1.813707126289606,-0.7923894179664551,-2.1303280208855866
1789757626832130800,11.260130859375,-1.7529764709949491,-0.9586315350465476,-1.998534701374173
1789757626842145000,11.27014501953125,-1.769657556682825,-1.0600678563475607,-1.7613281197547912
1789757626852158700,11.28015869140625,-1.733345887851715,-1.1291887388467787,-1.5211907453805207
1789757626862173000,11.2901728515625,-1.704386335349083,-1.1329925150439142,-1.2452987515360117
1789757626872187000,11.300186767578126,-1.6433458834528922,-1.1347843668967486,-0.9059668434381485
1789757626882201900,11.310201904296875,-1.5136977592766283,-1.1188210740894078,-0.5027326642721891
1789757626892216000,11.320216064453126,-1.3886825555980205,-1.1076394626006483,-0.13754852203726767
1789757626902229800,11.330229736328125,-1.1916788050293923,-1.1016343769669532,0.200545953220129
1789757626912244000,11.340243896484376,-0.956919616562128,-1.103527643367648,0.4999281282454729
1789757626922258000,11.3502578125,-0.7166536473721266,-1.1055015737891196,0.6736994717866182
1789757626932271900,11.36027197265625,-0.4754501050710678,-1.0662395307198167,0.7362532508552074
1789757626942285800,11.370285888671875,-0.2896352725148201,-0.9800649298280477,0.8393909692466258
1789757626952299800,11.3802998046875,-0.10436813696920871,-0.8811892527952789,1.0427478882342576
1789757626962314000,11.39031396484375,-0.02919745291173458,-0.6539055147752165,1.2489525978684424
1789757626972329000,11.400328857421876,-0.12951602222919464,-0.44182256075739856,1.4980518618553875
1789757626982343000,11.410343017578125,-0.4849304655998945,-0.1778521831139922,1.6990630944997072
1789757626992356900,11.42035693359375,-0.9123182582914828,0.10082710336148738,1.9181600189328192
1789757627002370800,11.430370849609375,-1.2255173617452382,0.1916524526685476,2.22528827804029
1789757627012384800,11.440384765625,-0.8830302044868469,0.19035978250950575,2.446778235089779
1789757627022399000,11.45039892578125,-0.102547351282835,0.5290478397458791,2.491793434858322
1789757627032412700,11.46041259765625,0.576967528784275,0.9708553490646183,2.613542914739251
1789757627042427000,11.470427001953125,1.3644354185700416,1.4036737885028123,3.1154449734061953
1789757627052440800,11.48044091796875,2.0564701729923485,1.7282853895917534,4.031879434844852
1789757627062455800,11.490455810546875,2.6583891876816748,1.6167673808678984,5.182001071605086
1789757627072470000,11.500469970703126,3.2086639398515224,1.0958045017696916,6.34273528779447
1789757627082483700,11.510483642578125,3.7230566467791792,0.11055588569343089,7.224985155558586
1789757627092498000,11.520497802734376,4.087146564036607,-0.9607958734735846,7.4978423117518425
1789757627102511900,11.530511962890625,4.275498806115984,-1.7223660825453697,7.1527645534783595
1789757627112525800,11.54052587890625,3.9554438454180953,-2.0186424005098638,6.35215427352488
1789757627122539800,11.550539794921875,3.1087855155169963,-1.9320041276291011,5.408038024434447
1789757627132553700,11.5605537109375,2.1203858880639075,-1.8046584351763129,4.725001984503865
1789757627142568000,11.57056787109375,0.9892144509673118,-1.6429131911240518,4.484999050164222
1789757627152583000,11.5805830078125,-0.1906990974664688,-1.5532145077593624,4.583901322942972
1789757627162596900,11.590596923828125,-1.1934522444427014,-1.5155290663570165,4.833153731665015
1789757627172610800,11.60061083984375,-2.0310738659292458,-1.443574421736598,4.994945883598923
1789757627182624800,11.610624755859375,-2.704242007318139,-1.4313970772087574,4.924279525223374
1789757627192639000,11.620638916015626,-3.2872774578392505,-1.4699834129735827,4.4343227558940645
1789757627202653000,11.63065283203125,-3.636806350302696,-1.5028601389199494,3.5912300095200536
1789757627212666600,11.64066650390625,-3.781614634209871,-1.5244462400451302,2.5770138037651775
1789757627222680800,11.650680908203125,-3.8910838937103747,-1.4778154217734931,1.5651327629595995
1789757627232694800,11.66069482421875,-3.933118616363406,-1.4640271349176763,0.7741624180108309
1789757627242709800,11.670709716796875,-3.919541341909766,-1.4120079016059637,0.16020166787207127
1789757627252724000,11.680723876953126,-3.9107267518132924,-1.2983148869305847,-0.2658034382894635
1789757627262737700,11.690737548828125,-4.0380379574745895,-1.2124725867331028,-0.5816448729455471
1789757627272751900,11.700751953125,-4.238959758269787,-1.182027471847832,-0.7367229141935706
1789757627282765800,11.710765869140625,-4.438555863419175,-1.144015136578679,-0.8388912030309438
1789757627292780000,11.720780029296876,-4.631480235719681,-1.1285574552059172,-0.8967515635862946
1789757627302794000,11.7307939453125,-4.816371523690224,-1.1659583805784581,-1.0644646300017833
1789757627312807700,11.7408076171875,-4.827323125815392,-1.1907158052161335,-1.2552376694872975
1789757627322822000,11.75082177734375,-4.834864042714238,-1.117489533224702,-1.5349904304131865
1789757627332835800,11.7608359375,-4.836539866971969,-1.0369891785770653,-1.8460124820888042
1789757627342850800,11.770850830078125,-4.802832827681303,-0.9055176383659244,-2.006408795750141
1789757627352865000,11.780864990234376,-4.691200252667069,-0.7245519994065165,-2.152019043689966
1789757627362878700,11.790878662109375,-4.557837491881847,-0.5670721577137708,-2.233229007911682
1789757627372893000,11.800892822265626,-4.376924459892511,-0.4296668435394764,-2.320828965431452
1789757627382907000,11.810906982421875,-4.222123774281144,-0.2804948114648461,-2.3628701178252696
1789757627392921000,11.820921142578126,-4.065550233778358,-0.09377543128430843,-2.4559195729225873
1789757627402934800,11.830934814453125,-3.9550779347151517,0.12254326060712337,-2.610650115907192
1789757627412948700,11.84094873046875,-3.9667923379063605,0.3672369831115007,-2.7805314662724734
1789757627422964000,11.8509638671875,-3.8318852702885864,0.5773734792366624,-2.9073733008563516
1789757627432978000,11.86097802734375,-3.586669569736719,0.7978183111473918,-3.137334733653068
1789757627442991900,11.870991943359375,-3.185176681280136,1.007356841379404,-3.3661773915529247
1789757627453005800,11.881005859375,-2.5454285789340734,1.2312410000890492,-3.314737127172947
1789757627463019800,11.891019775390625,-1.6468080066055057,1.3076646068170665,-2.9020138196498153
1789757627473034000,11.901033935546875,-0.4977268188089132,1.3530764046877621,-2.259071889698505
1789757627483048000,11.9110478515625,0.7660825719296932,1.2542056960910557,-1.5006512306988238
1789757627493062000,11.921061767578125,1.9899533355116843,1.0218072454057634,-0.8054597658112644
1789757627503075800,11.931075927734375,3.1966900089412924,0.7660375637441873,-0.35012715061753985
1789757627513089800,11.94108984375,4.392459298154711,0.5591998169034719,-0.2928057192444801
1789757627523105000,11.95110498046875,5.260730324926972,0.4601457145638764,-0.20741788481622933
1789757627533119000,11.961118896484376,5.740280266532301,0.350718102248013,0.18198007669895885
1789757627543132700,11.971132568359375,5.889353806668519,0.2978768850289285,0.975349591743946
1789757627553147000,11.98114697265625,5.680487184348702,0.19097864506021142,2.418581483653188
1789757627563160800,11.991160888671875,5.315748447793722,-0.001957271547615528,4.504079598209262
1789757627573174800,12.0011748046875,5.032173498231172,-0.24779899504333733,6.86182287454009
1789757627583188700,12.011188720703124,4.647535298463702,-0.34949615923762317,9.164126003199815
1789757627593203000,12.021202880859375,4.298078302192688,-0.4346045922026038,11.433297262108326
1789757627603218000,12.031218017578125,3.982695424959063,-0.68877940588817,13.273044838583468
1789757627613231900,12.04123193359375,3.429768696975708,-1.1355934913225472,14.082301366329192
1789757627623245800,12.051245849609375,2.7436089720666406,-1.7053189400240778,13.763275164157152
1789757627633259800,12.061259765625,2.2645623038083316,-2.0568756850533187,12.34130525598526
1789757627643273700,12.071273681640625,1.9259739075541495,-2.2390879630729557,10.253954207038879
1789757627653288000,12.081287841796875,1.5797686065554617,-2.4306387089326975,8.150376830434798
1789757627663302000,12.091302001953125,1.421667710354924,-2.536809219148755,6.369641999420523
1789757627673315800,12.10131591796875,1.3451760068267582,-2.430017069903016,4.894114688584208
1789757627683329800,12.111329833984374,1.1002034673810004,-2.292830659176409,3.7271933081924913
1789757627693344800,12.1213447265625,0.6603267799943685,-1.9983635825909674,2.714202844840288
1789757627703359000,12.13135888671875,0.004875497081875801,-1.62274148684144,1.8003505088493228
1789757627713372700,12.14137255859375,-0.8003805628508329,-1.296560590609163,1.0272282475411891
1789757627723387000,12.151386962890625,-1.5118419022768734,-1.0404948486104606,0.3941647375255823
1789757627733400800,12.16140087890625,-2.1656740595549344,-0.7648398783922195,-0.08167202877551316
1789757627743414800,12.171414794921875,-2.6758313208699223,-0.4888016079448163,-0.44244741465747356
1789757627753429000,12.181428955078125,-3.0752000567793845,-0.20336568681597708,-0.6681707714930176
1789757627763442700,12.191442626953124,-3.3664392573595046,0.038460955819487566,-0.7680173393845557
1789757627773457000,12.201456787109375,-3.620196576285362,0.1845294689208269,-0.8177659974157809
1789757627783471900,12.211471923828125,-3.777157070279121,0.31846739924550055,-0.8192819549366831
1789757627793485800,12.22148583984375,-3.8973891313344238,0.32824732724279165,-0.8115995837405323
1789757627803500000,12.2315,-4.081272703567147,0.23869828148186206,-0.7655205541327595
1789757627813513700,12.241513671875,-4.291013770633936,0.14630845933705566,-0.7450590731233357
1789757627823528000,12.25152783203125,-4.509071415147185,0.007912965081632136,-0.7422288181334733
1789757627833542000,12.2615419921875,-4.651244674375653,-0.2080982682958245,-0.7469017783805727
1789757627843555800,12.271555908203124,-4.669836562120914,-0.3639569385275245,-0.8068678790435194
1789757627853569800,12.28156982421875,-4.637087554207444,-0.5049775205895305,-0.8800245929300785
1789757627863583700,12.291583740234374,-4.608591527563333,-0.6493845302194357,-0.9056792586684227
1789757627873598700,12.3015986328125,-4.574070249280333,-0.8118366073668003,-0.87765318762362
1789757627883613000,12.311613037109375,-4.46048011045754,-1.0352581170007586,-0.7778709171399474
1789757627893627000,12.321626953125,-4.287735771876573,-1.303760292854905,-0.6094134620979428
1789757627903640800,12.331640869140625,-4.158210397297144,-1.6733955692797897,-0.45147009454667564
1789757627913654800,12.34165478515625,-4.033163044914603,-2.0316563419923184,-0.40962008081078527
1789757627923668700,12.351668701171874,-3.9040591106176374,-2.349644141027331,-0.3445551957041025
1789757627933683000,12.361682861328125,-3.7014743450462815,-2.5566952383577823,-0.24848083982765673
1789757627943696600,12.371696533203124,-3.413293362993002,-2.6677523515716195,-0.18172142576277256
1789757627953710800,12.3817109375,-3.190758280804753,-2.7331621045932173,-0.1572577233746648
1789757627963725800,12.391725830078125,-3.0783786868155,-2.8320439191058275,-0.15702303783595561
1789757627973739800,12.40173974609375,-3.0766221985369917,-2.782991426645219,-0.14682371538281438
1789757627983754000,12.41175390625,-3.1532372361838816,-2.5732600041896103,0.01485796191394329
1789757627993767700,12.421767578125,-3.13781637969017,-2.5651436254903675,0.28142858518362046
1789757628003782000,12.431781982421874,-2.9448335552006957,-2.6689137965664265,0.7387579271525144
1789757628013795800,12.4417958984375,-2.4631091921657324,-2.8372736364528537,1.3198656244814395
1789757628023809800,12.451809814453124,-1.6628537169992923,-2.9698285879865285,1.8711013306379316
1789757628033823700,12.46182373046875,-0.6840332342743873,-2.975432107082009,2.329051434853673
1789757628043837700,12.471837646484374,0.4510492387861013,-2.862610614544153,2.736771235001087
1789757628053852700,12.481852783203125,1.6286176853984593,-2.6202263380259274,3.137027275139093
1789757628063867000,12.491866943359375,2.3685680372059346,-2.262346235194057,3.579000642544031
1789757628073880800,12.501880859375,2.706079159617424,-1.681874497681111,3.9571933194339275
1789757628083894800,12.511894775390624,2.9864111817359924,-1.0484073753006755,4.393279966887832
1789757628093908700,12.52190869140625,3.3257425053119656,-0.9228308844774961,4.899773444998264
1789757628103923000,12.5319228515625,4.125694029095769,-1.111298861891031,5.280733248513937
1789757628113937000,12.54193701171875,5.270391302719712,-1.2734434805244206,5.132055429697036
1789757628123950600,12.55195068359375,6.096403734955191,-1.3889526047110556,4.302739864262938
1789757628133964800,12.56196484375,6.266318987590074,-1.2925126303926109,3.154902539047599
1789757628143979800,12.571979736328124,6.146330672162771,-1.0082716912019998,2.0973691696137187
1789757628153993700,12.58199365234375,5.6620700686484575,-0.5567477475762367,1.1326707357436419
1789757628164008000,12.592008056640625,4.851395490798354,-0.03243541191965341,0.4484340878516435
1789757628174021600,12.602021728515625,4.002676721236109,0.5371749590348452,0.12017068625688553
1789757628184035800,12.612035888671874,3.1443729617267846,1.006920495788753,0.28313597362339493
1789757628194049800,12.6220498046875,2.3195243125736713,1.2553610036060214,0.9564210193902254
1789757628204064000,12.63206396484375,1.7029659471571446,1.2557853664979337,1.8453350212186574
1789757628214077700,12.64207763671875,1.1919395017921923,1.1883026796597986,2.577622875574231
1789757628224091600,12.652091552734374,0.6360334657371044,1.1215298946566878,2.6737814026027915
1789757628234107000,12.66210693359375,0.1209820026397705,0.9952876334011554,2.0974147623211143
1789757628244120800,12.672120849609374,-0.34645606088936326,1.0073151211295277,0.9974591322213411
