time,seconds_elapsed,z,y,x
1789088464669089300,0.08008935546875,0,0,0
1789088464679089400,0.09008935546875,-0.030040740966796875,-0.014490127563476562,-0.11876487731933594
1789088464689089300,0.10008935546875,-0.2191152572631836,-0.03923940658569336,-0.1370009183883667
1789088464699089400,0.11008935546875,-0.4747486114501953,-0.03128957748413086,-0.10146474838256836
1789088464709089300,0.12008935546875,-0.7494401931762695,-0.006351947784423828,-0.013599932193756104
1789088464719089400,0.13008935546875,-0.983494758605957,-0.09351587295532227,0.055940449237823486
1789088464729089300,0.14008935546875,-1.1385107040405273,-0.2415013313293457,0.0917363166809082
1789088464739089400,0.15008935546875,-1.1939620971679688,-0.3428468704223633,0.08105510473251343
1789088464749089300,0.16008935546875,-1.187417984008789,-0.4096260070800781,0.049957275390625
1789088464759089400,0.17008935546875,-1.1810884475708008,-0.38269948959350586,0.1005823016166687
1789088464769089300,0.18008935546875,-1.141890525817871,-0.2509751319885254,0.20175230503082275
1789088464779089400,0.19008935546875,-1.1229372024536133,-0.11183023452758789,0.20064562559127808
1789088464789089300,0.20008935546875,-1.1088910102844238,-0.04278898239135742,0.09851783514022827
1789088464799089400,0.21008935546875,-1.1561627388000488,0.03699064254760742,-0.02142512798309326
1789088464809089300,0.22008935546875,-1.3682146072387695,0.20673131942749023,0.011981964111328125
1789088464819089400,0.23008935546875,-1.537304401397705,0.39667844772338867,0.05535876750946045
1789088464829089300,0.24008935546875,-1.5777497291564941,0.4589390754699707,-0.04441553354263306
1789088464839089400,0.25008935546875,-1.4329242706298828,0.3617973327636719,-0.1490633487701416
1789088464849089300,0.26008935546875,-1.13330078125,0.22864007949829102,-0.2718451917171478
1789088464859089400,0.27008935546875,-0.7207674980163574,0.06970500946044922,-0.4361058473587036
1789088464869089300,0.28008935546875,-0.3095831871032715,-0.11401081085205078,-0.6109811067581177
1789088464879089400,0.29008935546875,0.12758159637451172,-0.3349266052246094,-0.7743986248970032
1789088464889089300,0.30008935546875,0.4587111473083496,-0.5059304237365723,-0.792007565498352
1789088464899089400,0.31008935546875,0.6590161323547363,-0.511723518371582,-0.7547465562820435
1789088464909089300,0.32008935546875,0.701632022857666,-0.40154457092285156,-0.7674374580383301
1789088464919089400,0.33008935546875,0.47697019577026367,-0.2501521110534668,-0.8296282291412354
1789088464929089300,0.34008935546875,0.10148096084594727,-0.08812665939331055,-0.7294321060180664
1789088464939089400,0.35008935546875,-0.38694047927856445,0.054055213928222656,-0.5453270077705383
1789088464949089300,0.36008935546875,-0.7800555229187012,0.19042730331420898,-0.47899696230888367
1789088464959089400,0.37008935546875,-0.9830646514892578,0.38987207412719727,-0.46297767758369446
1789088464969089300,0.38008935546875,-1.0937047004699707,0.6287083625793457,-0.36412131786346436
1789088464979089400,0.39008935546875,-1.1719350814819336,0.678307056427002,-0.3065986931324005
1789088464989089300,0.40008935546875,-1.1000890731811523,0.5932435989379883,-0.3449321687221527
1789088464999089400,0.41008935546875,-0.9825878143310547,0.5191545486450195,-0.4471728801727295
1789088465009089300,0.42008935546875,-0.9228429794311523,0.49018430709838867,-0.5946668386459351
1789088465019089400,0.43008935546875,-0.8865952491760254,0.4319491386413574,-0.7015383839607239
1789088465029089300,0.44008935546875,-0.9039773941040039,0.39056825637817383,-0.7399840354919434
1789088465039089400,0.45008935546875,-0.9591307640075684,0.35718679428100586,-0.7166253328323364
1789088465049089300,0.46008935546875,-1.0059595108032227,0.32350635528564453,-0.7196518182754517
1789088465059089400,0.47008935546875,-0.9736161231994629,0.23062372207641602,-0.77458256483078
1789088465069089300,0.48008935546875,-0.9255285263061523,0.13643312454223633,-0.8497437238693237
1789088465079089400,0.49008935546875,-0.8086709976196289,0.04008817672729492,-0.9308881759643555
1789088465089089300,0.50008935546875,-0.7347064018249512,-0.019782066345214844,-0.9741844534873962
1789088465099089400,0.51008935546875,-0.7650332450866699,-0.08293390274047852,-1.0683852434158325
1789088465109089300,0.52008935546875,-0.8800578117370605,-0.1195378303527832,-1.1737598180770874
1789088465119089400,0.53008935546875,-0.9922361373901367,-0.15797996520996094,-1.303024411201477
1789088465129089300,0.54008935546875,-1.0192418098449707,-0.2380843162536621,-1.473785400390625
1789088465139089400,0.55008935546875,-0.9581770896911621,-0.3977689743041992,-1.7149453163146973
1789088465149089300,0.56008935546875,-0.7757949829101562,-0.6270465850830078,-2.060650110244751
1789088465159089400,0.57008935546875,-0.5203008651733398,-0.787139892578125,-2.469738483428955
1789088465169089300,0.58008935546875,-0.19341182708740234,-0.7918367385864258,-2.8800971508026123
1789088465179089400,0.59008935546875,-0.05122232437133789,-0.6994166374206543,-3.114940881729126
1789088465189089300,0.60008935546875,-0.12947368621826172,-0.5478010177612305,-3.0656566619873047
1789088465199089400,0.61008935546875,-0.23488426208496094,-0.48471593856811523,-2.8948283195495605
1789088465209089300,0.62008935546875,-0.17985773086547852,-0.4363136291503906,-2.754082202911377
1789088465219089400,0.63008935546875,0.09269046783447266,-0.3731098175048828,-2.6610052585601807
1789088465229089300,0.64008935546875,0.24947357177734375,-0.27046918869018555,-2.568213701248169
1789088465239089400,0.65008935546875,0.3464317321777344,-0.23412752151489258,-2.6110098361968994
1789088465249089300,0.66008935546875,0.7432003021240234,-0.4919619560241699,-2.9735026359558105
1789088465259089400,0.67008935546875,1.062347412109375,-0.7385544776916504,-3.2556354999542236
1789088465269089300,0.68008935546875,1.4424619674682617,-1.1238646507263184,-3.657644748687744
1789088465279089400,0.69008935546875,1.5594868659973145,-1.4755949974060059,-3.795628309249878
1789088465289089300,0.70008935546875,1.5359807014465332,-1.7388691902160645,-3.6341984272003174
1789088465299089400,0.71008935546875,1.4655795097351074,-1.9576330184936523,-3.303783416748047
1789088465309089300,0.72008935546875,1.5301179885864258,-2.031411647796631,-2.710209369659424
1789088465319089400,0.73008935546875,1.692434310913086,-2.102865695953369,-1.9518113136291504
1789088465329089300,0.74008935546875,1.7248029708862305,-2.273078203201294,-1.2123095989227295
1789088465339089400,0.75008935546875,1.767333984375,-2.368987798690796,-0.6323782205581665
1789088465349089300,0.76008935546875,1.7027482986450195,-2.2934794425964355,-0.3902220129966736
1789088465359089400,0.77008935546875,1.6762199401855469,-2.22332501411438,-0.2356008142232895
1789088465369089300,0.78008935546875,1.3721742630004883,-2.3203952312469482,-0.20935021340847015
1789088465379089400,0.79008935546875,1.0098114013671875,-2.3845529556274414,-0.21960577368736267
1789088465389089300,0.80008935546875,0.553257942199707,-2.2664718627929688,-0.224901020526886
1789088465399089400,0.81008935546875,0.3167705535888672,-1.9014439582824707,-0.47880473732948303
1789088465409089300,0.82008935546875,0.0128021240234375,-1.415794849395752,-0.8963379263877869
1789088465419089400,0.83008935546875,-0.2233896255493164,-0.994748592376709,-0.8451452255249023
1789088465429089300,0.84008935546875,-0.2412548065185547,-0.8639981746673584,-0.48194748163223267
1789088465439089400,0.85008935546875,-0.2461709976196289,-0.9694578647613525,0.061801910400390625
1789088465449089300,0.86008935546875,-0.1109619140625,-1.2385964393615723,0.4881174564361572
1789088465459089400,0.87008935546875,0.030295372009277344,-1.4900507926940918,0.6643258929252625
1789088465469089300,0.88008935546875,0.37714481353759766,-1.6840274333953857,0.6527401804924011
1789088465479089400,0.89008935546875,0.8957586288452148,-1.717477798461914,0.5825032591819763
1789088465489089300,0.90008935546875,1.4708518981933594,-1.6662718057632446,0.5512562990188599
1789088465499089400,0.91008935546875,2.0064001083374023,-1.5532939434051514,0.7240935564041138
1789088465509089300,0.92008935546875,2.272263526916504,-1.4018025398254395,1.064442753791809
1789088465519089400,0.93008935546875,1.9874029159545898,-0.945274829864502,1.8589060306549072
1789088465529089300,0.94008935546875,7.455246925354004,0.016155481338500977,7.16884708404541
1789088465539089400,0.95008935546875,5.049402236938477,0.8377106189727783,5.620963096618652
1789088465549089300,0.96008935546875,4.234251976013184,1.1001574993133545,5.2204694747924805
1789088465559089400,0.97008935546875,3.4140939712524414,0.7188904285430908,5.9434003829956055
1789088465569089300,0.98008935546875,2.2474288940429688,0.5665390491485596,6.10599422454834
1789088465579089400,0.99008935546875,2.064887046813965,0.697829008102417,5.411623954772949
1789088465589089300,1.00008935546875,2.246823310852051,0.5632915496826172,4.6933441162109375
1789088465599089400,1.01008935546875,1.8166704177856445,0.41120243072509766,3.566711902618408
1789088465609089300,1.02008935546875,1.2678985595703125,0.22029471397399902,2.4411816596984863
1789088465619089400,1.03008935546875,0.7220306396484375,0.004467010498046875,1.6656873226165771
1789088465629089300,1.04008935546875,-0.11464977264404297,0.023137807846069336,1.133692979812622
1789088465639089400,1.05008935546875,-1.319087028503418,-0.010696649551391602,0.4677755832672119
1789088465649089300,1.06008935546875,-2.40261173248291,-0.20939946174621582,0.029752731323242188
1789088465659089400,1.07008935546875,-2.850619316101074,-0.12359929084777832,0.23963451385498047
1789088465669089300,1.08008935546875,-2.754671573638916,0.38732409477233887,1.0953621864318848
1789088465679089400,1.09008935546875,-2.064330577850342,1.0656328201293945,2.258650541305542
1789088465689089300,1.10008935546875,-0.9814882278442383,1.5041706562042236,3.5386552810668945
1789088465699089400,1.11008935546875,0.10901641845703125,1.5993335247039795,4.216522216796875
1789088465709089300,1.12008935546875,0.9176464080810547,1.335517168045044,4.0448760986328125
1789088465719089400,1.13008935546875,1.035818099975586,1.062234878540039,3.264940023422241
1789088465729089300,1.14008935546875,0.5392112731933594,0.767768383026123,2.1662349700927734
1789088465739089400,1.15008935546875,-0.27057647705078125,0.13251996040344238,0.49535608291625977
1789088465749089300,1.16008935546875,-0.8138427734375,0.36000585556030273,0.6574406623840332
1789088465759089400,1.17008935546875,-0.9959955215454102,0.6214315891265869,1.1918249130249023
1789088465769089300,1.18008935546875,-0.5173306465148926,0.6613717079162598,1.92507004737854
1789088465779089400,1.19008935546875,0.14722251892089844,0.47385430335998535,2.895223617553711
1789088465789089300,1.20008935546875,1.1745624542236328,0.6389586925506592,4.095893383026123
1789088465799089400,1.21008935546875,2.280397415161133,0.85833740234375,4.912164211273193
1789088465809089300,1.22008935546875,3.7868690490722656,0.9498441219329834,4.261441230773926
1789088465819089400,1.23008935546875,5.374514579772949,1.127389669418335,3.4729256629943848
1789088465829089300,1.24008935546875,6.434711456298828,1.2791111469268799,3.1384401321411133
1789088465839089400,1.25008935546875,6.359606742858887,1.637444257736206,2.984745502471924
1789088465849089300,1.26008935546875,5.531625747680664,1.8570849895477295,1.8340516090393066
1789088465859089400,1.27008935546875,3.846491813659668,1.7044014930725098,0.3416171073913574
1789088465869089300,1.28008935546875,1.6570563316345215,1.5911102294921875,-1.475416660308838
1789088465879089400,1.29008935546875,0.07062816619873047,1.8232297897338867,-2.5625133514404297
1789088465889089300,1.30008935546875,-0.649040699005127,2.020308017730713,-2.5889644622802734
1789088465899089400,1.31008935546875,-0.3817753791809082,1.9124064445495605,-1.6755752563476562
1789088465909089300,1.32008935546875,0.21114730834960938,1.37705659866333,-0.9122934341430664
1789088465919089400,1.33008935546875,0.9130511283874512,0.43546152114868164,-0.512242317199707
1789088465929089300,1.34008935546875,1.7180604934692383,-0.5824446678161621,-0.3099336624145508
1789088465939089400,1.35008935546875,2.276932716369629,-1.3860726356506348,-0.2248682975769043
1789088465949089300,1.36008935546875,2.2164015769958496,-2.075408935546875,-0.4224891662597656
1789088465959089400,1.37008935546875,1.8016042709350586,-2.7682015895843506,-0.9815688133239746
1789088465969089300,1.38008935546875,1.156792163848877,-3.1294052600860596,-1.7211284637451172
1789088465979089400,1.39008935546875,0.5882930755615234,-3.0007827281951904,-2.5661182403564453
1789088465989089300,1.40008935546875,-0.09935140609741211,-2.5501174926757812,-3.1973233222961426
1789088465999089400,1.41008935546875,-0.8823847770690918,-2.1891045570373535,-3.5257227420806885
1789088466009089300,1.42008935546875,-1.5808606147766113,-2.0001492500305176,-3.6271045207977295
1789088466019089400,1.43008935546875,-1.9952020645141602,-1.8175466060638428,-3.559739828109741
1789088466029089300,1.44008935546875,-2.012181282043457,-1.634439468383789,-3.350395441055298
1789088466039089400,1.45008935546875,-1.867112636566162,-1.5593109130859375,-2.9097416400909424
1789088466049089300,1.46008935546875,-1.50392484664917,-1.3873648643493652,-2.1691062450408936
1789088466059089400,1.47008935546875,-1.3155579566955566,-1.3945274353027344,-1.472731590270996
1789088466069089300,1.48008935546875,-1.3362727165222168,-1.5748710632324219,-1.0777616500854492
1789088466079089400,1.49008935546875,-1.3950109481811523,-1.6747732162475586,-0.9540843963623047
1789088466089089300,1.50008935546875,-1.4412837028503418,-1.7029352188110352,-1.0238757133483887
1789088466099089400,1.51008935546875,-1.4978632926940918,-1.7220096588134766,-1.1268253326416016
1789088466109089300,1.52008935546875,-1.6167936325073242,-1.8008196353912354,-1.341193675994873
1789088466119089400,1.53008935546875,-1.8254361152648926,-1.8994672298431396,-1.677095890045166
1789088466129089300,1.54008935546875,-2.1079840660095215,-1.9855384826660156,-1.9975903034210205
1789088466139089400,1.55008935546875,-2.4806594848632812,-2.561248302459717,-1.9089479446411133
1789088466149089300,1.56008935546875,-2.847910165786743,-2.6197688579559326,-1.8798131942749023
1789088466159089400,1.57008935546875,-3.119858741760254,-2.4093680381774902,-1.907979965209961
1789088466169089300,1.58008935546875,-3.348863124847412,-2.29498028755188,-1.9560179710388184
1789088466179089400,1.59008935546875,-3.4091243743896484,-2.4036688804626465,-2.006091356277466
1789088466189089300,1.60008935546875,-3.568739891052246,-2.565337657928467,-2.3030364513397217
1789088466199089400,1.61008935546875,-3.4353718757629395,-2.692338228225708,-2.4435410499572754
1789088466209089300,1.62008935546875,-3.0492939949035645,-2.714559555053711,-2.4617607593536377
1789088466219089400,1.63008935546875,-2.64860200881958,-2.8176443576812744,-2.2574923038482666
1789088466229089300,1.64008935546875,-2.225999355316162,-2.786040782928467,-2.0946860313415527
1789088466239089400,1.65008935546875,-1.7621679306030273,-2.651901960372925,-2.009735345840454
1789088466249089300,1.66008935546875,-1.4182987213134766,-2.7960562705993652,-1.9417668581008911
1789088466259089400,1.67008935546875,-1.1818265914916992,-3.032886028289795,-1.7988399267196655
1789088466269089300,1.68008935546875,-1.0780277252197266,-3.137540817260742,-1.5808285474777222
1789088466279089400,1.69008935546875,-1.0946979522705078,-3.1034188270568848,-1.3011279106140137
1789088466289089300,1.70008935546875,-1.1476449966430664,-2.862121105194092,-1.0386672019958496
1789088466299089400,1.71008935546875,-1.4083833694458008,-2.4372215270996094,-1.0161070823669434
1789088466309089300,1.72008935546875,-1.100703239440918,-1.9987196922302246,-1.2564404010772705
1789088466319089400,1.73008935546875,-0.4151020050048828,-1.7484745979309082,-1.204906940460205
1789088466329089300,1.74008935546875,-0.0011701583862304688,-1.5206983089447021,-1.1631906032562256
1789088466339089400,1.75008935546875,0.36278820037841797,-1.245007038116455,-1.1298024654388428
1789088466349089300,1.76008935546875,0.7109084129333496,-1.0676839351654053,-0.9523630142211914
1789088466359089400,1.77008935546875,1.0414962768554688,-0.9569616317749023,-0.6964125633239746
1789088466369089300,1.78008935546875,1.5107250213623047,-0.8040392398834229,-0.5654006004333496
1789088466379089400,1.79008935546875,2.054091453552246,-0.7178707122802734,-0.6254101991653442
1789088466389089300,1.80008935546875,2.5573110580444336,-0.4722423553466797,-0.5552834272384644
1789088466399089400,1.81008935546875,2.846332550048828,-0.3049936294555664,-0.39136719703674316
1789088466409089300,1.82008935546875,2.9529342651367188,-0.11717367172241211,-0.12680137157440186
1789088466419089400,1.83008935546875,2.8203048706054688,0.14372634887695312,0.25650978088378906
1789088466429089300,1.84008935546875,2.473855972290039,0.43676328659057617,0.5633713006973267
1789088466439089400,1.85008935546875,2.044370651245117,0.6055498123168945,0.727147102355957
1789088466449089300,1.86008935546875,1.794386863708496,0.7149972915649414,0.7392458915710449
1789088466459089400,1.87008935546875,1.8351058959960938,0.7046585083007812,0.5426898002624512
1789088466469089300,1.88008935546875,2.204585075378418,0.6026253700256348,0.2670069932937622
1789088466479089400,1.89008935546875,2.77691650390625,0.3903193473815918,-0.0011757612228393555
1789088466489089300,1.90008935546875,3.179119110107422,0.08505678176879883,-0.10039335489273071
1789088466499089400,1.91008935546875,3.2419261932373047,-0.2216358184814453,-0.12799865007400513
1789088466509089300,1.92008935546875,2.954899787902832,-0.39189624786376953,-0.13948220014572144
1789088466519089400,1.93008935546875,2.4362592697143555,-0.4157724380493164,-0.09525907039642334
1789088466529089300,1.94008935546875,1.6736555099487305,-0.4702308177947998,0.07371464371681213
1789088466539089400,1.95008935546875,0.7359418869018555,-0.7093250751495361,0.3280201554298401
1789088466549089300,1.96008935546875,-0.28919029235839844,-1.0189599990844727,0.47195112705230713
1789088466559089400,1.97008935546875,-1.2013378143310547,-1.123425006866455,0.6577664613723755
1789088466569089300,1.98008935546875,-1.8878355026245117,-1.087669849395752,0.8167943358421326
1789088466579089400,1.99008935546875,-2.0042972564697266,-0.9701759815216064,1.0299304723739624
1789088466589089300,2.00008935546875,-1.864069938659668,-0.6014842987060547,1.4014277458190918
1789088466599089400,2.01008935546875,-1.442612648010254,0.14336037635803223,2.213369607925415
1789088466609089300,2.02008935546875,-0.8689708709716797,0.9339540004730225,3.123591899871826
1789088466619089400,2.03008935546875,-0.31411266326904297,1.5074570178985596,3.6844751834869385
1789088466629089300,2.04008935546875,0.3309440612792969,1.4734477996826172,3.298099994659424
1789088466639089400,2.05008935546875,1.1001148223876953,1.4799447059631348,2.636495590209961
1789088466649089300,2.06008935546875,1.974264144897461,1.782088041305542,2.1822409629821777
1789088466659089400,2.07008935546875,2.806220054626465,2.2375447750091553,1.8616067171096802
1789088466669089300,2.08008935546875,3.3554039001464844,2.5176358222961426,1.4588555097579956
1789088466679089400,2.09008935546875,3.5331192016601562,2.6326873302459717,0.8558100461959839
1789088466689089300,2.10008935546875,3.293031692504883,2.604644536972046,0.2986612319946289
1789088466699089400,2.11008935546875,2.784893035888672,2.481987476348877,-0.03206586837768555
1789088466709089300,2.12008935546875,2.189225196838379,2.337176561355591,-0.17573261260986328
1789088466719089400,2.13008935546875,1.4413070678710938,2.1637842655181885,-0.2788890600204468
1789088466729089300,2.14008935546875,0.7192935943603516,1.905123233795166,-0.354576051235199
1789088466739089400,2.15008935546875,0.22287940979003906,1.4840593338012695,-0.16605806350708008
1789088466749089300,2.16008935546875,0.06309318542480469,0.7715134620666504,0.4430159330368042
1789088466759089400,2.17008935546875,0.10663127899169922,0.6199231147766113,0.8886253833770752
1789088466769089300,2.18008935546875,0.2824869155883789,0.37636876106262207,1.3984529972076416
1789088466779089400,2.19008935546875,0.22588348388671875,-0.19190824031829834,1.8433175086975098
1789088466789089300,2.20008935546875,-0.03661632537841797,-0.7000885009765625,2.0738279819488525
1789088466799089400,2.21008935546875,-0.3560218811035156,-0.902696967124939,2.312181234359741
1789088466809089300,2.22008935546875,-0.5787620544433594,-0.8854199647903442,2.448824882507324
1789088466819089400,2.23008935546875,-0.41716861724853516,-0.6775000095367432,2.533421039581299
1789088466829089300,2.24008935546875,-0.443695068359375,-0.8712303638458252,2.2909767627716064
1789088466839089400,2.25008935546875,-0.21967029571533203,-0.9100189208984375,1.9262897968292236
1789088466849089300,2.26008935546875,0.13073253631591797,-1.3843986988067627,1.2917404174804688
1789088466859089400,2.27008935546875,0.4309101104736328,-1.050029993057251,0.7266503572463989
1789088466869089300,2.28008935546875,0.7533092498779297,-0.8608791828155518,0.9118537902832031
1789088466879089400,2.29008935546875,1.0299797058105469,-1.0647244453430176,1.3810021877288818
1789088466889089300,2.30008935546875,1.5241632461547852,-0.9551568031311035,1.6150115728378296
1789088466899089400,2.31008935546875,2.4217395782470703,-0.5627272129058838,1.4527966976165771
1789088466909089300,2.32008935546875,3.222738265991211,-0.019170761108398438,1.0050084590911865
1789088466919089400,2.33008935546875,3.760941505432129,0.5649678707122803,0.4716067314147949
1789088466929089300,2.34008935546875,3.999547004699707,1.1421384811401367,-0.18467068672180176
1789088466939089400,2.35008935546875,3.985687255859375,1.586571216583252,-0.5373363494873047
1789088466949089300,2.36008935546875,4.110993385314941,1.7900643348693848,-0.4262704849243164
1789088466959089400,2.37008935546875,3.7453670501708984,1.5067954063415527,-0.29100465774536133
1789088466969089300,2.38008935546875,2.493307113647461,1.1799826622009277,-0.41182541847229004
1789088466979089400,2.39008935546875,0.04773426055908203,1.1789188385009766,-0.8687059879302979
1789088466989089300,2.40008935546875,-2.911008834838867,0.7901201248168945,-1.4609637260437012
1789088466999089400,2.41008935546875,-5.501381874084473,0.025069475173950195,-2.1641526222229004
1789088467009089300,2.42008935546875,-6.788808345794678,-0.2427678108215332,-1.5535069704055786
1789088467019089400,2.43008935546875,-7.739939212799072,-0.44111037254333496,-1.653547763824463
1789088467029089300,2.44008935546875,-6.905691623687744,-0.5837221145629883,-1.269484519958496
1789088467039089400,2.45008935546875,-4.725372791290283,-0.49606800079345703,-0.32418131828308105
1789088467049089300,2.46008935546875,-1.973827838897705,-0.026515483856201172,1.700643539428711
1789088467059089400,2.47008935546875,1.0182628631591797,1.0031646490097046,6.68952751159668
1789088467069089300,2.48008935546875,2.780820846557617,1.804443597793579,10.63928508758545
1789088467079089400,2.49008935546875,3.2398557662963867,1.7046284675598145,9.853639602661133
1789088467089089300,2.50008935546875,3.238546371459961,0.8632378578186035,7.586371898651123
1789088467099089400,2.51008935546875,2.511312484741211,-0.9419440031051636,3.962902069091797
1789088467109089300,2.52008935546875,2.222020149230957,-2.0542593002319336,2.246595859527588
1789088467119089400,2.53008935546875,2.724349021911621,-2.1531405448913574,1.9158344268798828
1789088467129089300,2.54008935546875,3.556399345397949,-1.7091166973114014,2.0516695976257324
1789088467139089400,2.55008935546875,4.129541397094727,-1.076179027557373,2.3144450187683105
1789088467149089300,2.56008935546875,3.490384101867676,-0.6370100975036621,1.630446434020996
1789088467159089400,2.57008935546875,2.0801429748535156,-0.9054358005523682,0.4548492431640625
1789088467169089300,2.58008935546875,-1.1994647979736328,-1.5002410411834717,-1.307276725769043
1789088467179089400,2.59008935546875,-2.884309768676758,-0.6781914234161377,-1.520071029663086
1789088467189089300,2.60008935546875,-5.623458385467529,0.5308923721313477,-1.3699712753295898
1789088467199089400,2.61008935546875,-4.924893856048584,1.1583514213562012,-1.2036206722259521
1789088467209089300,2.62008935546875,-4.776603698730469,0.6049256324768066,-1.4608967304229736
1789088467219089400,2.63008935546875,-3.8972177505493164,0.9509258270263672,-0.8495521545410156
1789088467229089300,2.64008935546875,-2.431033134460449,1.4738988876342773,0.11187005043029785
1789088467239089400,2.65008935546875,-0.8904433250427246,1.5837140083312988,0.6321055889129639
1789088467249089300,2.66008935546875,0.15123844146728516,1.3718597888946533,0.8815326690673828
1789088467259089400,2.67008935546875,0.8162927627563477,0.9132089614868164,0.38547825813293457
1789088467269089300,2.68008935546875,0.7354593276977539,-0.0991051197052002,-0.5753333568572998
1789088467279089400,2.69008935546875,-0.22091102600097656,-1.2420324087142944,-1.7356922626495361
1789088467289089300,2.70008935546875,-1.4981327056884766,-2.0990235805511475,-3.1954305171966553
1789088467299089400,2.71008935546875,-2.392091751098633,-2.54679536819458,-3.8267550468444824
1789088467309089300,2.72008935546875,-3.187063217163086,-2.587275981903076,-3.7665772438049316
1789088467319089400,2.73008935546875,-3.716311454772949,-2.58854079246521,-3.5597784519195557
1789088467329089300,2.74008935546875,-3.821287155151367,-2.5342884063720703,-2.9321861267089844
1789088467339089400,2.75008935546875,-3.7636656761169434,-2.386392116546631,-1.9946353435516357
1789088467349089300,2.76008935546875,-3.4070777893066406,-2.189906120300293,-1.022681474685669
1789088467359089400,2.77008935546875,-2.8383264541625977,-1.8991650342941284,-0.4573044776916504
1789088467369089300,2.78008935546875,-2.3678150177001953,-1.631940245628357,-0.016245126724243164
1789088467379089400,2.79008935546875,-1.8163657188415527,-1.4508297443389893,0.7380003929138184
1789088467389089300,2.80008935546875,-1.1375198364257812,-1.1548709869384766,1.6419565677642822
1789088467399089400,2.81008935546875,-1.292104721069336,-0.7523026466369629,2.0973989963531494
1789088467409089300,2.82008935546875,-1.8724884986877441,-0.5145232677459717,1.75388765335083
1789088467419089400,2.83008935546875,-2.677229404449463,-0.6652309894561768,0.15333151817321777
1789088467429089300,2.84008935546875,-3.8570303916931152,-1.0579380989074707,-2.2247443199157715
1789088467439089400,2.85008935546875,-4.7069549560546875,-1.4671127796173096,-3.9103200435638428
1789088467449088800,2.8600888671875,-4.7799391746521,-1.536583423614502,-4.906058311462402
1789088467459089000,2.8700888671875,-3.779653549194336,-1.2176283597946167,-5.351675987243652
1789088467469088800,2.8800888671875,-2.8084592819213867,-0.8983147144317627,-5.184169769287109
1789088467479089000,2.8900888671875,-2.0657358169555664,-0.8360049724578857,-4.725429534912109
1789088467489088800,2.9000888671875,-1.5404558181762695,-1.0527595281600952,-4.492819786071777
1789088467499089000,2.9100888671875,-1.269277572631836,-1.2734864950180054,-4.660721778869629
1789088467509088800,2.9200888671875,-1.1903562545776367,-1.2927594184875488,-4.701517105102539
1789088467519089000,2.9300888671875,-1.0303006172180176,-1.2008440494537354,-4.699867248535156
1789088467529088800,2.9400888671875,-0.7099552154541016,-0.9324579238891602,-4.97134256362915
1789088467539089000,2.9500888671875,-0.393280029296875,-0.826647162437439,-5.24169397354126
1789088467549088800,2.9600888671875,-0.3432140350341797,-1.2695906162261963,-5.152601718902588
1789088467559089000,2.9700888671875,0.14812755584716797,-1.031847357749939,-5.876664161682129
1789088467569088800,2.9800888671875,-0.036355018615722656,-1.0955458879470825,-6.4991350173950195
1789088467579089000,2.9900888671875,-0.5663661956787109,-1.848338007926941,-6.796468257904053
1789088467589088800,3.0000888671875,-0.6572780609130859,-2.9384162425994873,-6.9194440841674805
1789088467599089000,3.0100888671875,-0.3687286376953125,-3.9113054275512695,-6.665217876434326
1789088467609088800,3.0200888671875,0.032090187072753906,-4.519223213195801,-5.995610237121582
1789088467619089000,3.0300888671875,0.40915775299072266,-4.915719032287598,-5.388224124908447
1789088467629088800,3.0400888671875,0.3470296859741211,-5.3228654861450195,-5.11149263381958
1789088467639089000,3.0500888671875,0.6297101974487305,-5.074648857116699,-5.35099458694458
1789088467649088800,3.0600888671875,1.362309455871582,-4.573844909667969,-5.4154558181762695
1789088467659089000,3.0700888671875,0.8291358947753906,-4.364684104919434,-5.984579563140869
1789088467669088800,3.0800888671875,0.02819061279296875,-4.5117902755737305,-6.690674781799316
1789088467679089000,3.0900888671875,-0.07191181182861328,-4.655671119689941,-7.034524917602539
1789088467689088800,3.1000888671875,0.031232833862304688,-4.500580310821533,-6.728336334228516
1789088467699089000,3.1100888671875,0.9171915054321289,-3.8215718269348145,-5.489007472991943
1789088467709088800,3.1200888671875,2.0737342834472656,-3.1880764961242676,-4.386072158813477
1789088467719089000,3.1300888671875,2.9733028411865234,-2.8342514038085938,-3.062025308609009
1789088467729088800,3.1400888671875,3.432638168334961,-2.5156211853027344,-1.5397164821624756
1789088467739089000,3.1500888671875,3.761935234069824,-1.8351739645004272,-0.19739389419555664
1789088467749088800,3.1600888671875,3.8217992782592773,-1.0941981077194214,0.6840884685516357
1789088467759089000,3.1700888671875,3.8128890991210938,-0.6750998497009277,1.0317180156707764
1789088467769088800,3.1800888671875,3.8933963775634766,-0.5037336945533752,0.5415782928466797
1789088467779089000,3.1900888671875,3.774913787841797,-0.5752557516098022,-0.528327465057373
1789088467789088800,3.2000888671875,3.3501834869384766,-0.9313260316848755,-1.4005632400512695
1789088467799089000,3.2100888671875,2.880418300628662,-1.2156944274902344,-1.8275647163391113
1789088467809088800,3.2200888671875,2.5291566848754883,-1.3398703336715698,-2.166677474975586
1789088467819089000,3.2300888671875,2.5940256118774414,-1.4127483367919922,-2.4877986907958984
1789088467829088800,3.2400888671875,2.9793992042541504,-1.3664318323135376,-2.821563243865967
1789088467839089000,3.2500888671875,3.02882719039917,-1.2981257438659668,-3.3388657569885254
1789088467849088800,3.2600888671875,3.0221729278564453,-1.1511458158493042,-3.8276829719543457
1789088467859089000,3.2700888671875,2.937018871307373,-1.213736891746521,-3.655500888824463
1789088467869088800,3.2800888671875,1.7611284255981445,-0.8610594272613525,-3.652660369873047
1789088467879089000,3.2900888671875,0.8316984176635742,-0.49628502130508423,-3.5851593017578125
1789088467889088800,3.3000888671875,0.14925384521484375,-0.378033846616745,-3.344822406768799
1789088467899089000,3.3100888671875,0.21299076080322266,-0.40523743629455566,-3.385509967803955
1789088467909088800,3.3200888671875,0.5843191146850586,-0.7236528396606445,-2.240859031677246
1789088467919089000,3.3300888671875,0.6993212699890137,-0.7811352014541626,-0.8316240310668945
1789088467929088800,3.3400888671875,1.172281265258789,-0.4245600700378418,-0.1705646514892578
1789088467939089000,3.3500888671875,2.1001133918762207,-0.0029058605432510376,0.4598207473754883
1789088467949088800,3.3600888671875,2.972109317779541,0.42000049352645874,1.1325998306274414
1789088467959089000,3.3700888671875,3.370731830596924,0.6633294224739075,1.535202980041504
1789088467969088800,3.3800888671875,3.419712543487549,0.7257105112075806,1.7913455963134766
1789088467979089000,3.3900888671875,3.3610024452209473,0.8760104179382324,2.1411943435668945
1789088467989088800,3.4000888671875,3.274078369140625,1.317154884338379,2.271345615386963
1789088467999089000,3.4100888671875,3.7117667198181152,1.4218153953552246,2.577463150024414
1789088468009088800,3.4200888671875,3.8527798652648926,1.5753576755523682,2.804657459259033
1789088468019089000,3.4300888671875,3.9181594848632812,1.7133623361587524,2.6612448692321777
1789088468029088800,3.4400888671875,4.0472493171691895,1.7544201612472534,2.5704121589660645
1789088468039089000,3.4500888671875,4.169126510620117,2.119976758956909,2.533461570739746
1789088468049088800,3.4600888671875,4.273983955383301,2.409074068069458,2.308940887451172
1789088468059089000,3.4700888671875,4.408591270446777,2.6235668659210205,1.755814552307129
1789088468069088800,3.4800888671875,4.740830898284912,2.6275625228881836,1.2863225936889648
1789088468079089000,3.4900888671875,5.147117614746094,2.6994426250457764,1.1046972274780273
1789088468089088800,3.5000888671875,5.455122947692871,2.8936994075775146,1.048445701599121
1789088468099089000,3.5100888671875,5.7704668045043945,3.1484217643737793,1.0367274284362793
1789088468109088800,3.5200888671875,6.149380683898926,3.438922643661499,0.9424505233764648
1789088468119089000,3.5300888671875,6.590032577514648,3.7629380226135254,0.7826299667358398
1789088468129088800,3.5400888671875,6.9710235595703125,3.917926073074341,0.7269101142883301
1789088468139089000,3.5500888671875,7.223859786987305,4.087803363800049,0.5733051300048828
1789088468149088800,3.5600888671875,7.238214492797852,4.301069259643555,0.2688102722167969
1789088468159089000,3.5700888671875,6.898470878601074,4.3899641036987305,-0.08985233306884766
1789088468169088800,3.5800888671875,6.346440315246582,4.542103290557861,-0.3738975524902344
1789088468179089000,3.5900888671875,5.773003101348877,4.672715187072754,-0.48511791229248047
1789088468189088800,3.6000888671875,5.34902811050415,4.644251346588135,-0.6340837478637695
1789088468199089000,3.6100888671875,4.959681510925293,4.416921615600586,-1.0242605209350586
1789088468209088800,3.6200888671875,4.779065132141113,4.051626682281494,-1.4459095001220703
1789088468219089000,3.6300888671875,4.991610050201416,3.6986231803894043,-1.8413400650024414
1789088468229088800,3.6400888671875,5.451394081115723,3.3632454872131348,-2.290154457092285
1789088468239089000,3.6500888671875,5.959650039672852,2.9925599098205566,-2.7448883056640625
1789088468249088800,3.6600888671875,6.431490421295166,2.7045459747314453,-3.0655250549316406
1789088468259089000,3.6700888671875,7.211993217468262,2.4400370121002197,-3.7001991271972656
1789088468269088800,3.6800888671875,7.886655330657959,2.291659355163574,-4.491926193237305
1789088468279089000,3.6900888671875,8.34611701965332,2.323488712310791,-5.048513412475586
1789088468289088800,3.7000888671875,8.794209480285645,2.910418748855591,-5.319561004638672
1789088468299089000,3.7100888671875,8.79008960723877,3.3029658794403076,-4.917586326599121
1789088468309088800,3.7200888671875,8.008768081665039,3.048482894897461,-4.3357696533203125
1789088468319089000,3.7300888671875,6.682391166687012,2.52797269821167,-3.4732513427734375
1789088468329088800,3.7400888671875,5.068884372711182,1.838059663772583,-2.567169189453125
1789088468339089000,3.7500888671875,3.2285733222961426,1.1557013988494873,-1.7619457244873047
1789088468349088800,3.7600888671875,1.5152084827423096,1.0408165454864502,-0.8364295959472656
1789088468359089000,3.7700888671875,0.26440906524658203,0.9572673439979553,0.2544670104980469
1789088468369088800,3.7800888671875,-0.5441007614135742,0.5873931646347046,0.7596845626831055
1789088468379089000,3.7900888671875,-1.003492832183838,-0.09232378005981445,0.6363525390625
1789088468389088800,3.8000888671875,-0.8453922271728516,-0.8042111992835999,0.20364093780517578
1789088468399089000,3.8100888671875,-1.0911917686462402,-1.6750195026397705,-0.7890481948852539
1789088468409088800,3.8200888671875,-1.211383581161499,-2.629121780395508,-1.3175983428955078
1789088468419089000,3.8300888671875,-1.1505372524261475,-2.9778926372528076,-1.1466856002807617
1789088468429088800,3.8400888671875,-1.2059495449066162,-3.3752663135528564,-0.648747444152832
1789088468439089000,3.8500888671875,-1.3883943557739258,-3.8756701946258545,-0.40401363372802734
1789088468449088800,3.8600888671875,-1.7311270236968994,-4.303194046020508,-0.4162263870239258
1789088468459089000,3.8700888671875,-2.068441867828369,-4.556584358215332,-0.5790586471557617
1789088468469088800,3.8800888671875,-2.3842833042144775,-4.75342321395874,-0.6685352325439453
1789088468479089000,3.8900888671875,-2.6086184978485107,-4.900274276733398,-0.7794923782348633
1789088468489088800,3.9000888671875,-2.6630923748016357,-5.007391452789307,-0.9068775177001953
1789088468499089000,3.9100888671875,-2.5249438285827637,-5.078647613525391,-1.0396003723144531
1789088468509088800,3.9200888671875,-2.288881778717041,-5.167784690856934,-1.132857322692871
1789088468519089000,3.9300888671875,-1.924057960510254,-5.369063854217529,-1.2263479232788086
1789088468529088800,3.9400888671875,-1.4162517786026,-5.668415069580078,-1.3104486465454102
1789088468539089000,3.9500888671875,-0.5462938547134399,-5.11713981628418,-0.5971050262451172
1789088468549088800,3.9600888671875,0.060915350914001465,-4.366053581237793,0.5864858627319336
1789088468559089000,3.9700888671875,0.4223809242248535,-3.9444985389709473,1.8312873840332031
1789088468569088800,3.9800888671875,0.49708878993988037,-3.850727081298828,2.6176161766052246
1789088468579089000,3.9900888671875,0.40274345874786377,-3.941274642944336,2.9492244720458984
1789088468589088800,4.0000888671875,0.3739354610443115,-4.132603645324707,3.1536059379577637
1789088468599089000,4.0100888671875,0.39973294734954834,-4.317892551422119,3.3984451293945312
1789088468609088800,4.0200888671875,0.4340043067932129,-4.4324235916137695,3.7073936462402344
1789088468619089000,4.0300888671875,0.4845069646835327,-4.530294895172119,4.031478404998779
1789088468629088800,4.0400888671875,0.6005334854125977,-4.591758728027344,4.293467998504639
1789088468639089000,4.0500888671875,0.7630404233932495,-4.675724983215332,4.381387233734131
1789088468649088800,4.0600888671875,0.9096688032150269,-4.762017250061035,4.420412063598633
1789088468659089000,4.0700888671875,1.0232656002044678,-4.8066020011901855,4.393824577331543
1789088468669088800,4.0800888671875,1.0060460567474365,-4.875184059143066,4.364602088928223
1789088468679089000,4.0900888671875,0.9835922718048096,-4.902349472045898,4.318379878997803
1789088468689088800,4.1000888671875,0.8876663446426392,-4.915396690368652,4.223793029785156
1789088468699089000,4.1100888671875,0.77867591381073,-4.984455585479736,4.037890434265137
1789088468709088800,4.1200888671875,0.5968114137649536,-5.0663604736328125,3.9191665649414062
1789088468719089000,4.1300888671875,0.3103606700897217,-5.09620475769043,3.895643711090088
1789088468729088800,4.1400888671875,0.0263216495513916,-5.102001190185547,3.8233156204223633
1789088468739089000,4.1500888671875,-0.11172854900360107,-5.090839385986328,3.6233878135681152
1789088468749088800,4.1600888671875,0.005148887634277344,-5.019515037536621,3.194899082183838
1789088468759089000,4.1700888671875,0.3505672216415405,-4.858242034912109,2.432003974914551
1789088468769088800,4.1800888671875,0.8066827058792114,-4.5977935791015625,1.5610175132751465
1789088468779089000,4.1900888671875,1.2078341245651245,-4.252229690551758,0.6742610931396484
1789088468789088800,4.2000888671875,1.5888972282409668,-3.91806960105896,-0.1173257827758789
1789088468799089000,4.2100888671875,1.7908031940460205,-3.6756653785705566,-0.6278142929077148
1789088468809088800,4.2200888671875,1.7316926717758179,-3.5371222496032715,-0.8136024475097656
1789088468819089000,4.2300888671875,1.377740740776062,-3.571582794189453,-0.93695068359375
1789088468829088800,4.2400888671875,0.8868646621704102,-3.8942651748657227,-1.3454103469848633
1789088468839089000,4.2500888671875,0.5615744590759277,-4.39686393737793,-1.9173297882080078
1789088468849088800,4.2600888671875,0.3860055208206177,-4.809572219848633,-2.478334426879883
1789088468859089000,4.2700888671875,0.6037131547927856,-4.889072418212891,-2.658144950866699
1789088468869088800,4.2800888671875,0.7863198518753052,-4.577620506286621,-2.911452293395996
1789088468879089000,4.2900888671875,0.784477949142456,-4.020995616912842,-3.4458112716674805
1789088468889088800,4.3000888671875,1.1958274841308594,-3.2076544761657715,-3.522928237915039
1789088468899089000,4.3100888671875,1.754786729812622,-2.1233458518981934,-3.049262046813965
1789088468909088800,4.3200888671875,2.192908763885498,-1.041479229927063,-2.4777889251708984
1789088468919089000,4.3300888671875,2.5792348384857178,-0.17477446794509888,-1.7338075637817383
1789088468929088800,4.3400888671875,2.63649845123291,0.36999157071113586,-0.7906980514526367
1789088468939089000,4.3500888671875,2.3912460803985596,0.646294355392456,0.3179206848144531
1789088468949088800,4.3600888671875,1.9829508066177368,0.7670100331306458,1.3880023956298828
1789088468959089000,4.3700888671875,1.5597442388534546,0.8071802854537964,1.9773249626159668
1789088468969088800,4.3800888671875,1.2440025806427002,0.7436197996139526,2.0693836212158203
1789088468979089000,4.3900888671875,0.9144043922424316,0.5696362257003784,1.8528532981872559
1789088468989088800,4.4000888671875,0.47580134868621826,0.37186217308044434,1.3206052780151367
1789088468999089000,4.4100888671875,0.08537840843200684,0.2532055377960205,0.5924968719482422
1789088469009088800,4.4200888671875,-0.21986520290374756,0.3047065734863281,-0.12419319152832031
1789088469019089000,4.4300888671875,-0.4412740468978882,0.3989109992980957,-0.7560195922851562
1789088469029088800,4.4400888671875,-0.37214982509613037,0.6487727165222168,-1.0731172561645508
1789088469039089000,4.4500888671875,-0.7759175300598145,0.8690669536590576,-1.8030166625976562
1789088469049088800,4.4600888671875,-1.2719535827636719,1.085944414138794,-2.344437599182129
1789088469059089000,4.4700888671875,-1.9237563610076904,1.325657844543457,-2.3995447158813477
1789088469069088800,4.4800888671875,-2.606294870376587,1.590240478515625,-2.1834564208984375
1789088469079089000,4.4900888671875,-3.0942654609680176,1.8486790657043457,-1.7891569137573242
1789088469089088800,4.5000888671875,-3.0343360900878906,2.1056065559387207,-1.1237754821777344
1789088469099089000,4.5100888671875,-2.5711917877197266,2.2868824005126953,-0.4939451217651367
1789088469109088800,4.5200888671875,-1.8310211896896362,2.3293256759643555,-0.02975940704345703
1789088469119089000,4.5300888671875,-0.8054711818695068,2.193850040435791,0.27880287170410156
1789088469129088800,4.5400888671875,0.3579329252243042,2.045376777648926,0.07361698150634766
1789088469139089000,4.5500888671875,1.3963757753372192,1.968231439590454,-0.32268524169921875
1789088469149088800,4.5600888671875,2.2777047157287598,1.9906539916992188,-0.6731138229370117
1789088469159089000,4.5700888671875,2.8714284896850586,2.1774039268493652,-0.7848749160766602
1789088469169088800,4.5800888671875,3.08349609375,2.5268073081970215,-0.8208732604980469
1789088469179089000,4.5900888671875,3.021848678588867,3.010133743286133,-0.9120798110961914
1789088469189088800,4.6000888671875,2.665109634399414,3.411794424057007,-0.8409290313720703
1789088469199089000,4.6100888671875,2.1529247760772705,3.704608201980591,-0.6737747192382812
1789088469209088800,4.6200888671875,1.7263967990875244,3.961069107055664,-0.5715818405151367
1789088469219089000,4.6300888671875,1.4901126623153687,4.243674278259277,-0.6210031509399414
1789088469229088800,4.6400888671875,1.524823784828186,4.520961761474609,-0.8529748916625977
1789088469239089000,4.6500888671875,1.6725529432296753,4.8386664390563965,-1.1759328842163086
1789088469249088800,4.6600888671875,1.7838311195373535,5.175990104675293,-1.5834550857543945
1789088469259089000,4.6700888671875,1.7420822381973267,5.512982368469238,-2.052204132080078
1789088469269088800,4.6800888671875,1.6203055381774902,5.836055278778076,-2.5558910369873047
1789088469279089000,4.6900888671875,1.5473793745040894,6.104593753814697,-2.9660463333129883
1789088469289088800,4.7000888671875,1.424226999282837,6.120856285095215,-3.287721633911133
1789088469299089000,4.7100888671875,1.2545870542526245,5.985259532928467,-3.448573112487793
1789088469309088800,4.7200888671875,1.1094434261322021,5.847624778747559,-3.4949560165405273
1789088469319089000,4.7300888671875,1.0738402605056763,5.785498142242432,-3.451226234436035
1789088469329088800,4.7400888671875,1.0823795795440674,5.803123950958252,-3.3898706436157227
1789088469339089000,4.7500888671875,1.0799394845962524,5.800899505615234,-3.5003490447998047
1789088469349088800,4.7600888671875,0.9818603992462158,5.690075874328613,-3.830690383911133
1789088469359089000,4.7700888671875,0.7169910669326782,5.423956871032715,-4.434090614318848
1789088469369088800,4.7800888671875,0.242384672164917,4.818495750427246,-5.267034530639648
1789088469379089000,4.7900888671875,-0.12730944156646729,3.843144416809082,-6.096823692321777
1789088469389088800,4.8000888671875,-0.19326698780059814,2.86262845993042,-6.977964401245117
1789088469399089000,4.8100888671875,0.4144953489303589,2.358217716217041,-7.452337265014648
1789088469409088800,4.8200888671875,0.48420703411102295,1.970994234085083,-8.718839645385742
1789088469419089000,4.8300888671875,0.6068931818008423,1.6824498176574707,-9.908027648925781
1789088469429088800,4.8400888671875,0.9100189208984375,1.670893907546997,-10.584397315979004
1789088469439089000,4.8500888671875,1.5595147609710693,2.180086135864258,-10.249155044555664
1789088469449088800,4.8600888671875,1.8120185136795044,3.2216384410858154,-9.263590812683105
1789088469459089000,4.8700888671875,1.8605201244354248,4.166325092315674,-7.791506767272949
1789088469469088800,4.8800888671875,1.6402734518051147,4.625518798828125,-6.033330917358398
1789088469479089000,4.8900888671875,1.2913423776626587,4.587306499481201,-4.266474723815918
1789088469489088800,4.9000888671875,1.0476921796798706,4.135438919067383,-2.705441474914551
1789088469499089000,4.9100888671875,0.9186487197875977,3.3472797870635986,-1.3117704391479492
1789088469509088800,4.9200888671875,0.6573729515075684,2.341031312942505,-0.30969810485839844
1789088469519089000,4.9300888671875,0.2657461166381836,1.2448093891143799,0.24196434020996094
1789088469529088800,4.9400888671875,-0.12231612205505371,0.1877126693725586,0.48059749603271484
1789088469539089000,4.9500888671875,-0.3993290662765503,-0.6983520984649658,0.5364418029785156
1789088469549088800,4.9600888671875,-0.5424777269363403,-1.4360058307647705,0.5214204788208008
1789088469559089000,4.9700888671875,-0.48539483547210693,-2.027695655822754,0.3501091003417969
1789088469569088800,4.9800888671875,-0.31064510345458984,-2.559770345687866,-0.015219688415527344
1789088469579089000,4.9900888671875,-0.1489020586013794,-3.1085798740386963,-0.4175443649291992
1789088469589088800,5.0000888671875,-0.03344011306762695,-3.669174909591675,-0.7420988082885742
1789088469599089000,5.0100888671875,0.07479500770568848,-4.096640586853027,-0.9202737808227539
1789088469609088800,5.0200888671875,0.23563134670257568,-4.234124183654785,-1.001317024230957
1789088469619089000,5.0300888671875,0.4112452268600464,-4.164002895355225,-0.8731842041015625
1789088469629088800,5.0400888671875,0.5467090606689453,-4.011627197265625,-0.6382017135620117
1789088469639089000,5.0500888671875,0.7015066742897034,-3.886705160140991,-0.4300537109375
1789088469649088800,5.0600888671875,0.920249879360199,-3.805670738220215,-0.2708415985107422
1789088469659089000,5.0700888671875,1.1307814121246338,-3.7512552738189697,-0.1455850601196289
1789088469669088800,5.0800888671875,1.2845813035964966,-3.7550439834594727,0.058684349060058594
1789088469679089000,5.0900888671875,1.5154613256454468,-3.7477774620056152,0.3076314926147461
1789088469689088800,5.1000888671875,1.773795485496521,-3.7309341430664062,0.5747413635253906
1789088469699089000,5.1100888671875,2.025827169418335,-3.760910987854004,0.8862762451171875
1789088469709088800,5.1200888671875,2.22910475730896,-3.864896535873413,1.1802845001220703
1789088469719089000,5.1300888671875,2.34196138381958,-4.093763828277588,1.398707389831543
1789088469729088800,5.1400888671875,2.407273769378662,-4.3769073486328125,1.6356182098388672
1789088469739089000,5.1500888671875,2.3905882835388184,-4.58883810043335,1.8660106658935547
1789088469749088800,5.1600888671875,2.34063458442688,-4.709622383117676,2.1025047302246094
1789088469759089000,5.1700888671875,2.2792375087738037,-4.814502716064453,2.3448705673217773
1789088469769088800,5.1800888671875,2.2680749893188477,-4.930063724517822,2.5252342224121094
1789088469779089000,5.1900888671875,2.2506091594696045,-5.055814266204834,2.636903762817383
1789088469789088800,5.2000888671875,2.239428997039795,-5.167641639709473,2.6641836166381836
1789088469799089000,5.2100888671875,2.276425838470459,-5.233579158782959,2.627164363861084
1789088469809088800,5.2200888671875,2.2761759757995605,-5.216643333435059,2.596149444580078
1789088469819089000,5.2300888671875,2.0866847038269043,-5.226202964782715,2.5860824584960938
1789088469829088800,5.2400888671875,1.819635272026062,-5.372889995574951,2.5070910453796387
1789088469839089000,5.2500888671875,1.6071727275848389,-5.562832832336426,2.521634101867676
1789088469849088800,5.2600888671875,1.3203256130218506,-5.648916244506836,2.6013193130493164
1789088469859089000,5.2700888671875,1.0011208057403564,-5.635724067687988,2.8019657135009766
1789088469869088800,5.2800888671875,0.6820880174636841,-5.606171607971191,3.0242390632629395
1789088469879089000,5.2900888671875,0.43766242265701294,-5.6100664138793945,3.1837849617004395
1789088469889088800,5.3000888671875,0.27519336342811584,-5.644675254821777,3.222320556640625
1789088469899089000,5.3100888671875,0.16395892202854156,-5.769924163818359,3.164858818054199
1789088469909088800,5.3200888671875,0.04539361596107483,-5.984387397766113,3.020355224609375
1789088469919089000,5.3300888671875,-0.09411810338497162,-6.250056266784668,2.764322280883789
1789088469929088800,5.3400888671875,-0.18171469867229462,-6.493800163269043,2.550546646118164
1789088469939089000,5.3500888671875,-0.33211565017700195,-6.663393974304199,2.321099281311035
1789088469949088800,5.3600888671875,-0.6716275215148926,-6.932553291320801,1.794224739074707
1789088469959089000,5.3700888671875,-1.1286044120788574,-7.448971748352051,1.2057695388793945
1789088469969088800,5.3800888671875,-1.527438998222351,-7.974592208862305,0.5959939956665039
1789088469979089000,5.3900888671875,-1.6361544132232666,-8.25489616394043,0.2101306915283203
1789088469989088800,5.4000888671875,-1.942570447921753,-8.540048599243164,-0.5349111557006836
1789088469999089000,5.4100888671875,-2.54099440574646,-8.800914764404297,-1.6649885177612305
1789088470009088800,5.4200888671875,-2.8885209560394287,-8.530244827270508,-2.4279842376708984
1789088470019089000,5.4300888671875,-2.818336009979248,-7.546961307525635,-2.3722190856933594
1789088470029088800,5.4400888671875,-2.5653979778289795,-6.230454444885254,-1.9263648986816406
1789088470039089000,5.4500888671875,-2.025073766708374,-5.038783550262451,-1.2644672393798828
1789088470049088800,5.4600888671875,-1.1843037605285645,-4.106891632080078,-0.39534854888916016
1789088470059089000,5.4700888671875,-0.23732447624206543,-3.25903058052063,0.4904956817626953
1789088470069088800,5.4800888671875,0.5140314102172852,-2.499208450317383,1.0421781539916992
1789088470079089000,5.4900888671875,1.2575693130493164,-1.9376001358032227,1.4056119918823242
1789088470089088800,5.5000888671875,1.9934563636779785,-1.3614163398742676,1.6286134719848633
1789088470099089000,5.5100888671875,2.173447370529175,-0.8945847749710083,1.3065271377563477
1789088470109088800,5.5200888671875,2.094743251800537,-0.7983129620552063,0.7158384323120117
1789088470119089000,5.5300888671875,1.8585031032562256,-0.9774097800254822,-0.01777172088623047
1789088470129088800,5.5400888671875,1.4395530223846436,-1.227764368057251,-0.8505859375
1789088470139089000,5.5500888671875,0.8793003559112549,-1.386919617652893,-1.630584716796875
1789088470149088800,5.5600888671875,0.22281169891357422,-1.3193719387054443,-2.17690372467041
1789088470159089000,5.5700888671875,-0.4985356330871582,-1.1197484731674194,-2.3959197998046875
1789088470169088800,5.5800888671875,-1.2259714603424072,-0.804502546787262,-2.339071273803711
1789088470179089000,5.5900888671875,-1.8193162679672241,-0.47116410732269287,-2.1341733932495117
1789088470189088800,5.6000888671875,-2.0547587871551514,-0.17432618141174316,-1.6549463272094727
1789088470199089000,5.6100888671875,-1.937006950378418,0.02869284152984619,-1.1542682647705078
1789088470209088800,5.6200888671875,-1.4255521297454834,0.1698232889175415,-0.8013267517089844
1789088470219089000,5.6300888671875,-0.5058687925338745,0.28092026710510254,-0.6290931701660156
1789088470229088800,5.6400888671875,0.6483782529830933,0.3262748718261719,-0.5562572479248047
1789088470239089000,5.6500888671875,1.8145849704742432,0.3089030981063843,-0.47855472564697266
1789088470249088800,5.6600888671875,2.8458805084228516,0.3245447874069214,-0.4264822006225586
1789088470259089000,5.6700888671875,3.6441001892089844,0.4051833152770996,-0.5249557495117188
1789088470269088800,5.6800888671875,4.303702354431152,0.6256551742553711,-0.8173789978027344
1789088470279089000,5.6900888671875,4.748682975769043,0.9456250667572021,-0.9919586181640625
1789088470289088800,5.7000888671875,4.999736785888672,1.3091366291046143,-1.0277528762817383
1789088470299089000,5.7100888671875,5.10161018371582,1.7254993915557861,-1.069209098815918
1789088470309088800,5.7200888671875,5.080283164978027,2.192234516143799,-1.0988588333129883
1789088470319089000,5.7300888671875,4.892899990081787,2.7059271335601807,-1.2285947799682617
1789088470329088800,5.7400888671875,4.549232006072998,3.2630887031555176,-1.491617202758789
1789088470339089000,5.7500888671875,4.186691761016846,3.8912086486816406,-1.7557525634765625
1789088470349088800,5.7600888671875,3.8660645484924316,4.524418830871582,-2.036508560180664
1789088470359089000,5.7700888671875,3.7298591136932373,5.177107334136963,-2.3397579193115234
1789088470369088800,5.7800888671875,3.643833637237549,5.781540870666504,-2.523967742919922
1789088470379089000,5.7900888671875,3.59908390045166,6.2934722900390625,-2.600003242492676
1789088470389088800,5.8000888671875,3.5356831550598145,6.670859336853027,-2.6714868545532227
1789088470399089000,5.8100888671875,3.569364547729492,6.852485656738281,-2.793649673461914
1789088470409088800,5.8200888671875,3.576361656188965,6.854318141937256,-2.8069257736206055
1789088470419089000,5.8300888671875,3.5665130615234375,6.832560062408447,-2.7105703353881836
1789088470429088800,5.8400888671875,3.543792724609375,6.835201263427734,-2.5861778259277344
1789088470439089000,5.8500888671875,3.4554221630096436,6.809661388397217,-2.4419498443603516
1789088470449088800,5.8600888671875,3.3100931644439697,6.751667022705078,-2.47689151763916
1789088470459089000,5.8700888671875,3.163191556930542,6.701661586761475,-2.6508655548095703
1789088470469088800,5.8800888671875,2.96893572807312,6.632873058319092,-2.9032535552978516
1789088470479089000,5.8900888671875,2.784330368041992,6.467258453369141,-3.213663101196289
1789088470489088800,5.9000888671875,2.4899404048919678,6.208768367767334,-3.7014598846435547
1789088470499089000,5.9100888671875,2.174480438232422,5.691953659057617,-4.588728904724121
1789088470509088800,5.9200888671875,2.1160476207733154,5.019935607910156,-5.679975509643555
1789088470519089000,5.9300888671875,2.522080659866333,4.520880699157715,-6.990490913391113
1789088470529088800,5.9400888671875,3.0483527183532715,4.140156269073486,-8.308677673339844
1789088470539089000,5.9500888671875,3.6830501556396484,3.958695650100708,-9.200199127197266
1789088470549088800,5.9600888671875,4.50996208190918,4.062492847442627,-9.87574291229248
1789088470559089000,5.9700888671875,5.384286403656006,4.289762496948242,-10.252058982849121
1789088470569088800,5.9800888671875,6.101729869842529,4.581075668334961,-9.90909194946289
1789088470579089000,5.9900888671875,6.406421661376953,4.871424674987793,-8.82497501373291
1789088470589088800,6.0000888671875,6.183261394500732,4.969590187072754,-7.37570858001709
1789088470599089000,6.0100888671875,5.457510948181152,4.754360198974609,-5.6863250732421875
1789088470609088800,6.0200888671875,4.445309162139893,4.185916900634766,-3.924470901489258
1789088470619089000,6.0300888671875,3.254197835922241,3.289217233657837,-2.3395729064941406
1789088470629088800,6.0400888671875,2.113633632659912,2.230947256088257,-1.0868396759033203
1789088470639089000,6.0500888671875,1.2193456888198853,1.1491725444793701,-0.23494338989257812
1789088470649088800,6.0600888671875,0.6141979694366455,0.12875890731811523,0.23062801361083984
1789088470659089000,6.0700888671875,0.19305896759033203,-0.7756247520446777,0.41056156158447266
1789088470669088800,6.0800888671875,-0.060004591941833496,-1.4824028015136719,0.2814788818359375
1789088470679089000,6.0900888671875,-0.26508235931396484,-1.9847238063812256,-0.08866214752197266
1789088470689088800,6.1000888671875,-0.25109755992889404,-2.3646175861358643,-0.5418148040771484
1789088470699089000,6.1100888671875,0.13042521476745605,-2.672308921813965,-1.1043519973754883
1789088470709088800,6.1200888671875,0.6439355611801147,-2.934375762939453,-1.6279926300048828
1789088470719089000,6.1300888671875,1.1168946027755737,-3.0977859497070312,-1.9179811477661133
1789088470729088800,6.1400888671875,1.531525731086731,-3.0795910358428955,-1.981943130493164
1789088470739089000,6.1500888671875,1.884096622467041,-2.92240571975708,-1.9478034973144531
1789088470749088800,6.1600888671875,2.1754300594329834,-2.7708897590637207,-1.842524528503418
1789088470759089000,6.1700888671875,2.302794933319092,-2.7489848136901855,-1.6782732009887695
1789088470769088800,6.1800888671875,2.3571836948394775,-2.9013078212738037,-1.4934453964233398
1789088470779089000,6.1900888671875,2.298572301864624,-3.152163505554199,-1.2931976318359375
1789088470789088800,6.2000888671875,2.1985068321228027,-3.473001718521118,-1.0025959014892578
1789088470799089000,6.2100888671875,2.1931874752044678,-3.7430226802825928,-0.6857690811157227
1789088470809088800,6.2200888671875,2.327770471572876,-3.9937007427215576,-0.3743934631347656
1789088470819089000,6.2300888671875,2.5059242248535156,-4.234775066375732,0.022994041442871094
1789088470829088800,6.2400888671875,2.589972972869873,-4.513705730438232,0.4569683074951172
1789088470839089000,6.2500888671875,2.540705442428589,-4.821344375610352,0.9127750396728516
1789088470849088800,6.2600888671875,2.4749226570129395,-5.112421989440918,1.3482818603515625
1789088470859089000,6.2700888671875,2.3894028663635254,-5.364010810852051,1.7760887145996094
1789088470869088800,6.2800888671875,2.3163838386535645,-5.557552337646484,2.15769100189209
1789088470879089000,6.2900888671875,2.294583320617676,-5.764637470245361,2.458585739135742
1789088470889088800,6.3000888671875,2.3656718730926514,-5.942975997924805,2.720606803894043
1789088470899089000,6.3100888671875,2.4432015419006348,-6.082658767700195,2.91256046295166
1789088470909088800,6.3200888671875,2.5155324935913086,-6.1449432373046875,3.0769424438476562
1789088470919089000,6.3300888671875,2.535867691040039,-6.184202194213867,3.2000513076782227
1789088470929088800,6.3400888671875,2.522670030593872,-6.266861915588379,3.2811412811279297
1789088470939089000,6.3500888671875,2.402369260787964,-6.369354724884033,3.336517810821533
1789088470949088800,6.3600888671875,2.244929790496826,-6.509624481201172,3.347964286804199
1789088470959089000,6.3700888671875,2.0722012519836426,-6.736272811889648,3.3293185234069824
1789088470969088800,6.3800888671875,1.9309940338134766,-6.984622001647949,3.228425979614258
1789088470979089000,6.3900888671875,1.8375930786132812,-7.197563648223877,3.1498842239379883
1789088470989088800,6.4000888671875,1.7156956195831299,-7.27430534362793,3.194849967956543
1789088470999089000,6.4100888671875,1.5439167022705078,-7.196847915649414,3.2639551162719727
1789088471009088800,6.4200888671875,1.3579347133636475,-7.085134983062744,3.245378017425537
1789088471019089000,6.4300888671875,1.2230695486068726,-7.065101623535156,3.1517891883850098
1789088471029088800,6.4400888671875,1.0486540794372559,-7.1287336349487305,2.9814023971557617
1789088471039089000,6.4500888671875,0.8233970403671265,-7.24676513671875,2.7204513549804688
1789088471049088800,6.4600888671875,0.5831544399261475,-7.344336986541748,2.491387367248535
1789088471059089000,6.4700888671875,0.4043307602405548,-7.421172142028809,2.2133493423461914
1789088471069088800,6.4800888671875,0.19039416313171387,-7.570590019226074,1.699234962463379
1789088471079089000,6.4900888671875,-0.0016503632068634033,-7.905821800231934,1.0623159408569336
1789088471089088800,6.5000888671875,-0.17025861144065857,-8.411811828613281,0.31942272186279297
1789088471099089000,6.5100888671875,-0.34418514370918274,-8.940704345703125,-0.2924175262451172
1789088471109088800,6.5200888671875,-0.3934674561023712,-9.322173118591309,-0.6449127197265625
1789088471119089000,6.5300888671875,-0.2196328043937683,-9.176189422607422,-0.3161916732788086
1789088471129088800,6.5400888671875,-0.40580853819847107,-8.49714183807373,-0.17789077758789062
1789088471139089000,6.5500888671875,-0.14247947931289673,-7.2658891677856445,0.3738584518432617
1789088471149088800,6.5600888671875,0.3429572582244873,-5.7700605392456055,0.9749441146850586
1789088471159089000,6.5700888671875,0.8768941760063171,-4.362512111663818,1.3977994918823242
1789088471169088800,6.5800888671875,1.5171610116958618,-3.320042371749878,1.689652442932129
1789088471179089000,6.5900888671875,2.0431764125823975,-2.739665985107422,1.8203754425048828
1789088471189088800,6.6000888671875,2.1782898902893066,-2.475104331970215,1.794839859008789
1789088471199089000,6.6100888671875,1.9141939878463745,-2.416023015975952,1.4111289978027344
1789088471209088800,6.6200888671875,1.3969945907592773,-2.4850411415100098,0.6702661514282227
1789088471219089000,6.6300888671875,0.7993899583816528,-2.6432688236236572,-0.13467693328857422
1789088471229088800,6.6400888671875,0.05355632305145264,-2.8197789192199707,-1.048354148864746
1789088471239089000,6.6500888671875,-0.678949773311615,-2.984309673309326,-2.092945098876953
1789088471249088800,6.6600888671875,-1.0366151332855225,-3.008089542388916,-2.666964530944824
1789088471259089000,6.6700888671875,-1.76900053024292,-3.1041476726531982,-3.390139579772949
1789088471269088800,6.6800888671875,-2.651526689529419,-3.1074371337890625,-3.9494781494140625
1789088471279089000,6.6900888671875,-3.56679105758667,-2.7431929111480713,-4.062922477722168
1789088471289088800,6.7000888671875,-4.419676780700684,-2.0111618041992188,-3.78061580657959
1789088471299089000,6.7100888671875,-4.868065357208252,-1.0765271186828613,-3.2507686614990234
1789088471309088800,6.7200888671875,-4.705697536468506,-0.13350248336791992,-2.5069475173950195
1789088471319089000,6.7300888671875,-4.174200534820557,0.5298737287521362,-1.9305267333984375
1789088471329088800,6.7400888671875,-3.4209933280944824,0.9510786533355713,-1.605682373046875
1789088471339089000,6.7500888671875,-2.3364179134368896,1.2424343824386597,-1.6025171279907227
1789088471349088800,6.7600888671875,-1.1084548234939575,1.4788923263549805,-1.869786262512207
1789088471359089000,6.7700888671875,0.16467779874801636,1.665563702583313,-2.205451011657715
1789088471369088800,6.7800888671875,1.4273216724395752,1.8148400783538818,-2.529226303100586
1789088471379089000,6.7900888671875,2.4542346000671387,1.9338452816009521,-2.763726234436035
1789088471389088800,6.8000888671875,3.0623064041137695,2.031139612197876,-2.8462600708007812
1789088471399089000,6.8100888671875,3.306408405303955,2.2125015258789062,-2.8056936264038086
1789088471409088800,6.8200888671875,3.3132362365722656,2.484700918197632,-2.4997730255126953
1789088471419089000,6.8300888671875,3.16672945022583,2.75472354888916,-2.042417526245117
1789088471429088800,6.8400888671875,2.9459705352783203,3.0028188228607178,-1.7332420349121094
1789088471439089000,6.8500888671875,2.7533931732177734,3.3022189140319824,-1.7127056121826172
1789088471449088800,6.8600888671875,2.5667786598205566,3.7399280071258545,-1.970717430114746
1789088471459089000,6.8700888671875,2.3406171798706055,4.289649486541748,-2.611935615539551
1789088471469088800,6.8800888671875,2.050992965698242,4.878532886505127,-3.5434131622314453
1789088471479089000,6.8900888671875,1.6738178730010986,5.501303672790527,-4.37291145324707
1789088471489088800,6.9000888671875,1.1472598314285278,6.0683794021606445,-5.064505577087402
1789088471499089000,6.9100888671875,0.6444329023361206,6.546010971069336,-5.578486442565918
1789088471509088800,6.9200888671875,0.21812450885772705,6.840064525604248,-5.794757843017578
1789088471519089000,6.9300888671875,-0.13245677947998047,6.945451259613037,-5.731047630310059
1789088471529088800,6.9400888671875,-0.49811220169067383,6.924089431762695,-5.498929977416992
1789088471539089000,6.9500888671875,-0.9482826590538025,6.8169941902160645,-5.205543041229248
1789088471549088800,6.9600888671875,-1.3789854049682617,6.646310329437256,-4.784322261810303
1789088471559089000,6.9700888671875,-1.6624059677124023,6.40704870223999,-4.352038383483887
1789088471569088800,6.9800888671875,-1.7828603982925415,6.1228766441345215,-3.9396519660949707
1789088471579089000,6.9900888671875,-1.6552314758300781,5.871855735778809,-3.5910677909851074
1789088471589088800,7.0000888671875,-1.3527644872665405,5.661151885986328,-3.4159350395202637
1789088471599089000,7.0100888671875,-1.0020031929016113,5.512149810791016,-3.4475178718566895
1789088471609088800,7.0200888671875,-0.6744197010993958,5.423063278198242,-3.645294189453125
1789088471619089000,7.0300888671875,-0.3941720724105835,5.370797157287598,-3.8981080055236816
1789088471629088800,7.0400888671875,-0.23911428451538086,5.164391040802002,-4.339266300201416
1789088471639089000,7.0500888671875,-0.2605243921279907,4.598973751068115,-5.0045599937438965
1789088471649088800,7.0600888671875,-0.2386765480041504,3.8188533782958984,-5.629188537597656
1789088471659089000,7.0700888671875,0.16555023193359375,3.2494068145751953,-6.282802581787109
1789088471669088800,7.0800888671875,0.8242440223693848,3.084101676940918,-7.078864097595215
1789088471679089000,7.0900888671875,1.5097628831863403,3.2280197143554688,-7.758328437805176
1789088471689088800,7.1000888671875,2.004772663116455,3.555995464324951,-8.192816734313965
1789088471699089000,7.1100888671875,2.118544101715088,3.9410009384155273,-8.320072174072266
1789088471709088800,7.1200888671875,1.9125398397445679,4.28890323638916,-7.86585807800293
1789088471719089000,7.1300888671875,1.556980848312378,4.461212158203125,-6.8498430252075195
1789088471729088800,7.1400888671875,1.1552139520645142,4.398502826690674,-5.526390075683594
1789088471739089000,7.1500888671875,0.7654354572296143,4.109187126159668,-4.060338973999023
1789088471749088800,7.1600888671875,0.407085657119751,3.5745105743408203,-2.6459121704101562
1789088471759089000,7.1700888671875,0.18782615661621094,2.8581604957580566,-1.5301761627197266
1789088471769088800,7.1800888671875,0.14753925800323486,1.9994738101959229,-0.9096269607543945
1789088471779089000,7.1900888671875,0.3277696371078491,1.0897889137268066,-0.7467460632324219
1789088471789088800,7.2000888671875,0.6589410305023193,0.22257375717163086,-0.8986701965332031
1789088471799089000,7.2100888671875,1.0891075134277344,-0.5292339324951172,-1.2535133361816406
1789088471809088800,7.2200888671875,1.6254158020019531,-1.155900478363037,-1.7491693496704102
1789088471819089000,7.2300888671875,2.236599922180176,-1.6936073303222656,-2.301772117614746
1789088471829088800,7.2400888671875,2.930990219116211,-2.149109363555908,-2.6875686645507812
1789088471839089000,7.2500888671875,3.53348970413208,-2.406553268432617,-2.8831253051757812
1789088471849088800,7.2600888671875,3.9854118824005127,-2.527341604232788,-2.8026819229125977
1789088471859089000,7.2700888671875,4.401882171630859,-2.5213561058044434,-2.515011787414551
1789088471869088800,7.2800888671875,4.667016506195068,-2.444880247116089,-2.1305932998657227
1789088471879089000,7.2900888671875,4.7458109855651855,-2.3610382080078125,-1.7100467681884766
1789088471889088800,7.3000888671875,4.618766784667969,-2.336183547973633,-1.336003303527832
1789088471899089000,7.3100888671875,4.403582572937012,-2.4342150688171387,-0.993107795715332
1789088471909088800,7.3200888671875,4.114184856414795,-2.6135756969451904,-0.5614566802978516
1789088471919089000,7.3300888671875,3.8581292629241943,-2.7981810569763184,-0.14385414123535156
1789088471929088800,7.3400888671875,3.6507568359375,-2.899214029312134,0.2238292694091797
1789088471939089000,7.3500888671875,3.5441198348999023,-2.9879603385925293,0.637476921081543
1789088471949088800,7.3600888671875,3.5878334045410156,-3.11615252494812,0.9781665802001953
1789088471959089000,7.3700888671875,3.7065913677215576,-3.259441375732422,1.127420425415039
1789088471969088800,7.3800888671875,3.83292555809021,-3.4551033973693848,1.0691146850585938
1789088471979089000,7.3900888671875,3.9308125972747803,-3.6271867752075195,0.9208803176879883
1789088471989088800,7.4000888671875,3.91217041015625,-3.7392711639404297,0.8404483795166016
1789088471999089000,7.4100888671875,3.8247811794281006,-3.8367013931274414,0.7816553115844727
1789088472009088800,7.4200888671875,3.639463424682617,-3.935274124145508,0.6934080123901367
1789088472019089000,7.4300888671875,3.3930060863494873,-4.017257213592529,0.5489311218261719
1789088472029088800,7.4400888671875,3.085463047027588,-4.0570807456970215,0.37783336639404297
1789088472039089000,7.4500888671875,2.753509521484375,-4.135455131530762,0.19846343994140625
1789088472049088800,7.4600888671875,2.415168046951294,-4.2538323402404785,0.07082080841064453
1789088472059089000,7.4700888671875,2.0995359420776367,-4.325006008148193,0.06265544891357422
1789088472069088800,7.4800888671875,1.8175870180130005,-4.2586846351623535,0.2393798828125
1789088472079089000,7.4900888671875,1.5332731008529663,-4.209721565246582,0.5216693878173828
1789088472089088800,7.5000888671875,1.2719093561172485,-4.198489189147949,0.8897180557250977
1789088472099089000,7.5100888671875,1.1257637739181519,-4.171519756317139,1.1725101470947266
1789088472109088800,7.5200888671875,1.1557533740997314,-4.123137474060059,1.2748470306396484
1789088472119089000,7.5300888671875,1.3710293769836426,-4.090731620788574,1.301548957824707
1789088472129088800,7.5400888671875,1.7352524995803833,-4.071581840515137,1.213627815246582
1789088472139089000,7.5500888671875,2.12876558303833,-3.9894533157348633,1.1066532135009766
1789088472149088800,7.5600888671875,2.4578871726989746,-3.8770108222961426,0.9707803726196289
1789088472159089000,7.5700888671875,2.6709418296813965,-3.7690136432647705,0.7774953842163086
1789088472169088800,7.5800888671875,2.7533087730407715,-3.7335591316223145,0.6505985260009766
1789088472179089000,7.5900888671875,2.6806869506835938,-3.747952938079834,0.6197977066040039
1789088472189088800,7.6000888671875,2.555525541305542,-3.789435863494873,0.4458961486816406
1789088472199089000,7.6100888671875,2.3866801261901855,-3.926699638366699,0.07605743408203125
1789088472209088800,7.6200888671875,2.1153564453125,-4.041643142700195,-0.2845029830932617
1789088472219089000,7.6300888671875,1.8525378704071045,-3.908005714416504,-0.6044893264770508
1789088472229088800,7.6400888671875,1.6210777759552002,-3.520975112915039,-0.8877058029174805
1789088472239089000,7.6500888671875,1.395632266998291,-2.9934730529785156,-1.1561355590820312
1789088472249088800,7.6600888671875,1.1734261512756348,-2.4189605712890625,-1.3681221008300781
1789088472259089000,7.6700888671875,0.9259543418884277,-1.8034169673919678,-1.4168853759765625
1789088472269088800,7.6800888671875,0.8879446983337402,-1.0517594814300537,-1.1624183654785156
1789088472279089000,7.6900888671875,1.2111616134643555,-0.4849565029144287,-0.7947359085083008
1789088472289088800,7.7000888671875,1.6423101425170898,-0.0795297622680664,-0.4805488586425781
1789088472299089000,7.7100888671875,1.9934697151184082,0.23891305923461914,-0.1477351188659668
1789088472309088800,7.7200888671875,2.3240766525268555,0.5036485195159912,0.14698457717895508
1789088472319089000,7.7300888671875,2.644336700439453,0.6961309909820557,0.26258039474487305
1789088472329088800,7.7400888671875,2.805603504180908,0.8225338459014893,0.14694833755493164
1789088472339089000,7.7500888671875,2.6342601776123047,0.8636460304260254,-0.1659250259399414
1789088472349088800,7.7600888671875,2.0678601264953613,0.717266321182251,-0.6054725646972656
1789088472359089000,7.7700888671875,1.1514978408813477,0.37467002868652344,-1.1542062759399414
1789088472369088800,7.7800888671875,0.06838226318359375,0.05638599395751953,-1.864363193511963
1789088472379089000,7.7900888671875,-0.7653641700744629,0.01998448371887207,-2.516901969909668
1789088472389088800,7.8000888671875,-1.2622122764587402,0.30593347549438477,-2.8645668029785156
1789088472399089000,7.8100888671875,-1.6082172393798828,0.7070431709289551,-2.9373536109924316
1789088472409088800,7.8200888671875,-2.053795337677002,1.007056713104248,-2.7883639335632324
1789088472419089000,7.8300888671875,-2.5059642791748047,1.2339911460876465,-2.5768628120422363
1789088472429088800,7.8400888671875,-2.787116050720215,1.3983874320983887,-2.26462984085083
1789088472439089000,7.8500888671875,-3.083479881286621,1.4066746234893799,-1.8213157653808594
1789088472449088800,7.8600888671875,-3.4655232429504395,1.182621717453003,-1.3375835418701172
1789088472459089000,7.8700888671875,-3.749142646789551,0.7952158451080322,-0.8805761337280273
1789088472469088800,7.8800888671875,-3.8155159950256348,0.2330620288848877,-0.3109462261199951
1789088472479089000,7.8900888671875,-3.482816696166992,-0.3221161365509033,0.4271514415740967
1789088472489088800,7.9000888671875,-3.30586576461792,-0.9154167175292969,0.6741764545440674
1789088472499089000,7.9100888671875,-3.3707094192504883,-1.363598346710205,0.7487215995788574
1789088472509088800,7.9200888671875,-3.323948860168457,-1.4393901824951172,0.7346923351287842
1789088472519089000,7.9300888671875,-3.1701278686523438,-1.1365017890930176,0.5783588886260986
1789088472529088800,7.9400888671875,-2.9211363792419434,-0.6065468788146973,0.28496623039245605
1789088472539089000,7.9500888671875,-2.7867250442504883,-0.2049705982208252,-0.018887042999267578
1789088472549088800,7.9600888671875,-2.8527212142944336,-0.003023862838745117,-0.32135844230651855
1789088472559089000,7.9700888671875,-2.9321393966674805,0.019579648971557617,-0.555748701095581
1789088472569088800,7.9800888671875,-2.939096450805664,0.13997840881347656,-0.44687867164611816
1789088472579089000,7.9900888671875,-3.0706119537353516,0.34712791442871094,-0.22419238090515137
1789088472589088800,8.0000888671875,-3.4601354598999023,0.5206375122070312,-0.05270671844482422
1789088472599089000,8.0100888671875,-3.6564369201660156,0.6188361644744873,0.03445076942443848
1789088472609088800,8.0200888671875,-3.655261993408203,0.43634033203125,-0.07259011268615723
1789088472619089000,8.0300888671875,-3.357387065887451,0.039418578147888184,-0.43096911907196045
1789088472629088800,8.0400888671875,-2.913374900817871,-0.44492268562316895,-0.810767412185669
1789088472639089000,8.0500888671875,-2.313530921936035,-0.8449008464813232,-1.0468010902404785
1789088472649088800,8.0600888671875,-1.6053695678710938,-1.0129823684692383,-0.9747710824012756
1789088472659089000,8.0700888671875,-0.9642829895019531,-0.7885971069335938,-0.5610294938087463
1789088472669088800,8.0800888671875,-0.7791204452514648,-0.33816826343536377,0.07719939947128296
1789088472679089000,8.0900888671875,-0.9604310989379883,0.021802544593811035,0.7430952191352844
1789088472689088800,8.1000888671875,-1.2226734161376953,0.1070261001586914,1.1482079029083252
1789088472699089000,8.1100888671875,-1.357595443725586,0.01515805721282959,1.1349319219589233
1789088472709088800,8.1200888671875,-1.3199443817138672,-0.13860416412353516,0.6719399094581604
1789088472719089000,8.1300888671875,-0.9397516250610352,-0.23023390769958496,0.1499754786491394
1789088472729088800,8.1400888671875,1.0340843200683594,-0.1892249584197998,-0.5254791975021362
1789088472739089000,8.1500888671875,2.2661495208740234,-0.5685796737670898,-0.75962233543396
1789088472749088800,8.1600888671875,3.117913246154785,-0.8712310791015625,-0.4854997396469116
1789088472759089000,8.1700888671875,4.140582084655762,-1.007312536239624,-0.3593559265136719
1789088472769088800,8.1800888671875,3.8014144897460938,-0.9329113960266113,0.2586590051651001
1789088472779089000,8.1900888671875,2.2103004455566406,-0.3755190372467041,1.6690713167190552
1789088472789088800,8.2000888671875,0.6639223098754883,-0.022531747817993164,1.7842957973480225
1789088472799089000,8.2100888671875,-0.10404777526855469,-0.2766585350036621,1.4231212139129639
1789088472809088800,8.2200888671875,-0.3139944076538086,-0.9215202331542969,1.3255879878997803
1789088472819089000,8.2300888671875,0.765721321105957,-1.4817384481430054,1.5413053035736084
1789088472829088800,8.2400888671875,2.693100929260254,-1.745081901550293,1.6977678537368774
1789088472839089000,8.2500888671875,4.556487083435059,-1.9294425249099731,1.619834542274475
1789088472849088800,8.2600888671875,6.227058410644531,-2.046109914779663,1.1869323253631592
1789088472859089000,8.2700888671875,7.282349586486816,-1.9075486660003662,0.6852338314056396
1789088472869088800,8.2800888671875,7.182581901550293,-1.3964890241622925,-0.4633512496948242
1789088472879089000,8.2900888671875,6.680273056030273,-0.6487113237380981,-1.5109264850616455
1789088472889088800,8.3000888671875,5.461925506591797,-0.07451820373535156,-1.9264380931854248
1789088472899089000,8.3100888671875,3.6592636108398438,0.32338833808898926,-1.8677592277526855
1789088472909088800,8.3200888671875,1.5721397399902344,0.2035810947418213,-1.229234218597412
1789088472919089000,8.3300888671875,-0.28180503845214844,-0.20928740501403809,-0.289384126663208
1789088472929088800,8.3400888671875,-1.680582046508789,-0.569180965423584,0.6258325576782227
1789088472939089000,8.3500888671875,-3.0720014572143555,-0.8292202949523926,1.5065593719482422
1789088472949088800,8.3600888671875,-3.1156740188598633,-1.1248905658721924,1.941910982131958
1789088472959089000,8.3700888671875,-2.965744972229004,-1.1446948051452637,2.273977756500244
1789088472969088800,8.3800888671875,-2.740652084350586,-1.0980608463287354,2.433743953704834
1789088472979089000,8.3900888671875,-2.4214401245117188,-0.957970142364502,2.1801679134368896
1789088472989088800,8.4000888671875,-1.836318016052246,-0.657128095626831,1.5337624549865723
1789088472999089000,8.4100888671875,-1.018242359161377,-0.4419848918914795,1.06988525390625
1789088473009088800,8.4200888671875,-0.484893798828125,-0.5631282329559326,1.012338399887085
1789088473019089000,8.4300888671875,0.1087646484375,-0.778874397277832,0.7101941108703613
1789088473029088800,8.4400888671875,1.340799331665039,-0.673004150390625,0.1394796371459961
1789088473039089000,8.4500888671875,1.5623645782470703,-0.7297863960266113,0.6337273120880127
1789088473049088800,8.4600888671875,1.5074949264526367,-1.0837929248809814,0.8525937795639038
1789088473059089000,8.4700888671875,0.8155965805053711,-1.6222245693206787,0.9978229999542236
1789088473069088800,8.4800888671875,-0.002513885498046875,-1.792668342590332,1.2537853717803955
1789088473079089000,8.4900888671875,-0.7328457832336426,-1.938222885131836,1.4660966396331787
1789088473089088800,8.5000888671875,-1.869908332824707,-1.992091417312622,1.1739121675491333
1789088473099089000,8.5100888671875,-2.9494848251342773,-1.7798302173614502,0.7125604152679443
1789088473109088800,8.5200888671875,-3.4802942276000977,-1.4933252334594727,0.560204029083252
1789088473119089000,8.5300888671875,-3.8107738494873047,-1.2799935340881348,0.5748112201690674
1789088473129088800,8.5400888671875,-3.851504325866699,-1.1098442077636719,0.4253580570220947
1789088473139089000,8.5500888671875,-3.780705451965332,-0.9134964942932129,0.2140059471130371
1789088473149088800,8.5600888671875,-3.407430648803711,-0.5604598522186279,-0.16243362426757812
1789088473159089000,8.5700888671875,-2.841109275817871,-0.37956786155700684,-0.6995489597320557
1789088473169088800,8.5800888671875,-2.502734661102295,-0.6362612247467041,-1.0342776775360107
1789088473179089000,8.5900888671875,-1.9463586807250977,-0.9666094779968262,-1.1276319026947021
1789088473189088800,8.6000888671875,0.2025918960571289,-1.6692087650299072,-2.2946248054504395
1789088473199089000,8.6100888671875,0.5703001022338867,-1.3455612659454346,-1.0535138845443726
1789088473209088800,8.6200888671875,0.9787654876708984,-1.4503402709960938,-1.5560246706008911
1789088473219089000,8.6300888671875,1.1834735870361328,-1.2888041734695435,-2.1165590286254883
1789088473229088800,8.6400888671875,1.0423164367675781,-1.216386079788208,-1.8894461393356323
1789088473239089000,8.6500888671875,1.035508155822754,-1.0775494575500488,-1.5927467346191406
1789088473249088800,8.6600888671875,0.9422531127929688,-1.233356237411499,-1.7359721660614014
1789088473259089000,8.6700888671875,0.41754913330078125,-1.2131104469299316,-1.859442949295044
1789088473269088800,8.6800888671875,-0.05077648162841797,-0.6886940002441406,-1.7608435153961182
1789088473279089000,8.6900888671875,-0.5098085403442383,-0.34383726119995117,-1.3390367031097412
1789088473289088800,8.7000888671875,-0.6197547912597656,-0.21464061737060547,-1.2698752880096436
1789088473299089000,8.7100888671875,-0.28664398193359375,0.04037737846374512,-1.214477300643921
1789088473309088800,8.7200888671875,0.009847640991210938,0.2540771961212158,-0.8918347358703613
1789088473319089000,8.7300888671875,0.33937644958496094,0.26812076568603516,-0.6344196796417236
1789088473329088800,8.7400888671875,0.7358951568603516,0.2182915210723877,-0.2710883617401123
1789088473339089000,8.7500888671875,1.0247068405151367,0.0685274600982666,-0.11559116840362549
1789088473349088800,8.7600888671875,1.4675674438476562,0.01602482795715332,-0.24113178253173828
1789088473359089000,8.7700888671875,1.7395401000976562,0.06572747230529785,-0.4634675979614258
1789088473369088800,8.7800888671875,1.6222047805786133,0.1873769760131836,-0.6149609088897705
1789088473379089000,8.7900888671875,1.2471437454223633,0.342923641204834,-0.6540169715881348
1789088473389088800,8.8000888671875,0.8468561172485352,0.483156681060791,-0.6380324363708496
1789088473399089000,8.8100888671875,0.4841728210449219,0.5715405941009521,-0.47471630573272705
1789088473409088800,8.8200888671875,0.25147056579589844,0.5215151309967041,-0.11283326148986816
1789088473419089000,8.8300888671875,0.2049713134765625,0.34751033782958984,0.307087779045105
1789088473429088800,8.8400888671875,0.2939310073852539,0.09634613990783691,0.5920658111572266
1789088473439089000,8.8500888671875,0.6561708450317383,-0.19274044036865234,0.7024149298667908
1789088473449088800,8.8600888671875,1.2509269714355469,-0.4176065921783447,0.7050144672393799
1789088473459089000,8.8700888671875,1.804793357849121,-0.5782270431518555,0.6818795204162598
1789088473469088800,8.8800888671875,1.9153614044189453,-0.7201600074768066,0.6818577647209167
1789088473479089000,8.8900888671875,1.698812484741211,-0.8240237236022949,0.6696513295173645
1789088473489088800,8.9000888671875,1.4808683395385742,-0.9153494834899902,0.6331748962402344
1789088473499089000,8.9100888671875,1.2490301132202148,-0.9641587734222412,0.4937489628791809
1789088473509088800,8.9200888671875,1.01019287109375,-0.9744670391082764,0.27629178762435913
1789088473519089000,8.9300888671875,0.7836580276489258,-0.968163251876831,0.2196969985961914
1789088473529088800,8.9400888671875,0.4398345947265625,-0.9191913604736328,0.43922948837280273
1789088473539089000,8.9500888671875,0.0665903091430664,-0.9078071117401123,1.0325233936309814
1789088473549088800,8.9600888671875,-0.012949943542480469,-0.9221851825714111,1.7008416652679443
1789088473559089000,8.9700888671875,0.28174400329589844,-0.8755724430084229,2.296659469604492
1789088473569088800,8.9800888671875,1.0606155395507812,-0.8088803291320801,2.7852158546447754
1789088473579089000,8.9900888671875,2.033513069152832,-0.8681848049163818,3.3040201663970947
1789088473589088800,9.0000888671875,2.9596147537231445,-1.1076085567474365,3.804089069366455
1789088473599089000,9.0100888671875,3.6395864486694336,-1.539097785949707,4.043871879577637
1789088473609088800,9.0200888671875,3.9138593673706055,-2.0411086082458496,3.9661059379577637
1789088473619089000,9.0300888671875,3.8203811645507812,-2.5186617374420166,3.60683012008667
1789088473629088800,9.0400888671875,3.390317916870117,-2.9101407527923584,3.1170713901519775
1789088473639089000,9.0500888671875,2.670224189758301,-3.1594948768615723,2.635657787322998
1789088473649088800,9.0600888671875,1.7269973754882812,-3.2671313285827637,2.2863874435424805
1789088473659089000,9.0700888671875,0.7238903045654297,-3.192997455596924,2.0550026893615723
1789088473669088800,9.0800888671875,-0.1881999969482422,-3.0244264602661133,1.9412457942962646
1789088473679089000,9.0900888671875,-1.0161967277526855,-2.866337537765503,1.8732643127441406
1789088473689088800,9.1000888671875,-1.731191635131836,-2.7179763317108154,1.8795740604400635
1789088473699089000,9.1100888671875,-2.231307029724121,-2.557865858078003,1.9688067436218262
1789088473709088800,9.1200888671875,-2.529420852661133,-2.3948276042938232,2.123744487762451
1789088473719089000,9.1300888671875,-2.7005605697631836,-2.298034429550171,2.4201838970184326
1789088473729088800,9.1400888671875,-2.7663354873657227,-2.226299524307251,2.7886595726013184
1789088473739089000,9.1500888671875,-2.700960159301758,-2.150723934173584,3.1959609985351562
1789088473749088800,9.1600888671875,-2.563706398010254,-2.1157283782958984,3.549520492553711
1789088473759089000,9.1700888671875,-2.460576057434082,-2.0917415618896484,3.8083839416503906
1789088473769088800,9.1800888671875,-2.4194068908691406,-2.1039953231811523,3.9391627311706543
1789088473779089000,9.1900888671875,-2.371098041534424,-2.2157349586486816,3.868856906890869
1789088473789088800,9.2000888671875,-2.3376541137695312,-2.4406490325927734,3.647885322570801
1789088473799089000,9.2100888671875,-2.2732677459716797,-2.6825833320617676,3.321626901626587
1789088473809088800,9.2200888671875,-2.1651391983032227,-2.9421045780181885,3.102978229522705
1789088473819089000,9.2300888671875,-2.0381879806518555,-3.1791529655456543,3.050351142883301
1789088473829088800,9.2400888671875,-1.6782951354980469,-3.180497169494629,2.9103360176086426
1789088473839089000,9.2500888671875,-1.3355836868286133,-3.1184685230255127,2.8214592933654785
1789088473849088800,9.2600888671875,-0.9745798110961914,-3.0881478786468506,2.7501614093780518
1789088473859089000,9.2700888671875,-0.6308097839355469,-3.1721181869506836,2.745238780975342
1789088473869088800,9.2800888671875,-0.10265064239501953,-3.227480173110962,2.772953987121582
1789088473879089000,9.2900888671875,0.5794363021850586,-3.572618246078491,2.9078707695007324
1789088473889088800,9.3000888671875,1.4711170196533203,-3.732677698135376,3.3432440757751465
1789088473899089000,9.3100888671875,2.220097541809082,-3.678992509841919,3.352386474609375
1789088473909088800,9.3200888671875,2.909147262573242,-3.801215171813965,3.332902669906616
1789088473919089000,9.3300888671875,3.7762346267700195,-4.1921844482421875,3.227794647216797
1789088473929088800,9.3400888671875,4.516949653625488,-4.682700157165527,2.9317102432250977
1789088473939089000,9.3500888671875,5.175556182861328,-5.095501899719238,2.49639630317688
1789088473949088800,9.3600888671875,5.624920845031738,-5.450897693634033,1.825865626335144
1789088473959089000,9.3700888671875,5.799196243286133,-5.7548418045043945,1.07981276512146
1789088473969088800,9.3800888671875,5.765369415283203,-5.9026336669921875,0.43026965856552124
1789088473979089000,9.3900888671875,5.496877670288086,-5.863590240478516,0.027825891971588135
1789088473989088800,9.4000888671875,5.025504112243652,-5.6097002029418945,-0.46671730279922485
1789088473999089000,9.4100888671875,4.600943565368652,-5.155810832977295,-0.9463804960250854
1789088474009088800,9.4200888671875,4.090092658996582,-4.657913684844971,-1.3072398900985718
1789088474019089000,9.4300888671875,3.463960647583008,-4.134288311004639,-1.3865402936935425
1789088474029088800,9.4400888671875,3.0064525604248047,-3.728011131286621,-1.165492296218872
1789088474039089000,9.4500888671875,2.7654037475585938,-3.3493692874908447,-0.8118990659713745
1789088474049088800,9.4600888671875,2.5604066848754883,-2.840522050857544,-0.6285864114761353
1789088474059089000,9.4700888671875,2.568089485168457,-2.405099391937256,-0.4943901300430298
1789088474069088800,9.4800888671875,2.630899429321289,-2.2198684215545654,-0.31845152378082275
1789088474079089000,9.4900888671875,2.9715232849121094,-1.8931591510772705,-0.1716364622116089
1789088474089088800,9.5000888671875,3.427858352661133,-1.5918350219726562,0.10162925720214844
1789088474099089000,9.5100888671875,3.7751245498657227,-1.5731338262557983,0.3560142517089844
1789088474109088800,9.5200888671875,4.214874267578125,-1.392827033996582,0.8813626170158386
1789088474119089000,9.5300888671875,4.409726142883301,-1.4162790775299072,1.2496906518936157
1789088474129088800,9.5400888671875,4.130237579345703,-1.7044098377227783,1.2369803190231323
1789088474139089000,9.5500888671875,3.800534248352051,-1.7076656818389893,1.042875051498413
1789088474149088800,9.5600888671875,3.245098114013672,-1.6287837028503418,0.7915916442871094
1789088474159089000,9.5700888671875,2.723093032836914,-1.8560688495635986,0.6716709136962891
1789088474169088800,9.5800888671875,2.0409860610961914,-2.2550249099731445,0.6546216011047363
1789088474179089000,9.5900888671875,1.195404052734375,-2.5149943828582764,0.5221036672592163
1789088474189088800,9.6000888671875,0.2723503112792969,-2.6527516841888428,0.2493441104888916
1789088474199089000,9.6100888671875,-0.5237236022949219,-2.7405362129211426,0.04880845546722412
1789088474209088800,9.6200888671875,-1.070143699645996,-2.642817497253418,-0.3212512731552124
1789088474219089000,9.6300888671875,-1.4218268394470215,-2.462958812713623,-0.5976064205169678
1789088474229088800,9.6400888671875,-1.1458969116210938,-2.2793524265289307,-0.47356224060058594
1789088474239089000,9.6500888671875,-0.5311107635498047,-2.0941295623779297,-0.00023674964904785156
1789088474249088800,9.6600888671875,0.32315540313720703,-2.0307610034942627,-0.6878788471221924
1789088474259089000,9.6700888671875,1.150430679321289,-1.9532392024993896,-1.2706083059310913
1789088474269088800,9.6800888671875,2.161205291748047,-1.9427754878997803,-1.0049141645431519
1789088474279089000,9.6900888671875,2.7056922912597656,-2.1484806537628174,-0.6841744184494019
1789088474289088800,9.7000888671875,2.919668197631836,-2.3146474361419678,-0.2825510501861572
1789088474299089000,9.7100888671875,2.7611093521118164,-2.3531038761138916,-0.06528270244598389
1789088474309088800,9.7200888671875,2.4682254791259766,-2.2188706398010254,-0.12110066413879395
1789088474319089000,9.7300888671875,2.0534133911132812,-1.9908982515335083,-0.3888353109359741
1789088474329088800,9.7400888671875,1.347665786743164,-1.784050703048706,-0.4705823063850403
1789088474339089000,9.7500888671875,0.5807609558105469,-1.589632511138916,-0.3915197253227234
1789088474349088800,9.7600888671875,-0.054309844970703125,-1.3259239196777344,-0.2092909812927246
1789088474359089000,9.7700888671875,-0.5357780456542969,-0.9751925468444824,0.1415538191795349
1789088474369088800,9.7800888671875,-0.8381633758544922,-0.6496129035949707,0.5418129563331604
1789088474379089000,9.7900888671875,-1.1477479934692383,-0.5082721710205078,0.8286603093147278
1789088474389088800,9.8000888671875,-1.2570781707763672,-0.4949512481689453,0.9633976221084595
1789088474399089000,9.8100888671875,-1.054244041442871,-0.4827146530151367,0.9657984972000122
1789088474409088800,9.8200888671875,-0.7132892608642578,-0.48113441467285156,0.8966345191001892
1789088474419089000,9.8300888671875,-0.3205289840698242,-0.4795393943786621,0.8072272539138794
1789088474429088800,9.8400888671875,0.0017671585083007812,-0.5012788772583008,0.8264051079750061
1789088474439089000,9.8500888671875,0.22226715087890625,-0.476717472076416,0.7719736099243164
1789088474449088800,9.8600888671875,0.49716758728027344,-0.3364701271057129,0.6367412805557251
1789088474459089000,9.8700888671875,0.7303590774536133,-0.23877382278442383,0.4339904189109802
1789088474469088800,9.8800888671875,0.8192958831787109,-0.15555810928344727,0.2301132082939148
1789088474479089000,9.8900888671875,0.8259792327880859,-0.050348758697509766,0.05064433813095093
1789088474489088800,9.9000888671875,0.7319831848144531,0.03952455520629883,-0.12677043676376343
1789088474499089000,9.9100888671875,0.48723411560058594,0.049358367919921875,-0.276980459690094
1789088474509088800,9.9200888671875,0.2400035858154297,0.005116462707519531,-0.4285821318626404
1789088474519089000,9.9300888671875,0.09596824645996094,0.07952737808227539,-0.7777525782585144
1789088474529088800,9.9400888671875,-0.1143636703491211,0.16185808181762695,-1.1095882654190063
1789088474539089000,9.9500888671875,-0.2433633804321289,0.20368337631225586,-1.3740477561950684
1789088474549088800,9.9600888671875,-0.3113255500793457,0.25096988677978516,-1.553302526473999
1789088474559089000,9.9700888671875,-0.43081045150756836,0.37028980255126953,-1.586634874343872
1789088474569088800,9.9800888671875,-0.5887818336486816,0.6149492263793945,-1.4971215724945068
1789088474579089000,9.9900888671875,-0.8337640762329102,0.8264713287353516,-1.2108651399612427
1789088474589088800,10.0000888671875,-1.190819263458252,0.9752230644226074,-0.9071274995803833
1789088474599089000,10.0100888671875,-1.338637351989746,1.5180730819702148,-1.368851661682129
1789088474609088800,10.0200888671875,-1.4321045875549316,1.8284797668457031,-1.656416893005371
1789088474619089000,10.0300888671875,-1.302985668182373,2.134847640991211,-2.040661334991455
1789088474629088800,10.0400888671875,-1.0469579696655273,2.4433369636535645,-2.4846713542938232
1789088474639089000,10.0500888671875,-0.596193790435791,2.549530506134033,-2.4855847358703613
1789088474649088800,10.0600888671875,0.023166656494140625,2.3993124961853027,-2.2598304748535156
1789088474659089000,10.0700888671875,0.947685718536377,2.026836395263672,-1.6727663278579712
1789088474669088800,10.0800888671875,1.7575898170471191,1.567429542541504,-1.1137006282806396
1789088474679089000,10.0900888671875,2.3430161476135254,1.2124862670898438,-0.9453356862068176
1789088474689088800,10.1000888671875,2.633450508117676,0.8879027366638184,-0.9862618446350098
1789088474699089000,10.1100888671875,2.509725570678711,0.4827241897583008,-1.012183427810669
1789088474709088800,10.1200888671875,2.0960488319396973,0.11801481246948242,-1.0801072120666504
1789088474719089000,10.1300888671875,1.4629530906677246,-0.062091827392578125,-1.307029128074646
1789088474729088800,10.1400888671875,0.7458858489990234,-0.16789531707763672,-1.5633928775787354
1789088474739089000,10.1500888671875,0.04718160629272461,-0.2635350227355957,-1.6805073022842407
1789088474749088800,10.1600888671875,-0.6055126190185547,-0.42899608612060547,-1.70830500125885
1789088474759089000,10.1700888671875,-1.1036443710327148,-0.621147632598877,-1.834275484085083
1789088474769088800,10.1800888671875,-1.3465662002563477,-0.7555408477783203,-2.0182831287384033
1789088474779089000,10.1900888671875,-1.4210247993469238,-0.8531308174133301,-2.0019376277923584
1789088474789088800,10.2000888671875,-1.27756929397583,-0.9675054550170898,-1.6525564193725586
1789088474799089000,10.2100888671875,-0.9402303695678711,-1.1158251762390137,-1.0691193342208862
1789088474809088800,10.2200888671875,-0.5354213714599609,-1.2850894927978516,-0.48710471391677856
1789088474819089000,10.2300888671875,-0.06931781768798828,-1.4656147956848145,-0.03989475965499878
1789088474829088800,10.2400888671875,0.32215213775634766,-1.6661968231201172,0.15849345922470093
1789088474839089000,10.2500888671875,0.5623388290405273,-1.895350456237793,0.1980910301208496
1789088474849088800,10.2600888671875,0.5430326461791992,-2.1318726539611816,0.14727550745010376
1789088474859089000,10.2700888671875,0.3029365539550781,-2.305764675140381,0.03393834829330444
1789088474869088800,10.2800888671875,-0.030550479888916016,-2.363462448120117,-0.07803630828857422
1789088474879089000,10.2900888671875,-0.4600410461425781,-2.3627638816833496,-0.19732189178466797
1789088474889088800,10.3000888671875,-0.9441642761230469,-2.2962770462036133,-0.25101566314697266
1789088474899089000,10.3100888671875,-1.3240771293640137,-2.1804375648498535,-0.3081238865852356
1789088474909088800,10.3200888671875,-1.497373104095459,-2.00502347946167,-0.34507495164871216
1789088474919089000,10.3300888671875,-1.4969396591186523,-1.7931079864501953,-0.2751724123954773
1789088474929088800,10.3400888671875,-1.418905258178711,-1.6196770668029785,-0.1613733172416687
1789088474939089000,10.3500888671875,-1.4007806777954102,-1.4737467765808105,-0.043544232845306396
1789088474949088800,10.3600888671875,-1.4696125984191895,-1.378270149230957,0.05098235607147217
1789088474959089000,10.3700888671875,-1.6273078918457031,-1.3475642204284668,0.2093822956085205
1789088474969088800,10.3800888671875,-1.8072123527526855,-1.3126482963562012,0.3702535033226013
1789088474979089000,10.3900888671875,-1.9237170219421387,-1.2143425941467285,0.3468424081802368
1789088474989088800,10.4000888671875,-1.8929948806762695,-1.164787769317627,0.15626585483551025
1789088474999089000,10.4100888671875,-1.7084221839904785,-1.2039704322814941,-0.08464741706848145
1789088475009088800,10.4200888671875,-1.4904966354370117,-1.3064899444580078,-0.3343803882598877
1789088475019089000,10.4300888671875,-1.3275237083435059,-1.4075751304626465,-0.5209523439407349
1789088475029088800,10.4400888671875,-1.2242169380187988,-1.452059268951416,-0.6376038789749146
1789088475039089000,10.4500888671875,-1.1497421264648438,-1.4237165451049805,-0.7063509225845337
1789088475049088800,10.4600888671875,-0.9406590461730957,-1.3466615676879883,-0.8215464353561401
1789088475059089000,10.4700888671875,-0.7752113342285156,-1.2128453254699707,-0.9210975170135498
1789088475069088800,10.4800888671875,-0.6417264938354492,-1.0585198402404785,-0.8206920623779297
1789088475079089000,10.4900888671875,-0.44961118698120117,-0.9649348258972168,-0.7018811702728271
1789088475089088800,10.5000888671875,-0.22057867050170898,-0.8657107353210449,-0.6526154279708862
1789088475099089000,10.5100888671875,0.026645183563232422,-0.7206530570983887,-0.6254830360412598
1789088475109088800,10.5200888671875,0.16730213165283203,-0.6710877418518066,-0.55037522315979
1789088475119089000,10.5300888671875,0.25022315979003906,-0.6107115745544434,-0.49073290824890137
1789088475129088800,10.5400888671875,0.24123668670654297,-0.5443229675292969,-0.48366498947143555
1789088475139089000,10.5500888671875,0.3040337562561035,-0.4530162811279297,-0.5860806703567505
1789088475149088800,10.5600888671875,0.5034613609313965,-0.3895750045776367,-0.7093230485916138
1789088475159089000,10.5700888671875,0.9260063171386719,-0.3297719955444336,-0.7856314182281494
1789088475169088800,10.5800888671875,1.3515686988830566,-0.33053159713745117,-0.7041385173797607
1789088475179089000,10.5900888671875,1.7715272903442383,-0.33838987350463867,-0.5738449096679688
1789088475189088800,10.6000888671875,2.2499027252197266,-0.256406307220459,-0.5842156410217285
1789088475199089000,10.6100888671875,2.6154708862304688,-0.10056209564208984,-0.7166818380355835
1789088475209088800,10.6200888671875,2.639120578765869,0.07660102844238281,-0.6796450614929199
1789088475219089000,10.6300888671875,2.269583225250244,0.11079978942871094,-0.2780343294143677
1789088475229088800,10.6400888671875,1.6569361686706543,0.08605432510375977,0.21180450916290283
1789088475239089000,10.6500888671875,1.1364941596984863,0.22345352172851562,0.4924464225769043
1789088475249088800,10.6600888671875,0.7480592727661133,0.46165943145751953,0.5220195055007935
1789088475259089000,10.6700888671875,0.49291181564331055,0.6143321990966797,0.4162174463272095
1789088475269088800,10.6800888671875,0.4821457862854004,0.5864987373352051,0.23572003841400146
1789088475279089000,10.6900888671875,0.6256809234619141,0.5363025665283203,-0.056732892990112305
1789088475289088800,10.7000888671875,0.8116350173950195,0.533301830291748,-0.28143632411956787
1789088475299089000,10.7100888671875,1.0073862075805664,0.5471210479736328,-0.3073939085006714
1789088475309088800,10.7200888671875,1.2336044311523438,0.5578804016113281,-0.15549588203430176
1789088475319089000,10.7300888671875,1.5394015312194824,0.5636610984802246,0.04859769344329834
1789088475329088800,10.7400888671875,1.909461498260498,0.5488557815551758,0.3313289284706116
1789088475339089000,10.7500888671875,2.2693734169006348,0.46765899658203125,0.6630696058273315
1789088475349088800,10.7600888671875,2.501952648162842,0.3234977722167969,1.04740571975708
1789088475359089000,10.7700888671875,2.5668649673461914,0.07713556289672852,1.332655668258667
1789088475369088800,10.7800888671875,2.4191198348999023,-0.1660780906677246,1.4774158000946045
1789088475379089000,10.7900888671875,2.0868334770202637,-0.371945858001709,1.434525728225708
1789088475389088800,10.8000888671875,1.5723843574523926,-0.5241551399230957,1.1974940299987793
1789088475399089000,10.8100888671875,1.0219879150390625,-0.6771559715270996,0.8284904956817627
1789088475409088800,10.8200888671875,0.5229177474975586,-0.818842887878418,0.41937005519866943
1789088475419089000,10.8300888671875,-0.045938968658447266,-0.9193353652954102,0.08993268013000488
1789088475429088800,10.8400888671875,-0.5921688079833984,-0.9411792755126953,-0.12162530422210693
1789088475439089000,10.8500888671875,-1.0111818313598633,-0.8800444602966309,-0.20881426334381104
1789088475449088800,10.8600888671875,-1.3538074493408203,-0.7793474197387695,-0.14950799942016602
1789088475459089000,10.8700888671875,-1.457505226135254,-0.6373844146728516,0.020427405834197998
1789088475469088800,10.8800888671875,-1.532301425933838,-0.5355019569396973,0.2788826823234558
1789088475479089000,10.8900888671875,-1.5952024459838867,-0.5670828819274902,0.48151183128356934
1789088475489088800,10.9000888671875,-1.607987403869629,-0.5828084945678711,0.5597970485687256
1789088475499089000,10.9100888671875,-1.5356321334838867,-0.5326008796691895,0.5233884453773499
1789088475509088800,10.9200888671875,-1.4456968307495117,-0.5326862335205078,0.47188082337379456
1789088475519089000,10.9300888671875,-1.3880157470703125,-0.5652079582214355,0.4705536961555481
1789088475529088800,10.9400888671875,-1.284045696258545,-0.6404366493225098,0.4900450110435486
1789088475539089000,10.9500888671875,-1.1401362419128418,-0.7131657600402832,0.3666419982910156
1789088475549088800,10.9600888671875,-1.0304083824157715,-0.7673044204711914,0.11558926105499268
1789088475559089000,10.9700888671875,-0.8989510536193848,-0.862858772277832,-0.1448456048965454
1789088475569088800,10.9800888671875,-0.804633617401123,-0.9289770126342773,-0.32507598400115967
1789088475579089000,10.9900888671875,-0.7259736061096191,-0.878105640411377,-0.43787550926208496
1789088475589088800,11.0000888671875,-0.7263154983520508,-0.8552441596984863,-0.519530177116394
1789088475599089000,11.0100888671875,-0.6354665756225586,-0.9050154685974121,-0.6030740737915039
1789088475609088800,11.0200888671875,-0.025074481964111328,-0.8741202354431152,-0.3655588626861572
1789088475619089000,11.0300888671875,-0.10606193542480469,-0.8360676765441895,-0.41342759132385254
1789088475629088800,11.0400888671875,-0.877324104309082,-0.45569610595703125,-0.8402684926986694
1789088475639089000,11.0500888671875,-1.6526837348937988,-0.2559976577758789,-0.9393271207809448
1789088475649088800,11.0600888671875,-1.8426141738891602,-0.24583053588867188,-0.7322728633880615
1789088475659089000,11.0700888671875,-1.8244528770446777,-0.07291030883789062,-0.40255558490753174
1789088475669088800,11.0800888671875,-1.6768383979797363,0.13689565658569336,0.04042863845825195
1789088475679089000,11.0900888671875,-1.2869629859924316,0.15792560577392578,0.47630661725997925
1789088475689088800,11.1000888671875,-0.6560721397399902,0.3039212226867676,0.6249881982803345
1789088475699089000,11.1100888671875,0.04613065719604492,0.4389505386352539,0.6470115184783936
1789088475709088800,11.1200888671875,0.7174921035766602,0.23300695419311523,0.7770591974258423
1789088475719089000,11.1300888671875,1.2545180320739746,-0.015301227569580078,0.5866135954856873
1789088475729088800,11.1400888671875,1.2522282600402832,-0.045412540435791016,0.07937240600585938
