time,seconds_elapsed,z,y,x
1789137689904501200,0.023501220703125,-0.16491583691239356,0.20125833927318454,0.10670359417945145
1789137689914546200,0.033546142578125,-0.14100246188342572,0.15809943489581346,0.029611148279160258
1789137689924591400,0.04359130859375,-0.13203764966130255,0.14697510655224322,-0.012626257339119911
1789137689934636300,0.05363623046875,-0.12572832038402557,0.09696019880026578,-0.014900485881417989
1789137689944680200,0.06368017578125,-0.1921107178300619,0.1297574297696352,-0.04170490617677569
1789137689954725400,0.073725341796875,-0.15062836836278437,0.16542144834697245,0.0008089782953262329
1789137689964770300,0.083770263671875,0.003168693163990974,0.1763284806780517,0.08110036636739969
1789137689974815500,0.0938154296875,0.16611995200514793,0.12381488797813653,0.23147972840517758
1789137689984859100,0.103859130859375,0.26954993134140964,0.03233750450313091,0.40421880628913637
1789137689994904300,0.113904296875,0.308923325830698,-0.052837125565856694,0.4847212067633867
1789137690004949200,0.12394921875,0.5008733001410961,-0.12264131415411829,0.5615362970270216
1789137690014994400,0.133994384765625,0.7334235803872347,-0.17901026710793375,0.6330424672275782
1789137690025038300,0.144038330078125,0.8014724497407675,-0.1394591779641807,0.6315969445943832
1789137690035083300,0.154083251953125,0.9329963046610354,-0.050011546751111746,0.5873552134163678
1789137690045128400,0.16412841796875,1.0582722051024436,0.02492138302773237,0.5665323517486452
1789137690055173400,0.17417333984375,1.0317419255733489,0.102016751537472,0.5554230748437344
1789137690065217300,0.18421728515625,0.8877619091838598,0.1129044946461916,0.5429739276371895
1789137690075262200,0.19426220703125,0.7512380540192127,0.1157047928892076,0.5975267710797488
1789137690085307400,0.204307373046875,0.5970791734427213,0.19266440619006753,0.6546046029552817
1789137690095352300,0.214352294921875,0.31846389211416243,0.31228374217450616,0.645639936863631
1789137690105396200,0.224396240234375,0.1682733306467533,0.2790340912625193,0.5417295535992831
1789137690115441400,0.23444140625,0.2510866384118795,0.13375205236375332,0.47067660705894226
1789137690125486300,0.244486328125,0.3644213411688804,0.09367956969439983,0.4245393444579094
1789137690135531300,0.25453125,0.4805833763062954,0.15988909479156135,0.4866691990260035
1789137690145575200,0.2645751953125,0.5248825367599725,0.32316870880424975,0.6274759191416204
1789137690155620400,0.274620361328125,0.390694431066513,0.4170937776923179,0.7464343800645321
1789137690165665300,0.284665283203125,0.1993868463128805,0.3912092487208545,0.9120048814933747
1789137690175710200,0.294710205078125,0.017617489755153655,0.4278190237157046,1.0700448412869126
1789137690185754400,0.30475439453125,-0.15104396342635154,0.4604994964376092,1.1482167529869824
1789137690195799300,0.31479931640625,-0.2620020001798868,0.4571924177162349,1.1188216586112976
1789137690205844500,0.324844482421875,-0.4160878155201673,0.45021965609416364,1.009716994639486
1789137690215889200,0.33488916015625,-0.5653296979606152,0.41196854363307356,0.9979291608858853
1789137690225933300,0.344933349609375,-0.6019020635545254,0.4339093034148216,1.0550099884361028
1789137690235978200,0.354978271484375,-0.6809533884376288,0.4443178847044706,1.0825230684574694
1789137690246023400,0.3650234375,-0.7801625352084636,0.44252500993832944,1.0454760710891335
1789137690256068400,0.375068359375,-0.8591618376433848,0.45709743290916083,1.0480926102630794
1789137690266112300,0.3851123046875,-0.9755518363177775,0.5502648152977228,1.1104083427920937
1789137690276157400,0.395157470703125,-1.03039694070518,0.6879566913284361,1.0821252282463014
1789137690286202000,0.4052021484375,-1.0646353103935717,0.761478293004632,0.9971513083811849
1789137690296247300,0.415247314453125,-1.0586135658860205,0.7533890945732593,0.8726520183354616
1789137690306291500,0.42529150390625,-0.9981313323944806,0.7667237924426794,0.7191885726772248
1789137690316336400,0.43533642578125,-0.8479963005065917,0.7692408898301422,0.5296252743076533
1789137690326381300,0.44538134765625,-0.6695505354136229,0.7250406597062945,0.4326706284653395
1789137690336426200,0.45542626953125,-0.4856441668272018,0.671735039845854,0.3726840330036357
1789137690346471400,0.465471435546875,-0.35485037974715233,0.6354024743571877,0.27723694218005984
1789137690356515300,0.475515380859375,-0.26010171951651573,0.6014456980891525,0.2357618992364034
1789137690366560300,0.485560302734375,-0.11135843424797058,0.5579327195771038,0.24691892427317796
1789137690376605200,0.495605224609375,0.0008832125753164291,0.539013791834563,0.23649657018650322
1789137690386650400,0.505650390625,-0.07750584900677204,0.5722136122554541,0.18193243816494942
1789137690396694500,0.515694580078125,-0.15756664319336414,0.5906155303865671,0.15119126294255256
1789137690406739200,0.5257392578125,-0.2867103249788284,0.5464619158834219,0.15414695267667994
1789137690416784400,0.535784423828125,-0.3026403000384569,0.516254116885364,0.18505661633377893
1789137690426829300,0.545829345703125,-0.08629764274954796,0.5046645091176033,0.38072975761946287
1789137690436873200,0.555873291015625,0.12189093417823314,0.4223573973089456,0.5555669402938336
1789137690446918100,0.565918212890625,0.17672902430295942,0.31151392684578894,0.5213607193093747
1789137690456963300,0.57596337890625,0.2182920377910137,0.20302856381610035,0.44923375032935287
1789137690467008300,0.58600830078125,0.20981647039055823,0.10905629478543996,0.41555465849153694
1789137690477052200,0.59605224609375,-0.11990355975329875,0.060591392954438925,0.36778109992556274
1789137690487097300,0.606097412109375,-0.12944120342731474,0.1227028350830078,-0.47825895194672047
1789137690497142300,0.616142333984375,0.7032558211386203,0.44487624923959374,-1.752388295843452
1789137690507187500,0.6261875,1.9125772503644227,0.7199205402135849,-1.0854564915608613
1789137690517231000,0.636231201171875,0.6463450163930654,0.4275669486507773,-0.22119433510378003
1789137690527276300,0.6462763671875,-0.3428606667459011,0.24214447641298173,0.378950144193694
1789137690537321200,0.6563212890625,0.24541209990680216,-0.12982143491655587,-0.19066000756509602
1789137690547366400,0.666366455078125,-0.009964344653487205,-0.46739743925780053,-0.3025600013438612
1789137690557410300,0.676410400390625,-0.5160661930978298,-0.25885566497817636,0.19887144413664937
1789137690567455200,0.686455322265625,-0.5438409197300672,0.022907558987289665,0.5873355588678271
1789137690577500400,0.69650048828125,-0.648427083364129,0.011230419066548347,0.49565994940698144
1789137690587545300,0.70654541015625,-0.7410965992331504,-0.18207330794036386,0.08886018671393393
1789137690597590300,0.71659033203125,-0.6306184549510478,-0.1147745263017714,0.1480585178747773
1789137690607634400,0.726634521484375,-0.7374883456081152,0.1183404020898044,0.400100703445822
1789137690617679400,0.736679443359375,-0.23216157318949698,0.47715588607564563,-0.140655986533314
1789137690627724300,0.746724365234375,0.24170915373563764,0.8779635687470435,-1.129251867210865
1789137690637769200,0.756769287109375,0.07718611553311347,0.6707086194075643,-1.404373753465712
1789137690647813400,0.7668134765625,-0.09787935947179793,0.3410625312827527,-1.153600564917177
1789137690657858300,0.7768583984375,-0.21156711345016954,0.4509944398589432,-0.7627313618056476
1789137690667903500,0.786903564453125,0.01767477290034294,0.1310366559252143,-0.7793637860462069
1789137690677948200,0.7969482421875,0.8112105844229459,-0.5416087767638266,-0.8625944424405694
1789137690687992300,0.806992431640625,0.7898767044931649,-0.6283119315743446,-0.8323566866956651
1789137690698037500,0.81703759765625,1.0378326436638832,-0.5804227838046848,-0.7812224195249379
1789137690708082200,0.827082275390625,1.0841238547176122,-0.5187593777045607,-0.8930173454940319
1789137690718127400,0.83712744140625,0.8485334761232137,-0.44557789470292625,-0.9622960489034652
1789137690728171300,0.847171142578125,0.16980945417284965,-0.31659334900192915,-0.9177255241625011
1789137690738216400,0.857216552734375,-0.6852776813775301,-0.339549496371299,-0.6031041328206658
1789137690748261000,0.86726123046875,-1.2368939112842081,-0.22915859198123215,-0.4305988636925816
1789137690758306300,0.877306396484375,-1.5183768570035696,-0.058826940565183755,-0.3583148409873247
1789137690768350500,0.8873505859375,-1.1650678614795207,-0.25939050250723955,-0.42122079449445005
1789137690778395400,0.8973955078125,-0.27739713771045205,-0.3297963102504611,-0.6388891474291681
1789137690788440300,0.9074404296875,-0.09658756609559059,-0.2784797818480059,-0.9137243256971239
1789137690798485200,0.9174853515625,-0.8158739000588655,0.12163739780858158,-0.9224787100389599
1789137690808529400,0.927529296875,-1.2795482271403074,0.40370767842922356,-0.7248004212096333
1789137690818574000,0.937573974609375,-1.1960650572896003,0.46915790959168224,-0.44472062028646464
1789137690828619300,0.947619384765625,-0.9351701415687799,0.301157002678141,-0.24694705438911912
1789137690838664200,0.957664306640625,-0.7274830844223499,0.10072141449730843,-0.22719313712716102
1789137690848709400,0.96770947265625,-0.6344798065543175,-0.003033997401036322,-0.4548436626330018
1789137690858753300,0.977753173828125,-0.9277502207010984,-0.13100856234189123,-0.7227705228172242
1789137690868798200,0.987798095703125,-1.3312977035999298,-0.3148856683012098,-0.8890311984673142
1789137690878843400,0.997843505859375,-1.3705810817182063,-0.4337506787870079,-0.985626801738888
1789137690888888300,1.007888427734375,-0.7849404171347618,-0.5364141307301818,-1.1095055487334728
1789137690898932200,1.01793212890625,-0.0730588064700365,-0.6935681745346635,-1.2151764388643205
1789137690908977200,1.02797705078125,0.5590343972086906,-0.8629636410791426,-1.3321249482043087
1789137690919022300,1.038022216796875,0.6577011076658964,-0.9912356545966118,-1.3672948996543883
1789137690929067300,1.0480673828125,0.2315501632928848,-1.0563520506948232,-1.3620093604668975
1789137690939111200,1.058111083984375,0.7588257326692343,-1.1601304050773382,-1.504211553528905
1789137690949156400,1.06815625,-0.11131868675947189,-1.0971157304987311,-1.2670662005774675
1789137690959201300,1.078201171875,-1.2397130603581665,-0.6297494170315563,-0.9234836492978036
1789137690969246500,1.08824658203125,-1.538396731725335,0.0016647183418273925,-0.850087281436473
1789137690979290400,1.098290283203125,-1.5279630159944295,0.4201791034217924,-1.0161416939247399
1789137690989335300,1.108335205078125,-1.0144821632146834,0.525946658860147,-1.185808159430325
1789137690999380200,1.118380126953125,-0.5714315219670534,0.36640623137578365,-1.2842942526236176
1789137691009425400,1.12842529296875,-0.39569033965766426,0.11433390639480202,-1.3797035687200725
1789137691019469600,1.138469482421875,-0.7937047383487225,-0.1854704030327499,-1.3707415329769252
1789137691029514200,1.14851416015625,-1.4758026206463575,-0.3639228901274502,-1.3390413034640252
1789137691039559400,1.158559326171875,-0.9061620737493038,-0.4440180615076795,-1.03473321634382
1789137691049604400,1.168604248046875,-0.3250438550263643,-0.41264439706802364,-0.4629143024943769
1789137691059648300,1.178648193359375,0.20311843405663965,-0.24245354236215352,0.010071019898355007
1789137691069693400,1.188693359375,2.8711960720598695,0.5740446270748972,0.2682898482777178
1789137691079738400,1.19873828125,4.9978871977478265,1.5842347921840845,0.13887509446591137
1789137691089783600,1.208783447265625,4.259365417438746,0.9322354763563722,0.4740669801495969
1789137691099828500,1.218828369140625,3.067257573342323,0.5893933316478506,0.4558444371733814
1789137691109872400,1.228872314453125,-0.23961656537055967,0.9689094756938517,-0.5788316421557218
1789137691119917300,1.238917236328125,-0.34663375554382797,1.0995111012026666,-1.0843318714451045
1789137691129962500,1.24896240234375,-0.70004854952991,0.6823327139668166,-1.05289146191217
1789137691140007400,1.25900732421875,-0.840138572743535,0.6227347159639001,-0.8516879946313798
1789137691150051300,1.26905126953125,0.041754152145981785,0.7988434164114296,-0.4633155767716467
1789137691160096500,1.279096435546875,0.7962515002220869,0.7229484366673976,-0.21083441526144742
1789137691170141400,1.289141357421875,1.2860890270859002,0.6644986588515341,-0.25895284174233674
1789137691180186400,1.299186279296875,1.6615771211922168,0.6541440727714449,-0.39772221081145104
1789137691190230300,1.309230224609375,1.8226345291107893,0.6109390642300248,-0.4829374651517719
1789137691200275500,1.319275390625,1.3258891225546598,0.38511699626035983,-0.5773440339464694
1789137691210320400,1.3293203125,0.799199828633666,0.21019971582079305,-0.7989544025052339
1789137691220365300,1.339365234375,0.5132715939432382,0.13824550959179177,-0.9801464706316589
1789137691230409500,1.349409423828125,0.25013036060035226,0.08427567193526773,-1.0191135493423789
1789137691240454400,1.359454345703125,-0.07180676058232784,0.012349961148388683,-1.144636191086471
1789137691250499600,1.36949951171875,-0.39268531262278555,0.07147438682280481,-1.378735454340279
1789137691260544300,1.379544189453125,-0.5394570055574178,0.12760167650785295,-1.5047694796726108
1789137691270588400,1.38958837890625,-0.6720780080646276,0.1695201158374548,-1.4577161982052027
1789137691280633300,1.39963330078125,-0.6227601426661015,0.15724621559996158,-1.3741567482478916
1789137691290678500,1.409678466796875,-0.28300971689522264,0.09924429114945232,-1.3122177400767803
1789137691300723200,1.41972314453125,-0.02315641918182373,0.12436927045788615,-1.2937649685412644
1789137691310768400,1.429768310546875,0.14289748184978962,0.11181509197428822,-1.2751418088749051
1789137691320812500,1.4398125,0.34505788452923297,0.19390859756488352,-1.317701432184875
1789137691330857200,1.449857177734375,0.34913960088491436,0.23660035935454068,-1.3722514991484582
1789137691340902400,1.45990234375,0.22748773615956305,0.18588501171562818,-1.466321675595641
1789137691350947300,1.469947265625,-0.028038346004486084,0.06858392607830464,-1.5378770917654037
1789137691360991500,1.479991455078125,-0.3544359537273645,0.0045874739207327365,-1.5389296695582568
1789137691371036400,1.490036376953125,-0.5265694669336081,-0.09554156417399644,-1.4614051158510148
1789137691381081300,1.500081298828125,-0.57500002810359,-0.16914594876281916,-1.3138717908941209
1789137691391126300,1.510126220703125,-0.32647359556853767,-0.20845716473609208,-1.0964954066433013
1789137691401170400,1.52017041015625,0.11914251225292682,-0.31278263160735365,-0.9574136836893856
1789137691411215400,1.53021533203125,0.6691314332187175,-0.35550687089450655,-0.8102554756551981
1789137691421260300,1.54026025390625,1.0473170958459377,-0.14989647389166055,-0.6574363192498683
1789137691431305500,1.550305419921875,0.9989262821644544,0.16638116022460162,-0.6509869969800114
1789137691441349600,1.560349609375,0.5967582709252834,0.5181336470216512,-0.8266364093527198
1789137691451394300,1.570394287109375,0.23095687357485292,0.9254804491382091,-0.9572634615637361
1789137691461439500,1.580439453125,-0.12412906849384307,1.2710541011698544,-1.015226405710727
1789137691471484400,1.590484375,-0.6028174248337745,1.480227451351285,-1.0521912777535616
1789137691481528300,1.6005283203125,-0.877470232272148,1.6132681405752896,-1.0952031748756765
1789137691491573200,1.6105732421875,-0.6856646348685026,1.4424724518440664,-1.2936807973891495
1789137691501618400,1.620618408203125,-0.9990753352463245,1.0177277940724045,-1.4508938048392532
1789137691511663400,1.630663330078125,-1.192445697748661,0.3841613760359585,-1.4522060564815997
1789137691521707300,1.640707275390625,-1.1921610355883836,-0.2908775276608765,-1.393130621048063
1789137691531752400,1.65075244140625,-1.5454121634453535,-0.6821892869081347,-1.432945767955482
1789137691541797400,1.66079736328125,-1.8269120602995157,-0.790724772689864,-1.549490518800169
1789137691551842600,1.670842529296875,-2.0052923589408396,-0.6968024802807719,-1.4072674290806053
1789137691561887500,1.680887451171875,-2.304043834847212,-0.25702560000680386,-1.2391706240445375
1789137691571931400,1.690931396484375,-2.3898422959029673,0.5677851282887161,-1.1242314087003469
1789137691581976300,1.700976318359375,-2.325203527253866,1.5465402906924486,-0.9657264617435634
1789137691592021500,1.711021484375,-2.008873724558949,2.4379727050825952,-0.9090433282740413
1789137691602066200,1.721066162109375,-1.449223241278529,2.8734529110759497,-0.851733441208303
1789137691612110300,1.7311103515625,-1.5085761784791945,2.481069796270132,-0.9413625664681196
1789137691622155500,1.741155517578125,-2.057854905349016,1.4198179908350108,-1.0490262378513813
1789137691632200400,1.751200439453125,-1.8599954147338866,0.5227423098608851,-1.0223021893158555
1789137691642245400,1.761245361328125,-1.8567156624108552,0.22230638799890876,-0.9941469389334321
1789137691652289300,1.771289306640625,-1.959548844897747,-0.06918357247188688,-1.0800506139293313
1789137691662334500,1.78133447265625,-1.7984230479180812,-0.11091595117747784,-1.307520229910314
1789137691672379400,1.79137939453125,-0.8801274687826633,0.3613948329545557,-0.29707769747525453
1789137691682424300,1.80142431640625,-0.4591057039916515,0.7351308957617729,0.7791744009539484
1789137691692468500,1.811468505859375,-0.4659855266332626,1.2456522411487996,0.8954358048126101
1789137691702513400,1.821513427734375,-0.7743354364901781,1.3650756161697208,1.1241554208546876
1789137691712558600,1.83155859375,-1.006678211465478,1.373667503426224,1.4224316804647446
1789137691722603300,1.841603271484375,-1.1386632541567085,1.4292496899165212,1.4237053536623716
1789137691732647400,1.8516474609375,-1.2392980498164892,1.343831898741424,1.0632964630052446
1789137691742692400,1.8616923828125,-1.5281488939553498,0.813767283168435,0.7396171743303537
1789137691752737300,1.8717373046875,-1.8025994568198918,-0.009986410354822874,0.3774973881021142
1789137691762782200,1.8817822265625,-2.4781319892525673,-0.5187886768642813,0.16009849975854157
1789137691772827400,1.891827392578125,-2.984303980323672,-0.9259074423786252,-0.23830548277199268
1789137691782871600,1.90187158203125,-3.1428041049748656,-1.1351335456606,-0.8484127723529934
1789137691792916200,1.911916259765625,-3.764895554599166,-1.0841001815810798,-0.7161456978499889
1789137691802961400,1.92196142578125,-4.1488463566243645,-0.9284634835369885,-0.7228273675709962
1789137691813006300,1.93200634765625,-4.585773546555638,-0.8662582987103611,-0.7395750887542962
1789137691823050500,1.942050537109375,-5.203370607370138,-0.8710819925397634,-0.7912854022473096
1789137691833095400,1.952095458984375,-5.824345035663247,-0.8717372415781021,-0.8714251068890094
1789137691843140400,1.962140380859375,-6.390225353243947,-0.9976128614783286,-0.6759007812231779
1789137691853185500,1.972185546875,-6.687171825554967,-1.4330555119402706,-0.4244271893203258
1789137691863229200,1.982229248046875,-6.757738230687379,-1.9718486467614769,-0.31304362063109875
1789137691873274400,1.9922744140625,-6.844792829284072,-2.6228432425260544,-0.12598200288414954
1789137691883319300,2.0023193359375,-6.912517288988829,-3.4305709532693025,0.4966285021781921
1789137691893364500,2.012364501953125,-6.62560121230483,-3.979400767327845,1.1472323450595139
1789137691903408400,2.022408447265625,-6.107217974436283,-3.8406563135042786,1.439029179522395
1789137691913453300,2.032453369140625,-5.616490805256366,-3.4342426275193687,1.5739479375779628
1789137691923498500,2.04249853515625,-5.244946480339765,-3.230112093810737,1.718866111600399
1789137691933543400,2.05254345703125,-4.990678289282322,-3.2746789652898904,1.7346166384398936
1789137691943587300,2.06258740234375,-4.913346627798676,-3.7478441742941735,1.8780501268625258
1789137691953632300,2.07263232421875,-4.896916302001476,-4.505093451426923,2.156773544740677
1789137691963677400,2.082677490234375,-4.583119232654571,-5.15301170848608,2.404046762344241
1789137691973722400,2.092722412109375,-4.114135400988161,-5.750175053080916,2.5301199506431815
1789137691983767300,2.102767333984375,-3.5216190054163334,-6.229130535924434,2.8790964699208734
1789137691993811500,2.1128115234375,-2.4937092053517698,-6.253325650504231,3.45415845734477
1789137692003856100,2.122856201171875,-1.143144198963046,-5.960573122751712,3.571441605466604
1789137692013901300,2.1329013671875,-0.3060582917883992,-5.589301769557595,3.726348674061894
1789137692023946000,2.142946044921875,-0.008748246861994265,-5.250018961298466,4.178547667405009
1789137692033990100,2.152990234375,-0.09959814608842134,-4.806739771991968,4.482553995099663
1789137692044035000,2.16303515625,-0.250151403388381,-4.147345888933539,4.677715332671999
1789137692054080300,2.173080322265625,-0.8602813431926071,-3.9226328781843183,4.611771911165118
1789137692064125200,2.183125244140625,-1.241434331192821,-3.7690231559231875,4.678927631071209
1789137692074169000,2.193169189453125,-1.3825731328070163,-3.5237437424853444,4.728173600277304
1789137692084214300,2.20321435546875,-1.4953130845412612,-3.1164184946134683,4.870699326205253
1789137692094259000,2.213259033203125,-1.4799585712820291,-2.501955640171468,5.213533104944228
1789137692104304000,2.22330419921875,-1.3200427346140144,-2.041737883284688,5.544170834454894
1789137692114348300,2.233348388671875,-0.8988906214416027,-1.7298966241806744,5.832802482885122
1789137692124393200,2.243393310546875,-0.3403331940948963,-1.2428814612612127,5.8380269395351405
1789137692134438100,2.253438232421875,0.3560498186647892,-0.8514169226050377,5.727873204901814
1789137692144483000,2.263483154296875,0.9259598301529883,-0.7012170087873936,5.746458078384399
1789137692154527200,2.27352734375,1.363459267014265,-0.5769535002589226,5.8601323883593075
1789137692164572200,2.283572265625,1.7264122891962528,-0.4375350926965475,5.910889931172132
1789137692174617000,2.2936171875,1.933344582452625,-0.13658406091928482,5.8244268687278025
1789137692184662000,2.303662109375,2.1401089717961845,0.23464988287389277,5.775273253980279
1789137692194707200,2.313707275390625,2.5099253038764,0.6636556321561337,5.828060256794095
1789137692204751400,2.32375146484375,3.0654771196663377,1.0864952600240707,5.894264375063776
1789137692214796000,2.333796142578125,3.5039968394860623,1.6191151130378245,5.8101236180871725
1789137692224841200,2.34384130859375,3.8033144248425956,2.2334353441387416,5.566554515698551
1789137692234886100,2.35388623046875,4.106448938138783,2.642931506308913,5.296475007525086
1789137692244930000,2.363929931640625,4.352770846366882,2.872862543967366,4.926716396981478
1789137692254975000,2.37397509765625,4.553236720088124,3.012680764502287,4.542955564570427
1789137692265020200,2.384020263671875,4.718758998461068,3.3086867410928007,4.212387393164635
1789137692275065000,2.394065185546875,5.064570039445162,3.8602012641906738,4.12854532687366
1789137692285109000,2.40410888671875,5.492542938548326,4.418142020943761,4.107462791356444
1789137692295154200,2.414154296875,5.747713631403446,4.700577737343311,3.8052187971591946
1789137692305199000,2.42419921875,5.91535100223422,4.868087682402134,3.3548779989033934
1789137692315244300,2.434244384765625,5.9302867055594914,4.848181204926967,3.294448956903815
1789137692325288000,2.444287841796875,5.805448612013459,4.698180028551817,3.367143021714687
1789137692335333000,2.4543330078125,5.519098352518677,4.597061248767376,3.32989319525063
1789137692345378000,2.4643779296875,5.178342549097538,4.404354318609833,3.225115308436751
1789137692355423200,2.47442333984375,4.864824004431068,4.119868683943152,3.1804905692905185
1789137692365468000,2.484468017578125,4.634663249669969,3.8513147779017682,3.386279683861136
1789137692375512000,2.494511962890625,4.543139396704733,3.635862931972742,3.5698967141121623
1789137692385557200,2.50455712890625,4.458448312368989,3.5068367390871047,3.6496295915186403
1789137692395602200,2.514602294921875,4.467465439300239,3.1010698265731333,3.9763744052439924
1789137692405647000,2.524647216796875,4.8289746924147,2.650387667533755,4.337430069372058
1789137692415691300,2.534691162109375,5.315903930616378,2.5420862827688455,4.469740106233954
1789137692425736200,2.544736083984375,5.501482616329193,2.575119952842593,4.497103329455852
1789137692435781000,2.554781005859375,5.5306806537628175,2.444797290405631,4.632463401538133
1789137692445826000,2.564825927734375,5.486185678476095,2.1886247270315886,4.892651630294322
1789137692455870200,2.5748701171875,5.359477114883065,1.9686101032316683,4.943344291177392
1789137692465915100,2.5849150390625,5.185059874653816,1.6080851849794386,4.97346762676239
1789137692475960300,2.594960205078125,4.911579033604264,1.2792851922899484,4.717302662172913
1789137692486005000,2.6050048828125,4.498830883900821,1.1766449020266532,4.120863540199399
1789137692496049200,2.615049072265625,4.044717581368983,0.9649351652354001,3.809923613849282
1789137692506094300,2.62509423828125,3.52238998978883,0.6428308707922696,3.794427354031801
1789137692516139000,2.635138916015625,2.9690356840431686,0.3178881380528211,3.755812668955326
1789137692526184200,2.64518408203125,2.2774739539600906,-0.12866963453292846,3.817446995091438
1789137692536229000,2.65522900390625,1.4554454767942429,-0.5992921733170747,3.927001010265946
1789137692546273300,2.665273193359375,0.9463573060154914,-0.7981079417437315,3.8555034617632624
1789137692556318000,2.67531787109375,0.6318541342258454,-0.6682657563000917,3.81578403031528
1789137692566363100,2.685363037109375,0.4613279831510037,-0.3441927921324968,3.753414375641942
1789137692576408000,2.695407958984375,0.2861398316144943,0.02556757197678089,3.5663802304238077
1789137692586452200,2.7054521484375,0.12752868433687836,0.447978160777688,3.1987925341784953
1789137692596497200,2.7154970703125,0.10395024035070091,0.7742009964555502,2.7042876000255345
1789137692606542000,2.7255419921875,0.1573287427842617,0.9744850838690996,2.2359920428842304
1789137692616587300,2.735587158203125,0.22716508007645606,0.9684335287451743,1.773523584461212
1789137692626631000,2.745630859375,0.2822626979202032,0.7550280939519405,1.333270464977622
1789137692636676000,2.755676025390625,0.37233226042389866,0.4201251082122326,1.0215262365072966
1789137692646721000,2.765720947265625,0.7079846032261848,0.049987727484107014,0.8388058628350495
1789137692656766200,2.77576611328125,1.3563280999600886,-0.34530279920101165,0.5882815344810486
1789137692666810000,2.78581005859375,1.2651648970007896,-0.3216372614532709,0.32179215975403785
1789137692676855000,2.79585498046875,0.9886579861283302,-0.24648411305248735,0.28472879577279087
1789137692686900200,2.805900146484375,0.9932073199957608,-0.7776613660424947,0.347896322825551
1789137692696945200,2.815945068359375,1.046381787757203,-1.7690818026214836,0.582834959512949
1789137692706989000,2.825989013671875,0.8281733365964143,-2.4217966463074085,0.7093745962798595
1789137692717034000,2.836033935546875,0.2895808754464611,-2.429121874628961,0.830354845353961
1789137692727079200,2.8460791015625,-0.04733399810492992,-2.2019722843825815,0.8824199636340141
1789137692737124000,2.8561240234375,-0.23570611392855642,-1.726425148677826,0.9918442149490118
1789137692747169300,2.866169189453125,-0.25697978810369965,-1.1621104729786516,1.1486392892479895
1789137692757213200,2.876213134765625,0.06165883952286094,-0.6996268169865012,1.4906623361259699
1789137692767258000,2.886258056640625,0.4642436514019966,-0.3465317564740777,1.8996715915620326
1789137692777303300,2.89630322265625,0.9940998849213123,-0.0908271028727293,2.0146756888359785
1789137692787348000,2.906347900390625,1.4065233327150344,-0.1716217642918229,1.914572223573923
1789137692797392100,2.91639208984375,1.709647032356262,-0.8099936098486185,2.0035113207429647
1789137692807437000,2.92643701171875,2.0416437752604484,-1.6450205386668442,2.108414879763126
1789137692817482200,2.936482177734375,2.183983038705587,-2.2216458298847077,1.970186558768153
1789137692827527200,2.946527099609375,2.083266409981251,-2.4656018857643005,1.5824398715913295
1789137692837571000,2.956571044921875,1.8959820893943309,-2.4566560705035925,1.0615256539404392
1789137692847616300,2.9666162109375,1.6444085442483425,-2.382917757336795,0.6611351737678051
1789137692857661200,2.9766611328125,1.5572317805767057,-2.4111563020884987,0.32905893588662144
1789137692867706000,2.9867060546875,1.5900655441641807,-2.5445067879140377,0.0660270081371069
1789137692877751000,2.9967509765625,1.6526185925804078,-2.7864187707453962,-0.10780512568056583
1789137692887795200,3.006795166015625,1.739345420527458,-3.3443647881954908,-0.1311912619650364
1789137692897840000,3.016840087890625,1.8995476729214191,-3.9658974348932503,-0.15999942329823968
1789137692907885000,3.026885009765625,2.0267093871094284,-4.09601902180016,-0.42606735774278637
1789137692917930200,3.03693017578125,2.101895122605562,-3.781150816090405,-0.931505189320445
1789137692927974100,3.04697412109375,2.0926938712790606,-3.5368098525464533,-1.3482009076058863
1789137692938019000,3.05701904296875,2.163606605631113,-3.324878289698064,-1.6077461622834204
1789137692948064000,3.06706396484375,2.325526183336973,-3.095902068546414,-1.8119582367956637
1789137692958109200,3.077109130859375,2.4905729531526566,-2.924673979747295,-1.9664970566004514
1789137692968153300,3.0871533203125,2.66034762827307,-2.810724067701399,-2.114182357248664
1789137692978198000,3.097197998046875,2.763088748562336,-2.768913509193063,-2.241063939321041
1789137692988243200,3.1072431640625,2.830159128272533,-2.8140356764674186,-2.250131627395749
1789137692998288100,3.1172880859375,3.0068612645685673,-2.9369474781259894,-2.1752128722727297
1789137693008333600,3.12733349609375,3.162595139376819,-3.1547534859657285,-2.145963981434703
1789137693018377500,3.13737744140625,3.2450337686106563,-3.4296947549566625,-2.125502208164334
1789137693028422700,3.147422607421875,3.408229065340757,-3.7308684895738957,-2.0900123771101233
1789137693038467300,3.15746728515625,3.5527053408145903,-3.878553497961163,-2.3216817828685046
1789137693048512500,3.167512451171875,3.574112870502472,-3.8485099496141073,-2.637694190177321
1789137693058556700,3.177556640625,3.558513150310516,-3.775728206519782,-2.8276334091871975
1789137693068601600,3.1876015625,3.417169912165403,-3.652295303596556,-2.979139729428291
1789137693078646500,3.197646484375,3.1713635522440073,-3.6087525144681334,-3.074568188616633
1789137693088691500,3.20769140625,2.9105577761113643,-3.8510330383509395,-2.9884190144270657
1789137693098735600,3.217735595703125,2.7783883167639374,-4.2757559957474465,-2.8175124126672744
1789137693108780500,3.227780517578125,2.6837738043069836,-4.5585237205803395,-2.7792139539331195
1789137693118825500,3.237825439453125,2.5042788224220276,-4.763907176959514,-2.7736241711020466
1789137693128870400,3.247870361328125,2.3950481939829884,-5.163058470726013,-2.5443431217849253
1789137693138914600,3.25791455078125,2.247527728507668,-5.658503900599479,-2.265409860548377
1789137693148959500,3.26795947265625,2.0138290088787674,-5.8800219146996735,-2.0574282043695447
1789137693159004400,3.27800439453125,1.7423359806455672,-5.845816278237104,-1.8321254110336302
1789137693169049600,3.288049560546875,1.4649614931583403,-5.73584432991147,-1.6676742690235375
1789137693179094500,3.298094482421875,1.2436219043649732,-5.6640083432346575,-1.632454487082362
1789137693189138400,3.308138427734375,1.1878490176081657,-5.590182059523463,-1.7763520858854054
1789137693199183400,3.318183349609375,1.3559997447885572,-5.496430009114742,-1.9275088620364664
1789137693209228500,3.328228515625,1.5119444858685136,-5.322387447416782,-2.0302520281523466
1789137693219273500,3.3382734375,1.521236922609806,-5.163709628111124,-1.9478408714473245
1789137693229317400,3.3483173828125,1.5067007399961352,-5.248635982507467,-1.6508470528632402
1789137693239362600,3.358362548828125,1.4807741254486142,-5.483296971297264,-1.319586807540059
1789137693249407500,3.368407470703125,1.4145885657489299,-5.653335558050871,-1.149455281805992
1789137693259452700,3.37845263671875,1.2500574903704225,-5.7826481666624545,-1.0758949555546045
1789137693269496300,3.388496337890625,1.0526245546042918,-5.989641980847716,-0.9392501043587923
1789137693279541500,3.39854150390625,0.8565668527141213,-6.230468506529927,-0.7435474995166063
1789137693289586400,3.40858642578125,0.6678257574476302,-6.314509894785284,-0.6061357556015252
1789137693299631600,3.418631591796875,0.48569107470884915,-6.047310325962305,-0.3982201503962278
1789137693309676300,3.42867626953125,0.3686262455128133,-5.63116113564372,-0.1430932966828346
1789137693319720400,3.438720458984375,0.40790743167400356,-5.2486909275650975,0.16363047327697275
1789137693329765600,3.448765625,0.5852009579919278,-4.859263739955425,0.49505730733871456
1789137693339810600,3.458810546875,0.800667563098669,-4.314576432529091,0.7293874567389488
1789137693349855500,3.46885546875,0.9487409862816333,-3.7343411341205237,1.1565654060721398
1789137693359899600,3.478899658203125,1.017836149817705,-3.242672884698212,1.6935510530799627
1789137693369944600,3.488944580078125,0.9544282381378114,-2.7622277478188275,2.1911755805581805
1789137693379989500,3.498989501953125,0.7835819882631302,-2.1853049349591136,2.7023598468333483
1789137693390034400,3.509034423828125,0.6365514982618391,-1.6624898521229623,3.120466600960493
1789137693400078600,3.51907861328125,0.46943420578241346,-1.3262316523820161,3.564621404057741
1789137693410123500,3.52912353515625,0.27750300923772153,-1.188674947038293,3.959830682200193
1789137693420168400,3.53916845703125,0.15301387525983154,-1.2082359720766545,4.214118162479997
1789137693430213400,3.54921337890625,0.03839724293351173,-1.1149299118697642,4.372058315160871
1789137693440258600,3.559258544921875,-0.028995719794556497,-0.6751356420695781,4.4511803671926256
1789137693450302700,3.569302734375,0.009416720708087085,-0.06955459774136542,4.3968344444990155
1789137693460347400,3.579347412109375,0.3859328426878899,0.41125031236112114,4.367520671731233
1789137693470392600,3.589392578125,0.8730945014059543,0.7919768916428088,4.422597831308842
1789137693480437500,3.5994375,1.2999006948173046,1.118956683167815,4.35187945048511
1789137693490481700,3.609481689453125,1.7346563859283923,1.3698100973457097,4.206338176128268
1789137693500526300,3.6195263671875,2.0364158114790913,1.726283109858632,4.078329635852575
1789137693510571500,3.629571533203125,1.9817150839984417,2.257522906690836,3.797510122478008
1789137693520616400,3.639616455078125,1.6619593985080718,2.6848779661566016,3.493200427922606
1789137693530660600,3.64966064453125,1.2915923006772994,2.9542244838804006,3.342787748137116
1789137693540705500,3.65970556640625,0.917688772348687,3.2356092299222943,3.2524481365203854
1789137693550750500,3.66975048828125,0.5190858331799507,3.5334541123777625,3.1995453983724116
1789137693560795600,3.679795654296875,0.07588964598178863,3.8056197791755197,3.310788097286224
1789137693570840600,3.689840576171875,-0.24151856306698172,4.019446654251218,3.4971617327690123
1789137693580884500,3.699884521484375,-0.49589784981608387,4.237829877457022,3.7094922318071126
1789137693590929400,3.709929443359375,-0.6498609155595302,4.50303914924562,3.8500662391453977
1789137693600974600,3.719974609375,-0.8674258081197738,4.768103459605574,4.144819585326314
1789137693611019500,3.73001953125,-0.8984007920980452,5.074335646656155,4.1762236083716155
1789137693621063400,3.7400634765625,-0.8122469417333602,5.516657389107346,4.07175610268116
1789137693631108600,3.750108642578125,-0.7468190685331821,5.813162547391653,4.115047547397017
1789137693641153500,3.760153564453125,-0.593138911384344,5.923472933891415,4.270960578164458
1789137693651198700,3.77019873046875,-0.37755437898635863,5.90203676263094,4.423873842594027
1789137693661242400,3.780242431640625,-0.11651041931682266,5.838414477548003,4.607453463444114
1789137693671287600,3.79028759765625,0.14749358660154976,5.86031475918889,4.770096094727516
1789137693681332500,3.80033251953125,0.2760463076233864,5.962892505609989,4.815490649202466
1789137693691377400,3.81037744140625,0.33738018950819965,5.963586917614936,4.809928923422098
1789137693701422300,3.82042236328125,0.3811316529512405,5.879062129756808,4.860907415509224
1789137693711466500,3.830466552734375,0.42666123198270794,5.668506239175796,4.9545945839881895
1789137693721511700,3.84051171875,0.38743046083450317,5.389609802818298,4.968801388517022
1789137693731556400,3.850556396484375,0.17926526478230953,5.299346179047227,4.893286421066522
1789137693741601500,3.8606015625,-0.17182137851715087,5.250184380993247,4.752168223848939
1789137693751645400,3.8706455078125,-0.5289852959036827,5.0500212896108625,4.563635949027538
1789137693761690600,3.880690673828125,-1.1091589272528886,4.711027819687128,4.39387968634665
1789137693771735600,3.890735595703125,-1.9121710076510905,4.229448418080806,4.109009436276555
1789137693781780500,3.900780517578125,-2.5827736824661494,3.825699275130033,4.000924324610829
1789137693791825400,3.910825439453125,-3.042573213940859,3.5010827056050298,4.352929836320877
1789137693801869600,3.92086962890625,-3.1787545392781493,3.379440777751803,4.8149406141042705
1789137693811914500,3.93091455078125,-2.7140181359231472,3.4541169562906027,5.123123350700736
1789137693821959400,3.94095947265625,-2.3915561140835284,3.4062346766531464,5.787452936595678
1789137693832004600,3.951004638671875,-1.7911977728396653,3.134573452246189,5.979691080197692
1789137693842048500,3.961048583984375,-1.1052385389387607,2.9557027397394178,5.676347015804052
1789137693852093400,3.971093505859375,-1.2474690813124178,2.622728091713786,5.536145933431387
1789137693862138600,3.981138671875,-1.6874533207267521,2.200209366363287,5.054148598673939
1789137693872183600,3.99118359375,-2.4722341633856293,1.629066013687849,4.800853636562824
1789137693882227500,4.0012275390625,-3.2895658610373735,0.8929039482474327,4.7619507821947336
1789137693892272400,4.0112724609375,-4.055808591964841,0.17742168274223805,4.842960255408287
1789137693902317600,4.021317626953125,-4.8045355399459595,-0.7418038707196712,5.116695948001742
1789137693912362500,4.031362548828125,-5.3312827015340325,-1.7135650825828312,5.419461335724592
1789137693922407700,4.04140771484375,-5.580698776385188,-2.4122610484600067,5.7250002798140045
1789137693932451600,4.05145166015625,-5.6306140231549735,-2.4710288792490958,6.027317923769354
1789137693942496500,4.06149658203125,-5.341245292621851,-1.7627379865527153,6.218026958107948
1789137693952541700,4.071541748046875,-4.997258836716413,-0.5623205792725086,6.065746146363019
1789137693962586400,4.08158642578125,-4.793303367313742,0.815955148601532,5.8003001432091
1789137693972630500,4.091630615234375,-4.45298127913475,1.8899433937519787,5.505919721993804
1789137693982675500,4.101675537109375,-3.9712756208002564,2.3153940809011457,5.15664801916182
1789137693992720600,4.111720703125,-3.3508184943795203,2.175747125279903,4.840727381789684
1789137694002765300,4.121765380859375,-2.7690742527127266,1.474544729539752,4.422546977904439
1789137694012809000,4.13180908203125,-2.4144845697283746,0.3978022172451019,3.8985593441575763
1789137694022854100,4.141854248046875,-2.2313632140398023,-0.7311486211925745,3.368773253265023
1789137694032899000,4.151899169921875,-2.1722423320293425,-1.9149761281996964,3.0260587169915434
1789137694042944000,4.161944091796875,-2.146329307615757,-3.0644080291301012,2.8355449129641053
1789137694052989000,4.171989013671875,-2.0279390750348565,-3.924966874089837,2.6133465153843165
1789137694063033000,4.182033203125,-1.7880173892378806,-4.310165045827627,2.253966090992093
1789137694073078300,4.192078369140625,-1.462175661832094,-4.447499048331379,1.7708353682905436
1789137694083123000,4.202123046875,-1.0875251145284621,-4.465768279993534,1.2972656701385974
1789137694093168000,4.212168212890625,-0.7497497151575983,-4.422061532475054,1.0606389342337845
1789137694103212000,4.2222119140625,-0.3647847676537931,-4.689906997986138,1.0697791030228136
1789137694113257200,4.23225732421875,-0.0475930874325335,-4.96783517383337,0.8450485566169023
1789137694123302000,4.242302001953125,0.14911138792857526,-4.784851180788874,0.3156716310471296
1789137694133347000,4.25234716796875,0.4300362613737583,-4.330031191292405,-0.14042495425641535
1789137694143392000,4.26239208984375,0.7442321207799018,-3.9213080593213436,-0.41205695256888863
1789137694153436000,4.272435791015625,1.1044248844683169,-3.6711128167912364,-0.6135404789000749
1789137694163481000,4.282481201171875,1.412199040263891,-3.567764085997641,-0.8596312087208032
1789137694173526000,4.292526123046875,1.6300122084967792,-3.6069630007028577,-1.0785492694556713
1789137694183571200,4.3025712890625,1.7851254671886563,-3.8633942150130864,-1.2252017199248075
1789137694193614800,4.31261474609375,1.9241294487312435,-4.325147803165018,-1.288571491551399
1789137694203660000,4.322659912109375,2.1264134777903556,-4.850428691592812,-1.3190239129602908
1789137694213705000,4.332705078125,2.433847441846132,-5.172742244872451,-1.5163888980567455
1789137694223750100,4.342750244140625,2.7086402422770854,-5.215590037474036,-1.84913499802351
1789137694233794000,4.3527939453125,2.9426386755049228,-5.14392823832035,-2.154246072089672
1789137694243839000,4.3628388671875,3.102038963866234,-4.985033561393618,-2.4118846163630483
1789137694253884200,4.37288427734375,3.176250739763677,-4.815959728018939,-2.5375831261307
1789137694263929000,4.38292919921875,3.4042166148290036,-4.741346970105171,-2.614689162164926
1789137694273974000,4.39297412109375,4.00977194019407,-4.86330103264749,-2.797833314207196
1789137694284018000,4.403017822265625,4.707877538962662,-4.948071904221177,-2.9887013384997845
1789137694294063000,4.41306298828125,5.247309702339768,-5.047130828866362,-3.2190847961008546
1789137694304108000,4.42310791015625,5.66831217790842,-5.296852024143934,-3.3565590838581323
1789137694314153000,4.433153076171875,6.068946403709053,-5.782243092992902,-3.3721856920570135
1789137694324197000,4.443197021484375,6.311904680722951,-6.293391118910908,-3.541859537151456
1789137694334242000,4.453241943359375,6.1906128814816475,-6.396041346046328,-3.9732244167804716
1789137694344287200,4.463287353515625,5.847527173808217,-6.307293387535214,-4.401971222865582
1789137694354332000,4.473331787109375,5.309383004415035,-6.161769064313173,-4.860679451972246
1789137694364377000,4.483377197265625,4.665749585068226,-6.132269413584471,-5.3021811102122065
1789137694374421000,4.4934208984375,4.0310137579262255,-6.227991887283324,-5.628858119398355
1789137694384466200,4.503466064453125,3.4414953751266,-6.319789881014824,-5.760943699854612
1789137694394511000,4.513510986328125,2.9046643341585994,-6.416354066234827,-5.676304345706105
1789137694404556000,4.52355615234375,2.509799923931062,-6.463708522605896,-5.443669894307852
1789137694414600200,4.53360009765625,2.2054446366682647,-6.3732309638231985,-5.075448576334119
1789137694424644900,4.543644775390625,1.9713678775072097,-6.264484173378348,-4.5002848821014165
1789137694434690000,4.55368994140625,1.7262104830138385,-6.103513274699449,-3.9769413914769887
1789137694444735000,4.56373486328125,1.4972696254365145,-5.845854856681823,-3.561428745496273
1789137694454780200,4.5737802734375,1.4877251136302947,-5.8925791984558105,-2.950131661608815
1789137694464824000,4.583823974609375,1.667544797424972,-6.1178901750981804,-2.6110762323647734
1789137694474869000,4.593868896484375,1.6636641565993426,-6.178875097414851,-2.4424779075473544
1789137694484914200,4.6039140625,1.6590157462716102,-6.050745561107993,-2.3488100282907483
1789137694494959000,4.613958984375,1.6841288524791598,-5.866896475666761,-2.2161574616014956
1789137694505003000,4.6240029296875,1.743302925981581,-5.884548452213406,-1.8510159894645213
1789137694515048000,4.6340478515625,1.8166449333071708,-6.1560980329394335,-1.2113327690482139
1789137694525093000,4.644093017578125,1.8192635913729667,-6.762202808880805,-0.2188543478488922
1789137694535138000,4.654137939453125,1.8793129864051936,-7.640453962397575,0.8176999464422464
1789137694545182000,4.664181884765625,1.9907966544680296,-8.562078393694758,1.7207517792165279
1789137694555227100,4.67422705078125,2.0557024034902454,-9.232273072230816,2.382352816930413
1789137694565272000,4.68427197265625,2.0820717933692037,-9.445728191384672,2.781031232488155
1789137694575317200,4.694317138671875,1.9832029844686387,-9.170371035069227,2.96142462451756
1789137694585362000,4.70436181640625,1.9209132631637156,-8.502165484523772,3.0625954267501827
1789137694595406000,4.714406005859375,1.9998421307109295,-7.455057062992453,3.0168846459329126
1789137694605451000,4.724450927734375,2.197291579220444,-6.32488866545856,2.9928040976434946
1789137694615496200,4.73449609375,2.380766862913221,-5.274469511944055,3.228673877701163
1789137694625540900,4.744540771484375,2.475486443179846,-4.373610220777988,3.5307904461264608
1789137694635585000,4.7545849609375,2.3829577970862386,-3.613695231567323,3.888718918144703
1789137694645630200,4.764630126953125,2.1545757424354552,-3.0399682921394704,4.403810128730536
1789137694655675100,4.774675048828125,1.8085760470114647,-2.490176647311449,4.652687858921289
1789137694665720000,4.784719970703125,1.192366348902136,-1.8087959733724592,4.523716611093282
1789137694675765000,4.794764892578125,0.35336335605978964,-1.2556775222092866,4.370846016761661
1789137694685809200,4.80480908203125,-0.4926947429258376,-0.8014163356393575,4.153907147145271
1789137694695853800,4.814853759765625,-1.1593757873177528,-0.39674540166854855,3.652138359469175
1789137694705899000,4.82489892578125,-1.5928431921839714,-0.1576075597256422,3.1203520346701143
1789137694715944000,4.83494384765625,-1.6864964583933353,-0.28703531914949415,2.795272523808479
1789137694725988000,4.844988037109375,-1.5055226361274718,-0.5683651201337575,2.633077051770687
1789137694736033000,4.855032958984375,-1.2125602650165557,-0.7061340069234371,2.4320149657219647
1789137694746078000,4.865077880859375,-0.889089358395338,-0.6451841559201479,2.184429613429308
1789137694756123100,4.875123046875,-0.5789280152022839,-0.3121837889313698,1.9716484480142593
1789137694766168000,4.88516796875,-0.38015082522034643,0.2932902878910303,1.815982085484266
1789137694776212000,4.8952119140625,-0.25110355301406234,1.0539081646740436,1.776552576893568
1789137694786257200,4.905257080078125,-0.1766670467163436,1.8871300898969172,1.8505284982085226
1789137694796302000,4.915302001953125,-0.13117021004385315,2.6694103479117155,2.011772953131795
1789137694806347000,4.925346923828125,-0.17529811471700668,3.3404876545011994,2.283670324382186
1789137694816391000,4.935390869140625,-0.17356559183597564,3.9481554419755933,2.504939916679263
1789137694826436000,4.94543603515625,-0.10821837352341972,4.340174984166026,2.5613369266837833
1789137694836481000,4.95548095703125,0.024684377667773514,4.450679431933164,2.5776895110696554
1789137694846526200,4.965526123046875,0.19601125066624953,4.350940708330273,2.62538766631186
1789137694856571000,4.97557080078125,0.3448585625648498,4.135472495788336,2.7465876956164834
1789137694866615000,4.985614990234375,0.5070283156394958,3.9901264517426487,2.917797664237022
1789137694876660200,4.99566015625,0.6734031191885471,4.003443029433488,3.158180537804961
1789137694886705200,5.005705078125,0.872037685829401,4.1228754645437,3.50542804133296
1789137694896750000,5.01575,1.0376889243442564,4.301939069274067,3.958049644002318
1789137694906794000,5.0257939453125,1.1528256350219248,4.542233680036664,4.434581699091196
1789137694916839200,5.035839111328125,1.2939362334549427,4.933448920106888,4.874851185187697
1789137694926884000,5.045884033203125,1.3924293409109114,5.401657968008518,5.30155917892158
1789137694936929000,5.055928955078125,1.5089549486637115,5.693206965190172,5.6566275853335855
1789137694946974000,5.065973876953125,1.5413935754537582,5.825469071257114,5.960398935228586
1789137694957018000,5.07601806640625,1.497437529349327,5.88336654895246,6.327770358374715
1789137694967063000,5.08606298828125,1.4694589507080613,5.931090423157811,6.797395702815056
1789137694977108000,5.09610791015625,1.299127956879139,6.131213182529807,7.107777995282411
1789137694987153200,5.106153076171875,0.8981143763720989,6.406046607232094,7.2768427685678
1789137694997197000,5.116197021484375,0.4268973788261413,6.540505346560478,7.459131765085458
1789137695007244300,5.126244384765625,0.21067929776497185,6.390072208508848,7.4973086432665585
1789137695017289500,5.13628955078125,0.20032040083594618,6.059340370973945,7.607669298648834
1789137695027334400,5.14633447265625,0.4429320563692599,5.868755255275964,7.736852143400907
1789137695037379600,5.156379638671875,0.7409610632199793,5.789273137760162,7.745213729032874
1789137695047423500,5.166423583984375,0.6773077254116535,5.751783657321334,8.073956438577175
1789137695057468400,5.176468505859375,0.53386963387914,5.794135190838575,8.436405602890252
1789137695067513300,5.186513427734375,0.001956906221434474,6.045687693196535,8.7292358720541
1789137695077558300,5.196558349609375,-0.8492015846431255,6.431650419566035,8.64296044113636
1789137695087602400,5.2066025390625,-1.7763187681376933,6.724788731765747,8.440975395023822
1789137695097647400,5.2166474609375,-2.600301740372181,6.75283233846724,8.450948507505656
1789137695107692500,5.226692626953125,-3.4022564206719395,6.365972370997071,8.751342489922045
1789137695117737200,5.2367373046875,-4.168534222912788,5.545388393551111,9.236102859652043
1789137695127781400,5.246781494140625,-4.779123450791835,4.8645139155685895,9.448547340458632
1789137695137826600,5.25682666015625,-5.231401354590058,4.448905407997966,9.554041851109266
1789137695147871500,5.26687158203125,-5.588631907472014,4.163170650053024,9.68217781715691
1789137695157916400,5.27691650390625,-5.943620234385133,3.836673673608899,9.739388481631874
1789137695167961300,5.28696142578125,-6.262461143118142,3.536905714136362,9.660065938591957
1789137695178005500,5.297005615234375,-6.357247797271609,3.2693899189710613,9.562783375969529
1789137695188050400,5.307050537109375,-6.241477391800284,3.1148212885499,9.334495429342985
1789137695198095400,5.317095458984375,-5.858689788335561,2.9551614724695683,8.995438246533274
1789137695208140300,5.327140380859375,-5.221577295190095,2.3910300443828105,8.679424085658788
1789137695218184400,5.337184326171875,-4.625955919340252,1.561671808850765,8.371419043716788
1789137695228229400,5.3472294921875,-4.0572921085208655,0.6850199072241783,7.879945440083742
1789137695238274300,5.3572744140625,-3.485166759070754,-0.26749007620215415,7.206334815624356
1789137695248319500,5.367319580078125,-3.0267396849930286,-1.2213748551130295,6.461608919978142
1789137695258364400,5.377364501953125,-2.7292425930619237,-2.2568092054635285,5.771911668592691
1789137695268408300,5.387408203125,-2.596139944517612,-3.4934067641496656,5.331790651056171
1789137695278453200,5.397453369140625,-2.4156781634271143,-5.010698164004087,5.357282819709181
1789137695288498400,5.40749853515625,-1.9481372240453958,-6.324594650948047,5.308891421505809
1789137695298543400,5.41754345703125,-1.4473422498375177,-7.07256873473525,5.011965991982818
1789137695308587300,5.427587158203125,-0.946570656505227,-7.357638891291618,4.763620176711679
1789137695318632400,5.437632568359375,-0.43320261645019054,-7.352294023132324,4.414702694144845
1789137695328677400,5.447677490234375,-0.005833528459072113,-7.112509115457534,3.7858863201797006
1789137695338722600,5.45772265625,0.40125089639425277,-6.791044287961721,3.13910349689126
1789137695348767200,5.467767333984375,0.8137818962156772,-6.407822384732961,2.430227497783303
1789137695358811400,5.477811279296875,1.1154279245197771,-5.968329728227854,1.6987988906055689
1789137695368856300,5.487856201171875,1.4264005840957164,-5.871782494142651,1.2511416323453186
1789137695378901500,5.497901611328125,1.8078842653550207,-6.024716801360249,0.9103981038838624
1789137695388946200,5.5079462890625,2.210523693498224,-6.078596275585889,0.40852001061439513
1789137695398990300,5.517990234375,2.5058266363859176,-5.997227321410179,-0.20269231759905815
1789137695409035500,5.528035400390625,2.6685446709930893,-5.8445151325106615,-0.8111094621360302
1789137695419080400,5.53808056640625,2.789400124643743,-5.720289617905021,-1.4459662853091955
1789137695429125400,5.54812548828125,2.8703906008958815,-5.613733615502714,-2.0455413672208786
1789137695439170300,5.55817041015625,2.9154186601459977,-5.5858747177183625,-2.623328395694494
1789137695449214500,5.56821435546875,2.9467902422264216,-5.586720520892739,-3.153604315930605
1789137695459259400,5.57825927734375,2.9288042114198207,-5.532566905900835,-3.6258687767028808
1789137695469304300,5.58830419921875,2.856064553901553,-5.381702975216507,-4.1001977687895295
1789137695479349200,5.598349365234375,2.7877126099482177,-5.261694786044955,-4.4525697757244105
1789137695489393400,5.608393310546875,2.757415086840093,-5.285621605077385,-4.637825805354118
1789137695499438300,5.618438232421875,2.7781191444337368,-5.458498630127311,-4.6946261354625225
1789137695509483300,5.628483154296875,2.8221894645676016,-5.675587721869349,-4.6864328921347855
1789137695519528400,5.638528564453125,2.875624994418025,-5.836653313094377,-4.64776326200068
1789137695529573400,5.648573486328125,2.961552927072346,-5.862436573648452,-4.7083957176178695
1789137695539617300,5.6586171875,2.972970685404539,-5.748001800695062,-4.854529112648963
1789137695549662500,5.668662353515625,2.9431717594683167,-5.690898103725909,-4.791756137871742
1789137695559707400,5.678707275390625,3.0136101543068885,-5.723085386103391,-4.722431841754913
1789137695569752600,5.688752685546875,3.0573367755696177,-5.686446969535947,-4.785394786146282
1789137695579796200,5.698796142578125,3.0139421627402303,-5.672249517357349,-4.740250407040119
1789137695589841400,5.70884130859375,2.9337726474821566,-5.842357662215829,-4.610488885617256
1789137695599886300,5.71888623046875,2.862806721638143,-6.226068225744366,-4.4194098489224904
1789137695609931500,5.728931640625,2.883305027526617,-6.663156159195304,-4.257600161331892
1789137695619976200,5.73897607421875,2.9343022243142127,-7.0100377520203585,-4.167589635539055
1789137695630020400,5.749020263671875,2.9126816363975405,-7.245329439929128,-4.058995405307412
1789137695640065500,5.7590654296875,2.9387635876372453,-7.48037036794722,-3.909447817918658
1789137695650110500,5.7691103515625,3.0155235867127774,-7.71728351957798,-3.781999249613285
1789137695660155400,5.7791552734375,3.027148558054864,-7.796602555486559,-3.5899212650090453
1789137695670199300,5.78919921875,3.0697379919812082,-7.752261893978715,-3.421768930393457
1789137695680244500,5.799244384765625,3.11145473472625,-7.585695367249846,-3.275212926036119
1789137695690289400,5.809289306640625,3.147700937105715,-7.354086751767992,-2.992295563599467
1789137695700334300,5.819334228515625,3.1392218625739217,-7.106729363012313,-2.6926778262525795
1789137695710379300,5.829379150390625,3.1144188452288506,-7.088769927951693,-2.3435920013815164
1789137695720423400,5.83942333984375,3.104968295316398,-7.4744456540733575,-1.9062556461274622
1789137695730468400,5.84946826171875,3.095059187981486,-8.288167929056286,-1.3706746052205563
1789137695740513300,5.85951318359375,2.993370207093656,-9.294411840757727,-0.9725491473704576
1789137695750558500,5.869558349609375,2.9039211145758625,-10.081210452979802,-0.8692553616344928
1789137695760602400,5.879602294921875,2.6981495356619356,-10.497616832929848,-0.797881147250533
1789137695770647300,5.889647216796875,2.285348778988421,-10.547282488852739,-0.5948743568748235
1789137695780692200,5.899692138671875,1.838142771627009,-10.17412955969572,-0.16848901922404766
1789137695790737400,5.9097373046875,1.4608826994121074,-9.244813989374041,0.327459683996439
1789137695800782300,5.9197822265625,1.2478769314609468,-8.126891909950972,0.871860575696826
1789137695810826200,5.929826171875,1.3477635391019285,-7.335299633711576,1.667037724685669
1789137695820871400,5.939871337890625,1.4876716298773884,-6.763758806151151,2.4098949038505553
1789137695830916400,5.949916259765625,1.4961751081980763,-6.213708510386944,3.094403354421258
1789137695840961500,5.95996142578125,1.5179872731640933,-5.801798857334256,3.794122818127274
1789137695851005400,5.97000537109375,1.44482003788352,-5.5879129455477,4.503423180127143
1789137695861050400,5.98005029296875,1.3517629840016365,-5.2385085562467575,5.121078108608723
1789137695871095300,5.99009521484375,1.1729074690639971,-4.541098538526892,5.271143582391739
1789137695881140500,6.000140380859375,0.928005510636419,-3.746097915148735,5.20903754709065
1789137695891185400,6.010185302734375,0.844883136922121,-3.066015464326739,5.071673149448633
1789137695901229300,6.020229248046875,0.85993574462533,-2.4552047026515007,4.862897128021717
1789137695911274500,6.0302744140625,0.9936777870517224,-1.9499416431188583,4.69994645370245
1789137695921319400,6.0403193359375,1.1871044097859411,-1.530190628916025,4.559392320108413
1789137695931364400,6.0503642578125,1.3558885394990443,-1.1317530363768338,4.429020557832717
1789137695941408500,6.060408447265625,1.4572422970831393,-0.7755401361048221,4.226951925089955
1789137695951453400,6.070453369140625,1.4780373939611018,-0.505703789037466,4.022795964679122
1789137695961498600,6.08049853515625,1.4197627535164354,-0.2704723068833351,3.8866941343188284
1789137695971543300,6.090543212890625,1.245063189214468,0.09842354935109615,3.718581547191739
1789137695981588500,6.10058837890625,0.989596801348403,0.5513000035643577,3.5582997998207806
1789137695991632400,6.11063232421875,0.763249978852272,0.90577745834589,3.4517923127353187
1789137696001677300,6.12067724609375,0.5795815472075715,1.1221727226048708,3.513568093168735
1789137696011720200,6.13072021484375,0.45851537341568616,1.2087795774340628,3.8735026443123814
1789137696021765000,6.14076513671875,0.4818401349017396,1.4698399128496646,3.9234669909209012
1789137696031810300,6.150810302734375,0.33833650385234504,1.9508722019672393,3.8719098221629857
1789137696041854500,6.1608544921875,0.13398297504279763,2.3821786294072864,3.911571970465779
1789137696051899100,6.170899169921875,-0.042170952785946424,2.7703718913078306,3.897949687826633
1789137696061944300,6.1809443359375,-0.24686233524773268,3.0415035388827323,4.0426591875344515
1789137696071989200,6.1909892578125,-0.3552350316831842,3.1721716537564992,4.234655339074134
1789137696082033200,6.201033203125,-0.44926239190194756,3.3234494259387253,4.4214790564119815
1789137696092078300,6.211078369140625,-0.45203185661528256,3.5032232247650623,4.664706798017025
1789137696102123300,6.221123291015625,-0.4307365185976028,3.708427817445993,4.973275319060683
1789137696112168200,6.231168212890625,-0.389275211918354,3.847083423942327,5.4022571029454465
1789137696122213400,6.24121337890625,-0.359047246915102,3.892949687582254,5.922887827479839
1789137696132257300,6.25125732421875,-0.33476971474885936,4.042510718974471,6.271852071797848
1789137696142302200,6.26130224609375,-0.3046890492618084,4.266411244297028,6.555049420219659
1789137696152347400,6.271347412109375,-0.1744300997108221,4.5324733335226774,6.799311765569448
1789137696162392300,6.281392333984375,0.1702916847318411,4.874308164352178,6.829061007145047
1789137696172436200,6.291436279296875,0.32627076647281644,5.120369668078422,7.090600650510192
1789137696182481400,6.3014814453125,-0.035239692218042906,5.281540473243594,7.592407432109117
1789137696192526300,6.3115263671875,-0.4382791890621185,5.305817420887947,8.004366185000539
1789137696202571300,6.3215712890625,-1.0980728850930928,5.960685350954532,8.2346537810117
1789137696212616200,6.3316162109375,-1.80437464979887,6.613129853266477,8.301746957075595
1789137696222660400,6.341660400390625,-2.308588492539525,6.466399076864123,8.422779228597879
1789137696232705300,6.351705322265625,-2.8528882619529963,5.9827644962936635,8.633265561074017
1789137696242750200,6.361750244140625,-3.559052664014697,5.901529982152581,8.97440656442046
1789137696252795100,6.371795166015625,-3.9090117645889517,5.815166288429499,9.071918844145536
1789137696262839300,6.38183935546875,-4.081723369944095,5.977719487863779,9.120206197452545
1789137696272884500,6.391884521484375,-4.255601096469164,6.28710341694355,9.08505772718191
1789137696282929200,6.40192919921875,-4.410365541723371,6.190638600444793,9.228892782142758
1789137696292974300,6.411974365234375,-4.472734027352929,5.506661480271816,9.434296696788072
1789137696303019300,6.422019287109375,-4.445920839229226,4.543510275843739,9.490553421539067
1789137696313063400,6.4320634765625,-4.304242085519433,3.2634944311916825,9.691234399315714
1789137696323108000,6.442108154296875,-4.142241843792796,1.8245926774412393,10.0637203889966
1789137696333153300,6.4521533203125,-4.059327413740754,0.6807657569110394,10.367608643269538
1789137696343198200,6.4621982421875,-4.102425381711125,-0.12959960885941982,10.562319898986816
1789137696353242000,6.4722421875,-4.209446663537621,-0.46757659521698947,10.411772779166698
1789137696363287300,6.482287353515625,-4.335634418126941,-0.0872761323928833,9.890967282587289
1789137696373332200,6.492332275390625,-4.259581106016039,0.6589864713013172,9.396507356619834
1789137696383377400,6.50237744140625,-3.7518373355835672,1.2410539535731075,9.093052817589044
1789137696393422300,6.51242236328125,-3.1310587221235036,1.8123329153269527,8.607423848330974
1789137696403466200,6.52246630859375,-2.483503745418787,2.3798732750743627,7.938165573862195
1789137696413511200,6.53251123046875,-1.891075758782774,2.536741999131441,7.453686359161138
1789137696423556400,6.542556396484375,-1.3696766802243887,2.1249463278472422,7.155871287322044
1789137696433601300,6.552601318359375,-0.8783558560002594,1.1917179679960013,6.967563468906283
1789137696443646200,6.562646240234375,-0.4806939240086823,-0.06218494575619697,6.794519855117797
1789137696453690400,6.5726904296875,-0.1352723937988281,-1.5477496664822101,6.591093378025293
1789137696463735300,6.5827353515625,0.32117658513896163,-3.1177532503485677,6.258775148081779
1789137696473780200,6.5927802734375,0.7524637233566492,-4.381913938742875,5.7218409390002485
1789137696483825200,6.6028251953125,1.0970949799716472,-5.224029364517331,5.022938636896014
1789137696493869300,6.612869384765625,1.4309136776059865,-5.562582689458131,4.281825671049952
1789137696503914200,6.622914306640625,1.6674153258264064,-5.590419959932565,3.4526731872230765
1789137696513959200,6.632959228515625,1.7978186522841453,-5.493863958019018,2.52637433437407
1789137696524004000,6.643004150390625,1.7887538868188857,-4.526275063404441,2.2001152583390473
1789137696534049300,6.65304931640625,1.9993617998480795,-4.167480914467573,1.7406880673080682
1789137696544093400,6.663093505859375,2.2672598723292348,-3.8851387215703723,1.4238941542327403
1789137696554138000,6.67313818359375,2.4814497354984284,-3.773496209684014,1.0236650021016598
1789137696564183300,6.683183349609375,2.642349907028675,-3.6924651091605423,0.647819180598855
1789137696574228200,6.693228271484375,2.8349674053370952,-3.7928818781554696,0.3047258741408586
1789137696584272100,6.703272216796875,3.0508675795555114,-4.066424678525328,-0.14113222574293613
1789137696594317300,6.7133173828125,3.1768858227968213,-4.3730628160282965,-0.7012830597609281
1789137696604362200,6.7233623046875,3.182463330668211,-4.641389635315537,-1.3308932144522667
1789137696614407400,6.733407470703125,3.1148668812572953,-4.980523975014687,-1.7537106304883956
1789137696624452400,6.743452392578125,3.0795676043391227,-5.312703088748455,-2.1058523357987404
1789137696634496300,6.753496337890625,2.9502888979971407,-5.603268335589767,-2.478042557403445
1789137696644541200,6.763541259765625,2.840611548703909,-5.859016536071896,-2.7579811962902543
1789137696654586400,6.77358642578125,2.8155846594750877,-5.971385608667135,-3.024758155786991
1789137696664631300,6.78363134765625,2.7616531628012657,-5.980702887588739,-3.3340999992907046
1789137696674676200,6.79367626953125,2.6927321867883203,-6.022727673369646,-3.636474926391244
1789137696684720400,6.803720458984375,2.65466812133193,-6.035959495386481,-3.9121208365201947
1789137696694765300,6.813765380859375,2.6590225171491504,-6.151388540074229,-4.05165205680728
1789137696704810500,6.823810546875,2.7182863147616385,-6.386838633415103,-4.127416030582785
1789137696714855200,6.833855224609375,2.8077587881550192,-6.811119107741117,-4.11416491934359
1789137696724899300,6.8438994140625,3.0703122847378252,-7.320643331849575,-4.104614416188001
1789137696734944300,6.8539443359375,3.366086206138134,-7.552634224647283,-4.295016576534509
1789137696744989200,6.8639892578125,3.5429844495281575,-7.480640417060256,-4.516548034638166
1789137696755034000,6.8740341796875,3.6474808890521526,-7.264970544466376,-4.707836914691328
1789137696765079300,6.884079345703125,3.753863872975111,-7.0080193979352705,-4.791043605688214
1789137696775123500,6.89412353515625,3.8512472656235097,-6.846995307764411,-4.709963405326008
1789137696785168100,6.904168212890625,3.7700899083718653,-6.838719062328338,-4.532444691950083
1789137696795213300,6.91421337890625,3.5911516835868356,-6.9424149991244075,-4.370801008576154
1789137696805258200,6.92425830078125,3.442944989413023,-7.173749473839997,-4.229823096612096
1789137696815303400,6.934303466796875,3.313737302480638,-7.486006328007578,-4.207822861728072
1789137696825347000,6.94434716796875,3.0621523591578006,-7.7448180077135556,-4.212718232554197
1789137696835392300,6.954392333984375,2.958091388441622,-7.8597882027179,-4.046952500814199
1789137696845437200,6.964437255859375,3.0234400589257477,-7.774770078384876,-3.9188632965177295
1789137696855482400,6.974482421875,3.0520287322893735,-7.554395973622799,-3.735366677775979
1789137696865526300,6.9845263671875,2.9862235502094028,-7.31694038567841,-3.4496395186156033
1789137696875571200,6.9945712890625,2.9255206597045063,-7.203535540294647,-2.8982869080811735
1789137696885616400,7.004616455078125,3.024181524942815,-7.429273217916489,-2.0029004953682423
1789137696895661300,7.014661376953125,3.2959996934771536,-7.9403563619047395,-1.1802736139178276
1789137696905706200,7.024706298828125,3.486045295470953,-8.304787639945745,-0.938178091213107
1789137696915750100,7.034750244140625,3.7294609608635305,-8.66825036521554,-0.9058680592387914
1789137696925795300,7.04479541015625,4.114832151080668,-9.015210283973813,-0.7847673986554146
1789137696935840300,7.05484033203125,4.439379454761744,-9.109913351497054,-0.5830535706996918
1789137696945885200,7.06488525390625,4.750464342540503,-8.733514572286605,-0.5067050750344991
1789137696955930000,7.07493017578125,4.974986214631795,-7.942298728144168,-0.3947521820247173
1789137696965974300,7.084974365234375,5.078368263173103,-6.834271435269713,-0.1887169837385416
1789137696976019500,7.09501953125,5.005802208656072,-5.819020625770092,0.21394494849741458
1789137696986064100,7.105064208984375,4.6820957397133105,-5.082351779851317,0.8348089021533727
1789137696996109300,7.115109375,4.162511309361458,-4.460075621309876,1.5968033279865979
1789137697006153500,7.125153564453125,3.392451358233392,-3.951917424857616,2.2824247082352636
1789137697016198400,7.135198486328125,2.4728853207707404,-3.750136961406469,2.7372996427893637
1789137697026243300,7.145243408203125,1.35458184081465,-3.963434259650111,3.1926188139796254
1789137697036288500,7.15528857421875,0.28475232277885076,-4.245380731227994,3.4041818357765674
1789137697046333400,7.16533349609375,-0.6381539650224148,-4.4312239130958915,3.3026480454504488
1789137697056377300,7.17537744140625,-1.3313503105700015,-4.4728018318921325,3.0942770976930856
1789137697066422500,7.185422607421875,-1.772210748296976,-4.267044866025447,2.9356156450003383
1789137697076467500,7.195467529296875,-1.654285649009794,-3.9088966137766836,2.54791455053091
1789137697086512600,7.2055126953125,-1.2103695500392466,-3.538432485312223,2.1978654335856436
1789137697096557600,7.2155576171875,-0.829743873848766,-2.615459562015533,2.2887492350816725
1789137697106601500,7.2256015625,-0.13423895909786224,-1.9877689772099256,2.3681670551896095
1789137697116646700,7.235646728515625,0.5969628535866737,-1.4825889197856188,2.4218980608552694
1789137697126691600,7.245691650390625,1.1238707586944103,-0.9076882604032754,2.6172218955129383
1789137697136736500,7.255736572265625,1.5661457393944263,-0.45455929273366924,2.7448960892677308
1789137697146780400,7.265780517578125,1.7209271357834337,-0.0937421135365963,2.8628730648726224
1789137697156825600,7.27582568359375,1.6674281853079795,0.11472644937634467,2.9586399622350927
1789137697166870500,7.28587060546875,1.4494833535194396,0.30461598402559753,2.836060461270809
1789137697176915500,7.29591552734375,1.0210077655911445,0.5662795460313558,2.5259797820985317
1789137697186960400,7.30596044921875,0.32932840047776696,0.8153367244422435,2.3170482778489587
1789137697197004500,7.316004638671875,-0.4834568859159946,1.0899556296110153,2.2508745547175404
1789137697207049700,7.3260498046875,-1.2016337973326443,1.3214005789637564,2.2762182548105714
1789137697217094400,7.336094482421875,-1.8417150771558284,1.5864029300034046,2.431158056631684
1789137697227139600,7.3461396484375,-2.436011341881752,1.838175797113776,2.686449160996079
1789137697237184500,7.3561845703125,-2.960810876533389,2.156071533951163,2.9057220265179873
1789137697247228700,7.366228759765625,-3.44032048612833,2.469918872180581,3.1154619245409965
1789137697257273300,7.3762734375,-3.847997616177797,2.6903409077376126,3.355087842261791
1789137697267318500,7.386318603515625,-4.0889036368370055,2.679168356338143,3.7465748850107192
1789137697277363500,7.396363525390625,-4.105459634840488,2.504147304996848,4.249562985348701
1789137697287407400,7.406407470703125,-3.989886213245988,2.357699437189102,4.674087789824605
1789137697297452500,7.41645263671875,-3.877849149084091,2.2870704882144928,5.06942274017334
1789137697307497500,7.42649755859375,-3.748620711624622,2.498018592983484,5.321164627623558
1789137697317542700,7.436542724609375,-3.71851403491348,2.7898949224233625,5.643129805856943
1789137697327587600,7.446587646484375,-3.7800598059833046,2.926092029851675,6.185562612354755
1789137697337631500,7.456631591796875,-3.744344349479675,2.9900463233679533,6.715282652273774
1789137697347676400,7.466676513671875,-3.7423517143577336,3.231713976049423,7.05434860291183
1789137697357721600,7.4767216796875,-3.8885096593081947,3.6856916695028543,7.135811665111779
1789137697367766500,7.4867666015625,-4.079652408888935,4.107957296875119,7.197327333304286
1789137697377811500,7.4968115234375,-4.258434274068475,4.403270615026354,7.345833887207507
1789137697387855600,7.506855712890625,-4.497283946719765,4.642096322280168,7.437347803300619
1789137697397900500,7.516900634765625,-4.837698389357328,4.836577860894799,7.519227629607915
1789137697407945700,7.52694580078125,-5.14957939594984,4.809689853969216,7.5804609737277024
1789137697417990400,7.536990478515625,-5.449350278031826,4.621227721774578,7.6051856651395555
1789137697428034600,7.54703466796875,-5.854065051144361,4.5498020694643255,7.629245170640945
1789137697438079500,7.55707958984375,-6.1244660463571545,4.430723854619265,7.494678879284859
1789137697448124400,7.56712451171875,-6.204220551073551,4.175176729667187,7.309346861809492
1789137697458169300,7.57716943359375,-6.328175432044267,3.9904590446978805,7.389307702752947
1789137697468214500,7.587214599609375,-6.353232716411352,3.6903666755765676,7.632963898903131
1789137697478258700,7.5972587890625,-6.0589458186984055,3.2244565522670743,7.729764230966568
1789137697488303400,7.607303466796875,-5.627358236229419,2.6308453471958635,7.914561410912871
1789137697498348500,7.6173486328125,-5.075654912561178,1.667328232064843,8.284507652983068
1789137697508393500,7.6273935546875,-4.547909387585521,0.7438473592460155,8.555392047798634
1789137697518438700,7.637438720703125,-4.113634173467755,-0.029978374156355857,8.906220916944742
1789137697528482600,7.647482666015625,-3.7682600625962017,-0.5813748238325118,9.176894883880019
1789137697538527500,7.657527587890625,-3.5652371978685258,-0.4993962133258581,9.04384308874011
1789137697548572400,7.667572509765625,-3.606224165034294,0.2025368347764015,8.735169353756309
1789137697558617600,7.67761767578125,-3.6864725907474756,1.1104279242753983,8.535616503226757
1789137697568662500,7.68766259765625,-3.616986966589093,1.7764982163578271,8.47175047251582
1789137697578706400,7.69770654296875,-3.2937951691702008,2.2479098596930505,8.45996475765407
1789137697588751600,7.707751708984375,-2.803413744688034,2.399631868511438,8.492273036062716
1789137697598796500,7.717796630859375,-2.2204531129688023,2.1124726307213306,8.58977245630622
1789137697608841500,7.727841552734375,-1.5452457208372652,1.507118965408206,8.711812443566322
1789137697618885600,7.7378857421875,-0.8675035495311021,0.7784270897179841,8.614822726410626
1789137697628930600,7.7479306640625,-0.2639981424331665,0.011626140385866164,8.261701946935057
1789137697638975700,7.757975830078125,0.27103286337554455,-0.6985206093102693,7.841829352179169
1789137697649020400,7.7680205078125,0.724739338672161,-1.351025317376852,7.419170341575145
1789137697659065600,7.778065673828125,1.0771499240517615,-1.9593319872766732,6.941182242459059
1789137697669109500,7.788109619140625,1.3947884712576866,-2.647240017157793,6.463020540341734
1789137697679154400,7.798154541015625,1.737523465797305,-3.2220500756472346,6.0379445317238565
1789137697689199400,7.808199462890625,2.018417797973752,-3.479436690986156,5.420431057539582
1789137697699244500,7.81824462890625,2.117204919940233,-3.41077874982357,4.564017641821503
1789137697709289500,7.82828955078125,2.1649685416340825,-3.242644535386562,3.7296360251694916
1789137697719333400,7.83833349609375,2.217764896798134,-3.0918618532449007,2.9799966385185717
1789137697729378600,7.848378662109375,2.275154424971342,-2.986422287651896,2.3027450272083283
1789137697739423500,7.858423583984375,2.3513421771168708,-2.983830517593026,1.677589513838291
1789137697749468700,7.86846875,2.4525953969359398,-3.1595337059795856,1.1158937884658575
1789137697759512300,7.87851220703125,2.5696026507258414,-3.423395654812455,0.600934679827094
1789137697769557500,7.8885576171875,2.673842777401209,-3.8032013198569414,0.2005722567051649
1789137697779602400,7.8986025390625,2.813094596225023,-4.534417453327775,-0.002117138284444809
1789137697789647600,7.908647705078125,3.0425381426274773,-5.332065376344323,-0.36087387782037256
1789137697799692500,7.918692626953125,3.2109728013157843,-5.869022966301441,-0.8936392767846584
1789137697809736400,7.928736328125,3.3412723751381037,-6.1439545906811945,-1.6215326955735683
1789137697819781600,7.93878173828125,3.3298695221140977,-6.126240070292353,-2.4354431866049766
1789137697829826600,7.94882666015625,3.296377294617891,-6.055620473667979,-3.0985066980868576
1789137697839871500,7.95887158203125,3.2967163173139094,-6.070639179101586,-3.536286120933294
1789137697849916400,7.96891650390625,3.2863059824585914,-6.097540045508742,-3.848878490665555
1789137697859960600,7.978960693359375,3.2703096641644835,-6.303221023529767,-3.8678514866828917
1789137697870005500,7.989005615234375,3.3534009120881554,-6.6163786259293556,-3.767849143707752
1789137697880050400,7.999050537109375,3.5564372208192943,-6.680611736387014,-3.783822957909107
1789137697890095400,8.009095458984374,3.756409173543751,-6.541362255650759,-3.8110108245640992
1789137697900140500,8.019140625,3.9751694133684037,-6.4139908442348235,-3.857007436585426
1789137697910184700,8.029184814453124,4.2625861330509185,-6.279028247037529,-4.001550932076573
1789137697920229400,8.0392294921875,4.456126591423153,-6.066553955614566,-4.192655687734485
1789137697930274600,8.049274658203124,4.549675520475208,-5.960000875821709,-4.200169132104516
1789137697940319500,8.059319580078125,4.669242980141937,-6.108475281020999,-4.065400596174597
1789137697950364700,8.06936474609375,4.82869587547332,-6.44676674015522,-3.7957735079437493
1789137697960408600,8.07940869140625,4.9524119792520995,-6.817500333210826,-3.674353113886714
1789137697970453500,8.08945361328125,5.028707283425331,-7.118588727632164,-3.718403852537274
1789137697980498400,8.09949853515625,5.3427486829221245,-7.695061166375875,-3.6662148156166077
1789137697990543600,8.109543701171875,5.614772310900688,-8.197939376598596,-3.629715515258908
1789137698000587500,8.11958740234375,5.676342339628935,-8.198309378954768,-3.8647967752873895
1789137698010631700,8.129631591796874,5.595872380119562,-8.152514426985382,-4.126652060472965
1789137698020676600,8.139676513671875,5.423600335225463,-8.208011857801676,-4.202851503056287
1789137698030721800,8.1497216796875,5.255625695264339,-8.27521609302461,-4.173426671129465
1789137698040766700,8.1597666015625,4.9829029791057105,-8.274002041059733,-4.032380954626202
1789137698050810600,8.169810546875,4.613216849276423,-8.31482972601056,-3.627936815148592
1789137698060855600,8.17985546875,4.23265890455991,-8.641251299130916,-2.938493830785155
1789137698070900700,8.189900634765625,3.977550171025097,-9.283596432232857,-2.2399071705013514
1789137698080945700,8.199945556640625,3.89805870115906,-10.06187446886897,-1.7517933986902237
1789137698090990600,8.209990478515625,3.8783062452018258,-10.744444060331583,-1.611974593633413
1789137698101034800,8.22003466796875,3.8639515566349028,-11.18559558995962,-1.7463871557325124
1789137698111079700,8.23007958984375,3.8931788201630115,-11.289976001888514,-1.9158412205964326
1789137698121124900,8.240124755859375,4.009561804574727,-10.922208857423067,-2.135904944235086
1789137698131169500,8.25016943359375,4.180304740205407,-10.078906267690657,-2.219642381107807
1789137698141214700,8.260214599609375,4.269684566879272,-8.97914586790204,-1.8983458959162234
1789137698151258600,8.270258544921875,4.1914755380392075,-7.712425558152795,-1.2334341262191533
1789137698161303600,8.280303466796875,3.806294317436218,-6.56179947900176,-0.4198959756314754
1789137698171348500,8.290348388671875,3.384125720697641,-5.867841063040495,0.40997079394459723
1789137698181393700,8.3003935546875,2.8587130225837227,-5.6819929127365345,1.107091473329067
1789137698191437800,8.310437744140625,1.992712278831005,-5.564260267281532,1.5371464394032954
1789137698201482500,8.320482421875,0.988328315782547,-5.356690699034929,2.0063643720865247
1789137698211527700,8.330527587890625,0.06984101346731185,-5.215272057566047,2.2932903856426474
1789137698221572600,8.340572509765625,-0.66632923527956,-5.012022690606117,2.447233577641845
1789137698231617800,8.35061767578125,-1.1245709428530186,-4.54010514357537,2.498243049389124
1789137698241661400,8.360661376953125,-1.4270517414808273,-3.931448929585516,2.323323120334744
1789137698251706600,8.37070654296875,-1.5544529635131359,-3.338648164114356,2.1418577151596545
1789137698261751600,8.38075146484375,-1.503267550677061,-2.8674978020638227,2.0781594422310588
1789137698271796700,8.390796630859375,-1.175134497463703,-2.5996476603776215,2.0606717163354156
1789137698281841700,8.400841552734375,-0.848307266151905,-2.5261200673520565,2.0587562381029128
1789137698291885600,8.410885498046875,-0.6948971581161022,-2.518375152313709,2.1500638179689644
1789137698301930800,8.4209306640625,-0.5600467891216278,-2.560452545064688,2.445345571938157
1789137698311975700,8.4309755859375,-0.4895008422553539,-2.6098341233491897,2.8337837485104798
1789137698322020600,8.4410205078125,-0.4509422712802887,-2.23629190261364,3.0832769802510738
1789137698332065500,8.4510654296875,-0.44629356869161124,-1.3491945948183535,3.3707056826323267
1789137698342109700,8.461109619140625,-0.393342899748683,-0.37654607872664925,3.817826934319734
1789137698352154600,8.471154541015625,-0.436972782638669,0.4329232149869203,4.207292115852236
1789137698362199600,8.481199462890626,-0.5261673158735036,1.1128653805553912,4.634200016072392
1789137698372244500,8.491244384765626,-0.6172901868224143,1.690191221258044,4.9705380030512805
1789137698382289700,8.50128955078125,-0.6938228068828582,2.2082927195757627,5.195134109422564
1789137698392333800,8.511333740234376,-0.7399222947567701,2.578312611404061,5.468751728594303
1789137698402378500,8.52137841796875,-0.7548258493781089,2.860432685983181,5.761195044267177
1789137698412423700,8.531423583984376,-0.7374433374226093,3.1864304807335135,6.008978549480438
1789137698422468600,8.541468505859376,-0.6640905164420604,3.524221004608273,6.255153450453281
1789137698432512500,8.551512451171876,-0.5069990895450115,3.844797358831763,6.50508624265492
1789137698442557700,8.5615576171875,-0.3392085739791393,4.18076592797637,6.744412300646305
1789137698452602600,8.5716025390625,-0.13598551050424576,4.448173586592078,6.927448900660872
1789137698462647600,8.5816474609375,0.03622399054765701,4.591445162451267,7.115784776127338
1789137698472692700,8.591692626953124,0.21046762777566907,4.68827062895596,7.271828739798068
1789137698482736600,8.601736572265626,0.2756453438733704,5.0147220126926895,7.2699705447107545
1789137698492781600,8.611781494140626,0.22024903534399345,5.49421408663094,7.235304889521002
1789137698502826800,8.62182666015625,0.0679600128931459,5.972179973915219,7.251232526493072
1789137698512871700,8.63187158203125,-0.10426292302906513,6.406018550181389,7.396038472312688
1789137698522916600,8.64191650390625,-0.29862872630953785,6.7021490299344055,7.684642648214101
1789137698532960800,8.651960693359374,-0.5854144546121358,6.813915460461378,8.061223798254131
1789137698543005700,8.662005615234374,-0.9126227941960096,6.751382724180817,8.373100713193416
1789137698553051000,8.67205078125,-1.301293025958538,6.727680946075916,8.704628085020184
1789137698563095600,8.682095458984374,-1.8453304911740123,6.745249920514226,8.928133473545312
1789137698573140700,8.692140625,-2.5294243695944547,6.842230285319686,9.054853143054247
1789137698583184600,8.7021845703125,-3.121743781289458,6.949245137405395,9.282956965285539
1789137698593229600,8.7122294921875,-3.506486610475182,6.954839596411586,9.537263734787702
1789137698603274500,8.7222744140625,-3.738268244436383,6.9835174093633885,9.549359830772875
1789137698613319700,8.732319580078125,-3.6988036645323037,6.983564755636453,9.378860640770196
1789137698623364600,8.742364501953125,-3.4964223125785585,6.838778683561086,9.225356424710155
1789137698633408500,8.752408447265625,-3.2399411216467615,6.400943731135129,9.162665867519378
1789137698643453700,8.76245361328125,-2.780370722752809,5.398948124527931,9.256364726436138
1789137698653498600,8.77249853515625,-2.429152415897697,4.235593496707081,9.281004662173986
1789137698663543800,8.782543701171875,-2.2742653671771285,3.205761204147339,9.196918850255011
1789137698673588700,8.792588623046875,-2.17399575156793,2.2163053456395865,9.199153477439284
1789137698683632600,8.802632568359375,-2.2276965082257987,1.4024667508006095,9.272409852308034
1789137698693677600,8.812677490234375,-2.4181641350239516,1.0317086078256368,9.281212751966715
1789137698703722800,8.82272265625,-2.6801971148639914,1.2599760961860418,9.201840524566173
1789137698713767400,8.832767333984375,-2.7431939615249634,1.871436261680722,9.020171121251582
1789137698723812600,8.8428125,-2.5405881531655785,2.534110481584072,8.846820633471012
1789137698733856800,8.852856689453125,-2.1637007136553525,2.922732782551646,8.701104587069153
1789137698743901700,8.862901611328125,-1.5719564714998007,2.9315538023889065,8.478804482680559
1789137698753946600,8.872946533203125,-0.9405630135882646,2.657752643343806,8.123229295790194
1789137698763991600,8.882991455078125,-0.3773720812220126,2.231974039414525,7.69682291535139
1789137698774035700,8.89303564453125,0.06794650495760142,1.4591279646992683,7.355873050662875
1789137698784080600,8.90308056640625,0.3905043883871287,0.2711772402822971,7.28654115576148
1789137698794125600,8.91312548828125,0.6149065065562724,-1.100230355387926,7.27568599974811
1789137698804170500,8.92317041015625,0.684395637845993,-2.2724808218479153,7.0611465924888845
1789137698814215700,8.933215576171875,0.6191057118117809,-3.1857208711594343,6.851205034413933
1789137698824259800,8.943259765625,0.5515367349296808,-3.8346635028302667,6.644506403782963
1789137698834304500,8.953304443359375,0.6550725127279758,-4.170315845632553,6.359072090089321
1789137698844349700,8.963349609375,0.8314367953717708,-4.140871724483371,5.743966846090554
1789137698854394600,8.97339453125,0.5659235722005367,-6.04480155801177,3.021498277208209
1789137698864439800,8.983439697265625,0.6809481277406215,-10.915268244504928,-2.9612065978527067
1789137698874483700,8.993483642578125,2.0512544841706752,-9.664885906094312,-3.2683640830546614
1789137698884528600,9.003528564453125,4.481445157074928,-8.051038504326343,-1.9979776520133017
1789137698894573600,9.013573486328125,2.1266507936775683,4.337553403490782,5.643351339653134
1789137698904618800,9.02361865234375,0.4405108936369419,3.8687528194367884,6.311714711108803
1789137698914663700,9.03366357421875,2.523811205887794,0.6838502789229154,3.322003318783641
1789137698924707600,9.04370751953125,3.357810545223951,0.784966136097908,3.993852194267511
1789137698934752800,9.053752685546876,3.94549469833374,-1.184842237007618,4.767372807243466
1789137698944797700,9.063797607421876,6.803315155991911,-4.949959325402975,5.083599149563908
1789137698954842600,9.073842529296876,10.375450588941574,-5.79157089330852,2.599275904455781
1789137698964887600,9.083887451171876,12.156895614051818,-2.830371894240379,-0.9594985271394252
1789137698974931700,9.093931640625,11.245101087373495,-1.4333371053606272,-1.7168214540302753
1789137698984976600,9.1039765625,8.880684324628113,-2.2599720534086227,-2.189179438304901
1789137698995021600,9.114021484375,7.665393173342943,-3.186808666396141,-3.0411130782604214
1789137699005066800,9.124066650390626,6.790427032846212,-3.0987936983346938,-3.722164081853628
1789137699015111700,9.134111572265626,6.022599078553915,-3.2855051874697208,-4.136948413559794
1789137699025155800,9.14415576171875,5.664124663090705,-3.2233336857169865,-4.326344611734152
1789137699035200800,9.15420068359375,5.64621140525937,-2.554524324059486,-4.23848746458292
1789137699045245700,9.16424560546875,5.84836011750102,-1.7458979109108448,-3.9318770918697115
1789137699055290600,9.17429052734375,6.159892164525389,-0.935790903815627,-3.4527328084558246
1789137699065335800,9.184335693359374,6.35586423395872,-0.14703881943821906,-3.0021143623024225
1789137699075380000,9.1943798828125,6.3362991172671315,0.4259744187623262,-2.759039765432477
1789137699085424600,9.204424560546874,6.064163261085748,0.7504547946870327,-2.6048902372062206
1789137699095469800,9.2144697265625,5.949808567631244,0.9169985250622034,-2.5281302381306885
1789137699105514800,9.2245146484375,5.958592762589454,0.8942617925971746,-2.6019658741921186
1789137699115560000,9.234559814453124,5.970308919346333,0.6724407038971781,-2.6147090359091756
1789137699125603600,9.244603515625,5.971240647238493,0.07468553088903426,-2.401794599503279
1789137699135648800,9.254648681640624,6.028380000042915,-0.6506476820230483,-2.3122353246092797
1789137699145693700,9.264693603515624,6.4151405987918375,-1.3102645601823926,-2.381885199418664
1789137699155739000,9.27473876953125,6.737515526869893,-2.044267109501362,-2.3605782074958084
1789137699165783800,9.28478369140625,7.033429149001837,-2.759251946878433,-2.3065204540938136
1789137699175827700,9.29482763671875,7.251481532818079,-3.3725299754500386,-2.2704425940185784
1789137699185873000,9.304872802734375,7.417882055330276,-3.827321615634858,-2.3127385979562995
1789137699195917800,9.314917724609375,7.465673734074831,-4.157341797769069,-2.3333938479721543
1789137699205962800,9.324962646484375,7.3615323915988204,-4.456064924363791,-2.2089292639136313
1789137699216006700,9.335006591796875,7.176298573800921,-4.930000825479627,-1.977933811894059
1789137699226051800,9.3450517578125,6.869479526773095,-5.456473261779546,-1.7631921600610017
1789137699236096800,9.3550966796875,6.473055027621984,-5.920506485301256,-1.4459814828783273
1789137699246141700,9.3651416015625,6.101642804652452,-6.687996585941314,-1.0587661260992287
1789137699256186600,9.3751865234375,5.929025307321548,-7.642876221108436,-0.66800798214674
1789137699266230800,9.385230712890625,5.982680325141549,-8.454900460001825,-0.27974983831644057
1789137699276276000,9.39527587890625,6.066310794508457,-8.760649247449637,-0.18671908791959285
1789137699286320600,9.405320556640625,6.045732116860151,-8.580527658098935,-0.38215982695519923
1789137699296365800,9.41536572265625,6.03023527252078,-8.149673066079616,-0.8074789966791868
1789137699306410800,9.42541064453125,6.071811145490408,-7.576644045788049,-0.9517939441114663
1789137699316454700,9.43545458984375,6.0340147910594935,-7.0346543068826195,-0.5078250189751387
1789137699326499600,9.44549951171875,5.874034656983613,-6.244241595816612,-0.2285094804227352
1789137699336544800,9.455544677734375,5.046036019366979,-5.716041897332668,0.20587737737596035
1789137699346589700,9.465589599609375,3.9442853225439785,-5.3850160452872515,0.8614736217170953
1789137699356635000,9.475634765625,2.8237317255735395,-4.915432786422968,1.1137380717366934
1789137699366678800,9.4856787109375,1.6663808682121335,-4.689522090321779,1.260852294498682
1789137699376723700,9.4957236328125,0.43528073789849875,-4.612429206030071,1.3408593126714228
1789137699386769000,9.505768798828125,-0.6899065102219581,-4.549706207874417,1.2196218739658593
1789137699396813800,9.515813720703125,-1.5693616327010094,-4.342418086917698,1.03080727507174
1789137699406858800,9.525858642578125,-2.077768397086859,-3.918604937842488,0.8043833687514066
1789137699416902700,9.535902587890625,-2.2875556413829323,-3.524192947557568,0.6771119105786084
1789137699426947800,9.54594775390625,-2.1522002454757687,-3.2257381165102124,0.5987853928387165
1789137699436992800,9.55599267578125,-1.7646341755628585,-2.737019949065149,0.3111941933721304
1789137699447037700,9.56603759765625,-1.2582815672278405,-2.2610037345439196,0.17735446272492408
1789137699457082600,9.57608251953125,-0.6923766997277736,-2.1253227599442006,0.22840660457015036
1789137699467126800,9.586126708984375,-0.28130583558678623,-1.8263655323326586,0.2644908943861723
1789137699477171700,9.596171630859375,-0.06063941508093849,-1.2920850526303052,0.36951486491560936
1789137699487216600,9.606216552734375,-0.02526769398106262,-0.7973369573712349,0.5923047986477613
1789137699497261800,9.61626171875,-0.24740237867487594,-0.3458925817877054,0.8687912512540816
1789137699507306800,9.626306640625,-0.500841735959053,-0.026142741516232488,1.2074094581246375
1789137699517350700,9.6363505859375,-0.7859200758218765,0.2600987969070673,1.5691156951159237
1789137699527395800,9.646395751953126,-1.11324064360857,0.6719125883698464,1.9432664031386375
1789137699537440800,9.656440673828126,-1.4084990167021751,1.2078273912757636,2.192051778870821
1789137699547486000,9.66648583984375,-1.7046020239263773,1.7192308532595633,2.351371987733245
1789137699557531000,9.67653076171875,-1.9302894326657056,2.1568653146773578,2.541807465827465
1789137699567574800,9.68657470703125,-2.1178695213288066,2.494434304755926,2.8621307220727203
1789137699577619700,9.69661962890625,-2.2345704856485127,2.73182325720489,3.2579350434988736
1789137699587665000,9.706664794921876,-2.2868489544183013,2.8859055654138324,3.650603404986858
1789137699597709600,9.71670947265625,-2.2899825762689114,2.9120494759738444,4.065167371940612
1789137699607754800,9.726754638671874,-2.156588835823536,2.827606521180272,4.739636074534058
1789137699617799000,9.736798828125,-1.97931211450994,2.7050258511722087,5.453211045113205
1789137699627843800,9.74684375,-1.8658336193680762,2.9295518149167297,5.7560769706010815
1789137699637888800,9.756888671875,-1.9392080676585435,3.4786119305998087,6.102970253863931
1789137699647933700,9.76693359375,-2.019120393285155,4.033898373451828,6.45909372228682
1789137699657979000,9.776978759765624,-2.0866215656280516,4.622055404770374,6.693772246733308
1789137699668022800,9.787022705078124,-2.20421275678575,5.199305842149258,6.898725495001673
1789137699678067700,9.797067626953124,-2.2976152631044386,5.683602686020731,7.12303518564701
1789137699688112600,9.807112548828124,-2.3966917234063145,6.138493987187743,7.247129767349362
1789137699698157800,9.81715771484375,-2.4834143135696647,6.488385867744684,7.298959907829761
1789137699708202800,9.82720263671875,-2.533291566416621,6.632169484779238,7.406454067865013
1789137699718246700,9.83724658203125,-2.5379256559580563,6.570965951275825,7.5386033612072465
1789137699728291800,9.847291748046874,-2.6271394784152506,6.40435558540523,7.650450455754995
1789137699738336800,9.857336669921875,-2.7094857531905174,6.158054427704215,7.814981677263975
1789137699748382000,9.8673818359375,-2.8292279849022623,5.9460910084128376,8.047572874042391
1789137699758426600,9.877426513671875,-2.909597991168499,5.973454816156625,8.16340816144347
1789137699768470800,9.887470703125,-3.033417847582698,6.2224178865432735,8.091299787566065
1789137699778515700,9.897515625,-3.0249019481718538,6.397021004733443,8.022851689761877
1789137699788561000,9.907560791015625,-2.964291119864583,6.39767859185934,8.021058961126208
1789137699798605600,9.91760546875,-2.8666636893272397,6.219784615430235,8.161065397709608
1789137699808650800,9.927650634765625,-2.684561155292392,5.787128526946902,8.440874272736906
1789137699818695000,9.93769482421875,-2.5263831022024155,5.065103123408556,8.766708985880017
1789137699828739800,9.94773974609375,-2.3232810347586867,4.156214839565754,9.048798665320872
1789137699838784800,9.95778466796875,-2.233521853378415,3.1500363943159577,9.294645064991713
1789137699848829700,9.96782958984375,-2.270641331461072,2.088838657155633,9.64912953403592
1789137699858875000,9.977875,-2.316216503199935,1.233884208074212,9.964103830468654
1789137699868918800,9.987918701171875,-2.400980360510945,0.8559177411556244,10.167778144842385
1789137699878963700,9.997963623046875,-2.450409285068512,1.022263903132081,10.211646512663364
1789137699889008600,10.008008544921875,-2.3729642263382673,1.7414461921989917,10.00959833818674
1789137699899053800,10.0180537109375,-2.166982219544053,2.443799511539936,9.765960262215136
1789137699909098800,10.0280986328125,-1.796738309701532,2.9023481661707162,9.578616320395469
1789137699919142700,10.038142578125,-1.2838590760767459,3.1517771005034443,9.29951705494225
1789137699929187800,10.048187744140625,-0.710319183653593,2.999776274743676,9.044932053020595
1789137699939232800,10.058232666015625,-0.04092822271585464,2.4053449854612348,8.77172126108408
1789137699949278000,10.06827783203125,0.6608341449946165,1.5251789382338523,8.5087892865777
1789137699959322600,10.078322509765625,1.2162795778006315,0.27087153533399105,8.317637184646726
1789137699969366800,10.08836669921875,1.7133061393857,-1.1076005918949843,8.000895878541469
1789137699979412000,10.098411865234375,2.1040110918462274,-2.3075480435758826,7.471883110108971
1789137699989456600,10.10845654296875,2.3114894746780394,-3.450187800148129,7.025025477793812
1789137699999501800,10.118501708984375,2.43955822070837,-4.544494610705971,6.635603550881147
1789137700009547300,10.12854736328125,2.536971131712198,-5.349273116254806,6.086717038199305
1789137700019591400,10.13859130859375,2.526398299771547,-5.766240637218952,5.321369794806838
1789137700029636400,10.14863623046875,2.503930447375774,-5.938304592320323,4.475594677481055
1789137700039681300,10.158681396484376,2.520285369849205,-5.99825140376091,3.652656830385327
1789137700049726200,10.168726318359376,2.6259727727234363,-5.904322243219614,2.8287264651209116
1789137700059771400,10.178771484375,2.7238158918380737,-5.712776173534989,2.012466196092963
1789137700069815000,10.18881494140625,2.826291931450367,-5.5524014871835705,1.259313248363137
1789137700079860200,10.198860107421876,2.9411586660802365,-5.451541066074371,0.6095207218647003
1789137700089905200,10.2089052734375,3.0339152757108208,-5.444743076497316,0.0740957483023405
1789137700099950300,10.218950439453126,3.0995290268719193,-5.473258392363786,-0.48125323839187617
1789137700109995300,10.228995361328124,3.104956897139549,-5.5336541166156525,-1.0847814418435096
1789137700120039200,10.2390390625,3.049381724911928,-5.714221111646294,-1.644713080152869
1789137700130084400,10.24908447265625,2.932540767599642,-6.05326835758388,-2.233674998113513
1789137700140129300,10.25912939453125,2.817420058208704,-6.426631130099296,-2.858332498833537
1789137700150174500,10.269174560546874,2.6685668828248974,-6.858109406974911,-3.3357880985081194
1789137700160219100,10.27921923828125,2.6020260799467563,-7.325564421638846,-3.849611481115222
1789137700170263300,10.28926318359375,2.4972142908632753,-7.633891535142063,-4.431424696364998
1789137700180308200,10.29930810546875,2.306083816242218,-7.712874470964073,-4.922977794975042
1789137700190353200,10.309353271484374,2.139324397289753,-7.718083145523071,-5.3344344435632225
1789137700200398000,10.319398193359374,1.9969675981879234,-7.694001428189873,-5.655410610759258
1789137700210443300,10.329443359375,1.8724995069980621,-7.62364077476263,-5.925037114468217
1789137700220487400,10.3394873046875,1.7712943641044199,-7.517827699682116,-6.162341311243176
1789137700230532000,10.349531982421874,1.7303589809954165,-7.4724068417221305,-6.2643544095188375
1789137700240577300,10.359577392578124,1.693909511128813,-7.529748439100384,-6.265237037572264
1789137700250622200,10.369622314453125,1.6571606199242173,-7.633247392019629,-6.293828925806284
1789137700260667400,10.37966748046875,1.5746762518525124,-7.782095306706428,-6.382585067623853
1789137700270711300,10.389711181640624,1.5108347710609435,-8.055937966805695,-6.400221846601367
1789137700280756200,10.399756103515625,1.4296129702709615,-8.566317930960654,-6.3328761570811265
1789137700290801400,10.409801513671875,1.394549840196222,-9.227196499618888,-6.233783914688229
1789137700300846300,10.419846435546875,1.521047391387075,-10.1044533814013,-5.931227785801887
1789137700310891300,10.429891357421875,1.765025659098476,-10.814342356944083,-5.786615901249647
1789137700320935200,10.43993505859375,1.812582506173849,-11.166147377645968,-6.004539690250158
1789137700330980400,10.44998046875,1.6446271554350853,-11.534496705913543,-6.228164321240782
1789137700341025300,10.460025390625,1.7639583221279083,-11.769971349173783,-6.290987564900517
1789137700351070200,10.4700703125,2.261792254573107,-11.292897442293166,-6.121369833907485
1789137700361115100,10.480115234375,2.828370491290092,-10.533244611150026,-5.521914578983187
1789137700371159300,10.4901591796875,3.663012804704904,-9.962006565928458,-4.446345786643028
1789137700381204500,10.50020458984375,4.618411495310068,-9.760766785225272,-2.9971400810211897
1789137700391249200,10.510249267578125,4.997959093940258,-9.359163422131537,-1.6645377245634794
1789137700401294300,10.52029443359375,4.557050725418329,-8.738271411424876,-0.7126134320706129
1789137700411339300,10.53033935546875,3.3420167637646196,-8.166130864405632,-0.45142683992683885
1789137700421383400,10.540383544921875,1.7314830165892838,-7.759284924483299,-0.6724953566938638
1789137700431428000,10.550427978515625,0.13491872152294962,-7.6896584305495015,-1.0246551821827887
1789137700441473300,10.560473388671875,-1.1541565913647414,-8.04785461359322,-1.0454308437079192
1789137700451518200,10.570518310546875,-1.8393185374081134,-8.249767178991437,-0.4071703495711088
1789137700461563400,10.5805634765625,-1.470232711559534,-7.300857265883684,0.8172533717185259
1789137700471607300,10.590607177734375,-0.2653483514657244,-5.036201438573003,2.8228508510857817
1789137700481652200,10.60065234375,0.6489250960141419,-2.4636700409188865,5.3005701678842305
1789137700491697400,10.610697509765625,0.8251748123675584,0.2213198611795902,7.143994971567392
1789137700501742300,10.620742431640625,0.030613164928555488,1.8024036419868468,8.628669465455411
1789137700511787300,10.630787353515625,-1.1464356417238712,1.42501351365149,9.567566518592834
1789137700521831200,10.6408310546875,-2.5385364813327786,0.025819500911235808,9.54510158880651
1789137700531876400,10.65087646484375,-3.7626211799263953,-1.5469880344599485,8.571737617921828
1789137700541921300,10.66092138671875,-4.21107221891284,-2.3195108685702084,6.353922452241182
1789137700551966200,10.67096630859375,-3.663330200091004,-2.324267707708478,3.758531280264258
1789137700562011100,10.68101123046875,-2.654340204551816,-2.8855244571417566,2.259167751288414
1789137700572055300,10.69105517578125,-1.13416594273746,-4.336736826410889,1.8089795132458208
1789137700582100200,10.701100341796876,0.5512403823316097,-6.219135796132683,2.121703400403261
1789137700592145200,10.711145263671876,2.1987597520768642,-7.662859270951151,2.7465263208180666
1789137700602190300,10.7211904296875,3.529312774789333,-8.147499229171872,3.5039854413092133
1789137700612235300,10.7312353515625,4.239440235263109,-7.281476273587345,3.976504169103503
1789137700622279200,10.741279052734376,3.956533978742361,-5.223321508508921,4.4504304256081575
1789137700632324000,10.751323974609376,2.9311972440361975,-3.0626059481441974,4.76915676805079
1789137700642369300,10.761369384765626,1.5048983667492866,-1.262760173946619,4.900233463725447
1789137700652414200,10.771414306640626,0.08188684056997299,-0.06452537140250206,4.590913832053542
1789137700662459400,10.78145947265625,-0.570275922191143,0.41277123831808565,3.8258927518755197
1789137700672503300,10.79150341796875,-0.4729004205882549,0.40565117717981336,2.8794027593910694
1789137700682548200,10.80154833984375,-0.0036485125701874494,-0.016489362508058547,2.186635014519095
1789137700692593400,10.811593505859374,0.6873147401630878,-0.582025396695733,1.9600258147597311
1789137700702638000,10.82163818359375,1.408953628601879,-0.919141966831684,2.0189140570580957
1789137700712683300,10.831683349609374,2.1171077431760725,-0.7830185091614723,2.087155818635225
1789137700722727400,10.8417275390625,2.592429399561882,-0.2403255904227495,1.9910645116239785
1789137700732772400,10.8517724609375,2.705858210343122,0.3369657634884119,2.2504589596539732
1789137700742817300,10.8618173828125,2.601401810568571,0.9024421764433384,2.6123750400036574
1789137700752862200,10.8718623046875,2.4519933393895625,1.3927590112566948,2.6998785514116284
1789137700762907400,10.881907470703124,2.493319036990404,1.7422078242212533,2.77156665405035
1789137700772951300,10.891951416015624,2.8214228641092776,2.0204396591901777,2.8305104259282348
1789137700782996200,10.901996337890624,3.212688957583904,2.2496306921362876,2.8184651833474637
1789137700793041200,10.912041259765624,3.5284114420354364,2.624144972774386,2.782542221572995
1789137700803086300,10.92208642578125,3.6840462403833865,2.9839304708361625,2.71084184397459
1789137700813131300,10.93213134765625,3.6595267161548137,3.5131577588021754,2.5764240211784837
1789137700823176200,10.94217626953125,3.5218390779078006,4.275256814053654,2.3967554362922905
1789137700833220400,10.952220458984375,3.290767345781624,5.148112830528617,2.3098896382659673
1789137700843265300,10.962265380859375,2.8812916418775916,6.023626083514094,2.3153759607225655
1789137700853310500,10.972310546875,2.298841590029001,6.655409490591287,2.1999059995025396
1789137700863355100,10.982355224609375,1.7891914014533161,6.848280086877942,2.006901547703147
1789137700873400300,10.992400390625,1.5692941204227506,6.86775518719852,1.772755522698164
1789137700883444200,11.0024443359375,1.5439865145564078,7.1050021008282895,1.2918740402281284
1789137700893489400,11.012489501953125,1.5505962880849837,7.341043730321526,0.893110284474492
1789137700903534000,11.0225341796875,1.4856196657836436,7.449677708041667,0.6898217545479536
1789137700913579300,11.032579345703125,1.2752318252459167,7.695641596612334,0.6172884332567453
1789137700923624200,11.042624267578125,1.014410997674614,8.091483911961317,0.5309738393723964
1789137700933668400,11.05266845703125,0.8061331350281834,8.514632167387008,0.3476753735512495
1789137700943713300,11.06271337890625,0.7366286600388586,8.864193208554386,0.20938918488919733
1789137700953758200,11.07275830078125,0.7206829028882086,9.042043345841766,0.03429740639925003
1789137700963803400,11.082803466796875,0.8429121291100978,8.864787082794308,-0.26683248907625673
1789137700973848300,11.092848388671875,1.0899674661792813,8.270765543356537,-0.36160745279192924
1789137700983892200,11.102892333984375,1.4720143342792986,7.572764574006199,-0.3364063760399818
1789137700993937200,11.112937255859375,1.6691363044001162,7.335857267594337,-0.3930886327266693
1789137701003982300,11.122982421875,1.4720096581041813,7.528112946853041,-0.11857903315126896
1789137701014026800,11.13302685546875,0.9816600900650024,7.827625470259785,0.29018881474435326
1789137701024071400,11.143071533203125,0.34752062138095496,7.788341507619619,0.5737760392665863
1789137701034115600,11.153115478515625,-0.2590869895160198,7.509610490956902,0.6955658511579036
1789137701044160500,11.163160400390625,-0.7601881070636213,6.819196615734696,1.1630518454819918
1789137701054205700,11.173205810546875,-1.0887327367525548,6.08073971735537,2.0656366452664137
1789137701064250400,11.18325048828125,-1.6996821031808853,5.45739797540903,2.6772692447185515
1789137701074295600,11.193295654296875,-2.89262464453578,3.731919752192497,3.839374164739251
1789137701084339700,11.203339599609375,-4.169401653397083,1.0075175848990678,5.673727773216366
1789137701094384600,11.213384521484375,-5.795688850021362,-0.9056997169345616,7.430203192242979
1789137701104429600,11.2234296875,-7.9771175280690185,-2.4719173525214195,9.968639720332622
1789137701114474500,11.233474609375,-9.107212860366701,-3.3806267726659773,13.059932833778857
1789137701124519700,11.243519775390626,-8.668130538228153,-1.9577420877367258,14.940191284340619
1789137701134563300,11.253563232421875,-7.090280917036533,0.5834650741100311,15.73085884695053
1789137701144608500,11.2636083984375,-4.566694167554378,1.3532400708168744,15.997214950686692
1789137701154653400,11.2736533203125,-1.4853227286636828,-0.45705227859318254,15.938468162685632
1789137701164698600,11.28369873046875,1.2153133631169795,-2.6277310145676136,15.117164638793467
1789137701174743600,11.29374365234375,2.736120077615976,-4.134018205326796,13.369645264160633
1789137701184787500,11.303787353515625,3.0101053610563278,-5.679749517723917,11.513704093253612
1789137701194832600,11.31383251953125,2.112950769627094,-6.575807546088099,9.312975086930393
1789137701204877600,11.323877685546876,0.2511971130490303,-6.44290421950817,6.785716955459118
1789137701214922800,11.3339228515625,-1.5748141990184783,-5.89282235956192,4.304015875548124
1789137701224967400,11.343967529296876,-2.8597897119045257,-5.4070285551309585,2.1598229954391717
1789137701235011600,11.354011474609376,-3.584161386308074,-5.320073325255513,0.5833090067654848
1789137701245056500,11.364056396484376,-3.9036154585033653,-5.282732313376664,-0.35090134986042976
1789137701255101400,11.374101318359376,-4.1017818231105805,-4.972932204711437,-0.7172329085648059
1789137701265146400,11.384146484375,-4.378571642577648,-4.5785763285279275,-0.8306202182918786
1789137701275191600,11.394191650390624,-4.699299972492456,-3.8862370382010933,-0.9183727360248565
1789137701285236500,11.404236572265624,-4.86428887464106,-2.951122133950889,-1.3889730629771948
1789137701295280400,11.4142802734375,-4.881843236032128,-2.1527532031834125,-1.866820876839757
1789137701305325600,11.42432568359375,-4.667184586307406,-1.5839385857164858,-2.2571908982574937
1789137701315370500,11.43437060546875,-4.23171636301279,-1.247246962994337,-2.6277573180526494
1789137701325415700,11.444415771484374,-3.683053137692809,-1.0337556034833193,-2.7924183034211394
1789137701335460600,11.454460693359374,-3.0725293762654062,-0.9604773090437054,-2.88859553515017
1789137701345504500,11.46450439453125,-2.5647014346808192,-1.097393378396332,-2.870923684859276
1789137701355549700,11.4745498046875,-1.9003285941660404,-1.3666868507586418,-2.9351842678457496
1789137701365594600,11.4845947265625,-1.236907355287671,-1.6074983250021933,-3.211206025549769
1789137701375639600,11.4946396484375,-0.688365272129327,-1.7566306095883248,-3.3131378752827643
1789137701385684500,11.5046845703125,-0.3080067955076694,-1.88433636752516,-3.3745763865858316
1789137701395728600,11.514728759765624,0.015790785784646866,-2.1460256484940645,-3.4590468139082193
1789137701405773600,11.524773681640625,0.14637830970287322,-2.526684130975604,-3.400336850786209
1789137701415818500,11.534818603515625,0.08329261571466923,-2.7308973745316267,-3.122622317689657
1789137701425863400,11.544863525390625,-0.09478665415346622,-2.7719650057181715,-2.9637340705037114
1789137701435908600,11.55490869140625,-0.17075930224359034,-2.811834074769914,-2.932285623794794
1789137701445952800,11.564952880859375,-0.11789623851887882,-2.9132366399317977,-2.7623358843684196
1789137701455997400,11.57499755859375,0.0820124762436375,-2.9080887556493282,-2.4092519297719
1789137701466042600,11.585042724609375,0.237881046814844,-2.6954060821726915,-1.7598218068450688
1789137701476087600,11.595087646484375,0.4430155334016308,-2.282483160424232,-0.9163415224581957
1789137701486132700,11.6051328125,0.8758709803819655,-1.5461762796856462,-0.4989157363325357
1789137701496176400,11.61517626953125,1.2778338244378566,-0.5508291711822152,-0.38639468804597854
1789137701506221600,11.6252216796875,1.6681506543636322,0.21585337593462317,-0.14398410804271697
1789137701516266500,11.6352666015625,2.096988645863533,0.7256084496568888,0.14867022003233432
1789137701526311700,11.645311767578125,2.308196278351545,1.1148804467048494,0.3633955052524805
1789137701536356400,11.6553564453125,2.169969710922241,1.2595957185663282,0.5062941561460494
1789137701546401500,11.665401611328125,1.626570689740777,1.1619723066169767,0.5888818384617567
1789137701556445700,11.67544580078125,0.823670179958269,0.9635018444966524,0.5826736314713955
1789137701566490600,11.68549072265625,0.09900865576267241,0.8130801776871085,0.49133390290141105
1789137701576535600,11.69553564453125,-0.41984738724939524,0.7412238788746297,0.4743167171269655
1789137701586580500,11.70558056640625,-0.6933141997735947,0.8089463658180087,0.5625742617726326
1789137701596625700,11.715625732421875,-0.742017294274643,1.0464648629307747,0.7407306885302066
1789137701606669600,11.725669677734375,-0.646995735386759,1.417928523826599,1.1238801110446452
1789137701616714500,11.735714599609375,-0.3336773894675076,1.6271812228545546,1.5282997006028889
1789137701626759400,11.745759521484375,0.021604367434233426,1.5398770334109664,1.830813159391284
1789137701636804600,11.7558046875,0.19396416367702185,1.2433994937859474,2.154932885310054
1789137701646849500,11.765849609375,0.04656783603802323,0.5873013643372803,2.506206575614214
1789137701656893400,11.7758935546875,-0.37096228724494573,-0.5937277441229671,2.9002193374484775
1789137701666938600,11.785938720703125,-0.7009085273601114,-1.919821376273781,3.3279718717992304
1789137701676983600,11.795983642578125,-0.8423305298298597,-2.963973724478483,3.542053013896942
1789137701687028700,11.80602880859375,-0.8669776259608566,-3.56596580440402,3.3400545237809416
1789137701697073400,11.816073486328126,-0.7345769151408225,-3.4874484402671455,2.7199095320492983
1789137701707117600,11.82611767578125,-0.37738786331303414,-2.9815590655297037,1.959060184597969
1789137701717162500,11.83616259765625,0.12613514761924743,-2.405775778093934,1.4458008656144141
1789137701727207700,11.846207763671876,0.45677740717455745,-1.992864400652796,1.1294880140542984
1789137701737252400,11.85625244140625,0.5997678280048072,-1.454347598554939,0.9029162236958742
1789137701747297500,11.866297607421876,0.7565827760480344,-0.6085152711492031,0.7448428000241517
1789137701757341700,11.876341796875,0.666612728396058,0.19961320241466163,0.5130933147668838
1789137701767386600,11.88638671875,0.3914524098269641,0.5564775523327291,0.13899696727991104
1789137701777431600,11.896431640625,-0.10571502153351903,0.46352841580472887,-0.32293665361404417
1789137701787476500,11.9064765625,-0.6509717994108796,-0.1735268672607839,-1.0748358018904924
1789137701797521700,11.916521728515624,-1.0336587189801036,-1.2905050899624824,-1.9738895049393177
1789137701807566600,11.926566650390624,-1.2324838397569953,-2.536449738186598,-2.780296488472819
1789137701817610500,11.936610595703126,-1.3160235621005296,-3.855256209003925,-3.3232945276379584
1789137701827655700,11.94665576171875,-1.4361708674818277,-5.155117156332731,-3.6931080832391974
1789137701837700600,11.95670068359375,-1.6883799340523777,-6.19264058791697,-4.01297132075727
1789137701847745500,11.96674560546875,-2.0044699366420504,-6.89321170001626,-4.13384109519422
1789137701857790500,11.97679052734375,-2.2946805248267945,-7.296544663381576,-3.9951089163303375
1789137701867834600,11.986834716796874,-2.4990005897581575,-7.473763517028093,-3.6191567118436097
1789137701877879600,11.996879638671874,-2.5781214727461337,-7.309386609297991,-3.2242548922151326
1789137701887924700,12.0069248046875,-2.564181794720888,-6.676369276511669,-2.9959815586358305
1789137701897969400,12.016969482421874,-2.546836692166328,-5.856776063668727,-2.856240494990349
1789137701908014600,12.0270146484375,-2.375944265062362,-5.270587117552757,-2.7717127845227716
1789137701918058800,12.037058837890624,-2.026392430114746,-5.116991716077924,-2.8265941292673347
1789137701928103400,12.047103515625,-1.5710633220523595,-5.279233365345001,-2.9681577321648596
1789137701938148600,12.057148681640625,-1.173232463234663,-5.615398918366432,-3.192507754820585
1789137701948193500,12.067193603515625,-0.818266421218589,-5.967151332098245,-3.4384009162425992
1789137701958238700,12.07723876953125,-0.48276598104238505,-6.177425483128428,-3.724614982137084
1789137701968282400,12.087282470703125,-0.34997663623094555,-6.127770348599553,-4.152515985047817
1789137701978327600,12.09732763671875,-0.41359073800742624,-5.935024255475401,-4.4476504395008085
1789137701988372500,12.10737255859375,-0.519866754424572,-5.630884656789899,-4.4853006634593005
1789137701998417700,12.117417724609375,-0.6412322764892131,-5.13572213551104,-4.299737759837508
1789137702008462600,12.127462646484375,-0.894881970322132,-4.508965032163262,-4.0584383559465405
1789137702018507800,12.1375078125,-1.3142805178254842,-3.9971614649459717,-3.874911342066526
1789137702028551700,12.1475517578125,-1.7995915071755646,-3.669720193389058,-3.7810166683167217
1789137702038596600,12.1575966796875,-2.0919822158783674,-3.6372196072787046,-3.6786633783012626
1789137702048641800,12.167641845703125,-2.088017988422513,-3.830850958804786,-3.4094735124439
1789137702058686700,12.177686767578125,-1.9138228665113448,-3.9591020756646986,-2.965951162031293
1789137702068732000,12.18773193359375,-1.576101316219568,-3.731535136789083,-2.2325696672201154
1789137702078775600,12.197775634765625,-1.1338462092638015,-3.3070337131887673,-1.5216723914176224
1789137702088820700,12.20782080078125,-0.8617964239306748,-3.0903762908622623,-0.6871072348922491
1789137702098865700,12.21786572265625,-0.5700263313442469,-3.064191171509027,0.2892126631885767
1789137702108910800,12.227910888671875,-0.384029164491035,-2.6932211393490433,0.9678799865156411
1789137702118955500,12.23795556640625,-0.47207218960318714,-1.990803376469761,1.4911661939948797
1789137702128999700,12.247999755859375,-0.5907137300640344,-1.3853617406122385,1.7761247068703174
1789137702139044900,12.258044921875,-0.6408008262693882,-1.0693332589514553,2.086415813922882
1789137702149089500,12.268089599609375,-0.5618552998483181,-1.1648359524197875,2.6012013195604085
1789137702159134700,12.278134765625,-0.5284451976776122,-1.2339075889497995,3.2120629346400498
1789137702169179600,12.2881796875,-0.637509383508563,-0.6991369876429439,3.4446991396039723
1789137702179223800,12.298223876953125,-0.9408177920669317,0.2778013345971703,3.3495050736933947
1789137702189268500,12.3082685546875,-1.3222323536127805,1.201315817424655,3.4695869126230474
1789137702199313700,12.318313720703125,-1.7123405092239379,1.6978449508816003,3.864381764745712
1789137702209358600,12.328358642578126,-1.7707552887916564,1.9333347917109727,4.162686665928364
1789137702219403800,12.33840380859375,-1.4480536129772663,2.362370936131477,4.595789913657307
1789137702229448700,12.34844873046875,-0.810372964555025,2.8981986452758313,4.9997249345690005
1789137702239492600,12.35849267578125,-0.8436836980044842,3.02902195071131,5.531911072340607
1789137702249537800,12.368537841796876,-2.1060569184601308,3.425897993022203,6.741767339095473
1789137702259582700,12.378582763671876,-2.4550913054049013,2.985976881971955,7.60791947401762
1789137702269627600,12.388627685546876,0.4454686621747911,0.40083208646029234,8.134473743382095
1789137702279672600,12.398672607421876,5.588362442880869,-4.478067789596319,8.026004016312957
1789137702289716700,12.408716796875,9.582299977344274,-9.432010047155618,7.6164160842061035
1789137702299761700,12.41876171875,13.707389026284217,-10.235155983066559,6.669835490828752
1789137702309806600,12.428806640625,15.539484042179584,-5.794076154127716,6.744246880951524
1789137702319851500,12.4388515625,13.209453533160685,-0.23318273293077946,8.515589614242314
1789137702329896700,12.448896728515624,7.912594494754075,4.778306289190054,11.333206071805954
1789137702339940900,12.45894091796875,1.508273396140337,9.32689313764572,15.281248116534947
1789137702349985500,12.468985595703124,-5.352237811279297,12.094397364562749,17.71832211921215
1789137702360030700,12.47903076171875,-10.100991842770576,12.995499816834926,16.47469334671497
1789137702370075600,12.48907568359375,-11.12492689398527,16.266812812823055,11.247844833123683
1789137702380120800,12.499120849609374,-10.453524008703232,17.573886760270593,7.62440649843812
1789137702390164700,12.509164794921874,-7.016436513146758,14.52983470594883,7.055594219058752
1789137702400209700,12.519209716796874,-2.618778477305174,9.565165887191892,6.310739728596806
1789137702410254600,12.529254638671874,0.7770423573613167,5.3390837306737895,5.3437254189997905
1789137702420299800,12.5392998046875,3.607838614493608,2.120450185471773,4.903027478358149
1789137702430344700,12.5493447265625,6.046489657229185,-0.08395020284056663,4.349876293969154
1789137702440389600,12.5593896484375,7.812242607688903,-0.39912382123768325,3.408753381475806
1789137702450433800,12.569433837890625,8.698508725357055,0.06391688411533832,2.6302438741713763
1789137702460478700,12.579478759765625,8.84460412646532,0.2940449056506157,2.2801380586028097
1789137702470523600,12.589523681640625,8.376289864623546,0.21317980934381484,2.087592456486821
1789137702480568600,12.599568603515625,7.422336112129688,0.07496171748191117,1.9977239695131777
1789137702490613800,12.60961376953125,5.969781680601835,-0.13427899884730576,1.986786980435252
1789137702500658000,12.619657958984375,4.239926557475328,-0.6638382952466607,1.8369103072226047
1789137702510702600,12.62970263671875,2.488683778405189,-1.2958011505439877,1.6900643800079822
1789137702520747800,12.639747802734375,1.051958199650049,-1.5130156222313642,1.6397791308820246
1789137702530792700,12.649792724609375,-0.12435823760721831,-1.5919266618609427,1.5932254694998262
1789137702540838000,12.659837890625,-1.2102245155453681,-1.819552345186472,1.4700304669857025
1789137702550881500,12.669881591796875,-2.1515601940065623,-2.3108836177393792,1.469225580343604
1789137702560926700,12.6799267578125,-2.7294424995481967,-3.0803382964506745,1.466010709950328
1789137702570971600,12.6899716796875,-2.8441671953588723,-3.6699671538874505,1.0688502977401018
1789137702581016800,12.700016845703125,-2.76612066360414,-3.9274215737655758,0.5445458531290293
1789137702591061500,12.7100615234375,-2.6125796226650473,-4.013152814804017,-0.06265665492117405
1789137702601105700,12.720105712890625,-2.460597501605749,-4.055622129482031,-0.78304130551517
1789137702611150800,12.73015087890625,-2.1801341081924734,-4.07727574288547,-1.4215209953606127
1789137702621195800,12.74019580078125,-1.794275280588865,-4.238339580544829,-1.9276655139029024
1789137702631240700,12.75024072265625,-1.4099007001936434,-4.449760563522577,-2.3213456827819345
1789137702641285600,12.76028564453125,-0.9947622212875634,-4.608583636517823,-2.647461550953984
1789137702651330800,12.770330810546875,-0.6047796648174524,-4.723229129612445,-2.9119314025521277
