time,seconds_elapsed,z,y,x
1789666830955361000,0.058361083984375,1.971954737484455,1.0076567011088133,1.8123628720737992
1789666830965313300,0.068313232421875,2.240027582010627,0.921437968814373,1.9686999734722077
1789666830975265300,0.078265380859375,2.1709721659630534,1.0091834722846746,1.811077362307906
1789666830985216300,0.08821630859375,1.696642589354515,1.2791481219068168,1.5205734902650117
1789666830995168300,0.098168212890625,1.5889163741290568,1.5736784729868172,2.229652172338217
1789666831005120300,0.108120361328125,2.0671067178189753,1.7088067821398376,1.816101912471652
1789666831015072000,0.118072021484375,2.1026029786139726,1.0672636130705475,0.3885192789845168
1789666831025023200,0.128023193359375,2.0594149942725894,0.8518380706265568,-0.17380882600732148
1789666831034975200,0.137975341796875,2.305249703505635,0.877712808856368,-0.5462826137937605
1789666831044927200,0.14792724609375,2.878964367973804,1.300384678941965,-0.45587907009534534
1789666831054879200,0.157879150390625,3.128213854086399,1.5533844574987887,0.25772359220832586
1789666831064831200,0.167831298828125,3.3657506905734538,1.6325184922292828,0.536339311928302
1789666831074782200,0.1777822265625,3.9552269877970216,1.1677590002596379,0.337344606738165
1789666831084734200,0.187734130859375,4.3804543875843285,0.26402152330875395,0.17684793797489254
1789666831094686200,0.197686279296875,4.201501842013001,-0.39336189671009775,0.12541961976103483
1789666831104638200,0.20763818359375,3.957177537342906,-0.6695680710703135,0.23409937285166232
1789666831114589200,0.217589111328125,3.5640725380033254,-0.9618325230449437,0.43885311649255454
1789666831124541200,0.227541259765625,2.9125884051561353,-1.2448913397789,0.5764364175822585
1789666831134493200,0.2374931640625,2.128783714053035,-1.3371128196194768,0.7412599000360817
1789666831144445200,0.247445068359375,1.149755726057291,-1.2403621719166635,0.958732511202991
1789666831154396400,0.257396484375,0.08700959041118621,-0.9876236746445297,1.0541121628135441
1789666831164348200,0.26734814453125,-0.927219474825263,-0.8384224164754152,1.0142392943695187
1789666831174300200,0.277300048828125,-1.7350649667292832,-0.7318617378979921,0.9324103214666247
1789666831184252200,0.287252197265625,-2.321325809037685,-0.4750634438410401,0.9619863984324037
1789666831194203100,0.297203125,-2.6843074727922676,-0.2513067109033465,0.9249969764702022
1789666831204155100,0.307155029296875,-2.8317817610383034,-0.013463000424206256,0.855210615799576
1789666831214107400,0.317107421875,-2.740250893810391,0.24093612353652713,0.7156459316343069
1789666831224059100,0.32705908203125,-2.5450088922172784,-0.10323854841738939,0.7343073774844407
1789666831234010000,0.337010009765625,-2.1936668128520247,-0.45847266678512094,0.7163372018340974
1789666831243962400,0.34696240234375,-1.5671037707716227,-0.7194891630589961,0.5896352141123264
1789666831253914000,0.3569140625,-0.8551888423591851,-0.9486457092136145,0.47452984842099244
1789666831263866000,0.3668662109375,-0.2228670906215906,-1.0925471074089408,0.3026840661149472
1789666831273817300,0.3768173828125,0.12517477815449238,-1.2416104184120893,0.11071741466438396
1789666831283769000,0.38676904296875,0.35591771671772,-1.3701143409892915,0.015877824747283012
1789666831293721000,0.39672119140625,0.5199982718497514,-1.4080612098067997,-0.12062440310744568
1789666831303673300,0.40667333984375,0.47195407964885233,-1.4292963055372236,-0.2299044601787813
1789666831313624000,0.4166240234375,0.16374387052357195,-1.4878238978296519,-0.2510370819154195
1789666831323576300,0.426576416015625,-0.19791735828220844,-1.4487337041959165,-0.16803658101512117
1789666831333528300,0.4365283203125,-0.5186901118606329,-1.2637436320260167,-0.034852903123851864
1789666831343480000,0.44647998046875,-0.8119646176606417,-1.1656333864077926,0.17575974087938664
1789666831353431300,0.456431396484375,-1.298838618543744,-1.57458740452528,0.31661377073545005
1789666831363383300,0.46638330078125,-1.7115087345749138,-1.273264032304287,0.5901414100687951
1789666831373335000,0.4763349609375,-1.7733511505037545,-0.660639206944406,0.3957068158684298
1789666831383287300,0.486287353515625,-1.7610288445472717,-0.3322814050644636,0.29030820334032176
1789666831393238000,0.496238037109375,-1.6513327905535697,-0.24903496657907961,0.27826241277027874
1789666831403190000,0.50618994140625,-1.5539403378158807,-0.24991759463250635,0.08474431236032397
1789666831413142300,0.516142333984375,-1.5770406428962944,-0.29330431641638277,-0.13358908035438508
1789666831423094300,0.52609423828125,-1.7008347803473471,-0.34527240406274795,-0.22046762826442717
1789666831433045200,0.536045166015625,-1.8146569743603467,-0.37686581220030785,-0.15999220810616388
1789666831442997200,0.545997314453125,-1.7632640562534332,-0.30294980437904595,0.000984906826034421
1789666831452949200,0.55594921875,-1.629476348054409,-0.21481471706926822,0.131081956371665
1789666831462901000,0.56590087890625,-1.4707137730747462,-0.1526180808752775,0.1365913674429059
1789666831472852200,0.575852294921875,-1.3649199872165918,-0.0876069717824459,0.03787231944368686
1789666831482804200,0.58580419921875,-1.1947440378189087,-0.009299451003968714,-0.08231059154053218
1789666831492756200,0.595756103515625,-0.9731143800377845,0.042654023595154286,-0.1751159996157512
1789666831502708200,0.605708251953125,-0.6894470760166644,0.09268763604760169,-0.2801566472853534
1789666831512659200,0.6156591796875,-0.30422493888139723,0.1837517625465989,-0.44449645614176986
1789666831522611200,0.625611083984375,-0.10974924548566341,0.27849194720983506,-0.6328275093026459
1789666831532563200,0.635563232421875,-0.02423427754640579,0.26415333299487825,-0.7560666432194412
1789666831542515200,0.64551513671875,0.1306628541767597,0.2324108717754483,-0.705323713453859
1789666831552466200,0.655466064453125,0.2994897270530462,0.24831278978437185,-0.5636013763306662
1789666831562418200,0.665418212890625,0.5060860663533211,0.22764643385261296,-0.4010580041706562
1789666831572370200,0.6753701171875,0.7119640282511711,0.15845862359702587,-0.3109598366269842
1789666831582322200,0.685322265625,0.9262713803201913,0.10809563305974006,-0.34388113236743956
1789666831592273200,0.695273193359375,1.2179787829339503,0.0438558006003499,-0.5375273892017081
1789666831602225400,0.705225341796875,1.5924433792114256,0.032814474365115164,-0.7426026198819279
1789666831612177200,0.71517724609375,1.8827175341516733,0.11953764905035495,-0.8631969383783638
1789666831622129200,0.725129150390625,1.9981717132806778,0.19184446810930966,-0.9381869321066886
1789666831632081200,0.7350810546875,2.024775058045983,0.099608082960546,-1.1069876476284115
1789666831642032000,0.7450322265625,1.9248738373577594,0.04140022414177656,-1.221149448859319
1789666831651984100,0.754984130859375,1.8069255033254623,0.12949527170211075,-1.1635475931096821
1789666831661936400,0.764936279296875,1.6718074233055114,0.3012590748131275,-1.0936478351924568
1789666831671888100,0.77488818359375,1.5101058722645044,0.41897360008955,-1.1364580722626298
1789666831681839000,0.784839111328125,1.3289204530745744,0.4029790353611111,-1.222258140753582
1789666831691791400,0.794791259765625,1.2648369802206754,0.35405572223812337,-1.3289990712687372
1789666831701743000,0.8047431640625,1.4258394430816173,0.2177472633898258,-1.3903259388908744
1789666831711695000,0.814695068359375,1.770925969183445,0.025533377446234226,-1.5305487947039305
1789666831721646000,0.82464599609375,2.2771721945345402,-0.24408348165154456,-1.7328969750404357
1789666831731598000,0.83459814453125,2.896960043391585,-0.5873199959725142,-1.8421916086263954
1789666831741550000,0.844550048828125,3.445788688406348,-0.9338938380226492,-1.8310070745281875
1789666831751502300,0.85450244140625,3.8378684363514184,-1.192678921982646,-1.6662924592763184
1789666831761453000,0.864453125,3.7223943834781643,-1.3453084010347722,-1.5474407466635107
1789666831771405300,0.8744052734375,3.0051608903914686,-1.4146698142915963,-1.471911896818131
1789666831781357300,0.884357421875,1.7423697367846964,-1.338317226973176,-1.4758487978756427
1789666831791309000,0.89430908203125,0.18514906212389468,-0.9772589324966072,-1.4150878935731948
1789666831801260300,0.90426025390625,-1.1836585801810025,-0.36602410019040105,-1.2291159707590937
1789666831811212300,0.91421240234375,-2.258227840089798,0.17469196551740168,-1.2934363211087883
1789666831821164000,0.9241640625,-2.9442852736681697,0.48416474192440506,-1.6563460886709391
1789666831831116300,0.9341162109375,-2.9733038628816604,0.15894406902641056,-2.3551526753157375
1789666831841067000,0.94406689453125,-2.7102199126839635,0.5398886749729513,-1.9483038127839565
1789666831851019300,0.954019287109375,-2.416615152016282,0.9585931027323007,-1.6263723906897007
1789666831860971300,0.96397119140625,-2.2653303655713795,0.535669011451304,-1.4646196939833462
1789666831870923300,0.97392333984375,-1.967279146888852,0.10744973637163638,-1.3020806692048907
1789666831880877300,0.983877197265625,-1.4953127922803162,-0.2800836003154516,-1.4027965672768652
1789666831890829300,0.993829345703125,-0.9243903888791799,-0.5795262733563781,-1.351808576709032
1789666831900781300,1.00378125,-0.1966682350039482,-0.6649947718054056,-1.2075483551386743
1789666831910733600,1.013733642578125,0.4157224893391132,-0.6068383509129286,-1.1818318031452595
1789666831920684300,1.023684326171875,0.718299661013484,-0.502876456657052,-1.2559700754150747
1789666831930636300,1.03363623046875,0.7010235320419073,-0.4277311993017792,-1.3922858407869934
1789666831940588300,1.04358837890625,0.5794751276910305,-0.3433586793959141,-1.3006556048378348
1789666831950540300,1.053540283203125,0.365024567759037,-0.2961070988774299,-1.0311125416286289
1789666831960491500,1.063491455078125,-0.08226736432015895,-0.34558716910034415,-0.8298820402104407
1789666831970443300,1.073443359375,-0.6993453696966171,-0.3396428737431764,-0.7141309239614755
1789666831980395300,1.083395263671875,-1.2871931889355182,-0.27180998522788286,-0.4461993876021355
1789666831990346500,1.093346435546875,-1.7496055332571268,-0.22739713526666164,-0.11280183798931538
1789666832000298200,1.10329833984375,-1.981520438209176,-0.29760639752447604,0.25557598572038115
1789666832010250200,1.113250244140625,-1.9529267964094876,-0.30741029091924427,0.631591318571195
1789666832020202500,1.123202392578125,-1.8615210168659686,-0.3119923580124974,0.9366825919583439
1789666832030154500,1.133154541015625,-1.6675842526525257,-0.34715894846171136,1.0780534487627447
1789666832040105200,1.143105224609375,-1.5425392383575438,-0.2953866756483912,1.0949473004184662
1789666832050057500,1.153057373046875,-1.5912942091763018,-0.18767682703584432,0.9795864986613392
1789666832060009200,1.16300927734375,-1.6930547939956186,-0.13307517601549623,0.7623653780374675
1789666832069961200,1.172961181640625,-1.6659353164017199,0.0025131518647074696,0.5609632463794201
1789666832079912400,1.182912353515625,-1.404869720289111,0.043487844070792196,0.45523850716948505
1789666832089864200,1.1928642578125,-1.0779144786834716,0.10532236895412206,0.41633926953058686
1789666832099816400,1.20281640625,-0.7270201430857182,0.18930384371578693,0.5753848261700942
1789666832109767400,1.212767333984375,-0.5237205072432756,0.21540683774352073,0.8308727317482233
1789666832119719200,1.22271923828125,-0.4211725714385509,0.2257239413574338,1.1817327266849578
1789666832129671400,1.23267138671875,-0.5414999095618724,0.2716752529323101,1.4385738369703291
1789666832139623400,1.24262353515625,-0.7678150948107242,0.4224693332508206,1.4824517032720148
1789666832149574400,1.252574462890625,-1.060302834147215,0.6680766634687781,1.3839116879343987
1789666832159526400,1.2625263671875,-1.1458014354735613,1.0182871084555982,1.301094434646517
1789666832169478400,1.272478515625,-0.9892951149880885,1.3376146316617727,1.1219622947245835
1789666832179430100,1.28243017578125,-0.6842343098044396,1.5077297907829283,0.8069255275148898
1789666832189381400,1.29238134765625,-0.03521627480983734,1.355726919196546,0.3085231475319713
1789666832199333400,1.30233349609375,0.9000199177324771,1.5894500426143408,0.3440826828215271
1789666832209285400,1.312285400390625,1.7561814045161008,1.6167118512883782,0.6181009186834097
1789666832219237400,1.3222373046875,2.4703929194331167,1.2453165794536472,0.5898992353433743
1789666832229188400,1.332188232421875,2.857752653118968,0.9186077138245106,0.6013327392339706
1789666832239140400,1.342140380859375,2.933980152752995,0.7393661221787333,0.7064496487438678
1789666832249092400,1.35209228515625,2.7069226247042417,0.7555684844389557,0.8368184884101152
1789666832259044400,1.36204443359375,2.341348606368899,0.8777665848702192,0.9707403443828224
1789666832268995300,1.371995361328125,2.060193577429652,1.0510609585493802,1.0565947734095156
1789666832278947300,1.381947265625,1.7863006484478712,1.2234218507707117,0.9428099157322197
1789666832288899300,1.3918994140625,1.5355758290857076,1.2686828419938683,0.8011030319064855
1789666832298851300,1.401851318359375,1.5054150840997695,1.179668633762002,0.7252795830287039
1789666832308802300,1.41180224609375,1.6172686083883046,1.0240919953420757,0.6302721257314086
1789666832318754600,1.421754638671875,1.9135189151287078,0.7464519887864589,0.5229229271247983
1789666832328706300,1.431706298828125,2.6057091523736715,0.45326048509478567,0.49066301790252326
1789666832338658300,1.441658203125,3.3107857591986654,0.09262859933674335,0.370492770037055
1789666832348609500,1.451609619140625,3.693683252778649,-0.3515197740197181,0.25627967701032756
1789666832358561300,1.461561279296875,3.864638954377174,-0.7305085697233676,0.3004515578225255
1789666832368513300,1.47151318359375,3.6756349703907962,-0.9637021163091063,0.415952535235323
1789666832378465500,1.481465576171875,3.0435353369712828,-1.1438441639259458,0.5368239536400884
1789666832388416300,1.491416259765625,2.1743162156939504,-1.2380439581021665,0.6210773772109299
1789666832398368300,1.5013681640625,1.2349503760010003,-1.1531345548406242,0.669722823240608
1789666832408320500,1.511320556640625,0.2290449024736881,-0.9324471463456749,0.7491976342327893
1789666832418272300,1.521272216796875,-0.6080933194100856,-0.7246624740436672,0.8064561564374715
1789666832428223500,1.531223388671875,-1.2119500241637229,-0.5365843727305531,0.9079551677111536
1789666832438175500,1.541175537109375,-1.6094436138510704,-0.4036173332646489,0.9991214394103735
1789666832448127200,1.551127197265625,-1.820829525515437,-0.34571693295985456,1.0196187954507767
1789666832458079200,1.561079345703125,-1.882496000355482,-0.2754270066812634,1.0163784983552993
1789666832468030500,1.571030517578125,-1.8924480700492858,-0.22474399040937423,1.1019918121024965
1789666832477982200,1.580982177734375,-1.9135580780953168,-0.2431143443584442,1.1633566736474632
1789666832487934500,1.5909345703125,-1.9143898527443408,-0.25918109754025936,1.1467092710334807
1789666832497886500,1.600886474609375,-1.9496143108606336,-0.2805798593997955,1.018152814551443
1789666832507837200,1.610837158203125,-1.7863117543637752,-0.4221911008313298,0.8431022448547184
1789666832517789400,1.62078955078125,-1.3764672171473502,-0.5885302485451102,0.6850299171615392
1789666832527741400,1.630741455078125,-0.7281658059895039,-0.844004600521922,0.5457493106346577
1789666832537692400,1.6406923828125,0.02133154184222221,-1.134544712921977,0.4228720688328147
1789666832547644400,1.65064453125,0.6574275514215231,-1.3916273768782614,0.3349107671873644
1789666832557596400,1.660596435546875,0.9136638276815414,-1.5316300140693784,0.30839437005314974
1789666832567548200,1.670548095703125,0.7683318121612072,-1.5577081659168004,0.39940165179837495
1789666832577499400,1.68049951171875,0.3569020515799522,-1.4949243774846195,0.5341248142166063
1789666832587451400,1.690451416015625,-0.22502105378508566,-1.410265441852808,0.6771902365118265
1789666832597403400,1.7004033203125,-0.8853273755133152,-1.317742348717153,0.782506175725162
1789666832607355400,1.71035546875,-1.5260545520246027,-1.138272793534398,0.7993783270057291
1789666832617306400,1.720306396484375,-2.072864842954278,-0.8514502403527497,0.825745817188546
1789666832627258400,1.73025830078125,-2.5230256084680556,-0.6275058758884668,0.7781935732230544
1789666832637210400,1.74021044921875,-2.7713340143382545,-0.4537240109533071,0.735795643280819
1789666832647162400,1.750162353515625,-2.9883360123187304,-0.2711015446975827,0.7376753926128149
1789666832657113300,1.76011328125,-3.175867001143098,-0.12133622290492058,0.7153019405022263
1789666832667065300,1.7700654296875,-3.1707495119988915,0.009008651363849639,0.6148273038402199
1789666832677017300,1.780017333984375,-3.0970506540596485,0.1427063431918621,0.5637726777769625
1789666832686969300,1.78996923828125,-2.9741642791032787,0.22583646182119846,0.5626457195736467
1789666832696920300,1.79992041015625,-2.791956531128287,0.25302520525902505,0.5984675590611994
1789666832706872600,1.80987255859375,-2.524596218785643,0.29840105503350495,0.5775002474214881
1789666832716824300,1.81982421875,-2.1330869642049075,0.33086335496008396,0.4895567371610552
1789666832726776300,1.8297763671875,-1.5615496437758207,0.3430518054038286,0.35321751784831285
1789666832736727300,1.839727294921875,-0.9785428348273039,0.3650274903684854,0.2752196840735152
1789666832746679300,1.84967919921875,-0.5133645329236984,0.37158144205659627,0.23464389152452347
1789666832756631300,1.85963134765625,-0.17289982140362262,0.38667584307491776,0.2739578839767724
1789666832766583600,1.86958349609375,0.045536593294143675,0.4425654880791902,0.34473256156500426
1789666832776534300,1.8795341796875,0.2466127078682184,0.508286791267991,0.40884905990567055
1789666832786486300,1.889486328125,0.3777694830417633,0.5005559047549962,0.3812723400635645
1789666832796438500,1.8994384765625,0.552040008276701,0.5462465195670724,0.2504984267277643
1789666832806390300,1.909390380859375,0.8907254351645708,0.5967793137133122,0.13287285837642848
1789666832816341500,1.919341552734375,1.349299808758497,0.6121656834155321,0.01062802359345369
1789666832826293500,1.92929345703125,1.8291776671439408,0.5476318364456295,-0.0402361396653112
1789666832836245200,1.939245361328125,2.2245219698429106,0.39572862584143875,-0.053739937890786675
1789666832846196500,1.949196533203125,2.4769845727831123,0.24415830045342443,-0.08206237979996948
1789666832856148200,1.959148193359375,2.599809572941065,0.15208032073676586,-0.0654268868194893
1789666832866100200,1.969100341796875,2.52234639403224,0.18164251530766487,0.01688612500699237
1789666832876052500,1.979052490234375,2.176101930066943,0.18449322856366634,0.0730800501874648
1789666832886000600,1.989000732421875,1.7168541872560976,0.10979366914927959,-0.010151154196169227
1789666832895952400,1.998952392578125,1.3199825288593767,0.12081278355270623,-0.1340396371334791
1789666832905904600,2.008904541015625,0.9426941073328257,0.3415504609301686,-0.11271918294085188
1789666832915856600,2.018856689453125,0.6570978810757399,0.6056175769463181,-0.14746524642305447
1789666832925807400,2.028807373046875,0.46275955032408234,0.796874308295548,-0.30172232667701315
1789666832935759600,2.038759521484375,0.3936830914884805,0.7240221303135156,-0.6378536669015884
1789666832945711600,2.048711669921875,0.44140579665005203,0.4878483988732099,-1.0181939502794295
1789666832955663400,2.058663330078125,0.5990595336049794,0.2599038588568568,-1.397466896686703
1789666832965614600,2.068614501953125,1.0254682521313427,-0.007547638900578022,-1.7700591232210396
1789666832975566600,2.078566650390625,1.8274229324311018,-0.3217076963409781,-2.039101543431729
1789666832985518300,2.088518310546875,2.9161393756359812,-0.6325944311991334,-1.9975525584690272
1789666832995470600,2.098470703125,4.09062856093347,-0.793607561584562,-1.6918198453731834
1789666833005421600,2.108421630859375,4.977759186476469,-0.9479892911314963,-1.3901242788389325
1789666833015373600,2.11837353515625,5.345172695198655,-1.132634056995064,-1.1328026184950024
1789666833025325600,2.12832568359375,5.078101136669516,-1.196862052886188,-0.8668906052645295
1789666833035277600,2.138277587890625,4.262942106881737,-1.1595542126245797,-0.7879602033473551
1789666833045228500,2.148228515625,3.0730683054476975,-1.0890069505840538,-0.9867179579764604
1789666833055180500,2.1581806640625,1.7641700651824472,-0.8728460796028376,-1.2584138153053819
1789666833065132500,2.168132568359375,0.553071104890108,-0.5515218296214938,-1.5134718415662645
1789666833075084500,2.17808447265625,-0.5801800610899925,-0.24330519075542686,-1.8266222835727035
1789666833085035500,2.188035400390625,-1.522135917276144,-0.08646715409755706,-2.1576082419991494
1789666833094987500,2.197987548828125,-2.1239105550587176,0.044670624114572996,-2.424965047210455
1789666833104939500,2.207939453125,-2.4229139598995446,0.08815817592442035,-2.5291855924025177
1789666833114891500,2.2178916015625,-2.3563187964856622,0.015572832185029983,-2.530803841254115
1789666833124842800,2.2278427734375,-1.9805518854379653,-0.19038871634304522,-2.331835804875195
1789666833134794500,2.23779443359375,-1.5047715254992247,-0.4902016840010881,-2.0405328914090988
1789666833144746500,2.24774658203125,-1.0818459729135035,-0.8282543659433722,-1.7010304490499197
1789666833154697700,2.25769775390625,-0.7390817522794008,-1.04012309268862,-1.3589480732001364
1789666833164649500,2.2676494140625,-0.6311912864029408,-1.0725365850374102,-1.0417547124784439
1789666833174601500,2.2776015625,-0.687741441142559,-1.0030208580017088,-0.8649563492663204
1789666833184553700,2.2875537109375,-0.9943915613442659,-0.8535267543658613,-0.8364238630693406
1789666833194504400,2.29750439453125,-1.4005261381268501,-0.6832604963362217,-0.7871179073043167
1789666833204456400,2.30745654296875,-1.7444348526209592,-0.4566314228326082,-0.673395812664926
1789666833214408700,2.31740869140625,-2.041280787166953,-0.27912264632880684,-0.5929661486333235
1789666833224360400,2.3273603515625,-2.316846033275127,-0.24230419701933859,-0.5873092553827911
1789666833234311700,2.337311767578125,-2.643319044321775,-0.2053776111602783,-0.6630332624740898
1789666833244263700,2.347263671875,-2.8480963515013453,-0.08034224147647619,-0.7047602343522011
1789666833254215400,2.35721533203125,-2.4352421110749245,0.20446984866559503,-0.389340020782873
1789666833264167400,2.36716748046875,-2.0287632508993148,0.5825801079690456,-0.027798134907288476
1789666833274118700,2.37711865234375,-2.261382504728436,0.5515995710328221,0.29046361309774216
1789666833284070400,2.3870703125,-2.509191728904843,0.2684475230574608,0.15164450486907735
1789666833294022700,2.397022705078125,-2.7027491384118796,0.12586334494054316,-0.1620476245323196
1789666833303974700,2.406974609375,-2.760708575427532,0.13283961369395256,-0.27605816245796155
1789666833313925600,2.416925537109375,-2.232552131563425,0.42062925834208725,-0.2855358926382847
1789666833323877600,2.426877685546875,-1.5057523532301187,0.9375678503602742,-0.23518196219028903
1789666833333829600,2.43682958984375,-1.2490239095389841,1.2323702963799237,0.006245175716595258
1789666833343781400,2.446781494140625,-1.4144360055357217,1.0649848544836045,0.28706209755856543
1789666833353732600,2.456732666015625,-1.6294325089126824,0.8930378037601708,0.2552975706377998
1789666833363684600,2.4666845703125,-1.4055208776742218,1.0927540281578898,0.35215894870609044
1789666833373636600,2.47663671875,-1.0481757585018872,1.4467679570809007,0.5549567359736189
1789666833383587600,2.486587646484375,-0.7822516164422034,1.616954427872598,0.5564399602686986
1789666833393539600,2.49653955078125,-0.3623720074236393,1.581739614367485,0.8004604962192475
1789666833403491600,2.50649169921875,-0.47602176747918123,1.7139675259038805,1.1811990581996739
1789666833413443600,2.516443603515625,-0.8689905732184648,2.0195733977496624,1.6112483251854777
1789666833423394600,2.52639453125,-1.0633540384113789,2.2275512545362113,1.8665891139104962
1789666833433346600,2.5363466796875,-0.9825836346507072,2.4403838578775523,1.7423156685099004
1789666833443298600,2.546298583984375,-0.5254489384710789,2.419182956677675,1.2426288016743958
1789666833453250600,2.55625048828125,0.3104343149155378,2.1200465731069444,0.8146211235187947
1789666833463201500,2.566201416015625,1.3724907147318124,1.897238811457157,0.6891269041515886
1789666833473153500,2.576153564453125,2.402834463945031,1.7627429549887776,0.7544255249489098
1789666833483105500,2.58610546875,3.216318253996968,1.5917705945163965,0.9209691091936081
1789666833493057500,2.5960576171875,3.7238188633233307,1.380007666233182,1.027401485216245
1789666833503008500,2.606008544921875,4.052718809255957,1.24331517650336,1.2691209411501885
1789666833512960800,2.615960693359375,4.28709045971036,1.200429389978945,1.5673910632804036
1789666833522912500,2.62591259765625,4.443250158715248,1.208253507733345,1.7837385428749024
1789666833532864500,2.635864501953125,4.5071945153594015,1.2008429392158984,1.7152961441591381
1789666833542815500,2.6458154296875,4.508952172681689,1.0991764624208211,1.3938804165020584
1789666833552767500,2.655767578125,4.5728345700055355,0.9060454616323113,1.0284403998099267
1789666833562719500,2.665719482421875,4.586085096722841,0.598566197130084,0.768870010691136
1789666833572671700,2.675671630859375,4.666480821952224,0.2509472299411893,0.5764117580650374
1789666833582622500,2.68562255859375,4.705748417979478,-0.12992547981292007,0.414617194978334
1789666833592574700,2.69557470703125,4.610333402794599,-0.476302045725286,0.3464577779224142
1789666833602526700,2.705526611328125,4.295212975889444,-0.8128305868402123,0.35421756173633034
1789666833612477400,2.7154775390625,3.5808757887661455,-1.1657862388819455,0.509864013989456
1789666833622429700,2.7254296875,2.578747495689988,-1.3811512833103536,0.8122754371754825
1789666833632381700,2.735381591796875,1.3907920950978994,-1.4564862180188298,1.1998456718068569
1789666833642333400,2.74533349609375,0.20078852980434894,-1.4112766647219657,1.4547667007498442
1789666833652284700,2.75528466796875,-0.8417728959470987,-1.237599136944115,1.619177949140966
1789666833662236400,2.765236328125,-1.6160218231976031,-0.977729472617805,1.7257948879502714
1789666833672188400,2.7751884765625,-2.0686323199510572,-0.7465706467300653,1.7446157621458172
1789666833682140700,2.785140625,-2.1665186936855316,-0.5156792396068572,1.6690419041149318
1789666833692091400,2.79509130859375,-2.1584937926620245,-0.40762773794978857,1.478206613048166
1789666833702043600,2.805043701171875,-2.1053332803606986,-0.4191834434479475,1.3181338322527705
1789666833711995600,2.81499560546875,-2.000300542002916,-0.4910583008304238,1.3018664419323205
1789666833721947600,2.82494775390625,-1.891975776362419,-0.5756199135676026,1.3388080792300403
1789666833731898600,2.834898681640625,-1.7458645931631325,-0.6678069066166877,1.3143135433122515
1789666833741850600,2.8448505859375,-1.6460627411961555,-0.8124033013388514,1.231195845773071
1789666833751802400,2.85480224609375,-1.526757147336006,-0.9223048147767782,1.0417096312277019
1789666833761754600,2.864754638671875,-1.2609072395563126,-0.9792033445626497,0.8216877739693969
1789666833771705600,2.87470556640625,-0.9060317253679037,-1.0501023426502942,0.6264839854948222
1789666833781657300,2.8846572265625,-0.5136603009998798,-1.2040224460348485,0.5314375113613903
1789666833791609600,2.894609619140625,-0.08141863853633403,-1.4221604623079298,0.5387346460996195
1789666833801561600,2.9045615234375,0.31213761170208454,-1.6430600522488354,0.557868641364947
1789666833811512600,2.9145126953125,0.504040239739418,-1.8590858986735344,0.637682694248855
1789666833821464600,2.924464599609375,0.3082207305192947,-2.020382083784044,0.7718874588161706
1789666833831416600,2.93441650390625,-0.20883213552832602,-2.104655234968662,0.8338117808748036
1789666833841367600,2.944367431640625,-1.0123357988357544,-2.1169953688427805,0.8621918529890478
1789666833851319600,2.954319580078125,-1.7776047162950037,-2.0632488733470438,0.9164376032438128
1789666833861271600,2.964271484375,-2.4404729974657298,-1.9603081388324497,0.9877057999700307
1789666833871223600,2.9742236328125,-2.9328122780174017,-1.9269526894584297,1.006685517989099
1789666833881174500,2.984174560546875,-3.251779443478584,-1.923909960761666,1.0156848170027135
1789666833891126500,2.99412646484375,-3.3982816718220707,-1.8898828957363962,1.0522316828291862
1789666833901078800,3.004078857421875,-3.4620109244108197,-1.8313544266611337,1.162951453847438
1789666833911030500,3.014030517578125,-3.4862767661392686,-1.7635484261527656,1.1609640794225036
1789666833920981800,3.023981689453125,-3.4839679046750067,-1.7044573547586799,1.0784456629507242
1789666833930933800,3.033933837890625,-3.495359067261219,-1.601904158256948,1.0278110158652067
1789666833940885500,3.043885498046875,-3.4761166066527363,-1.423254979546368,1.0471048413347452
1789666833950837500,3.05383740234375,-3.4182080230414864,-1.2642644410297275,0.986086382074654
1789666833960788500,3.06378857421875,-3.248769155746698,-1.1842644371196627,0.9121778999727219
1789666833970740500,3.073740478515625,-2.8899264914929863,-1.1441972151473163,1.0102589194964617
1789666833980692700,3.083692626953125,-2.390249707660079,-1.0257368399396538,1.2124594349905848
1789666833990643500,3.0936435546875,-1.763721152371168,-0.906532660627365,1.5053572164326905
1789666834000595500,3.103595458984375,-0.9219231219828128,-0.8379226502597331,1.7525966778971254
1789666834010547700,3.113547607421875,-0.14267419448792934,-0.8393433307126164,1.8699834325239062
1789666834020499700,3.123499755859375,0.4486491919070482,-0.8743439169451593,1.773103167092055
1789666834030450700,3.13345068359375,1.0325713621348143,-0.7855676091223954,1.557382587224245
1789666834040402700,3.143402587890625,1.6646996371269225,-0.6477206886604427,1.2562275573074817
1789666834050354700,3.153354736328125,2.267284422248602,-0.4893915366619825,0.8792157607652247
1789666834060306400,3.163306396484375,2.9785622218012806,-0.381145681476593,0.48339014082271603
1789666834070257700,3.173257568359375,3.675048110413551,-0.375002356415987,0.09259188405554741
1789666834080209400,3.18320947265625,4.249682227814198,-0.4399398157507181,-0.22456918183173982
1789666834090161700,3.19316162109375,4.584419209337234,-0.5313137388512492,-0.4189426204293966
1789666834100113700,3.20311376953125,4.553905413129925,-0.5369207650780677,-0.4864931848719716
1789666834110064400,3.213064453125,4.207660364642739,-0.4796282675385475,-0.558711850723438
1789666834120016600,3.2230166015625,3.6522494186282155,-0.28807635263502596,-0.723097270553559
1789666834129968600,3.23296875,3.071075670325756,0.04854717328697443,-0.9642182491376996
1789666834139920600,3.242920654296875,2.5856097826749087,0.5191311336264014,-1.2468630782432852
1789666834149871600,3.25287158203125,2.3638778335630892,0.9858467280998825,-1.638761770533025
1789666834159823600,3.26282373046875,2.4144039057075974,1.37013596829921,-2.1912390011832117
1789666834169775400,3.272775390625,2.5732915683716535,1.695875988896191,-2.7387103863701223
1789666834179727600,3.2827275390625,2.7723861537396908,1.8371430930651724,-3.275795109838247
1789666834189678600,3.2926787109375,3.1398861717015505,1.765839751960337,-3.771612880155444
1789666834199630600,3.302630615234375,3.679841189908981,1.5262719941675662,-4.043486578269302
1789666834209582600,3.31258251953125,4.3322500363856555,1.1841492863073944,-3.8798119735896583
1789666834219533600,3.322533447265625,5.040204828995466,0.8892015865981578,-3.3366020452395078
1789666834229485600,3.332485595703125,5.430809243690967,0.6449551694698631,-2.6943060119763014
1789666834239437600,3.3424375,5.343498039984703,0.31819428139254446,-2.1640924894519147
1789666834249389600,3.3523896484375,4.7283846126794815,0.006511719981580972,-1.8308622592300177
1789666834259340500,3.362340576171875,3.6870594507247207,-0.15481997483372686,-1.6295438603326677
1789666834269292500,3.37229248046875,2.5300240890532733,-0.08762932974472641,-1.6690680614694953
1789666834279244500,3.38224462890625,1.39164900418818,0.0748876293323934,-1.9555235349044202
1789666834289196500,3.392196533203125,0.35751463052034377,0.17419424512833356,-2.3810186457172033
1789666834299147500,3.4021474609375,-0.5053986686110497,0.27145138104856015,-2.798224943873286
1789666834309099800,3.412099853515625,-1.2626882777541875,0.4097022061362862,-3.1533339745566247
1789666834319051500,3.422051513671875,-1.7436603611171244,0.4951237967036664,-3.47915991987139
1789666834329003500,3.43200341796875,-2.0029063405871392,0.44964054103195666,-3.81721961607635
1789666834338954800,3.441954833984375,-1.9871254186093805,0.3171399500340223,-4.089092437407374
1789666834348906500,3.451906494140625,-1.7678794410943983,0.12839666281044482,-4.128827066424488
1789666834358858500,3.4618583984375,-1.4132728069752454,-0.18217618379294873,-3.9812387964099645
1789666834368810800,3.471810791015625,-1.0808856034487486,-0.6048916007593274,-3.694328564944863
1789666834378761500,3.481761474609375,-0.8714788829028606,-1.0222887453123926,-3.3562416884720325
1789666834388713500,3.49171337890625,-0.7712047372490167,-1.381665662573278,-2.9582562236145136
1789666834398665700,3.501665771484375,-0.9106517863839865,-1.7292922285467385,-2.530183079007268
1789666834408616400,3.511616455078125,-1.236060967591405,-2.038876940895617,-2.1348902142345905
1789666834418568700,3.521568603515625,-1.7212532989978788,-2.2533780619710684,-1.7170035325989126
1789666834428520700,3.531520751953125,-2.3433546854943037,-2.353643147535622,-1.337749948479235
1789666834438472400,3.541472412109375,-2.9612755714356895,-2.405225450734794,-1.0665300380989908
1789666834448423700,3.551423583984375,-3.4910844586819407,-2.358935700985789,-0.8089099062651395
1789666834458375700,3.561375732421875,-3.8873283405691383,-2.258244498963654,-0.571818840784207
1789666834468327400,3.571327392578125,-4.165915564846992,-2.0860233074739574,-0.3818169318016618
1789666834478279700,3.58127978515625,-4.3341818812310695,-1.9572420292600987,-0.29124592258185145
1789666834488230700,3.591230712890625,-4.45122771346569,-1.8128999015599487,-0.23083149362951516
1789666834498182700,3.6011826171875,-4.487840411069989,-1.6813213938429952,-0.1884315178606659
1789666834508134700,3.611134765625,-4.466834447920323,-1.5632131930738686,-0.16180011604465544
1789666834518086700,3.621086669921875,-4.380047560349107,-1.4162795875757932,-0.08060228065215051
1789666834528037600,3.63103759765625,-4.203058423805237,-1.2164701319366693,0.004445362036302685
1789666834537989600,3.64098974609375,-3.925528599625826,-1.0198159254580736,0.11804280738271772
1789666834547941600,3.650941650390625,-3.4538609357029197,-0.8346995965600014,0.18779117413051424
1789666834557893600,3.6608935546875,-2.729178880175948,-0.6303808468028903,0.22340251267254352
1789666834567844600,3.6708447265625,-1.8569366116851567,-0.3626096155717969,0.2639914204314351
1789666834577796600,3.680796630859375,-0.954375777298212,-0.1173243569150567,0.38142077209092673
1789666834587748600,3.69074853515625,-0.1513204422801733,0.1198491992175579,0.5896204549346119
1789666834597699600,3.700699462890625,0.4561316566169262,0.28604981524348255,0.9180446000490337
1789666834607651600,3.710651611328125,0.7996849818021059,0.40702626492530103,1.2778271024361252
1789666834617603600,3.720603515625,0.8163193057388066,0.5429322804525494,1.5968252475574611
1789666834627555600,3.7305556640625,0.4954489370048046,0.7651499672546982,1.8848349646970628
1789666834637506600,3.740506591796875,0.26817396681308747,1.0802408758044242,2.101340849723667
1789666834647458600,3.75045849609375,0.28313655814528466,1.3631070925757287,2.1793518717736005
1789666834657410600,3.76041064453125,0.5052975463241338,1.5457079315215347,2.1858102541327473
1789666834667362800,3.77036279296875,1.0082160885572433,1.6558182654045521,2.20719732555449
1789666834677313500,3.7803134765625,1.7652292188465595,1.7120684142842888,2.2633220944888888
1789666834687265500,3.790265625,2.6403105101555586,1.7596157628789544,2.3414573274403807
1789666834697217800,3.8002177734375,3.378090532186627,1.8361114119298756,2.4697072752565146
1789666834707169500,3.81016943359375,3.8041555518418546,1.9213276891835034,2.6194115145117043
1789666834717120800,3.820120849609375,4.0695641455948355,2.0234647060997784,2.7243837548539043
1789666834727072800,3.83007275390625,4.361019619274139,2.13556723671332,2.7829420345455405
1789666834737024500,3.8400244140625,4.582340064975619,2.2740729133449493,2.7487831598341463
1789666834746976500,3.8499765625,4.718794362035394,2.4488059415251016,2.664314193816483
1789666834756927500,3.859927490234375,4.811479659995436,2.547087159796059,2.5746315848037598
1789666834766879500,3.86987939453125,4.95722259440422,2.42378562816754,2.459422320346534
1789666834776831700,3.879831787109375,5.1897530009061095,2.1835395327217877,2.2994176363512873
1789666834786782500,3.889782470703125,5.500577191922068,1.900517686997354,2.055625392731279
1789666834796734500,3.899734375,5.671959009978175,1.5517834520429372,1.797998100504279
1789666834806686700,3.909686767578125,5.662968478792905,1.1594324859410523,1.570660440339893
1789666834816638700,3.919638671875,5.463315675020217,0.7503510420516133,1.4077812238216398
1789666834826589700,3.929589599609375,5.06321219509542,0.3471151093199849,1.3472393690973519
1789666834836541700,3.939541748046875,4.481334682437777,-0.05528919489309191,1.3672554444268346
1789666834846493700,3.94949365234375,3.545695754313469,-0.4554131330840289,1.3778747458577156
1789666834856445400,3.959445556640625,2.3483926796615124,-0.6582610796362162,1.3981899502642452
1789666834866396700,3.969396728515625,1.1484691933780908,-0.725233551929891,1.4144099943116306
1789666834876348400,3.979348388671875,0.08364157528281212,-0.693489337144792,1.3080885313175619
1789666834886301000,3.989301025390625,-0.7294324649244547,-0.6637269438266754,1.104370085541159
1789666834896253000,3.9992529296875,-1.280859894260764,-0.6264277252629399,0.8812951243225484
1789666834906203600,4.00920361328125,-1.5817682559400796,-0.5847253033041954,0.658734103975445
1789666834916156000,4.019156005859375,-1.7089619727015495,-0.5866872510269284,0.44379576052650804
1789666834926108000,4.02910791015625,-1.7906167580813168,-0.6661252371400594,0.20576989841349422
1789666834936059000,4.039058837890625,-1.8230998085349797,-0.7144640283733605,0.08006919668875634
1789666834946011000,4.049010986328125,-1.8582997167319057,-0.8205512442201376,-0.05600282305516302
1789666834955963000,4.058962890625,-1.899129739770293,-0.9444234153434634,-0.2353757129304111
1789666834965915000,4.068914794921875,-1.9041496137589216,-1.055918043191731,-0.36905294649228454
1789666834975865900,4.078865966796875,-1.887960695502162,-1.1292162113755941,-0.4471411619642749
1789666834985817900,4.08881787109375,-1.8185159878760575,-1.1892287815287708,-0.48847643111106004
1789666834995769900,4.098769775390625,-1.703651006811857,-1.2405240844801066,-0.5107879969665781
1789666835005721900,4.108721923828125,-1.5875649595201013,-1.2948285061195492,-0.44959067400824276
1789666835015672800,4.1186728515625,-1.4671967048645018,-1.364262984612584,-0.3291364581022411
1789666835025624800,4.128624755859375,-1.3370242645531891,-1.4376780571743846,-0.17483804119089616
1789666835035576800,4.138576904296875,-1.1459206779390574,-1.5365119408920407,0.012517444936092942
1789666835045528800,4.14852880859375,-0.9628197805166244,-1.6029247334763406,0.16349181372495367
1789666835055479800,4.158479736328125,-0.8459516429364681,-1.6341194976851343,0.2384308809836395
1789666835065431800,4.168431884765625,-0.9126303929805755,-1.7003946353644133,0.2588755752550438
1789666835075383800,4.1783837890625,-1.1834528284758328,-1.7678461233466862,0.36844073287807405
1789666835085334800,4.188334716796875,-1.5094120447814463,-1.7672566330209374,0.5240510909045115
1789666835095286800,4.198286865234375,-1.9193612114161251,-1.767524051785469,0.6517800470538437
1789666835105239000,4.208239013671875,-2.298569787350297,-1.7444623251497744,0.7337836458712815
1789666835115190800,4.218190673828125,-2.6532868961066005,-1.7241466823518274,0.7620809350728989
1789666835125141800,4.228141845703125,-2.8977672681212425,-1.7219149777770042,0.7261540277756751
1789666835135094000,4.238093994140625,-3.0242794323593376,-1.7063161343678832,0.6744996091883629
1789666835145045800,4.248045654296875,-3.0238118148475883,-1.6336653241768477,0.6654911770202219
1789666835154997800,4.257997802734375,-2.9633798502385615,-1.5383105147466063,0.6141794343907385
1789666835164949000,4.267948974609375,-2.8259809658050536,-1.4784212787121533,0.4897751291520893
1789666835174900700,4.277900634765625,-2.7227660905241966,-1.3917799370914696,0.3679314681816846
1789666835184852700,4.287852783203125,-2.6946511721521613,-1.280108491371572,0.24242073607109485
1789666835194805000,4.297804931640625,-2.6676328168451784,-1.164002278074622,0.1148421116452664
1789666835204755700,4.307755615234375,-2.696035904508829,-0.9968149890989064,0.011535831753909587
1789666835214708000,4.3177080078125,-2.679497442162037,-0.8572548349782824,-0.04766878301724791
1789666835224660000,4.327659912109375,-2.530921330153942,-0.7091928099721669,-0.08520414842441677
1789666835234611700,4.33761181640625,-2.301242221429944,-0.5562365831837057,-0.08819938471764326
1789666835244563000,4.34756298828125,-2.08940330530107,-0.4545391267284751,-0.006139671798795461
1789666835254515000,4.357514892578125,-1.9086469251781701,-0.4106438709005713,0.11704919323548674
1789666835264466700,4.367466796875,-1.690282991194725,-0.4103212148174643,0.18763094206750391
1789666835274418000,4.37741796875,-1.4114075976252556,-0.4042196830719709,0.18162497965097427
1789666835284370000,4.387369873046875,-1.1809195106059311,-0.4117556315347552,0.1618127563305199
1789666835294321700,4.39732177734375,-0.8277893787801265,-0.3788578628003597,0.16012144224271177
1789666835304274000,4.40727392578125,-0.2115694515377283,-0.30353520305156706,0.11491437316387891
1789666835314225000,4.417224853515625,0.5606172824859619,-0.4512435923144221,-0.029116935021430253
1789666835324177000,4.427177001953125,1.4759236166775225,-0.6687316202461719,-0.0062048459894955155
1789666835334129000,4.43712890625,2.29360368937552,-0.8103232801944017,0.24795170138701794
1789666835344081000,4.447080810546875,2.731896906962991,-1.0075056022003293,0.42297538307681676
1789666835354031900,4.457031982421875,2.60526433121562,-1.1168246395751833,0.2551573949821293
1789666835363984000,4.46698388671875,2.266927863895893,-1.0017097754031419,-0.17704627355858682
1789666835373935900,4.476935791015625,1.8591244771182536,-0.6729325790673494,-0.5683060834228992
1789666835383886800,4.486886962890625,1.8887153132617474,-0.29398733024448154,-0.8613749836482107
1789666835393838800,4.4968388671875,2.3258885869085786,-0.04825052842795849,-1.079957236557454
1789666835403790800,4.506790771484375,3.0853590472221373,0.11188567299246788,-1.2533794743999838
1789666835413742800,4.516742919921875,4.157831042590737,0.22957301800101995,-1.431998988624662
1789666835423693800,4.52669384765625,5.340190815132856,0.13463789528757333,-1.6806703825883567
1789666835433646000,4.53664599609375,6.452332557588815,-0.12033011460229753,-1.9746344780877232
1789666835443597800,4.546597900390625,7.2853025538772345,-0.5125663682833314,-2.0265330076292156
1789666835453549800,4.5565498046875,7.9201593770504,-0.8777611780427396,-1.81992877728343
1789666835463500800,4.566500732421875,8.31307791390717,-1.1401216362714768,-1.512063582203537
1789666835473452800,4.576452880859375,8.21835614168346,-1.3671864708438515,-1.213479133427143
1789666835483404800,4.58640478515625,7.42147277329862,-1.5629935589738189,-1.1304150657713412
1789666835493357000,4.596357177734375,5.833114033052325,-1.5868826763443649,-1.3010694463357328
1789666835503307800,4.606307861328125,3.879889715000987,-1.2577335779562593,-1.6054731027849019
1789666835513259800,4.616259765625,1.8950170437544582,-0.7029270275756716,-2.1028457013286648
1789666835523212000,4.6262119140625,0.1936538556188345,-0.161277334279567,-2.696390124773979
1789666835533162800,4.636162841796875,-1.066665939438343,0.31188889763802286,-3.2807705601632593
1789666835543115000,4.646114990234375,-1.740203498661518,0.676003072553873,-3.797734578883648
1789666835553067000,4.65606689453125,-1.934507342621684,0.8861749322533607,-4.181173924255371
1789666835563018800,4.666018798828125,-1.8182506149381399,0.9180325442850589,-4.365061588141322
1789666835572970000,4.675969970703125,-1.578272230517864,0.8533478906676173,-4.341157565462589
1789666835582921700,4.685921630859375,-1.3564268841594458,0.6416910531073808,-4.164991143478453
1789666835592873700,4.695873779296875,-1.2664239571511744,0.30739129395782944,-3.8817251137346025
1789666835602826000,4.705825927734375,-1.3776152181386947,-0.0511190696015954,-3.524017883251607
1789666835612776700,4.715776611328125,-1.6677169391214846,-0.37110271862894295,-3.137678432524204
1789666835622728700,4.725728759765625,-2.0422306352376935,-0.5960121287330985,-2.7952342376247046
1789666835632681000,4.735680908203125,-2.4397388379722833,-0.782914464265108,-2.5183763213574886
1789666835642633000,4.745633056640625,-2.794486341866851,-0.8976622486904263,-2.3498227124646305
1789666835652584000,4.755583984375,-3.085529143092036,-0.9416884374216198,-2.2167850919805465
1789666835662536000,4.765535888671875,-3.2609745573252438,-0.9657985040664673,-1.9797632192783057
1789666835672487700,4.77548779296875,-3.3491321487277745,-1.046354388293624,-1.6547217023395
1789666835682439700,4.785439697265625,-3.3494688333362337,-1.0922320501103997,-1.3332242877483367
1789666835692391000,4.795390869140625,-3.2652421516418455,-1.127276767745614,-1.0183825316540895
1789666835702342700,4.8053427734375,-3.064025751814246,-1.1209110321059823,-0.7865249098472297
1789666835712295000,4.815294921875,-2.810584074708819,-1.1075830562382936,-0.6071328038148581
1789666835722246000,4.825245849609375,-2.585492878296971,-1.0521417395234107,-0.483201595980674
1789666835732198000,4.835197998046875,-2.4168571440786124,-0.9814224819168448,-0.35396745943278074
1789666835742150000,4.84514990234375,-2.2442314634412526,-0.906452581128478,-0.20939415332525968
1789666835752102000,4.855101806640625,-2.064448312264681,-0.7983391201511025,-0.05375219458416104
1789666835762052900,4.865052978515625,-1.9439432794868945,-0.682347765405476,0.08506415543183683
1789666835772004900,4.8750048828125,-1.8116168760120868,-0.5346387916207314,0.21127076085209845
1789666835781956900,4.884956787109375,-1.6578239061385391,-0.3715250356942415,0.4007908776670694
1789666835791908900,4.894908935546875,-1.46386200748384,-0.20668694019317627,0.664877429036051
1789666835801859800,4.90485986328125,-1.2624018620282411,-0.050283495560288424,1.019049471130222
1789666835811811800,4.914811767578125,-1.1195564026266336,0.06408581094145774,1.3918015644013881
1789666835821763800,4.924763916015625,-1.1014052443861961,0.24884324339926242,1.7587879337526857
1789666835831715800,4.9347158203125,-1.0456780964672565,0.5752157166808843,2.186004899922013
1789666835841666800,4.944666748046875,-0.9776736507773399,0.9083326957866549,2.500624099306762
1789666835851618800,4.954618896484375,-0.9510440025269985,1.2166874279491602,2.593356451278925
1789666835861570800,4.96457080078125,-0.7262544194102287,1.520522636860609,2.6109756945997473
1789666835871522000,4.97452197265625,-0.4542155938625335,1.813655542232841,2.5027882916033266
1789666835881473800,4.984473876953125,-0.14411036477088926,2.03287477787137,2.2758768940269944
1789666835891425000,4.994425048828125,0.33354280330240726,2.2105137566260993,2.1359715797305108
1789666835901377000,5.004376953125,0.9454039508134127,2.350333730726689,2.1538145488046108
1789666835911328000,5.014327880859375,1.6818980246871709,2.385653465911001,2.350802371151745
1789666835921280300,5.0242802734375,2.5525574079006907,2.2839945879004895,2.7396178566038607
1789666835931232000,5.03423193359375,3.459528459945321,2.189464684987068,3.1639076832801103
1789666835941184000,5.04418408203125,4.263227353563905,2.1878598801389337,3.5581375949963925
1789666835951135200,5.05413525390625,5.150598217603564,2.261553915772587,3.7651007217824457
1789666835961087000,5.0640869140625,5.814282491332293,2.2253524293176827,3.61639601495862
1789666835971039000,5.0740390625,5.992011632588506,2.0045891791075467,3.2742920117989183
1789666835980991200,5.0839912109375,5.899384786817431,1.763875320019573,3.069723378933966
1789666835990942000,5.09394189453125,5.759951766207814,1.486516030101478,2.991372895796597
1789666836000894000,5.10389404296875,5.701744491910934,1.174910625579953,2.9646330651700494
1789666836010846200,5.11384619140625,5.791220764696598,0.9054751143984496,3.001573679554462
1789666836020797000,5.123796875,5.858101759314537,0.6571564793951808,3.078800127097964
1789666836030749200,5.133749267578125,5.809183706888557,0.41986616501510143,3.0335376745700833
1789666836040701200,5.143701171875,5.479345018801093,0.1405306065879762,2.9410633890122173
1789666836050653000,5.15365283203125,4.8646425103843205,-0.15863631825149058,2.7859862245470284
1789666836060604200,5.163604248046875,3.9762084010273218,-0.400821565066278,2.6949025165647265
1789666836070556200,5.17355615234375,2.8612410797566175,-0.5413303982138633,2.651333716212213
1789666836080508000,5.1835078125,1.7913164307832716,-0.5743205214068293,2.609484286998212
1789666836090460200,5.193460205078125,0.9104933809518814,-0.539601236333698,2.4458333554551004
1789666836100411100,5.2034111328125,0.295982011193037,-0.5181719332054258,2.1705022103637455
1789666836110363000,5.21336279296875,-0.09604396073818207,-0.5085625394694507,1.9025085685536265
1789666836120315100,5.223315185546875,-0.2654138544499874,-0.47588995779305693,1.6148196078009902
1789666836130265900,5.233265869140625,-0.31317338449060916,-0.49339171221405265,1.3067068677008151
1789666836140218000,5.243218017578125,-0.3199462396264076,-0.5884872861862183,1.0130786530923097
1789666836150170000,5.253170166015625,-0.3123135527908802,-0.7143123449429869,0.7450055163051933
1789666836160122000,5.2631220703125,-0.3097375648230314,-0.8733853010460734,0.5031717863418161
1789666836170073000,5.273072998046875,-0.32491526021063327,-1.084920558053255,0.3525745803022757
1789666836180025000,5.283025146484375,-0.3593821779578924,-1.354318805964291,0.28455552156511693
1789666836189977000,5.29297705078125,-0.43625908141136166,-1.5852806479752062,0.3368118881009519
1789666836199929000,5.30292919921875,-0.571020018556714,-1.8348229795545339,0.44812761571835724
1789666836209880000,5.312880126953125,-0.8169166871100664,-2.0777724887400866,0.524729501622729
1789666836219832000,5.32283203125,-1.1641600989848375,-2.282373562569916,0.5805606579054147
1789666836229784000,5.3327841796875,-1.5645651922047137,-2.395579670511186,0.6182728411842138
1789666836239736000,5.342736083984375,-1.902158732202649,-2.4719921713232993,0.6168154089175164
1789666836249687000,5.35268701171875,-2.2325988933146,-2.5428058292150495,0.6109399044802412
1789666836259639000,5.36263916015625,-2.562934425008297,-2.5906907392010092,0.5819618664728478
1789666836269591000,5.372591064453125,-2.877549825000763,-2.6050463045507666,0.5899842467457056
1789666836279542000,5.3825419921875,-3.178635881334543,-2.584974699641764,0.6039505935821682
1789666836289494000,5.392493896484375,-3.4276018743306396,-2.5183316054329277,0.5756175754800439
1789666836299446000,5.402446044921875,-3.6675358350872993,-2.472932082521915,0.5411156960172578
1789666836309398300,5.412398193359375,-3.8374943423420187,-2.422875965976715,0.49372182095125317
1789666836319349000,5.422348876953125,-3.9179251388847827,-2.3407640844792126,0.4752754060912877
1789666836329301000,5.432301025390625,-3.9732004513829944,-2.267004144002497,0.49635406915098423
1789666836339253000,5.4422529296875,-3.928338396349549,-2.3058646205335855,0.4155882685001939
1789666836349205000,5.452205078125,-3.743005794352293,-2.2812331603631377,0.4491080781230703
1789666836359156200,5.46215625,-3.438010455620289,-2.243654832597077,0.5847703480223193
1789666836369108000,5.47210791015625,-3.0931220824390646,-2.348740470185876,0.6799301098044961
1789666836379060000,5.48206005859375,-2.7961370316833256,-2.5408158244416117,0.8156377532154321
1789666836389012200,5.49201220703125,-2.582352826705575,-2.6125956970170137,0.9768607269592583
1789666836398963000,5.501962890625,-2.5122248129904268,-2.5558666785791515,1.1615491127688438
1789666836408915000,5.5119150390625,-2.498572719734907,-2.4877833224341273,1.2740664347283541
1789666836418867200,5.5218671875,-2.5202093820035456,-2.3564342395588755,1.2937921488091348
1789666836428818000,5.53181787109375,-2.512482002621889,-2.143924876822531,1.2405977342382073
1789666836438770200,5.541770263671875,-2.3928555062443015,-1.9012045002177356,1.1347914542246609
1789666836448722200,5.55172216796875,-2.2289830409049984,-1.683018845410645,0.9803563870552927
1789666836458674000,5.561673828125,-2.077242327386141,-1.5137351686775684,0.7271806674096732
1789666836468625200,5.571625244140625,-1.8507529546141623,-1.376111535577476,0.5071922009643167
1789666836478577200,5.5815771484375,-1.3977011438339948,-1.1537433343887329,0.3260541280474514
1789666836488529000,5.59152880859375,-0.7487696180790663,-1.0751409223169088,0.12821063871905206
1789666836498481200,5.601481201171875,0.31223931851089,-1.0394000391110778,0.008229995141550898
1789666836508432100,5.61143212890625,1.6911147658437489,-1.0517071474984288,-0.010450959126651286
1789666836518383900,5.6213837890625,3.1476743413597346,-1.2140949272379278,-0.148873195258528
1789666836528336100,5.631336181640625,4.724949377533793,-1.1399527094453572,-0.4043584339555353
1789666836538288000,5.6412880859375,6.333642465278506,-0.7341349435269832,-0.8203296373587101
1789666836548239000,5.651239013671875,7.636181691905856,-0.23228198469877243,-1.3591639079079032
1789666836558191000,5.661191162109375,8.65181828585267,0.27430910856723784,-1.8895631622627376
1789666836568143000,5.67114306640625,9.1150115514189,0.7588239791035651,-2.3961967794962225
1789666836578094000,5.681093994140625,8.904372074207663,1.1131405442349611,-2.826565779955685
1789666836588046000,5.691046142578125,8.340449904957413,1.383702867489308,-3.1989564925685525
1789666836597998000,5.700998046875,7.830480275169014,1.6264970399826764,-3.4123914457172155
1789666836607950000,5.7109501953125,7.689511715555191,1.745761132788658,-3.3940634696051477
1789666836617901000,5.720901123046875,7.937995477992295,1.646419591809809,-3.2433132284283634
1789666836627853000,5.73085302734375,8.024078016686438,1.3255312490276991,-3.0526307898357508
1789666836637805000,5.74080517578125,7.750095655855536,1.0079121371746063,-2.7712138950899243
1789666836647757000,5.750757080078125,7.02314623991847,0.6888498407758772,-2.5211820264279843
1789666836657708300,5.760708251953125,5.825517002052068,0.3656944298446178,-2.363804329935461
1789666836667660000,5.770659912109375,4.419817845201492,0.1225495442174375,-2.2777761517770587
1789666836677612000,5.780612060546875,2.9486645116657018,-0.010586422074586153,-2.3537612209573386
1789666836687564000,5.79056396484375,1.4532827458024025,-0.06401391474902629,-2.5560803213298318
1789666836697515000,5.800514892578125,-0.0749456431299448,-0.029815584810078143,-2.7514503332167863
1789666836707467000,5.810467041015625,-1.3607944317191838,0.11370178250372409,-2.8107573854491115
1789666836717419300,5.820419189453125,-2.32575531591773,0.2480357264086604,-2.8515853626608845
1789666836727370000,5.830369873046875,-2.9765748473763463,0.3865200679913163,-2.8399510389685627
1789666836737322000,5.840322021484375,-3.348523661440611,0.402755455738306,-2.894543629899621
1789666836747274200,5.850274169921875,-3.50839390540123,0.30565847881585356,-2.9699276644468307
1789666836757226000,5.86022607421875,-3.446477255192399,0.20761983712911605,-2.938860326009989
1789666836767177200,5.87017724609375,-3.1464228799939153,0.039783144333958624,-2.799228567957878
1789666836777129200,5.880129150390625,-2.7711241709798573,-0.20528847157210112,-2.6390122870385646
1789666836787081000,5.8900810546875,-2.4936855322152374,-0.4922463415712118,-2.513352940237522
1789666836797033000,5.900032958984375,-2.2315040838152167,-0.7781427198186517,-2.3647211525194347
1789666836806984000,5.90998388671875,-1.9858195967078207,-1.0759268119975924,-2.163836614994705
1789666836816936000,5.91993603515625,-1.8919921429753301,-1.3193018531188367,-1.8866098654150962
1789666836826888200,5.92988818359375,-1.940861680084467,-1.536901232470572,-1.5951844946131108
1789666836836839000,5.9398388671875,-2.0996096420168877,-1.7247507857248185,-1.3559003760673105
1789666836846791000,5.949791015625,-2.377895837521553,-1.8484703966349363,-1.1260139812681824
1789666836856743200,5.9597431640625,-2.641566063174605,-1.9108613863572477,-0.9245546395301818
1789666836866695200,5.969695068359375,-2.875902642315626,-1.9465397257208823,-0.7031554295040666
1789666836876646100,5.979646240234375,-3.065103610178828,-1.9787159021824596,-0.48856546110138294
1789666836886598700,5.9895986328125,-3.184502143019438,-2.031640267640352,-0.3268099879160523
1789666836896550700,5.999550537109375,-3.241979349476099,-2.043736948147416,-0.1807549188181758
1789666836906502400,6.00950244140625,-3.292889452502131,-2.026398275333643,-0.0529687891215086
1789666836916453600,6.01945361328125,-3.3086633602172135,-2.017259567849338,0.08635638719946145
1789666836926405600,6.029405517578125,-3.326226489436626,-2.0062059666544196,0.30228776027373966
1789666836936357400,6.039357421875,-3.2275720539391037,-1.9218539050146937,0.5245037665754556
1789666836946309600,6.0493095703125,-3.125000737258792,-1.8543012947455046,0.7329011639483273
1789666836956260400,6.05926025390625,-3.026089696651697,-1.826001082934439,0.9275970759660005
1789666836966212600,6.069212646484375,-2.9095705186396836,-1.8566145401239393,1.0856726915948092
1789666836976164600,6.07916455078125,-2.8059488161236046,-1.8268904329895972,1.2951111224532126
1789666836986115300,6.089115234375,-2.6592729847788807,-1.70842012090981,1.589956530831754
1789666836996067600,6.099067626953125,-2.4270342546999455,-1.5364076037347316,1.8338206706441937
1789666837006019600,6.10901953125,-2.1542139233857394,-1.2984049033015965,2.0192235613986846
1789666837015971600,6.1189716796875,-1.988326026570797,-1.04299543325454,2.1439710540518164
1789666837025922600,6.128922607421875,-1.9971932236373424,-0.7956269385829567,2.259958463274687
1789666837035874600,6.13887451171875,-2.129946912613511,-0.4633338430806994,2.3857025657497344
1789666837045826600,6.14882666015625,-2.2601462409317494,-0.05124006563276052,2.426953736809641
1789666837055778600,6.158778564453125,-2.2084324203073975,0.37508448174148795,2.393124824704975
1789666837065729500,6.1687294921875,-1.9216659812271595,0.6945289093255996,2.301569992079586
1789666837075681500,6.178681640625,-1.2227245161563158,1.0249924513131379,2.3110601433500646
1789666837085633500,6.188633544921875,-0.19877134476304054,1.3587018433541058,2.47850929813236
1789666837095585500,6.19858544921875,1.0283797556638716,1.5777397310763597,2.7292893548130985
1789666837105536500,6.20853662109375,2.2989696003228426,1.690126339328289,3.021391601963341
1789666837115488500,6.218488525390625,3.3293764779001473,1.7718536054223775,3.448220883989334
1789666837125440500,6.2284404296875,4.22261477266848,1.8785180366352199,3.864106162674725
1789666837135391500,6.2383916015625,5.00360557539463,2.0292320374548436,4.1898558278828855
1789666837145343500,6.248343505859375,5.641127818384766,2.1171984901994465,4.344735131688416
1789666837155295500,6.25829541015625,6.113915426248312,2.0966411476001143,4.389427967634797
1789666837165247700,6.268247802734375,6.468510369929671,2.0916350098758936,4.3341234290421005
1789666837175198500,6.278198486328125,6.6443024056434625,2.056881384141743,4.171032469469308
1789666837185150700,6.288150634765625,6.683321579867601,1.9448422741532325,3.8031168564438818
1789666837195102500,6.2981025390625,6.612102263784408,1.7698299906402826,3.3040380385041237
1789666837205054500,6.308054443359375,6.5005199576526875,1.6226152301132677,2.8240128806024787
1789666837215005700,6.318005615234375,6.334211789599061,1.3658198586657642,2.3401474138855933
1789666837224957400,6.32795751953125,6.070394264429807,0.9913324660345911,1.9503864642769098
1789666837234909400,6.337909423828125,5.6887967475324865,0.6051660337865352,1.7415417615279554
1789666837244860700,6.347860595703125,5.107404972565174,0.22731764028966425,1.658728746023774
1789666837254812400,6.3578125,4.212800065618753,-0.11967822656482457,1.576855057196319
1789666837264764700,6.3677646484375,3.088986590069532,-0.33793957695662974,1.4223217903494834
1789666837274716700,6.377716552734375,1.8010282619804143,-0.40631402500271796,1.3128051845759152
1789666837284667400,6.38766748046875,0.6066776073932647,-0.4224979748234153,1.2346218746989965
1789666837294619600,6.39761962890625,-0.3567997602492571,-0.39825288362205025,1.0927248020634055
1789666837304571600,6.407571533203125,-1.0517898573458193,-0.3813055482134223,0.91242610258013
1789666837314523400,6.4175234375,-1.500665843746066,-0.35074528251588344,0.7263041768360883
1789666837324474600,6.427474609375,-1.7583038034975527,-0.34509763201773164,0.5732117564473301
1789666837334426600,6.437426513671875,-1.88967977437973,-0.31240240011811254,0.47793235034085807
1789666837344378400,6.44737841796875,-1.9630244120538234,-0.31395985869318244,0.3203073280237615
1789666837354330600,6.45733056640625,-1.993734607616067,-0.32307810791134833,0.17000205413550137
1789666837364281600,6.467281494140625,-1.9855776046454905,-0.41813305761218067,0.08841748444773256
1789666837374233600,6.477233642578125,-1.9468857626795768,-0.5694704510271549,0.061596149550192054
1789666837384185600,6.487185546875,-1.7951824585616587,-0.6940706441640854,-0.005603555628098547
1789666837394136600,6.497136474609375,-1.5860171455562113,-0.8304322945043444,-0.007477459741197526
1789666837404088600,6.507088623046875,-1.4618249486982822,-0.9869976517006754,0.00046412864672020073
1789666837414040600,6.51704052734375,-1.4072142375886438,-1.1185761594176291,0.10073574441676028
1789666837423992600,6.52699267578125,-1.4211591763108968,-1.2685875649258493,0.24830825973972676
1789666837433943600,6.536943603515625,-1.4593658651083707,-1.3985124602168797,0.4119862984854728
1789666837443895600,6.5468955078125,-1.5018044923871754,-1.5449495143696665,0.5239194638814777
1789666837453847600,6.55684765625,-1.5474036295235156,-1.672093546770513,0.5567014242164791
1789666837463799600,6.566799560546875,-1.5988462319910526,-1.736764756384492,0.5366736584492028
1789666837473750500,6.57675048828125,-1.6552648693054914,-1.7708277695059775,0.4261052055351436
1789666837483702800,6.586702880859375,-1.839457069095969,-1.7644070888087153,0.27942608625479043
1789666837493654500,6.596654541015625,-2.03531866389215,-1.7551655054718256,0.18731939190030097
1789666837503605500,6.60660546875,-2.242738594534993,-1.7461793582007288,0.15101312989667057
1789666837513557800,6.616557861328125,-2.4014777886390686,-1.687133002731204,0.15407850881665944
1789666837523509500,6.626509521484375,-2.4831588775038718,-1.628855293546617,0.18118286190666258
1789666837533461500,6.63646142578125,-2.535908470916748,-1.6396952519908548,0.14130809376649558
1789666837543412500,6.64641259765625,-2.5464275268435475,-1.7024547827646135,0.14994491614326833
1789666837553364500,6.656364501953125,-2.5475860492289066,-1.7929150981515645,0.22376210323255508
1789666837563316500,6.66631640625,-2.5662024868935345,-1.8748308725550769,0.341461175211519
1789666837573268700,6.676268798828125,-2.5747370910048484,-1.9916092860251664,0.4680594833631068
1789666837583219500,6.686219482421875,-2.5937656166017056,-2.070544875574112,0.5749278396502137
1789666837593171700,6.696171630859375,-2.573635267242789,-2.0721616631209847,0.707222240551561
1789666837603123700,6.706123779296875,-2.531499422302842,-2.0171151909425853,0.82849409298338
1789666837613075500,6.716075439453125,-2.5345570563077926,-1.9131895370438694,0.9501504877533763
1789666837623026700,6.726026611328125,-2.647726339370012,-1.6935656661272047,1.0504639425043016
1789666837632978700,6.735978759765625,-2.807645098647475,-1.4360314590111374,1.0730306521646678
1789666837642930400,6.745930419921875,-2.9225562569409607,-1.1085735285803675,0.969743442299962
1789666837652881700,6.755881591796875,-2.901989854252338,-0.7737967995688319,0.7393504862181842
1789666837662833400,6.76583349609375,-2.7497078734636307,-0.5009852360829711,0.4933112673889845
1789666837672785400,6.775785400390625,-2.370999063745141,-0.4202925737336278,0.2699249751988798
1789666837682737700,6.785737548828125,-1.7423177143365143,-0.633330051997304,0.2207121045447886
1789666837692688400,6.7956884765625,-0.4985708684176206,-1.0172335077494383,0.5818558853477239
1789666837702640600,6.805640625,1.333154729643464,-1.2236942379713058,1.3149962648794054
1789666837712592600,6.815592529296875,3.3921780942499637,-1.4638462253928184,1.8667562871709464
1789666837722544600,6.825544677734375,5.063703193482756,-1.8354694607645272,1.9856518389254807
1789666837732495600,6.83549560546875,5.754741338083147,-1.9218240943983196,1.8182348328471183
1789666837742447600,6.845447509765625,5.5808893305212255,-1.5726692959442734,1.533036665996909
1789666837752399400,6.8553994140625,4.85479740819633,-0.8332815464556217,1.083203671132773
1789666837762350600,6.8653505859375,4.0932600784808395,-0.017843115204572678,0.34153803984001274
1789666837772302600,6.875302490234375,3.5541590467542408,0.7289587099328637,-0.6078136256858706
1789666837782254300,6.88525439453125,3.4782296532839534,1.3619266506195067,-1.5152445503272116
1789666837792206600,6.89520654296875,3.85289649413526,1.8405597696408629,-2.194794647838175
1789666837802157600,6.905157470703125,4.772862052309513,2.013807381568849,-2.566858028192818
1789666837812109600,6.915109619140625,5.989178454989195,1.794514350041747,-2.598154791471362
1789666837822061600,6.9250615234375,6.889112448003888,1.3207443070121108,-2.3496362499818204
1789666837832013600,6.935013671875,7.325641578528285,0.8775754462122917,-1.854284051349759
1789666837841964500,6.944964599609375,7.10317254731357,0.45821226228326556,-1.487609816687554
1789666837851916500,6.95491650390625,6.147364106863737,0.14909838231652975,-1.3679948646172881
1789666837861868500,6.96486865234375,4.858901336383819,0.09941679817214608,-1.3545425317175686
1789666837871819500,6.974819580078125,3.4001381133437154,0.26611908010989427,-1.591298739220947
1789666837881771500,6.984771484375,1.8926947382867336,0.548592352040857,-2.126068171484023
1789666837891722800,6.99472265625,0.58978960095644,0.7905233318336308,-2.762167249803245
1789666837901674800,7.0046748046875,-0.3870984524011612,1.1365699351392686,-3.39638080663681
1789666837911625700,7.014625732421875,-1.1020160697609185,1.4470879828155039,-3.867741012045741
1789666837921577700,7.02457763671875,-1.4863585014522074,1.5931974124491213,-4.18350675111711
1789666837931529700,7.03452978515625,-1.5610662441730498,1.605303737567365,-4.306722796419263
1789666837941481500,7.0444814453125,-1.4648124400764704,1.4115414531379937,-4.26297425558567
1789666837951432700,7.0544326171875,-1.191703354948759,1.141875786462426,-4.02225820454061
1789666837961384700,7.064384765625,-0.7352583945989608,0.7568097166717052,-3.648004036143422
1789666837971336700,7.074336669921875,-0.3038689650505781,0.2121121801123023,-3.307638108822703
1789666837981288700,7.084288818359375,0.048562078595161436,-0.3149289959862828,-2.964190289838612
1789666837991239700,7.09423974609375,0.3537175763249397,-0.7081701889261603,-2.5853116765111683
1789666838001191700,7.104191650390625,0.5565250447362661,-1.0247978055238722,-2.2049577299341556
1789666838011143700,7.114143798828125,0.5321884758591652,-1.3570759957179426,-1.8889355318836867
1789666838021095000,7.124094970703125,0.30885961294472214,-1.6292828713089227,-1.62893814952448
1789666838031046700,7.134046630859375,-0.1891045217514038,-1.7788550086170434,-1.3715474425323306
1789666838040998700,7.14399853515625,-0.9197159673273563,-1.841089054211974,-1.1111579921156167
1789666838050950700,7.15395068359375,-1.7020540930092334,-1.8224384220167993,-0.8678412570528685
1789666838060901600,7.163901611328125,-2.383798339563608,-1.7171256976738571,-0.7238286535680294
1789666838070853600,7.173853515625,-2.909754058513045,-1.5781541570961475,-0.6323465939179063
1789666838080806000,7.183805908203125,-3.29787133256793,-1.4202216031998396,-0.6035812488131225
1789666838090756600,7.193756591796875,-3.517237137070298,-1.2635571695432066,-0.5982035012975335
1789666838100708600,7.20370849609375,-3.6025054367721077,-1.1457894527748227,-0.5843123385891318
1789666838110660900,7.213660888671875,-3.548804826244712,-0.9675698976531624,-0.5091385857917368
1789666838120612600,7.223612548828125,-3.494178333044052,-0.8391746961474418,-0.42189913214743135
1789666838130563800,7.233563720703125,-3.3571944591522214,-0.7221326633051037,-0.27011531013920903
1789666838140515800,7.243515869140625,-3.1685213145554063,-0.6449874643042683,-0.008912059121578931
1789666838150467600,7.253467529296875,-2.896712206110358,-0.6213277717754244,0.27051848411262036
1789666838160419600,7.263419677734375,-2.583203306055069,-0.64702656891644,0.5327656912252307
1789666838170370600,7.27337060546875,-2.272228308391571,-0.6395353363782167,0.7210076047979295
1789666838180322600,7.283322509765625,-1.9948603967756031,-0.5343196426689625,0.8971868862636386
1789666838190274800,7.29327490234375,-1.6838193481385706,-0.38289983166754243,1.0643389577955007
1789666838200226800,7.303226806640625,-1.35285662445724,-0.15367138932049274,1.1484406979359685
1789666838210177500,7.313177490234375,-1.0167150368332862,0.0975955740943551,1.1275943092621863
1789666838220129800,7.3231298828125,-0.7160293779939413,0.3961304846405983,1.0629910503178834
1789666838230081800,7.333081787109375,-0.39787703604698177,0.6689020083770155,1.045034683997184
1789666838240032800,7.34303271484375,0.00720306324660778,0.9464511217787861,1.09959337265864
1789666838249984800,7.35298486328125,0.4912953244566917,1.2181877495095133,1.158080779071152
1789666838259936500,7.3629365234375,0.9783949507892131,1.3837091510996222,1.224265461988002
1789666838269888500,7.372888427734375,1.3826070350766182,1.4982213732033967,1.26967258368358
1789666838279839700,7.38283984375,1.5427169330120085,1.6753244915157555,1.3662069582872092
1789666838289791500,7.39279150390625,1.4947767857074736,1.8664611036166547,1.5822870191171765
1789666838299743700,7.40274365234375,1.3129764494895935,2.012925045776367,1.7530683870621024
1789666838309695700,7.41269580078125,1.1182616866409778,2.0760995870918033,2.010379745207727
1789666838319646700,7.422646728515625,0.9600351182341575,2.100705912820995,2.338328089503944
1789666838329598700,7.4325986328125,0.8224772438466549,2.148812064342201,2.667044495563209
1789666838339550700,7.44255078125,0.7544184376209974,2.3321917787060142,2.9451097417935728
1789666838349501700,7.452501708984375,0.8826526033461093,2.579046186375618,3.1278619719088074
1789666838359453700,7.46245361328125,1.3108254089355469,2.7175293589144944,3.138979870511591
1789666838369405700,7.47240576171875,2.036038210338354,2.643056009471416,3.096441582250595
1789666838379357700,7.482357666015625,3.0457220333606,2.330615907691419,3.037451048621535
1789666838389308700,7.49230859375,4.1840515255182975,1.8197566355869172,2.981133241333067
1789666838399260700,7.5022607421875,5.373321515840292,1.151588056050986,2.988231382900476
1789666838409212700,7.512212646484375,6.45224897095859,0.3412538160711527,2.897049475240707
1789666838419164700,7.52216455078125,6.929384252637624,-0.42593014122918244,2.860990319865942
1789666838429115600,7.53211572265625,6.7160840317845345,-1.068155155082792,2.959005872938037
1789666838439067600,7.542067626953125,6.006358722370862,-1.4956433394089341,3.1183488781541584
1789666838449019600,7.55201953125,4.857330141544342,-1.6889048347093163,3.1891946847498414
1789666838458971000,7.561970947265625,3.380746599653363,-1.683563035289943,3.0900322997301815
1789666838468922600,7.571922607421875,1.9054443297445773,-1.4579130359515546,2.779638024564087
1789666838478874600,7.58187451171875,0.5910679503291845,-1.093979186038673,2.317635430087149
1789666838488826600,7.59182666015625,-0.3674246146380901,-0.7698433857679366,1.783792465019226
1789666838498777600,7.601777587890625,-0.9355471581876278,-0.5371089811265468,1.256824792548269
1789666838508729600,7.6117294921875,-1.1828794125020503,-0.3218415518537164,0.8533686411947011
1789666838518681900,7.621681884765625,-1.249210956543684,-0.14821867687255144,0.5067812090106308
1789666838528633600,7.631633544921875,-1.1628683056086302,-0.08399491876512766,0.18886881329938768
1789666838538584800,7.641584716796875,-1.0513181481808422,-0.08567951085120439,-0.005636544582247734
1789666838548536800,7.651536865234375,-0.9678367318958043,-0.16204729573875665,-0.09203779383674264
1789666838558488600,7.661488525390625,-0.9460299737572669,-0.35204759728610513,-0.08391367022246121
1789666838568439800,7.671439697265625,-0.9566700257152319,-0.6252198107779026,0.00298544555157423
1789666838578391800,7.681391845703125,-1.0179606529802083,-0.93521661105901,0.1253436319153756
1789666838588343600,7.691343505859375,-1.079236082676053,-1.2172960613667965,0.21946049704849718
1789666838598295800,7.7012958984375,-1.1440893708586692,-1.4730907313391566,0.30721389156430956
1789666838608246800,7.711246826171875,-1.2763275115281343,-1.690097990016639,0.36117490659356116
1789666838618198500,7.721198486328125,-1.4719874462723732,-1.8798130448818207,0.4028120082311332
1789666838628150800,7.73115087890625,-1.7184288892269133,-2.015963098298013,0.4360192813061177
1789666838638102800,7.741102783203125,-1.9669243421018123,-2.0792402232050895,0.39932058591879904
1789666838648053800,7.7510537109375,-2.230786290934682,-2.1284929144129157,0.3016943974904716
1789666838658005800,7.761005859375,-2.5393840380728245,-2.1680559862554074,0.21931575481556354
1789666838667957800,7.770957763671875,-2.923646390265226,-2.146140214784443,0.2162997679952532
1789666838677908700,7.78090869140625,-3.321730347061157,-2.153022667774558,0.34718298692442473
1789666838687860700,7.79086083984375,-3.7150001815736293,-2.1568755438104272,0.48738662658035753
1789666838697812700,7.800812744140625,-4.0691070494771004,-2.097643018119037,0.5515318395588547
1789666838707764700,7.8107646484375,-4.366019619518518,-2.0098431541129944,0.5738732160307467
1789666838717715700,7.8207158203125,-4.548141442775726,-1.9407310394421218,0.5441208326499909
1789666838727667500,7.83066748046875,-4.636573759466409,-1.8066700672596692,0.5313882653921842
1789666838737619700,7.84061962890625,-4.639849420136213,-1.6385706318750977,0.558656796067953
1789666838747571700,7.85057177734375,-4.525635596457123,-1.5215937732234597,0.6094513098903
1789666838757522700,7.860522705078125,-4.259333268734813,-1.4495172557890414,0.6353200567707419
1789666838767474700,7.870474609375,-3.8442403094708917,-1.3571347401678562,0.685590619784221
1789666838777426700,7.8804267578125,-3.3661779760748147,-1.3776760084152222,0.7010651061613112
1789666838787378700,7.890378662109375,-2.8012726410061117,-1.3940055041864514,0.6730036715421825
1789666838797329700,7.90032958984375,-2.312100300052762,-1.3215139762103556,0.6853960470601916
1789666838807281700,7.91028173828125,-1.921323451399803,-1.2060296942040323,0.6984250399813056
1789666838817234000,7.92023388671875,-1.5870447350382804,-1.0399415986418723,0.7374639418192207
1789666838827184600,7.9301845703125,-1.3698124354332684,-0.9379311307147145,0.6385897260911763
1789666838837136600,7.94013671875,-1.1789151850461959,-0.8013672358006239,0.5157434639494866
1789666838847088600,7.950088623046875,-0.7989403009146452,-0.6110027771160006,0.37711438013389703
1789666838857040600,7.96004052734375,-0.26499066060185433,-0.4238727703079581,0.11740312123969196
1789666838866991900,7.969991943359375,0.35849662729501725,-0.2814101727440953,-0.26961612844541666
1789666838876943600,7.979943603515625,1.0886679278880358,-0.14008125538527966,-0.5992391279555856
1789666838886896600,7.989896728515625,1.99706696690917,-0.012677110743522643,-0.7270984690189362
1789666838896847600,7.99984765625,3.025343262198567,0.10548486603945494,-0.610578706485033
1789666838906799900,8.0097998046875,4.13512821239531,0.1190580488398671,-0.43271702489033337
1789666838916751600,8.019751708984375,5.102847455391288,-0.03191051126271486,-0.23190336064472794
1789666838926703600,8.02970361328125,5.718942879471182,-0.17283055555969476,-0.04665288397297263
1789666838936654600,8.039654541015626,5.966805295139551,-0.12697159844338893,0.02641790519580245
1789666838946606600,8.049606689453125,5.787024482050538,0.018676935680210588,-0.13885390554741023
1789666838956558600,8.05955859375,5.465507047584652,0.18733020555526017,-0.48864554060027
1789666838966510800,8.0695107421875,5.160697586813569,0.49469592668041584,-0.8918347115807235
1789666838976461600,8.079461669921875,5.121459801402688,0.7654103717565536,-1.3740749151833354
1789666838986413800,8.089413818359375,5.354930703625083,0.9240181945659219,-1.822963030412793
1789666838996365800,8.09936572265625,5.792362920469046,0.8561345987766981,-2.0924365355171264
1789666839006316500,8.109316650390625,6.264676481080055,0.5240959164269268,-2.1927247096963227
1789666839016268800,8.119268798828125,6.593865180826187,0.007541939812153577,-1.9829288437023758
1789666839026220800,8.129220703125,6.681211455845832,-0.5514519792556762,-1.6521651497244834
1789666839036172500,8.139172607421875,6.391034916061162,-1.0619881568856537,-1.4058940949007868
1789666839046123800,8.149123779296875,5.687126768493652,-1.4876932571873067,-1.3539017495959997
1789666839056075500,8.159075439453124,4.551225380265713,-1.7489549603939056,-1.4752128380596636
1789666839066027500,8.169027587890625,3.2464059337466953,-1.7664882789969443,-1.68970460678488
1789666839075979800,8.178979736328126,1.9035943179637194,-1.6360888980619608,-2.093033916888386
1789666839085930500,8.188930419921874,0.7334954765796661,-1.4352278875432907,-2.577327692019939
1789666839095882800,8.1988828125,-0.24844459947049616,-1.244815059672296,-2.955684035038948
1789666839105834800,8.208834716796876,-1.0637748941719531,-1.091397937373817,-3.1897184163630006
1789666839115785500,8.218785400390624,-1.7096879488885401,-1.0302002490893005,-3.2751156031414865
1789666839125737700,8.22873779296875,-2.189137937250733,-1.0073594717279075,-3.213173526230454
1789666839135689700,8.238689697265626,-2.4566543169379234,-1.021441480833292,-3.0422932279556987
1789666839145641700,8.248641845703125,-2.5560809058517218,-1.0689511277660726,-2.906110149052739
1789666839155592700,8.2585927734375,-2.5498709452956914,-1.179041734035313,-2.797880660480261
1789666839165544700,8.268544677734376,-2.434799043482542,-1.278577044020593,-2.6663775560870766
1789666839175496700,8.27849658203125,-2.271996837723255,-1.42185271153301,-2.4643068775177
1789666839185448700,8.28844873046875,-2.1695342421144246,-1.5328963807433842,-2.2389411019481718
1789666839195399700,8.298399658203126,-2.1428590011566877,-1.615984706057608,-2.0113721172459424
1789666839205351700,8.3083515625,-2.230968661764264,-1.6393655816450714,-1.8030993691660462
1789666839215303700,8.3183037109375,-2.4418846178293228,-1.6358341926485298,-1.6289834499709308
1789666839225254700,8.328254638671876,-2.769151409602165,-1.580073726981878,-1.4716129138715563
1789666839235206700,8.33820654296875,-3.1094752513468262,-1.4734709628283977,-1.2815341402605176
1789666839245158700,8.34815869140625,-3.379890275084972,-1.3625234474688768,-1.1479339174576102
1789666839255110700,8.358110595703126,-3.602753274053335,-1.2288240020751953,-1.050919796513021
1789666839265061600,8.3680615234375,-3.678457626596093,-1.073271621313691,-0.9431355674900114
1789666839275013600,8.378013671875,-3.6725726602107285,-0.8793065077885985,-0.848714824039489
1789666839284965600,8.387965576171876,-3.658874974247813,-0.7210469138950109,-0.846040344133228
1789666839294917600,8.397917724609375,-3.4990935776144263,-0.555628095896542,-0.8693598449222742
1789666839304868600,8.40786865234375,-3.2211797225534915,-0.36564182287454605,-0.8286626544833183
1789666839314820900,8.41782080078125,-2.8289281251728533,-0.22355185801535843,-0.661280719718337
1789666839324772600,8.427772705078125,-2.3734768520355223,-0.21227409267574548,-0.44341479838490483
1789666839334723600,8.4377236328125,-1.981462570542097,-0.24935440779179333,-0.10839710022434591
1789666839344675800,8.44767578125,-1.6344646578609943,-0.26575696879923344,0.16452362272441387
1789666839354627600,8.457627685546875,-1.2235165433168411,-0.28228929366618394,0.4079609154269099
1789666839364579600,8.46757958984375,-0.7633616225332022,-0.25577771883755923,0.6824946265302598
1789666839374530800,8.47753076171875,-0.3677957860380411,-0.11495967361032962,1.0042935082860291
1789666839384482600,8.487482666015625,-0.06893091288506985,0.07658025859445333,1.3826850687488912
1789666839394434800,8.497434814453126,0.1627840855807066,0.30613223380744453,1.7349473316989839
1789666839404386800,8.50738671875,0.3943307417422533,0.746472447052598,2.1737080206677315
1789666839414337500,8.517337646484375,0.7883768213242291,1.3555322734072803,2.5603631132155655
1789666839424289800,8.527289794921876,1.3477046485215425,1.9500094476580618,2.7590459029123187
1789666839434241800,8.53724169921875,2.106205387020111,2.3555624251604077,2.6482775435119867
1789666839444192800,8.54719287109375,3.040843613669276,2.608511058051884,2.3234977462492883
1789666839454144800,8.557144775390626,3.958402695223689,2.736976402184367,1.99200836834535
1789666839464096800,8.5670966796875,4.721988189640641,2.6992072280213235,1.7147860026799142
1789666839474048500,8.577048583984375,5.133777431184053,2.651074480754137,1.654147409582883
1789666839483999700,8.586999755859376,5.051812849202752,2.651114812764525,1.8398058825336396
1789666839493951700,8.59695166015625,4.575141093382239,2.6164152553051707,2.072607653322816
1789666839503903700,8.60690380859375,3.924770474734902,2.67870775308907,2.243364909739792
1789666839513855700,8.616855712890626,3.327807036626339,2.918736406391859,2.2222277214258908
1789666839523806500,8.626806396484374,2.8571026647776363,3.1213787473693486,2.0291312074288723
1789666839533758700,8.6367587890625,2.5563123765200375,3.3167709710881113,1.6251770434252917
1789666839543710700,8.646710693359376,2.3633669614315034,3.454576682756841,1.1392832857511936
1789666839553661700,8.65666162109375,2.3055174145311117,3.477152087180316,0.6761220958236605
1789666839563613700,8.66661376953125,2.51294669752419,3.328757761479914,0.45718211551792914
1789666839573565700,8.676565673828126,2.9800644430577754,3.03053235527426,0.5679689604230225
1789666839583517700,8.686517578125,3.4861972711622715,2.535350837033987,0.8099554697953164
1789666839593468700,8.69646875,3.9219501566171644,1.8512632422238586,1.2309184901364147
1789666839603420700,8.706420654296876,4.292309655663371,1.151008940988779,1.7115065426178275
1789666839613373000,8.716373046875,4.417444686329365,0.37433307885229583,1.9664590626776217
1789666839623324700,8.72632470703125,4.155602845147252,-0.3783826465040445,2.042297562994063
1789666839633275600,8.736275634765626,3.4991140358805652,-0.978988240507245,2.0573340963453055
1789666839643227600,8.7462275390625,2.5246616852372883,-1.3400818985581398,2.1220511909276247
1789666839653179600,8.7561796875,1.4225234504014252,-1.5029706135571002,2.105477949528396
1789666839663131000,8.766130859375,0.32228257361948487,-1.5119415632590651,1.9336948571950197
1789666839673082600,8.77608251953125,-0.6005734452992677,-1.3976470755591988,1.6981489022642373
1789666839683034600,8.78603466796875,-1.1650199306845663,-1.1876105326771735,1.4208601933643221
1789666839692986600,8.795986572265624,-1.489699628573656,-1.0002481784179806,1.1447635437931865
1789666839702937600,8.8059375,-1.633333023482561,-0.9430082878485322,0.9280001038089394
1789666839712889600,8.8158896484375,-1.7405875295430422,-0.9281099939242005,0.7925641900114715
1789666839722841900,8.825841796875,-1.8572224428892135,-0.9376657577767967,0.7658715595275163
1789666839732793600,8.835793701171875,-1.9517764573305845,-1.006489703156054,0.8356887537278235
1789666839742744600,8.84574462890625,-1.9600679003357886,-1.12116676043272,0.9176259362455457
1789666839752696800,8.85569677734375,-1.8874498233705759,-1.335803198325634,1.0301143974367528
1789666839762648600,8.865648681640625,-1.7214888613194226,-1.5940230496183037,1.1467151162523777
1789666839772599800,8.875599853515626,-1.5866384923249481,-1.865476184232533,1.2293413039475678
1789666839782551800,8.8855517578125,-1.4735960505127905,-2.1056226186960934,1.2156556737486273
1789666839792503600,8.895503662109375,-1.3782085078567266,-2.3186066132068635,1.1774692240215838
1789666839802455600,8.90545556640625,-1.3994056096643208,-2.4753484960138796,1.1041221751946955
1789666839812406800,8.91540673828125,-1.5602642801403999,-2.7356550904527306,1.0537538508951663
1789666839822358500,8.925358642578125,-1.796474251937866,-2.8467539969816804,0.8806986197341233
1789666839832310800,8.935310791015626,-2.0967659430235623,-2.8030788136452434,0.7816235476717353
1789666839842261800,8.94526171875,-2.423140754392743,-2.740679932877421,0.5953539936179295
1789666839852213500,8.955213623046875,-2.704242007318139,-2.6643340675607323,0.3928120808076113
1789666839862165800,8.965165771484376,-2.9468086546659467,-2.6263155948117376,0.2152317003723234
1789666839872117800,8.97511767578125,-3.14402750928998,-2.593409642770886,0.0829454097121954
1789666839882068700,8.98506884765625,-3.3001199882775545,-2.5432389599353074,-0.02089811886101961
1789666839892020000,8.99502001953125,-3.4033366171240806,-2.4688567959070205,-0.04593063411302864
1789666839901972000,9.004971923828125,-3.4816467682510615,-2.3588012609511613,-0.059648339950665825
1789666839911924200,9.01492431640625,-3.517740410417318,-2.2567916698068378,-0.08379501227885484
1789666839921875000,9.024875,-3.5214766743361947,-2.1249124255776404,-0.06620813685767352
1789666839931827000,9.034826904296875,-3.473074170216918,-2.0111545289725066,-0.031218437345325947
1789666839941779200,9.044779296875,-3.3288562534183264,-1.9421265854537486,0.022306341691128908
1789666839951730000,9.05472998046875,-2.975547842416167,-1.8258195888876914,0.03064586162175983
1789666839961682200,9.06468212890625,-2.5806770024478434,-1.7524328656375407,0.07283299835752695
1789666839971634200,9.07463427734375,-2.1981822444498538,-1.7086036607831716,0.19457648688908666
1789666839981586000,9.0845859375,-1.8538912526398896,-1.6014067301288246,0.4002022275915369
1789666839991537200,9.094537109375,-1.6367805335879324,-1.4048632905483245,0.6303191797435284
1789666840001489200,9.1044892578125,-1.4747674323797224,-1.1368567892566324,0.7336351773113012
1789666840011441000,9.11444091796875,-1.2979641737967729,-0.8314362108498812,0.671162500654906
1789666840021393200,9.12439306640625,-1.1625398043066262,-0.5511395523056387,0.5496536976620554
1789666840031344000,9.13434423828125,-1.0187824907571077,-0.3404758174359798,0.4107117850376293
1789666840041296100,9.144296142578124,-0.706719697856903,-0.1424579213887453,0.25611075018420815
1789666840051248000,9.154248046875,-0.24100012868344783,0.03377864322215318,0.06949163377406076
1789666840061198800,9.16419873046875,0.516444378760457,0.11590981394201516,-0.21249321531914173
1789666840071151000,9.174151123046874,1.5537562134206293,0.09294541020095348,-0.6468386451289058
1789666840081103000,9.18410302734375,2.7005121731400488,0.05116466230899095,-1.2041902768824249
1789666840091055000,9.19405517578125,3.702660924482345,-0.0010106383472681046,-1.8254973711960016
1789666840101006000,9.204006103515624,4.231857817310095,-0.05951280393749475,-2.313901211994886
1789666840110958000,9.2139580078125,4.32728101580143,-0.025035072535276412,-2.5825369511008263
1789666840120910000,9.22391015625,4.028990143144131,0.2513222007334232,-2.5418846227169034
1789666840130862000,9.233862060546874,3.539940551787615,0.7067959779635071,-2.3331408961243927
1789666840140813000,9.24381298828125,3.099137981727719,1.0344996998488902,-2.1929818993277848
1789666840150765000,9.25376513671875,2.8797072952955958,1.2172048759520053,-2.169328928800672
1789666840160717000,9.263717041015624,2.9349329234331845,1.4051274944424628,-2.138593891058117
1789666840170668000,9.27366796875,3.266268572080135,1.4944278261393307,-2.1373167107291517
1789666840180620000,9.2836201171875,3.8887224252760406,1.4262471470996736,-1.987535168454051
1789666840190572000,9.293572021484374,4.543416167819499,1.1612021259620786,-1.6600760689795016
1789666840200524000,9.30352392578125,5.101083368328213,0.7785179828718304,-1.1591619984366
1789666840210475000,9.31347509765625,5.603199946528673,0.3408551721423864,-0.5880190841525793
1789666840220427000,9.323427001953124,5.823312185484171,-0.12305310982540249,-0.17237060989774763
1789666840230379000,9.33337890625,5.841243563494086,-0.5535122727863491,0.10276230920776724
1789666840240331300,9.343331298828126,5.642639391991496,-0.8362832124896347,0.08230360467731952
1789666840250282000,9.353281982421874,5.105364991170168,-1.0006003528565168,-0.19474636356327682
1789666840260234200,9.363234130859375,4.160323443928361,-1.0362877523094416,-0.6892837021484971
1789666840270186000,9.37318603515625,3.128810650935769,-0.8433401452638208,-1.2130138540029525
1789666840280137000,9.383136962890624,1.9839508802264927,-0.6643539896838366,-1.8169029997214674
1789666840290089200,9.393089111328125,0.9131219758898019,-0.5621490220978855,-2.4093445764914154
1789666840300041000,9.403041015625,-0.049747488987445826,-0.44796968521028757,-2.8223104605987666
1789666840309993000,9.412992919921875,-0.8658733179807663,-0.39939299356788394,-3.093483901488781
1789666840319944200,9.422944091796875,-1.4733850381106137,-0.39363720652014017,-3.245139859333634
1789666840329896000,9.43289599609375,-1.863442924839258,-0.39862025562971826,-3.309835326606035
1789666840339848000,9.442847900390625,-2.138180487951636,-0.40847967860400675,-3.2666447119161486
1789666840349799200,9.452799072265625,-2.2665695519775153,-0.470128910048306,-3.0762369986116886
1789666840359751000,9.4627509765625,-2.297182716906071,-0.5915791147217154,-2.7767320739895105
1789666840369703200,9.472703125,-2.231449723279476,-0.7668985644876957,-2.387821895991266
1789666840379655200,9.4826552734375,-2.0697358972787856,-0.9886126856818794,-1.8401171404398977
1789666840389606000,9.49260595703125,-1.9433815539509056,-1.2770941119864583,-1.287795100351423
1789666840399558100,9.50255810546875,-1.8990198496550321,-1.5160302938774228,-0.7910460405334829
1789666840409510100,9.51251025390625,-1.9048077854067087,-1.6590288980141281,-0.3166361652303487
1789666840419462000,9.5224619140625,-1.9493086059123277,-1.7215829693436622,0.06616111937817186
1789666840429413000,9.5324130859375,-2.043386235013604,-1.730962207585573,0.3043719096040353
1789666840439365000,9.542365234375,-2.134068376457691,-1.678957002799213,0.42383382653705776
1789666840449316900,9.55231689453125,-2.2466098830103873,-1.557199924133718,0.4039726495083421
1789666840459268000,9.56226806640625,-2.4493144755691287,-1.387385501524806,0.3150849902655929
1789666840469220000,9.57222021484375,-2.7353584455937145,-1.143468608611822,0.20188438048334792
1789666840479172000,9.582172119140624,-3.000854133108258,-0.8631298644915223,0.1038790200117044
1789666840489124000,9.5921240234375,-3.1595407202422616,-0.6202399765387178,-0.013021156674530356
1789666840499075000,9.602074951171875,-3.234569365480542,-0.47515433699488635,-0.09959544267468154
1789666840509027000,9.612027099609374,-3.2221804240286347,-0.3571279692903161,-0.15342249259334056
1789666840518979000,9.62197900390625,-3.010097177749872,-0.28107816431075333,-0.1814982845313847
1789666840528931000,9.63193115234375,-2.519889648529887,-0.15584639527201652,-0.24372820194046943
1789666840538882000,9.641882080078124,-1.8580863662421703,0.02144932300299406,-0.31633937424086034
1789666840548834000,9.651833984375,-1.0989829856753348,0.18650076899379492,-0.3346765565726906
1789666840558786000,9.6617861328125,-0.3190010677307844,0.2724734175726771,-0.25173680941630155
1789666840568737000,9.671737060546874,0.3876894040316343,0.3270332752779126,0.010038286672532558
1789666840578689000,9.68168896484375,0.9317518575578927,0.3944084831535816,0.4231793081510812
1789666840588641300,9.691641357421876,1.192292553013563,0.38386926122158765,0.9635570818152278
1789666840598593000,9.701593017578125,1.1297639083862303,0.3657467445537448,1.4367527590230107
1789666840608544000,9.7115439453125,0.7525678413182496,0.4317980103492737,1.747857520546019
1789666840618496000,9.72149609375,0.20564064601063728,0.6323217517375945,1.9362077167987823
1789666840628448000,9.731447998046875,-0.21152444335222242,0.9595072949677705,2.0384765434011816
1789666840638400000,9.74139990234375,-0.3876759600281715,1.3253466862410306,2.012231510554254
1789666840648351000,9.75135107421875,-0.3379495138287544,1.6508429612100124,1.8501225477561354
1789666840658303000,9.761302978515625,-0.15024667556881904,1.942828888504207,1.6249769908085465
1789666840668255000,9.7712548828125,0.1114618946224451,2.1255358181729913,1.3689017503291367
1789666840678206000,9.7812060546875,0.4270563687801361,2.22448572948575,1.1613262637984008
1789666840688158000,9.791157958984375,0.7949491854518651,2.2815078856512905,1.1913277996346354
1789666840698110200,9.801110107421875,1.2028232993781567,2.2524507179930806,1.3322560272380708
1789666840708062200,9.811062255859374,1.4434201079577207,2.1259765476778147,1.490649184383452
1789666840718013000,9.821012939453125,1.5917477981626986,2.106361746625602,1.6819243281722067
1789666840727965200,9.830965087890625,1.846740211841464,2.2341160198792815,1.8229637610651552
1789666840737917000,9.8409169921875,2.1147341459125277,2.3850991930291054,1.9471978973686694
1789666840747868200,9.8508681640625,2.332514142528176,2.4246765856578945,2.055520032660663
1789666840757820200,9.860820068359375,2.654078338745236,2.3890230884745716,2.169901029600203
1789666840767772000,9.87077197265625,3.02035845952332,2.245604797621071,2.2630312948487696
1789666840777724000,9.880723876953125,3.4413866540551186,1.9842522012606263,2.3448659668400884
1789666840787675100,9.890675048828125,3.843305074447393,1.6804913727596402,2.358814997215569
1789666840797627000,9.900626953125,3.9934219861567017,1.2554144873589277,2.218156234203279
1789666840807579100,9.9105791015625,3.951050578895211,0.8158665935352444,2.1263132322862743
1789666840817531100,9.92053125,3.7718829292684792,0.4204007102832198,2.208678211762011
1789666840827482000,9.930482177734374,3.5643846726924178,0.05986614741981029,2.4046178402304648
1789666840837434000,9.94043408203125,3.2236160097897053,-0.2700064429372549,2.5463459860399364
1789666840847386000,9.95038623046875,2.6151567796766755,-0.45280748063027854,2.592943778824806
1789666840857337000,9.960337158203124,1.8682091163277625,-0.43646278728991744,2.4587501201733946
1789666840867289000,9.9702890625,1.1602321118861436,-0.2752516501143575,2.150215939790755
1789666840877241000,9.980240966796876,0.6369271997064352,-0.07666618331223726,1.7414153586693106
1789666840887193000,9.990193115234375,0.3912053031980991,0.07686316718906164,1.3564625399947166
1789666840897143800,10.000143798828125,0.4394306971848011,0.1424409702539444,0.9789797649398445
1789666840907095800,10.010095703125,0.5999672960996627,0.07638181341290473,0.6312241657592356
1789666840917048000,10.020048095703125,0.7387702021121978,-0.1582616397202015,0.40212033617254345
1789666840927000000,10.03,0.7661591442972421,-0.4850207742318511,0.2725586116380989
1789666840936951000,10.039950927734376,0.7172662263125181,-0.8435594871029257,0.1720165722956881
1789666840946903000,10.049903076171875,0.5950578967481851,-1.2094389181256293,0.0703996337307617
1789666840956854800,10.059854736328125,0.38533728794753547,-1.5414745317354797,-0.013071772616915405
1789666840966806000,10.069805908203126,0.1522305428624153,-1.8316104472488164,-0.06932261561639606
1789666840976758000,10.079758056640625,-0.09150865539610385,-2.0694956587821243,-0.08941393900602124
1789666840986709800,10.089709716796875,-0.331745398491621,-2.2758225334912536,-0.025299705687677487
1789666840996662000,10.099662109375,-0.5528378806561232,-2.5182401277571915,0.037594511715881525
1789666841006613000,10.109613037109375,-0.8344295474469661,-2.719945187884569,0.12820003512664696
1789666841016564700,10.119564697265625,-1.154782029786706,-2.891798130583763,0.2533972899744287
1789666841026517000,10.12951708984375,-1.57471775290668,-3.0080282625213264,0.35667335739061234
1789666841036469000,10.139468994140625,-2.1347148576676847,-3.114714321044087,0.4171797754753381
1789666841046420000,10.149419921875,-2.7515713292479513,-3.11563172814995,0.4481191401509568
1789666841056372000,10.1593720703125,-3.301533946728706,-3.0037165368020533,0.4294248514771461
1789666841066324000,10.169323974609375,-3.7211043436676263,-2.895983015052974,0.3766763905754313
1789666841076275000,10.17927490234375,-4.060757738804817,-2.7326336968049407,0.3306244316376746
1789666841086227000,10.18922705078125,-4.298117465159296,-2.5245573480799792,0.3152262253671884
1789666841096179000,10.199178955078125,-4.463967952573299,-2.3449629974737762,0.2938349161617458
1789666841106131000,10.209130859375,-4.626914535239338,-2.187928561460972,0.3077063877889886
1789666841116082000,10.21908203125,-4.735981643679738,-2.001275816775858,0.38075109266843643
1789666841126034000,10.229033935546875,-4.760996257948875,-1.8479063330113887,0.4881023736342787
1789666841139718000,10.2427177734375,-4.674176052629948,-1.7870844923019409,0.5318459460318088
1789666841149668900,10.2526689453125,-4.448567554345726,-1.6858397480502723,0.7028278049848974
1789666841159621000,10.26262109375,-4.069133352962136,-1.5330474796518683,0.9302431334953755
1789666841169572900,10.27257275390625,-3.5986207042932508,-1.4457272158563137,1.1183229883741588
1789666841179524900,10.28252490234375,-3.0876585563361645,-1.4199413249537347,1.3693465714871882
1789666841189476000,10.29247607421875,-2.626541512522101,-1.3975211110919714,1.6135256224676966
1789666841199427800,10.302427734375,-2.3289795386612413,-1.3460598039239644,1.8296959919296203
1789666841209379800,10.3123798828125,-2.097202580875158,-1.2915300490960477,1.8731055100671945
1789666841219331000,10.3223310546875,-1.8696715900957583,-1.1535635939076543,1.6935118901133537
1789666841229282800,10.33228271484375,-1.5752689570486544,-0.9205465729326009,1.3785571751639245
1789666841239234800,10.34223486328125,-1.201076747971773,-0.6607403292313218,0.9925498790003359
1789666841249187000,10.35218701171875,-0.645364773184061,-0.35640345440804955,0.5285998402500525
1789666841259137800,10.3621376953125,0.1563999375015497,-0.0375119845315814,0.03526413253955543
1789666841269090000,10.372090087890625,1.0744587852716445,0.11196750605702399,-0.5090275631653145
1789666841279042000,10.3820419921875,2.2716472936332224,0.12492489504665136,-1.0018888582970946
1789666841288992800,10.39199267578125,3.8792730444073675,0.1775610912129283,-1.431497176582366
1789666841298945000,10.401945068359375,5.684057444050908,0.29065117155909537,-2.258850355902314
1789666841308897000,10.41189697265625,7.0072706253945825,0.39620267309397456,-3.491136188869178
1789666841318848800,10.421848876953124,7.280911040920019,0.5181804087728261,-4.40337232183516
1789666841328800000,10.431800048828125,6.490460335931181,0.7726713026702403,-4.529588425736129
1789666841338752000,10.441751953125,4.911283265528082,1.3041209428608416,-4.098582734808326
1789666841348703700,10.451703857421874,3.363829367122054,1.9334356217369435,-3.6790421484857796
1789666841358656000,10.461656005859375,2.3359949703812597,2.336272033756971,-3.7245740656048056
1789666841368607000,10.47160693359375,1.8953952294170855,2.576106333531439,-4.069442272780836
1789666841378559000,10.48155908203125,2.125541955652833,2.761191098247468,-4.4282288229331375
1789666841388511000,10.491510986328125,2.934693269458413,2.898612779034674,-4.700453526441753
1789666841398461700,10.501461669921875,4.0349423295468085,2.8379861686363816,-4.788429623797535
1789666841408414000,10.5114140625,5.082283390790224,2.512743283906579,-4.611652668699622
1789666841418366000,10.521365966796875,5.695608765634894,1.975365714971721,-4.078858628162742
1789666841428318000,10.53131787109375,5.774976901382208,1.3880043640755115,-3.3489696516424416
1789666841438269000,10.54126904296875,5.395839052596688,0.8015941764242946,-2.5220441962152718
1789666841448221000,10.551220947265625,4.691937334769964,0.19566008087471126,-1.7785992802903055
1789666841458173000,10.5611728515625,3.824704418873787,-0.3315393545255065,-1.2053586630746722
1789666841468125000,10.571125,2.9541274532467123,-0.7067465858638287,-0.8225047894407064
1789666841478076000,10.581075927734375,2.1957751833081245,-0.8401163609117269,-0.5608703073989599
1789666841488028200,10.591028076171876,1.479744051748514,-0.8996183511942625,-0.637910365524888
1789666841497980000,10.60097998046875,0.8254466150462627,-0.8590677296191453,-0.9969522786777466
1789666841507931000,10.610930908203125,0.36436931872069833,-0.6750833273604512,-1.5010565966293214
1789666841517883000,10.6208828125,0.0021329203754663468,-0.565221853671968,-1.9252052612692117
1789666841527835000,10.6308349609375,-0.3412906409502029,-0.6129919051066041,-2.2383327607914802
1789666841537787000,10.640786865234375,-0.5969686988055706,-0.7071323703110217,-2.3752669503226875
1789666841547737900,10.65073779296875,-0.7779279080241918,-0.8518149820119142,-2.2914441732540727
1789666841557689900,10.66068994140625,-0.8940741610705852,-1.0881734223693609,-2.0503195414081214
1789666841567641900,10.670641845703125,-0.9919804085493087,-1.396361711923778,-1.7149024686664343
1789666841577592800,10.6805927734375,-1.1134037252157927,-1.706243945914507,-1.3948552528835831
1789666841587544800,10.690544921875,-1.2174936297655106,-1.986255650037527,-1.0715504966095089
1789666841597497000,10.7004970703125,-1.3165741817206142,-2.2327076143860816,-0.7757485181584953
1789666841607448800,10.71044873046875,-1.4962567951321601,-2.406836685323715,-0.5466938614757731
1789666841617399800,10.72039990234375,-1.8026129008233547,-2.5443819924905893,-0.36930494849197565
1789666841627352000,10.73035205078125,-2.1507611525833608,-2.6211115964278577,-0.21240129925198853
1789666841637303800,10.7403037109375,-2.5595669944018122,-2.592472069659829,-0.038955187343526626
1789666841647255800,10.750255859375,-2.971997456458211,-2.5680714956358073,0.11284295545099303
1789666841657207000,10.76020703125,-3.335135772079229,-2.4972736198350787,0.3056810925064608
1789666841667158800,10.77015869140625,-3.566834988453984,-2.4318045378416775,0.5078071545248851
1789666841677110800,10.78011083984375,-3.75595470777452,-2.3809981874510644,0.6810389478292316
1789666841687062000,10.79006201171875,-3.8325463645458218,-2.3243109623283145,0.8415948359664529
1789666841697013800,10.800013671875,-3.8315421559393403,-2.2687913196802136,0.9550494387760757
1789666841706966000,10.809966064453125,-3.778211547768116,-2.2157082565292714,1.0399624952994286
1789666841716918000,10.81991796875,-3.596097323295474,-2.121246888807416,1.1104990898154676
1789666841726869000,10.829868896484374,-3.3231466435998676,-1.9887047967553138,1.217181933467835
1789666841736821000,10.839821044921875,-3.0103830089539287,-1.903303810584545,1.2871268457010387
1789666841746773000,10.84977294921875,-2.6692384984761475,-1.7861562715411186,1.2511606293067334
1789666841756724700,10.859724853515624,-2.3455928198099136,-1.5715461371332407,1.1723916284963487
1789666841766676000,10.869676025390625,-1.9997253724634647,-1.253380643443763,1.0145678687367587
1789666841776628000,10.8796279296875,-1.6277449942171573,-0.805188255393505,0.8056521465782076
1789666841786580000,10.889580078125,-1.302232937157154,-0.21881489262133835,0.6436676869425922
1789666841796531000,10.899531005859375,-0.9827683435678481,0.3861190859749913,0.5917551654083654
1789666841806483000,10.90948291015625,-0.8413502866208553,0.932351869277656,0.7631886040538549
1789666841816435000,10.91943505859375,-0.7512702027231455,1.452444249151647,1.1536349786434321
1789666841826387000,10.929386962890625,-0.5554536161124706,1.9432070741668341,1.6379013543114065
1789666841836338000,10.939337890625,-0.231389419773221,2.3720684465423223,1.9864801064431665
1789666841846290000,10.9492900390625,0.09765957924127579,2.6761989851385355,2.130296748964488
1789666841856242000,10.959241943359375,0.4855693480253219,2.8958658184140917,2.1594594228237867
1789666841866193000,10.96919287109375,1.0774135434240102,3.091581574998796,2.1679368899203837
1789666841876145000,10.979144775390624,1.7658412132650614,3.2091464626714585,2.285293395539373
1789666841886097000,10.989096923828125,2.4328251130610705,3.1846435973167417,2.4546026451051235
1789666841896049700,10.999049560546876,3.0672137342005965,2.975716476981342,2.7040394704833624
1789666841906000600,11.009000732421875,3.6147792274117467,2.6885432106658813,3.0169524504721164
1789666841915952600,11.01895263671875,3.903482187512517,2.423448505167663,3.3517505145326254
1789666841925904600,11.028904541015624,3.8845156212359666,2.2467820247069,3.6598064098790286
1789666841935856600,11.038856689453125,3.7101129940539597,2.1761904851332305,3.957525912389159
1789666841945807600,11.0488076171875,3.3277292952150104,2.1602540803328156,4.228093788601458
1789666841955759900,11.058759765625,2.8574031090289354,2.202092403630912,4.325439771848917
1789666841965711600,11.068711669921875,2.488080551815033,2.28311239823848,4.230698418141901
1789666841975662600,11.07866259765625,2.3612603445410727,2.3423911011591554,3.9717084592595695
1789666841985614800,11.08861474609375,2.64064310311079,2.2641487545713783,3.7229075936973093
1789666841995566600,11.098566650390625,3.173518392190337,1.9891113317295908,3.5578318900480865
1789666842005518600,11.1085185546875,3.792536425718665,1.5062755003213881,3.5160514344170686
1789666842015469800,11.1184697265625,4.218945728766918,0.9679182726994157,3.671148472626507
1789666842025421600,11.128421630859375,4.518115137824416,0.3676902798369527,3.927223128584027
1789666842035373600,11.13837353515625,4.711075165960192,-0.26271453236341474,4.103576305311918
1789666842045325800,11.148325927734374,4.448123317709565,-0.8564365043327212,4.159572041039168
1789666842055276500,11.158276611328125,3.7128462184101343,-1.3493319574624298,4.237176381984352
1789666842065228800,11.168228759765626,2.768196885356307,-1.5450073820367454,4.328107822014391
1789666842075180800,11.178180908203124,1.803863777667284,-1.5805559575408696,4.3102968555137515
1789666842085131500,11.188131591796875,1.1165320863693953,-1.5392074635863304,4.045088460507989
1789666842095083800,11.198083740234376,0.7886626525282859,-1.4586007259547709,3.548932544277608
1789666842105035800,11.208035888671875,0.7507160759717225,-1.4086033538594842,2.9996541096687315
1789666842114987500,11.217987548828125,0.7760702974587679,-1.3939227943390606,2.4555057314246893
1789666842124938800,11.227938720703126,0.7983990336447954,-1.4438386256307363,1.986625067871809
1789666842134890800,11.237890869140625,0.9155927499175072,-1.5126289610013366,1.5986524629846215
1789666842144842800,11.2478427734375,1.0920564012825489,-1.609048769314587,1.2907429903715848
1789666842154794800,11.257794677734376,1.2522212442755698,-1.83663908906579,1.0323080350235103
1789666842164745500,11.267745361328124,1.2823141847223043,-2.229254551322758,0.8513033792279661
1789666842174697700,11.27769775390625,1.2301882761657237,-2.6428882516890764,0.7505212840519845
1789666842184649700,11.287649658203126,1.084402087137103,-3.0155159879282114,0.7056232809223234
1789666842194600700,11.2976005859375,0.8849865992516278,-3.361065455366671,0.6408374319527298
1789666842204552700,11.307552734375,0.621957009589672,-3.704225105059147,0.5681953165248036
1789666842214504700,11.317504638671876,0.2753653396219015,-3.9975463726103304,0.4690279996016994
1789666842224456700,11.327456787109375,-0.17702186976969242,-4.207380378657579,0.3548345976561308
1789666842234407700,11.33740771484375,-0.6426888319730758,-4.355873196296393,0.2079598827384412
1789666842244359700,11.347359619140626,-1.0749135433018207,-4.440418150159716,0.06694361152537166
1789666842254311700,11.357311767578125,-1.4935913753151893,-4.450063345861435,-0.02221784142376855
1789666842264262700,11.3672626953125,-1.8697370565474032,-4.356513247765601,-0.12901744332360102
1789666842274214700,11.377214599609376,-2.2726368891924618,-4.253419076254963,-0.24996406412273645
1789666842284166700,11.387166748046875,-2.681585354351997,-4.144615587186813,-0.3739808678811416
1789666842294118700,11.39711865234375,-3.0791251212686297,-4.045210041061043,-0.45785300051681693
1789666842304069600,11.407069580078126,-3.3397862282335757,-3.958905968570709,-0.544178773382306
1789666842314021600,11.417021728515625,-3.5068069284707306,-3.852567408311367,-0.6263925078190863
1789666842323973600,11.4269736328125,-3.683617785838246,-3.713927583906054,-0.6727016929209232
1789666842333925600,11.436925537109374,-3.7489924675464628,-3.569093581035733,-0.689512761664018
1789666842343876600,11.446876708984375,-3.7558097463458773,-3.4419179844528434,-0.7740257129538803
1789666842353828600,11.45682861328125,-3.855090789309144,-3.331443931823969,-0.8409447745598853
1789666842363780900,11.46678076171875,-3.948637088012695,-3.148585026463866,-0.928024215336889
1789666842373731600,11.476731689453125,-4.00938878609538,-2.847638086339831,-1.1177435079857707
1789666842383683600,11.48668359375,-4.008138493773341,-2.5095383503854274,-1.3540339976735412
1789666842393635800,11.4966357421875,-3.9452047754764554,-2.159907751113176,-1.5629846450150011
1789666842403587600,11.506587646484375,-3.715815589609742,-1.8295359790623187,-1.7562224671788513
1789666842413538800,11.516538818359376,-3.3494717559456824,-1.5038962039694188,-1.8411290939614176
1789666842423490800,11.52649072265625,-2.697559168553352,-1.2346440865308046,-1.8328290292583405
1789666842433442600,11.536442626953125,-1.7150433384418486,-1.0689876603841781,-1.8587584202848373
1789666842443394600,11.54639453125,-0.659274056071043,-0.8867445488348603,-1.9445318930298088
1789666842453345800,11.556345703125,0.4354343210250139,-0.6993941772744059,-2.095939575202018
1789666842463297500,11.566297607421875,1.473517140057683,-0.39525224050134417,-2.3043819807603954
1789666842473249800,11.576249755859376,2.2383517577528953,-0.035847850711643696,-2.4884838719189166
1789666842483200800,11.58620068359375,2.8462328957170246,0.32238428042829037,-2.770900299096107
1789666842493152500,11.596152587890625,3.378646997025609,0.7870695381179451,-3.1334196060359476
1789666842503104800,11.606104736328126,3.76388024007678,1.3202832653716206,-3.535073822534084
1789666842513056800,11.616056884765625,4.017300874394178,1.7947034428730606,-3.9543464055702087
1789666842523007700,11.6260078125,4.165847760307789,2.1097727241128683,-4.340184628777206
1789666842532959700,11.635959716796876,4.284326840215921,2.461652855877578,-4.505287220433354
1789666842542911700,11.645911865234375,4.419136292678117,2.9312022124722596,-4.527027635337412
1789666842552863500,11.655863525390625,4.48879025914073,3.3926839979454875,-4.542199485506117
1789666842562814700,11.665814697265626,4.542123789921403,3.704200847400725,-4.499848536510766
1789666842572766700,11.6757666015625,4.73019663053751,3.875264101026952,-4.164403991240262
1789666842582718700,11.68571875,5.097303265267611,4.336389035886526,-3.6060444245532155
1789666842592669700,11.695669677734376,5.6010909915506835,4.857410805565118,-3.5836417463481425
1789666842602621700,11.70562158203125,5.945429914155602,4.756797637215256,-4.395540605296194
1789666842612573700,11.71557373046875,6.371521237295866,4.053868563812971,-5.277527145949006
1789666842622525700,11.725525634765624,6.913451354968547,2.865504874680936,-5.539847126036882
1789666842632476700,11.7354765625,7.449585353583097,1.7665153131343423,-4.859443772697449
1789666842642428700,11.7454287109375,7.550286200216412,0.8641611072354018,-3.62642933319509
1789666842652380700,11.755380615234374,6.970327088400722,-0.0694679423712194,-2.4759306798160075
1789666842662332700,11.765332763671875,5.689525646328926,-0.8819988156124949,-1.529523397178948
1789666842672283600,11.77528369140625,4.236349283510446,-1.2833886820860205,-0.6358147084198892
1789666842682235600,11.785235595703124,3.033758039322495,-1.2689189888373016,-0.02908478631749749
1789666842692188000,11.79518798828125,2.059906577181816,-1.0575966439284383,-0.025249299807846546
1789666842702138600,11.805138671875,1.0192968700200318,-0.9833489199347794,-0.6236103297546506
1789666842712090600,11.815090576171874,0.15427636947631834,-0.9032973319679498,-1.0899030226409434
1789666842722043000,11.82504296875,-0.5469546678364277,-0.7429074480473995,-1.2123086283430455
1789666842731994600,11.83499462890625,-1.1257716238796711,-0.6879452931515873,-1.3906601392813025
1789666842741945900,11.84494580078125,-1.472013749757409,-0.7972358350843191,-1.4496698160022496
1789666842751897600,11.854897705078125,-1.6699837150096892,-0.993026118209958,-1.4780745111010969
1789666842761849600,11.864849609375,-1.7334002483874558,-1.1983683657959103,-1.4482082190170884
1789666842771800800,11.87480078125,-1.6507926923274994,-1.496100435526669,-1.3370549519523978
1789666842781752600,11.884752685546875,-1.5336030677080152,-1.7929370177224278,-1.1708202875263989
1789666842791704600,11.89470458984375,-1.4799275916218757,-2.1009654405400155,-1.0054124293133615
1789666842801656800,11.90465673828125,-1.4626818577885627,-2.379176232720911,-0.8391702391680329
1789666842811607600,11.914607666015625,-1.5628408526301383,-2.5344053728774187,-0.6472179998353124
1789666842821559600,11.9245595703125,-1.7666256416410206,-2.658245103035867,-0.48800749842505897
1789666842831511800,11.93451171875,-2.10564716861546,-2.7720143978178498,-0.3243817013232037
1789666842841463800,11.9444638671875,-2.498067108300328,-2.8279078422144055,-0.12278755422439426
1789666842851414800,11.954414794921876,-2.824907783615589,-2.925195081011951,0.09885299027692526
1789666842861366800,11.96436669921875,-3.0455384934872387,-2.932149430194497,0.4301351551709696
1789666842871318500,11.974318603515625,-3.2542624924659727,-2.9141522934719917,0.8894112838260829
1789666842881270500,11.9842705078125,-3.4724510698825117,-3.061149904116988,1.2243654882963746
1789666842891221500,11.994221435546875,-3.5898780103892087,-3.230149795472622,1.4837680465675889
1789666842901173500,12.004173583984375,-3.6840906640470026,-3.2786630664899943,1.7999378363952039
1789666842911125500,12.01412548828125,-3.6597973497897383,-3.236439543266594,2.1250126710817216
1789666842921076500,12.024076416015625,-3.4667508124142885,-3.166272658845782,2.4200081554554402
1789666842931028500,12.034028564453125,-3.2099802831470963,-3.1416148951902985,2.6100249697461724
1789666842940980500,12.04398046875,-2.9632793124735355,-3.092700934417546,2.7154826555177567
1789666842950932500,12.053932373046875,-2.6869863366127014,-2.957394346088171,2.86795022200644
1789666842960883500,12.063883544921875,-2.387476735815406,-2.7135692231118678,3.053310881054401
1789666842970835500,12.07383544921875,-2.140827787590027,-2.4080694419890643,3.233524824863672
1789666842980787500,12.083787353515625,-1.9857529612123965,-1.9315631058633327,3.4130139615297317
1789666842990739500,12.093739501953126,-1.8856284531623124,-1.3998232505545019,3.5768025479778647
1789666843000690400,12.1036904296875,-1.9002718955427407,-0.844433639588952,3.7221614515051242
1789666843010642400,12.113642333984375,-2.0405694240272045,-0.21669980016350746,3.9993192275017497
1789666843020594400,12.123594482421876,-2.0295523554503916,0.5558940533563494,4.360157157225907
1789666843030545400,12.13354541015625,-1.7599895646274089,1.2772116008862853,4.528567850516736
1789666843040497700,12.14349755859375,-1.0583896940022706,1.8956322530433534,4.580736429171264
1789666843050449400,12.153449462890626,-0.1297574297696352,2.3850606145843862,4.550941594888269
1789666843060401400,12.1634013671875,0.9001151948004961,2.6716978743270037,4.38339803982079
1789666843070352600,12.1733525390625,1.9629910943061113,2.9120787020683285,4.23406731005311
1789666843080304400,12.183304443359376,2.975801524916291,3.1459839040547606,4.315275520709156
1789666843090256400,12.19325634765625,3.966403630849719,3.188318778698146,4.373602329732478
1789666843100208600,12.203208740234375,4.725511687591672,3.058117404553294,4.361474377304315
1789666843110159400,12.213159423828126,5.240649659928679,2.9128344888716935,4.392374834741652
1789666843120111400,12.223111328125,5.583418556737899,2.857873356889188,4.4353880470380185
1789666843130063600,12.233063720703125,5.817813003545999,2.845006861053407,4.445946850453317
1789666843140014300,12.243014404296876,6.072772683998942,2.712449863693118,4.274024641910195
1789666843149966600,12.252966552734375,6.189988612103462,2.5637729216590524,3.982054204446077
1789666843159918600,12.262918701171875,6.171375097048283,2.3989072074986995,3.711730950644612
1789666843169870300,12.272870361328126,6.081404318743944,2.1855535028927027,3.453821188214421
1789666843179821600,12.282821533203125,5.980774783781171,1.939751673015952,3.1533950570940967
1789666843189773600,12.292773681640625,5.819920789480209,1.6003740260802208,2.928015106868744
1789666843199725300,12.302725341796876,5.569921946305036,1.1310063096627592,2.824073963139951
1789666843209677600,12.312677490234375,5.084553089287877,0.6005779753439128,2.751307709875703
1789666843219628500,12.322628662109375,4.330036451989412,0.12548778962641954,2.7739906663268803
1789666843229580300,12.332580322265626,3.3838305371433495,-0.23700243734940885,2.887495757214725
1789666843239532500,12.342532470703125,2.3952619828641413,-0.44556379311233757,2.9173326770737766
1789666843249483500,12.3524833984375,1.4098691360116005,-0.5420502369210124,2.796831735949218
1789666843259435500,12.362435546875,0.5752244845092296,-0.48706192467063664,2.555938867032528
1789666843269387500,12.372387451171875,0.028820436292886734,-0.4541533422812819,2.2371035112574695
1789666843279339500,12.382339599609375,-0.27094109343886374,-0.46649201485067604,1.8505211916849016
1789666843289290500,12.39229052734375,-0.36185587459504603,-0.4908469961673021,1.4935054505974052
1789666843299242500,12.402242431640625,-0.35379824034571644,-0.5605617529064416,1.1502728087339549
1789666843309194500,12.412194580078125,-0.30632863316237924,-0.6489248037531972,0.8331448413986712
1789666843319146500,12.422146484375,-0.30297347751557824,-0.8033370745688676,0.5636974936489015
1789666843329097500,12.432097412109375,-0.4016273284912109,-1.0382800951704383,0.3814840100528672
1789666843339049500,12.442049560546875,-0.4817378070384264,-1.3011395889624953,0.24374844101089982
1789666843349001500,12.45200146484375,-0.43848377172350883,-1.609872945179045,0.12617460284680126
1789666843358952400,12.461952392578125,-0.3467529980093241,-1.9428712663412093,0.007874240506440401
1789666843368904700,12.47190478515625,-0.29377134940624233,-2.2780884325966237,-0.051589025200903416
1789666843378856400,12.4818564453125,-0.3333224385499954,-2.5974811299934983,0.002941533344611525
1789666843388808400,12.491808349609375,-0.5765186159729957,-2.825715300606191,0.08098948987144976
1789666843398759400,12.501759521484376,-1.0344377405285834,-3.052619099397957,0.1891997988194227
1789666843408711400,12.51171142578125,-1.5714005911827087,-3.260750977702439,0.26121172658503056
1789666843418663400,12.521663330078125,-2.0877409250468015,-3.3629090374067423,0.2401412468317896
1789666843428614400,12.531614501953126,-2.5525784506887197,-3.3844445773884653,0.1808840616231784
1789666843438566400,12.54156640625,-2.9317104542553425,-3.3237340880990027,0.09360876948051154
1789666843448518400,12.551518310546875,-3.2123049267023798,-3.1860055333197117,0.02297583845052868
1789666843458470700,12.561470703125,-3.421045876815915,-3.048051937612891,-0.01195237666554749
1789666843468421400,12.57142138671875,-3.5937744333058594,-2.8922315535649656,-0.0516962849676609
