time,seconds_elapsed,z,y,x
1789690643811629000,0.057629150390625,-0.839237824511528,0.23356822511702774,-0.040483036231622097
1789690643821616000,0.0676162109375,-0.9716694419264793,0.4491732157811522,0.19939955966398118
1789690643831604200,0.077604248046875,-0.5851601875901222,1.1080372297465801,-0.2686841813575476
1789690643841592000,0.087592041015625,-0.4967255328118801,1.1692679435178637,-0.5269131292721256
1789690643851579100,0.0975791015625,-0.7334417005658149,1.3634265337884426,0.2664688799282536
1789690643861567200,0.107567138671875,-0.897940773370862,1.3365204066842793,0.758991298494488
1789690643871555000,0.11755517578125,-0.44951720691323277,0.7932400434464216,0.6642533788535744
1789690643881543200,0.127543212890625,0.13525719622969626,0.92089348667413,0.31056937600467355
1789690643891530200,0.1375302734375,0.5125795200258493,0.9144172763973474,0.5694393252365291
1789690643901518000,0.14751806640625,0.8891595010221004,0.4563844623342156,0.5318580017957836
1789690643911506200,0.157506103515625,1.2855331467688083,0.14051000219136475,0.39825887497141954
1789690643921493200,0.1674931640625,1.781438595369458,0.09469634552150964,0.32290684299767014
1789690643931481000,0.177481201171875,2.5757249329984186,-0.09589695348292589,-0.24947606141008435
1789690643941469200,0.18746923828125,2.813378673863411,0.07212181788086891,-1.2325751713022588
1789690643951457300,0.197457275390625,2.1370529452264306,0.638788901925087,-1.264037646536529
1789690643961444000,0.207444091796875,2.186110113862157,1.1210685607552529,-0.7318146838858723
1789690643971432200,0.21743212890625,1.7615420547664165,0.8341019229277968,-0.277510790685378
1789690643981420300,0.227420166015625,1.9554992772459983,0.3815367266207933,0.027689532566815615
1789690643991407000,0.237406982421875,2.652401929965615,0.21065993547737596,0.1430992149669677
1789690644001395200,0.247395263671875,2.912465655559301,0.3353612509012222,0.31725824265144764
1789690644011383000,0.257383056640625,3.3840018020570275,0.07893237467855214,-0.0044729441629722715
1789690644021370000,0.2673701171875,3.4981215177118776,-0.17012860312461853,-0.48769923619348554
1789690644031358200,0.277358154296875,2.7504204056471586,-0.04759790973812342,-0.2587289150596596
1789690644041346000,0.287345947265625,2.3106296429783106,-0.15636837331950665,0.13320336897242813
1789690644051334100,0.297334228515625,1.7939701601624487,-0.6909037045657634,0.4878488372646272
1789690644061321200,0.3073212890625,1.2851169671833513,-1.7477572750419377,1.1159646617449819
1789690644071309000,0.31730908203125,1.3328162914693356,-0.8960515986233949,0.18189513836186377
1789690644081297200,0.327297119140625,1.4416823243796824,-0.19648323382586239,0.3078620532747358
1789690644091284200,0.3372841796875,1.3747878857582807,-0.8294500054687262,0.8585089266926049
1789690644101272000,0.34727197265625,1.398148303079605,-0.7338172558799385,-0.008576100598904304
1789690644111260200,0.35726025390625,1.9793571226954458,-0.14851941338479518,-0.2734325814610347
1789690644121248300,0.367248291015625,1.7219062099486588,-0.4019882707580924,0.2351904377576895
1789690644131235000,0.377235107421875,0.6664993311494588,-1.014259168113768,-0.04707480831262655
1789690644141223200,0.38722314453125,0.00005903671085834503,-1.2989683824032545,-0.19771149697918444
1789690644151211300,0.397211181640625,-0.2655529706597328,-1.1758783015683292,-0.04075643721236847
1789690644161198000,0.407197998046875,-0.5927922899037599,-1.0420251269176601,-0.22216440397864207
1789690644171186200,0.417186279296875,-1.2856073810487985,-1.0997022398605942,-0.3100291681807488
1789690644181174300,0.42717431640625,-1.7447113314747809,-1.0761188274383544,-0.2506317890501581
1789690644191162000,0.437162109375,-1.8933061481833457,-0.6521566252812743,-0.43339580093473196
1789690644201149200,0.447149169921875,-2.082075738891959,-0.20392536652535198,-0.6084150987103581
1789690644211137000,0.457136962890625,-2.2994114988714456,-0.006875438727438449,-0.5213460331968963
1789690644221125000,0.467125,-2.286263848006725,-0.12327157488167285,-0.30156390297859903
1789690644231112200,0.4771123046875,-2.1093705730527637,-0.4248401540353894,-0.06500040503572672
1789690644241100000,0.48710009765625,-1.94665604557693,-0.7117886716842651,0.12877517726663498
1789690644251088100,0.497088134765625,-1.9432061973839998,-0.8950240091413258,0.25363007581699637
1789690644261075200,0.5070751953125,-2.1489286764591933,-0.9564835632324218,0.5137065878270194
1789690644271063000,0.51706298828125,-2.268328378343582,-0.8349424654051661,0.779981041161716
1789690644281051100,0.527051025390625,-2.46477274146378,-0.5756026701718568,0.8536850867327302
1789690644291039200,0.537039306640625,-2.726678295531869,-0.29336422991007566,1.0523533364474773
1789690644301026000,0.547026123046875,-2.7759990835398436,-0.07930033120810985,1.2142553784966468
1789690644311014100,0.55701416015625,-2.6209523142129183,-0.030154899767041204,0.8369971329126507
1789690644321002200,0.567002197265625,-3.2174761918604373,-0.5923357783079147,-0.12803641466330737
1789690644330989000,0.576989013671875,-6.369656027945876,-1.9359908591777084,-1.282836016639322
1789690644340977200,0.58697705078125,-4.3409693494141095,-1.2336886855021119,-0.28652252905545755
1789690644350965200,0.59696533203125,-1.1181693321824073,0.028389059138298034,1.2459189292609691
1789690644360953000,0.606953125,-0.9369032489717006,0.7357426709845661,1.4675905264876783
1789690644370940200,0.616940185546875,-1.9886679718762634,0.25465076063424347,0.5509373077318072
1789690644380928300,0.62692822265625,-1.9958967540860175,-0.08142097662389278,-0.0049801447664387525
1789690644390916000,0.636916015625,-2.0867320402652023,-0.06557809532582759,0.1475825709261
1789690644400903200,0.646903076171875,-2.2457822000145913,-0.10918693542778492,0.5356196193516254
1789690644410891000,0.65689111328125,-2.428198037782311,-0.2545411627799272,0.2765711717477068
1789690644420879000,0.666879150390625,-2.7326936102986332,-0.6187000536203384,-0.16217433791821823
1789690644430866200,0.6768662109375,-2.939163692870736,-1.1909960834622382,-0.29632786548864093
1789690644440854000,0.68685400390625,-3.0825632790237663,-1.6098013412475585,-0.09838928175531327
1789690644450842000,0.696842041015625,-3.6801685221672056,-1.8368617919057606,0.27419439614638685
1789690644460830200,0.706830322265625,-4.591064054179191,-2.284150801375508,0.5526858318995684
1789690644470817000,0.716817138671875,-5.341977698549628,-3.0522900135740634,0.1741688184261322
1789690644480805000,0.72680517578125,-6.1559770369082685,-4.4661514340922235,-0.4308320879265666
1789690644490793200,0.736793212890625,-7.1189704204261295,-6.4140849522590635,0.19978285989314318
1789690644500780000,0.746780029296875,-7.8957748773783445,-8.001500274175404,1.8001728141948579
1789690644510768000,0.75676806640625,-8.55275000885725,-8.905877218073606,3.2417411568060515
1789690644520756200,0.766756103515625,-9.242457781636714,-9.477758237373829,5.080367912557721
1789690644530744000,0.776744140625,-10.491842925703525,-9.836607915890216,6.446063560321926
1789690644540731100,0.786731201171875,-12.236966929632425,-10.2914781742692,7.083302310195565
1789690644550719200,0.79671923828125,-13.580073144447804,-10.932849493902921,6.703865186202526
1789690644560707000,0.80670703125,-13.722904575324058,-12.450247276741266,5.674637289276719
1789690644570694100,0.816694091796875,-13.040491635727882,-13.645078992843628,4.682320780640841
1789690644580682200,0.82668212890625,-11.46633443931341,-14.694087695038318,3.994290585684776
1789690644590670000,0.836670166015625,-9.13071297841966,-15.65019599521756,3.6521816140890118
1789690644600657200,0.8466572265625,-6.367061335277557,-16.102452271705864,1.7157283980965614
1789690644610645200,0.856645263671875,-3.737260528698563,-15.796659645116328,-3.4700837562292812
1789690644620633000,0.866633056640625,-1.722066368946433,-15.316833809179066,-8.494417646875977
1789690644630621200,0.87662109375,0.6110726274818181,-14.52498551235199,-12.446056254792213
1789690644640608000,0.88660791015625,3.7451790467381474,-13.218653907704352,-15.758285783058405
1789690644650596000,0.89659619140625,6.816925748193263,-11.276487574762106,-17.42918485934734
1789690644660584200,0.906584228515625,8.538485336661338,-9.59612976525426,-17.10268379124999
1789690644670571000,0.916571044921875,9.384165761440991,-8.333363746088743,-15.814758780908583
1789690644680559000,0.92655908203125,9.778830265182256,-7.826617170000076,-15.316460884213447
1789690644690547200,0.936547119140625,9.83676807488799,-7.294939566272497,-18.13268734872341
1789690644700535000,0.94653515625,9.431786759793757,-6.398651236283778,-22.603599421346185
1789690644710522000,0.956522216796875,9.047055621045827,-4.722964341196418,-26.23410462567806
1789690644720510200,0.96651025390625,9.145072927683591,-2.912245875328779,-27.505530921161174
1789690644730498000,0.976498046875,9.371381098669767,-0.9295926336973905,-26.389690324187278
1789690644740485000,0.986485107421875,9.147849406659603,1.7136615286946295,-25.25339146107435
1789690644750473200,0.99647314453125,7.037739413416385,2.5100246725976465,-23.000216228199005
1789690644760461000,1.0064609375,6.79498279645443,2.5256699854969975,-19.92695210791826
1789690644770448100,1.0164482421875,8.275260516688228,3.708248953747749,-17.869755374217032
1789690644780436500,1.0264365234375,5.549727884060144,4.778022211551666,-15.149752903187274
1789690644790424300,1.03642431640625,-0.18386077587902544,4.720216503793001,-13.030996662151813
1789690644800412400,1.046412353515625,-5.116493703427911,3.8695407549440857,-11.752170319545268
1789690644810399500,1.0563994140625,-7.81416919183731,3.556128301000595,-8.982078998744488
1789690644820387300,1.06638720703125,-7.152348373892903,4.0455893957674505,-5.705674232575297
1789690644830375400,1.07637548828125,-5.509725544017553,4.096849042883515,-2.8688106382280587
1789690644840362200,1.0863623046875,-4.767663314622641,3.494446628591418,-1.4671207170188425
1789690644850350300,1.096350341796875,-3.4427383609250186,3.7346623288989065,-1.5301631563872098
1789690644860338400,1.10633837890625,0.313869257800281,4.24997565780282,-3.9692385620146986
1789690644870326500,1.116326416015625,2.815676137150824,1.3823223729163407,-4.479796220824122
1789690644880313300,1.126313232421875,1.5635703359484672,1.6851333533465862,-2.8981349323898553
1789690644890301400,1.136301513671875,-1.640591616308689,2.8688486321508884,-0.18824527457356452
1789690644900289500,1.14628955078125,-8.209422893643378,2.2079186255663634,3.9481928513765334
1789690644910276400,1.1562763671875,-21.989337057912348,2.8616788866519927,11.357052226817608
1789690644920264400,1.166264404296875,-13.110497484368086,4.340740801355243,9.764822198095917
1789690644930252300,1.176252197265625,-0.6205398362681269,1.9254273795872925,5.8318087956726545
1789690644940240400,1.186240478515625,-2.1460534132838247,1.7154291228890417,8.504771867629886
1789690644950227500,1.1962275390625,-2.3790660503447056,2.005485251164436,9.127024645295739
1789690644960215300,1.20621533203125,-2.849283515459299,1.283096275010705,9.504621694380045
1789690644970203400,1.216203369140625,-2.6498352943480015,0.5638111100912094,8.735272814130782
1789690644980190500,1.2261904296875,-2.250389109288156,-0.47129883061051364,4.635054587075114
1789690644990178300,1.23617822265625,-2.7030361386597157,-0.8525503105491399,0.40936464474499223
1789690645000166400,1.24616650390625,-2.2491320949643847,-0.48927287871837616,-1.3105115206807851
1789690645010153500,1.256153564453125,-0.20985110331252216,-0.364584422776103,-2.000377114370465
1789690645020141300,1.266141357421875,2.46641407893002,-0.6239630887150764,-3.0553023471325633
1789690645030129400,1.27612939453125,3.997502533468604,-1.691868214559555,-4.539059726175665
1789690645040117500,1.286117431640625,2.173442355468869,-2.7953841674894093,-4.525277869060635
1789690645050104300,1.296104248046875,-1.118883179540187,-2.3427035281091926,-3.596723346239328
1789690645060092400,1.306092529296875,-1.8681075556494295,-1.3561585886120795,-3.721751409399509
1789690645070080500,1.31608056640625,-0.5664771144300699,-1.1400339579880236,-4.2100878840506075
1789690645080067300,1.3260673828125,-0.1702756103798747,-0.3715864104926586,-4.4380029057115316
1789690645090055400,1.336055419921875,-1.0426759920418263,0.7114478954225778,-4.824793315076827
1789690645100043500,1.34604345703125,-1.7397167380578815,1.0258803400635719,-4.517880744546652
1789690645110030300,1.3560302734375,-1.7031714066013692,0.8762848218798637,-3.9518724166721104
1789690645120018400,1.366018310546875,-2.1439763147488233,1.0749977144539355,-3.8822926844894883
1789690645130006300,1.37600634765625,-2.4870196445852515,1.0360440066814423,-3.434026354420185
1789690645139994400,1.385994384765625,-2.042851105223596,-0.17588672825992108,-2.0727327410072087
1789690645149981400,1.3959814453125,-2.168282926879078,-2.87762931997776,-0.3249129221230745
1789690645159969300,1.40596923828125,-2.5328899998784062,-5.25638791180849,-0.3643734103739261
1789690645169957400,1.415957275390625,-0.5929315522439778,-4.290712157338858,-0.46895898948609827
1789690645179944400,1.4259443359375,1.3818176382645964,-2.8832120885461565,-0.578209637799859
1789690645189932300,1.435932373046875,2.084644128075242,-2.386523380613327,-0.8606751648157834
1789690645199920400,1.44592041015625,2.3233270658575,-2.393998246538639,-0.019831658673286436
1789690645209907500,1.455907470703125,2.2862210317783056,-3.1825551006048918,1.5025620327562093
1789690645219895300,1.465895263671875,1.9669025686614214,-3.9557548110634086,1.1557920836120843
1789690645229883400,1.47588330078125,3.1489906846553084,-2.8580934293806552,-3.8863112724810835
1789690645239871500,1.48587158203125,5.107482713976502,-0.51504941727072,-4.2929713344424965
1789690645249858300,1.4958583984375,2.9775246954470873,-0.5098240838378667,3.2002930018693205
1789690645259846400,1.505846435546875,2.5420190627515313,-1.1754840415537358,4.604491106507182
1789690645269834500,1.51583447265625,3.7580420354425903,-0.9811904267266393,3.9255928970336913
1789690645279821300,1.5258212890625,3.6212566067323086,-0.18774580061882734,5.541407799482346
1789690645289809400,1.535809326171875,2.1792241537407038,1.0692132858335972,9.017460693249106
1789690645299797500,1.545797607421875,0.2251502331227064,1.2313503056824207,8.210217258891463
1789690645309785300,1.555785400390625,-1.0798170974344015,0.6502616053149104,8.461294544953107
1789690645319772400,1.5657724609375,-0.25182722764611243,0.7812798488005995,5.8691036303222175
1789690645329760300,1.57576025390625,0.4329904350042343,1.250857554706931,3.3178017754405733
1789690645339748400,1.585748291015625,-0.17576514770686624,1.4668594357341527,2.1248148104220625
1789690645349735400,1.5957353515625,-0.8975894757151603,1.2815765180975198,1.8645541009515523
1789690645359723300,1.60572314453125,-1.3336854755192995,0.929345673198998,1.5568296295166015
1789690645369711400,1.61571142578125,-1.5247259337693453,0.8332844690650701,1.9319716866642236
1789690645379698400,1.625698486328125,-1.977611448071897,1.028737190799415,2.464160747045278
1789690645389686300,1.635686279296875,-2.052697960977256,1.323479138803482,2.5482851374089717
1789690645399674400,1.64567431640625,-1.9421105111017822,1.988756819203496,2.045958715850115
1789690645409662500,1.655662353515625,-1.9824559654936194,2.574287885932624,1.9925041890382766
1789690645419649300,1.665649169921875,-1.6439432648241519,2.7687606567189094,2.2130881371587514
1789690645429637400,1.675637451171875,-1.313464233006537,3.196260969874263,1.961512838447094
1789690645439625500,1.68562548828125,-0.7281117377147078,3.360444108597934,1.4687942031890153
1789690645449612300,1.6956123046875,0.5114660058259963,2.2986539585024115,0.11838730997145175
1789690645459600400,1.705600341796875,2.5970827783256767,1.2614870852708815,-0.8088672361671924
1789690645469588500,1.71558837890625,4.116180058558285,1.4150734266564249,-0.9031845192432403
1789690645479575300,1.7255751953125,2.698390943202376,2.2112337414637206,-0.795326202070713
1789690645489563400,1.7355634765625,0.9962753292642533,2.511031219291687,-0.4493792597472667
1789690645499551500,1.745551513671875,0.15355185459405182,1.8310396616235374,1.3659031530350445
1789690645509539300,1.755539306640625,-1.0542927800774573,1.5066998632133006,1.5310510451376438
1789690645519526400,1.7655263671875,-1.982507111158967,2.0768656030282378,2.264801957783103
1789690645529514200,1.77551416015625,-1.4448299747556448,2.7031623953878876,2.8171541007488963
1789690645539502300,1.78550244140625,-1.1385044103331863,2.8628356554716823,1.943867876163125
1789690645549489400,1.795489501953125,-1.5907354062497614,3.7951927854463454,1.211159166046977
1789690645559477200,1.805477294921875,-2.0808577414043246,4.758621053250134,0.8675199161440134
1789690645569465300,1.81546533203125,-1.9840011491090057,5.647962048318981,1.0566109938919543
1789690645579452400,1.825452392578125,-2.177113152936101,5.8440527756959195,1.3961159204691647
1789690645589440300,1.835440185546875,-2.1526748772501945,4.327247698053718,2.2923697636663913
1789690645599428400,1.845428466796875,-3.4141087710291145,2.2029238860189913,2.6509336109787225
1789690645609416400,1.85541650390625,-5.87986000213623,0.37015842351615424,2.4692946028023957
1789690645619403300,1.8654033203125,-4.589175463953614,0.005353635987639427,2.8849843589156863
1789690645629391400,1.875391357421875,-0.8759984061539172,0.7315414199024438,3.7483477399021385
1789690645639379500,1.88537939453125,1.0017168627310544,0.9544406592279672,1.8465584255337715
1789690645649366300,1.8953662109375,1.216240926290676,-0.07123509817421436,-2.091367298850417
1789690645659354400,1.905354248046875,0.34263964440636335,-2.0834604712486264,-4.447431243792176
1789690645669342500,1.915342529296875,-1.5559376491129397,-3.270000744345784,-6.708563573151826
1789690645679330300,1.925330322265625,-3.742151223349571,-4.490162716537713,-7.653661819016933
1789690645689317400,1.9353173828125,-4.264095953091979,-4.996325355258584,-7.287445995646714
1789690645699305500,1.945305419921875,-3.099153179296851,-4.9456449693351985,-7.189922025483846
1789690645709293300,1.955293212890625,-1.859274699243903,-3.2735961384892462,-7.613996748104691
1789690645719280400,1.9652802734375,-0.632285511380434,-2.9954262628406285,-5.832798975753784
1789690645729268200,1.975268310546875,0.3118909434646368,-2.4090642982453105,-4.058087642812729
1789690645739256300,1.98525634765625,0.5160018956899642,-1.8997429032325743,-3.031841976568103
1789690645749243400,1.995243408203125,-0.22677931389557196,-1.5158599057465791,-1.8834221752896905
1789690645759231200,2.005231201171875,-0.9681856914639473,-0.9820943898290395,-0.6385223599433899
1789690645769219300,2.01521923828125,-1.074532435029745,-1.2141373050749302,-0.40338206320405007
1789690645779206700,2.02520654296875,-1.0216039048533887,-3.294613792076707,-1.6698042667895554
1789690645789194000,2.035194091796875,-1.2161387810904531,-4.052306136801839,-2.7792086932361126
1789690645799181800,2.045181884765625,-1.1210744059741495,-4.539363677558303,-3.4067458410456775
1789690645809169700,2.055169677734375,0.23837270278930664,-5.486364542174339,-3.231278214980662
1789690645819157000,2.065156982421875,1.3606896561704576,-6.429340973579883,-2.3015008723661303
1789690645829144800,2.075144775390625,2.043143512298912,-6.360003233459591,-1.0069941455468534
1789690645839132700,2.085132568359375,3.0023849959373474,-6.906133140909671,-0.5826791844293475
1789690645849120000,2.0951201171875,3.4634602464362976,-7.670743302199244,-1.0818509413495658
1789690645859107800,2.10510791015625,-1.6803832362100481,-7.282491588109731,-1.302962128214538
1789690645869095700,2.115095703125,-8.474204295408725,-6.17109920271635,-0.5174480028450489
1789690645879083800,2.125083740234375,-3.7722201983988284,-3.783386904579401,1.3653537024587392
1789690645889070800,2.13507080078125,-0.8957201747119427,-2.5652549769103525,1.917168377546966
1789690645899059000,2.145058837890625,1.1289245349526404,-1.8964029451549052,2.4888775474116205
1789690645909046800,2.155046875,2.5953426566600797,-1.8185995745062826,3.0260563789039847
1789690645919033900,2.165033935546875,3.207650378894806,-1.8891431832849979,2.912803216950595
1789690645929022000,2.17502197265625,3.6842522843495007,-0.5026169289380311,3.3351936397463082
1789690645939009800,2.185009765625,3.922423327086866,1.4368682020962238,3.861336405700445
1789690645948997600,2.19499755859375,3.964422686165571,3.1389538592875,3.91120693654567
1789690645958985000,2.20498486328125,3.9845346230849623,4.812015082046389,2.5691163285136223
1789690645968972800,2.214972900390625,3.596755202682316,5.28615410451889,0.11212269661873578
1789690645978960600,2.224960693359375,3.2930475656732914,5.0677814027071,-1.614136447842419
1789690645988948000,2.234947998046875,3.5884012158349154,5.649447318440675,-2.0032099997088313
1789690645998936000,2.24493603515625,4.4169118946269155,6.1346215296685696,-1.1597454974129795
1789690646008923600,2.254923583984375,5.156559756356478,5.585412360903621,0.7310548054292798
1789690646018911000,2.264910888671875,5.657250101146102,3.3544436991393565,3.450656878964603
1789690646028899000,2.274899169921875,6.781233672565222,2.4928701241791247,6.26837825820744
1789690646038887000,2.284886962890625,7.529637379941343,2.5896657800674436,7.764007861351966
1789690646048874000,2.2948740234375,6.955461527702212,2.3763147058099507,7.31280021713376
1789690646058861800,2.30486181640625,6.178924197253584,2.134707843405008,6.9673524565041065
1789690646068850000,2.314849853515625,5.341863716781139,1.834458822417259,6.560845539277792
1789690646078837800,2.324837646484375,4.5300098660185935,-0.49745560065209865,6.861009220069646
1789690646088824800,2.334824951171875,3.9554002985373136,0.5242705423414706,6.339997971785068
1789690646098813000,2.34481298828125,2.8286814569354055,2.406396540340781,6.357277023366093
1789690646108800800,2.35480078125,1.1443740330189467,2.0275345858871936,5.35665095154643
1789690646118787800,2.364787841796875,-0.7027823584079742,2.3975550622373816,4.233214200355112
1789690646128776000,2.37477587890625,-2.433001054149866,1.6412755069196223,2.773752181395888
1789690646138764000,2.384763916015625,-4.540267640660703,0.6594657792508601,1.5941529596082866
1789690646148750800,2.394750732421875,-7.195536942756176,-0.6663041008383035,0.7493173150897026
1789690646158739000,2.404739013671875,-9.504586623066663,-1.9247505032390355,-0.04296776571944356
1789690646168727000,2.41472705078125,-10.587815574771165,-2.9717689083993433,-1.2231273978687822
1789690646178715000,2.42471484375,-9.594798224389553,-3.6584541184872386,-2.6189500344797967
1789690646188702000,2.434701904296875,-7.02971042073965,-3.8977024350672957,-3.5099347051024434
1789690646198690000,2.44468994140625,-4.214269553649426,-4.380836080378294,-4.164530832490325
1789690646208678000,2.454677978515625,-2.027817494481802,-5.0923435970336195,-4.698559383258223
1789690646218665000,2.4646650390625,-1.3781822043716907,-5.362725887545943,-4.882618312057852
1789690646228653000,2.474653076171875,-2.5037547985479236,-4.41823671348989,-4.891591892108321
1789690646238641000,2.484640869140625,-4.10378760997504,-2.1575702480763197,-4.2844215327620505
1789690646248628700,2.494628662109375,-4.667614502157271,-0.9152811997503042,-3.2729505340620872
1789690646258615800,2.50461572265625,-3.358386591546237,-1.6254823099821805,-2.2989522107966245
1789690646268604000,2.51460400390625,-1.3682885868668555,-2.525819038578868,-1.3972908094674348
1789690646278591700,2.524591796875,0.3680247724883258,-2.7125825501620766,-0.3013590280562639
1789690646288578800,2.534578857421875,1.8077407652311026,-2.598984812554717,0.3286241977311671
1789690646298567000,2.54456689453125,2.733359965252876,-2.79558816562891,0.9634998717352747
1789690646308555000,2.554554931640625,3.589366553735733,-2.994875058698654,1.6422900907896458
1789690646318541800,2.564541748046875,3.511854274988174,-3.0686089879512783,2.3623550079099833
1789690646328530000,2.574530029296875,1.2516006281591951,-2.915430935105681,2.7844042160525917
1789690646338518000,2.58451806640625,-0.3189221572756767,-2.176053414750099,2.4164754512846467
1789690646348504800,2.5945048828125,0.9714484926521778,-1.759661063325405,2.7033140788182615
1789690646358493000,2.604492919921875,1.851056759866327,-1.5248276405781507,3.596625146561861
1789690646368481000,2.61448095703125,1.8682954794369637,-0.6286480316609144,4.430243962147832
1789690646378468900,2.62446875,2.1598492989242075,0.5626385591804981,5.185837288767099
1789690646388456000,2.6344560546875,2.5443641645729542,1.2016098319351673,6.215367383509874
1789690646398444000,2.644444091796875,2.715405790889263,2.0924434036493302,6.718206430765986
1789690646408431900,2.654431884765625,3.0978374205231667,3.0147780290424824,6.288794438770413
1789690646418419000,2.6644189453125,3.23912337552309,2.9816496664226055,5.0856338702619075
1789690646428407000,2.674406982421875,3.639831835603714,2.8522306748270987,3.7252743228286502
1789690646438395000,2.684394775390625,3.846356278711557,3.0180419992744922,2.543291566905379
1789690646448382000,2.6943818359375,3.8613831674516197,3.272870746824145,1.8463858454458415
1789690646458369800,2.704369873046875,3.4578047048926353,3.2553765911877153,1.3321027363725007
1789690646468358000,2.71435791015625,2.7219863383233545,2.8249948773771525,0.581008913129568
1789690646478345000,2.724344970703125,2.028929255115986,2.5951269680827855,-0.18976627359576523
1789690646488332800,2.734332763671875,2.053715321326256,2.4649831693440674,-0.405305870873481
1789690646498321000,2.74432080078125,2.5363269885897637,2.7402666759014127,0.015438392150402068
1789690646508309000,2.75430908203125,3.8434371763944624,3.195505183070898,0.8385965309333056
1789690646518295800,2.7642958984375,5.661359874552488,2.753112713471055,1.478923383015394
1789690646528284000,2.774283935546875,4.401979406172037,2.1627157942712305,1.3175494564935564
1789690646538272000,2.78427197265625,2.1696797880649563,1.7253507974445819,0.38284948971979316
1789690646548258800,2.7942587890625,2.346302429383993,0.7365805831134319,-0.24881569780521093
1789690646558247000,2.804246826171875,1.5228209769308567,-0.39043314978182314,-0.9715624013554304
1789690646568235000,2.814235107421875,0.3489975620657205,-2.335125201809406,-1.601930900133401
1789690646578221800,2.824221923828125,0.829552881321311,-3.5563171015709636,-2.0983865299627182
1789690646588210000,2.8342099609375,-0.2953500699650496,-3.8781864182144403,-2.999077186563611
1789690646598198000,2.844197998046875,-0.9509715218126773,-3.854965117102861,-3.571284953600168
1789690646608185900,2.854185791015625,-0.42745778918787836,-2.5772709933966396,-3.7333106220290064
1789690646618173000,2.8641728515625,-1.6060153929680585,-1.3879922352463006,-2.7866610550686715
1789690646628161000,2.8741611328125,-2.9287258854866027,0.11074234817624092,-1.3714236700221896
1789690646638148900,2.88414892578125,-3.025323388454318,1.6546739176750183,-0.39227965443134305
1789690646648136000,2.894135986328125,-3.157769034394622,1.4528057759404183,0.5699206059474498
1789690646658123800,2.904123779296875,-3.4463843162119385,0.2461597034037113,0.8856718781020492
1789690646668112000,2.91411181640625,-3.263808903968334,-0.5760626888990402,0.44994770728498695
1789690646678099000,2.924098876953125,-2.7648759242400525,-0.533779544442892,-0.4886542353633791
1789690646688086800,2.934086669921875,-2.33746796554327,-0.2827805843144655,-1.4507505969762802
1789690646698075000,2.944074951171875,-2.1185238935843107,-0.23631986191272733,-2.2569117890551684
1789690646708062000,2.95406201171875,-2.3291204084366557,-0.006316928061842918,-2.9204478864848613
1789690646718049800,2.9640498046875,-2.533077046883106,-0.22863632167279718,-3.1949200766593218
1789690646728038000,2.974037841796875,-2.9848966855198142,-1.2065233229398726,-3.0835809316337106
1789690646738026000,2.98402587890625,-3.4438945452228187,-2.4734236654311417,-2.8223241968631743
1789690646748012800,2.9940126953125,-3.838722715093195,-3.661232351028919,-2.5749767449796197
1789690646758001000,3.0040009765625,-4.071412988331914,-4.840366147261857,-2.3302852144323287
1789690646767989000,3.013989013671875,-4.19935898476541,-5.273505635347962,-2.1638538583904503
1789690646777976300,3.023976318359375,-3.4229876585334535,-5.723985549813508,-2.796971728941798
1789690646787964200,3.033964111328125,-3.6469814150974154,-6.184733760315179,-2.669028947378695
1789690646797952300,3.0439521484375,-2.9582515474393962,-6.070915657955408,-2.5082845509320495
1789690646807939300,3.053939208984375,-2.5635610324740408,-6.344159767639637,-2.5744755174592138
1789690646817927200,3.06392724609375,-2.4943928037017584,-5.718651203048229,-2.5240678109973667
1789690646827915300,3.073915283203125,-2.7131623958766458,-4.141120146286488,-2.534045015132427
1789690646837902000,3.083902099609375,-3.0375106698542833,-2.2108277910113334,-2.531519880568981
1789690646847890200,3.09389013671875,-3.264181828933954,-1.6123989565253256,-2.7421137650728222
1789690646857878300,3.103878173828125,-3.116287269449234,-1.1921253797531126,-2.9472806560918685
1789690646867866400,3.113866455078125,-3.13645502820909,-0.8734779477655887,-3.4550025069534778
1789690646877853200,3.123853271484375,-3.9457375671789046,-0.9126847535163164,-4.186228285035491
1789690646887841300,3.13384130859375,-7.757657031020521,-0.8931722437947988,-6.24995120563507
1789690646897829400,3.143829345703125,-9.934230085730553,-1.8537720101743935,-7.522524333065748
1789690646907816200,3.153816162109375,-5.9656789214581245,-4.248592094489932,-5.112002821749448
1789690646917804300,3.16380419921875,-1.3524492127001284,-5.490933749786019,-2.8015751310840247
1789690646927792000,3.173792236328125,1.663148900553584,-6.05308072605729,-0.9412458082206546
1789690646937779200,3.183779296875,4.262655106633901,-6.826880155974626,1.2403119030341505
1789690646947767300,3.193767333984375,5.086814604479074,-6.57584378644526,3.7524566365256904
1789690646957755100,3.203755126953125,5.07705075083375,-6.39460049958825,5.975436929884553
1789690646967742200,3.2137421875,5.716752675950527,-6.414639663532376,6.721542297190427
1789690646977730300,3.223730224609375,5.7661611422419545,-5.641884774231911,6.612251901388168
1789690646987718100,3.23371826171875,5.577899501055478,-4.373406222638487,6.134510470509529
1789690646997706200,3.243706298828125,5.173505045938492,-2.481041739219427,5.5930555691331625
1789690647007693300,3.253693359375,4.351697664177418,-0.3691413554280996,4.789344985076784
1789690647017681200,3.26368115234375,-0.1367852095145732,0.9939970090687275,2.9334444384410974
1789690647027669200,3.273669189453125,-2.3787328728675843,1.205274784183502,1.1130546195171773
1789690647037656000,3.283656005859375,-0.3188951231382787,0.7911088766366243,1.4103691944882273
1789690647047644200,3.29364404296875,2.0894494825303553,1.1428379094928502,1.3290715519830583
1789690647057632300,3.30363232421875,3.8245278932631015,1.596060985186696,0.5062165608651936
1789690647067619000,3.313619140625,4.978007023757696,1.3125403961598872,-0.2014407649016939
1789690647077607200,3.323607177734375,4.993720141196251,0.390575188601017,-0.287216520935297
1789690647087595300,3.33359521484375,3.9765573605954643,0.19920213739573955,-0.24418270424231886
1789690647097582000,3.34358203125,3.817434135609865,0.8413152153074741,0.2647979510413483
1789690647107570200,3.353570068359375,3.5032115343272685,2.0232897879242895,1.1423866585940121
1789690647117558300,3.363558349609375,3.262698020116985,3.0623604489505287,1.6556792953252792
1789690647127545000,3.373545166015625,3.0993314584732055,3.6141450211614368,1.8904925520673392
1789690647137533200,3.383533203125,3.4608380812391637,3.3291993677675724,2.94432268306911
1789690647147521300,3.393521240234375,4.522604850459099,3.232005067950487,4.257321928912401
1789690647157509000,3.403509033203125,5.183731840920448,3.4832430975317954,5.585014301496744
1789690647167496200,3.41349609375,5.528780957621335,4.037640482589603,5.84194440523982
1789690647177484300,3.423484375,5.4337318531394,4.591213691782951,5.775489527079463
1789690647187472100,3.43347216796875,5.1834851726830005,4.8212452672064305,5.794831940931082
1789690647197459200,3.443459228515625,4.9344133812248705,5.064437352976203,5.953870994764566
1789690647207447300,3.453447265625,4.397901489208638,5.66833088260889,6.1724856886386865
1789690647217435100,3.46343505859375,3.846683026447892,6.342620136982202,6.185751412925124
1789690647227422200,3.473422119140625,3.2545179285317656,6.8459607040196655,5.858813706976175
1789690647237410000,3.48341015625,2.5235575233876704,7.14108931325376,5.373941693565249
1789690647247398100,3.493398193359375,1.6452338891565799,7.148480008026957,4.898994861841201
1789690647257385200,3.50338525390625,0.6031573243126273,6.542224425438046,4.209075199876725
1789690647267373000,3.513373046875,-0.31779972911700605,5.391669657957554,3.051460577012598
1789690647277361200,3.523361083984375,-1.5429026648424564,3.8413206226319074,1.579322616353631
1789690647287348200,3.53334814453125,-3.3242765244126318,1.709621313393116,0.2656896757166832
1789690647297336000,3.543336181640625,-5.526022014302015,-0.9242290608376263,-1.344262691374123
1789690647307324200,3.55332421875,-7.544813321763277,-4.0162241850733755,-3.0958515074029562
1789690647317312300,3.563312255859375,-8.42906400795579,-6.849604613479971,-4.6504573233902455
1789690647327299000,3.573299072265625,-7.587268315654993,-8.807405153405666,-5.695442176896333
1789690647337287200,3.583287109375,-5.384958177620172,-9.846736511194706,-6.028292321759462
1789690647347275300,3.593275146484375,-2.8902830498456953,-9.95530911411643,-6.594553747612237
1789690647357262000,3.603261962890625,-1.2029939797699452,-8.283394723305106,-7.511710678106546
1789690647367250200,3.613250244140625,1.3292132985413074,-1.056721468529105,-8.508217039647699
1789690647377238300,3.62323828125,-1.523029066723585,-1.5123784933716058,-10.527504606193304
1789690647387225000,3.63322509765625,-1.0105880783855914,0.3468646416902542,-6.033493397533893
1789690647397213200,3.643213134765625,-1.4160720823049544,0.6997901908546685,-3.7061245089396833
1789690647407201300,3.653201171875,-1.2170423788666724,-0.17569675864577292,-2.0094088543489574
1789690647417188000,3.66318798828125,-0.46831426184177394,-1.9496534738272426,-0.6684040687922388
1789690647427176200,3.67317626953125,-0.06767945151925087,-2.555993812090158,0.20282792667746544
1789690647437164000,3.6831640625,0.011453121906518935,-2.5122248129904268,0.661985287791118
1789690647447151000,3.693151123046875,-0.0610685089468956,-2.9464982735425234,1.4778956474028526
1789690647457139200,3.70313916015625,-0.5817150155723094,-3.298986600333452,2.867809936752915
1789690647467127000,3.713126953125,-1.5322972458064554,-3.272744490095973,4.444571762707829
1789690647477115100,3.723115234375,-1.1143594185054302,-3.094091219732165,5.003441909265518
1789690647487102200,3.733102294921875,0.5332498945455998,-3.134518507188558,4.87050117328465
1789690647497090000,3.743090087890625,1.4812649777054785,-4.092522411856055,4.467896231932938
1789690647507078100,3.753078125,1.6391373258471489,-4.7194566253364085,4.179583440193533
1789690647517065200,3.763065185546875,0.5496598351418972,-2.490810853561759,4.418379921352863
1789690647527053000,3.773052978515625,-0.5186650139519945,0.5493962157696485,5.322057777070999
1789690647537041200,3.783041259765625,0.4545440951645374,2.429286417540908,6.678762309128046
1789690647547028000,3.793028076171875,2.2384277455985546,3.905423384708166,7.624791698363423
1789690647557016000,3.80301611328125,3.904223945790529,3.8269565817147493,7.539339858788251
1789690647567004200,3.813004150390625,4.709160856771469,2.699697934147715,6.64682403307557
1789690647576991000,3.822990966796875,4.665654892522096,1.9132383446216583,5.902239007204771
1789690647586979000,3.83297900390625,4.455575387281179,1.6948948689043521,4.8020364166066045
1789690647596967200,3.84296728515625,3.9705560743540524,1.604289299827814,3.7599896623790263
1789690647606954000,3.8529541015625,3.3364252273678776,1.341265555384755,2.9824907934218645
1789690647616942000,3.862942138671875,2.6679402753591535,0.951990343466401,2.194445688270032
1789690647626930200,3.87293017578125,2.266716851493716,0.7222650575131178,1.6566446332260965
1789690647636917000,3.8829169921875,2.1626053196340798,0.8786667485803366,1.2323638666391372
1789690647646905000,3.892905029296875,2.0146207437783477,1.095726614227891,0.7426139449935406
1789690647656893200,3.90289306640625,1.87324944858253,1.0106816018879412,0.015028934566676616
1789690647666881000,3.912881103515625,1.3724443913720548,0.9347130454510449,-0.6077048315491527
1789690647676868000,3.9228681640625,1.193514203763008,1.169631223872304,-0.9692172264687716
1789690647686856200,3.932856201171875,1.3184512276388705,1.382002639442682,-1.1079974822580814
1789690647696844000,3.942843994140625,1.2152484811872244,1.250130409476161,-1.3565059407450257
1789690647706831000,3.9528310546875,1.202361527085304,0.9511638295143842,-1.6249577015861867
1789690647716819200,3.962819091796875,0.5949624735496938,0.39551147595942016,-2.08359403450042
1789690647726807000,3.97280712890625,-2.1213247763492165,-0.2279296347081661,-2.958779662966728
1789690647736794000,3.982794189453125,-4.905850719085335,-0.7367097624510526,-3.7045761104539037
1789690647746782000,3.992781982421875,-5.323033928626775,-0.7769219458520412,-4.048268844109773
1789690647756769300,4.002769287109375,-4.262939768794179,-0.6701759738355875,-3.721268594318628
1789690647766756000,4.012756103515625,-2.7611130645751953,-0.25004326683878897,-3.417798273196816
1789690647776744000,4.022743896484375,-1.9072680380403995,0.24133564424812792,-3.1949051713511345
1789690647786732000,4.03273193359375,-1.224741701197624,0.6517746402263641,-3.0373624935552477
1789690647796720000,4.04272021484375,-0.32465982414484024,0.78320906329751,-2.8815304190695286
1789690647806707000,4.05270703125,0.3201137051478028,0.776202399405837,-2.6921225304573775
1789690647816695000,4.062695068359375,0.3886893748544156,0.7385854931950568,-2.515423609031737
1789690647826683100,4.07268310546875,0.17124606284722685,0.7760948473781347,-2.047080705617368
1789690647836670000,4.082669921875,0.14091829073131085,0.5372159486323594,-1.654864764072001
1789690647846658000,4.092657958984375,0.12325696183443069,0.25634908898472786,-1.3719431638516484
1789690647856646100,4.102646240234375,-0.08095861980915069,0.06201777249574661,-1.249634150391817
1789690647866633000,4.112633056640625,-1.0831652388185262,-0.35227439177930353,-1.0822931321591138
1789690647876621000,4.12262109375,-2.8240076199054718,-1.0316109926700592,-1.1049637405853718
1789690647886609200,4.132609130859375,-4.138175325006246,-1.9110551553636788,-1.6831021397799253
1789690647896596000,4.142595947265625,-4.637091061338782,-2.5382126562058924,-2.2916379422605035
1789690647906584000,4.152583984375,-4.667337731042504,-2.981194908392429,-2.5264094056874513
1789690647916572000,4.162572021484375,-4.50081738154292,-3.1015076334685086,-2.6710195366740224
1789690647926559000,4.17255908203125,-3.895696940463781,-2.8657302078694102,-2.9976328329741952
1789690647936548900,4.182548828125,-2.9002792509421704,-2.6549370014011857,-3.399659974437952
1789690647946536200,4.1925361328125,-2.0866773874685167,-2.5602941396325827,-3.634154082228243
1789690647956523800,4.202523681640625,-2.0622697991818186,-2.39854699588418,-3.556637711827457
1789690647966511900,4.212511962890625,-2.479505031171441,-2.358867311924696,-3.408038803465664
1789690647976499200,4.222499267578125,-3.0633401076376434,-2.3944039047300816,-3.381082699739933
1789690647986486800,4.23248681640625,-3.6770132730066774,-2.429887890565395,-3.499174826157093
1789690647996475000,4.242474853515625,-4.403845200043916,-2.4780361276626586,-3.722294137974083
1789690648006462000,4.2524619140625,-5.009775788462162,-2.5516438001871107,-4.148535975500941
1789690648016450000,4.262449951171875,-5.987807751157879,-2.343593170425296,-4.3844414113938805
1789690648026438000,4.27243798828125,-7.5745713311672205,-1.7438544223845005,-4.339287972198426
1789690648036425000,4.282425048828125,-9.552306990140677,-0.8044155174553393,-4.2214208867087955
1789690648046413000,4.2924130859375,-10.261033936166763,-0.6723404583930969,-4.586692122705281
1789690648056401000,4.30240087890625,-8.226849829262495,-0.972757237163186,-4.577528573040664
1789690648066388000,4.312387939453125,-3.1625843257218595,-1.4719155500799417,-3.489388468419015
1789690648076376000,4.3223759765625,2.4920371804863213,-2.8837966104358435,-2.976876460671425
1789690648086364000,4.332364013671875,6.2977767866492265,-5.605799899893999,-3.7235172500282525
1789690648096351000,4.34235107421875,9.279307210606335,-7.033794475182891,-3.329626945529878
1789690648106339000,4.352339111328125,10.16935635394454,-6.700491325855254,-2.720603944054246
1789690648116327200,4.3623271484375,8.637189456519485,-6.251448750716447,-1.8908507178552447
1789690648126314800,4.372314697265625,8.059130040845275,-6.338412748420238,-0.537168967685476
1789690648136302000,4.382302001953125,7.680327707624435,-6.507318531751633,0.7482284238744527
1789690648146290200,4.392290283203125,6.916549320983886,-6.556953208014368,2.0125944986477493
1789690648156278000,4.402278076171875,2.606200735282898,-6.1969660499006505,3.0148183610528707
1789690648166265000,4.41226513671875,-4.517400267553329,-5.07451334131062,3.3263504080772397
1789690648176253200,4.422253173828125,-6.643897916495799,-4.527009807419777,3.810592891412973
1789690648186241000,4.432240966796875,-3.502542841285467,-3.2501433667093513,3.3741549463033675
1789690648196228000,4.44222802734375,0.5710159999687224,-1.6427730520009993,3.6695243785560128
1789690648206216000,4.4522158203125,3.5583237652182578,-0.9923837286531925,3.528224395030737
1789690648216204000,4.4622041015625,4.5538019527554505,-0.8043570652663707,2.5074954463809727
1789690648226191000,4.472191162109375,5.133812502497435,-0.32068975147008894,2.216397115576267
1789690648236179000,4.482178955078125,4.11196653251648,0.6316764395713805,2.1702624102585015
1789690648246167000,4.4921669921875,2.5415315714955327,1.7722259458661078,2.680323663853109
1789690648256154000,4.502154052734375,2.964276506817341,2.9922984862089157,3.8695387091174718
1789690648266142000,4.512141845703125,3.7300925367653366,3.960963485622406,4.813203415048122
1789690648276130000,4.522130126953125,3.6466356703996654,4.03738270843625,5.1397582591593265
1789690648286117000,4.5321171875,3.0155960674270985,3.9319782141566275,5.060504689702391
1789690648296105000,4.54210498046875,2.636254805023968,3.985557244130969,4.997691967436671
1789690648306093000,4.552093017578125,2.8689713817477225,4.181218347918987,5.141538712835311
1789690648316079900,4.562079833984375,3.270104496981203,4.3995214916259044,5.49822449131608
1789690648326068000,4.57206787109375,3.828057236433029,4.6868531633734705,6.407810109773278
1789690648336056000,4.58205615234375,4.202960516388714,5.131169294512271,7.167879705023765
1789690648346044200,4.592044189453125,4.450945097132027,5.597285754048824,7.707364767631888
1789690648356031000,4.602031005859375,4.361764007900655,5.831882445430756,7.995462747576832
1789690648366019000,4.61201904296875,3.942704190832376,5.988443710973859,7.895542237666249
1789690648376007200,4.622007080078125,3.3129481979295607,6.142037358883023,7.495549232378601
1789690648385994000,4.631993896484375,2.7040602210104465,6.332700800514221,6.977344273686408
1789690648395982000,4.641982177734375,2.088217310386896,6.27511136585474,6.2453855051547285
1789690648405970000,4.651969970703125,1.4135120225585995,5.6958554338723415,5.170105466628074
1789690648415957000,4.66195703125,0.6105006728127599,5.148402168864012,3.747661803464591
1789690648425945000,4.671945068359375,-0.2857400186419487,3.9339854623258113,2.2624000112079083
1789690648435933000,4.681932861328125,-1.685643056434393,2.326442129138112,0.9109387866318225
1789690648445920000,4.691919921875,-3.6513469168305397,0.2792354590535164,-0.5003406545691191
1789690648455908000,4.701908203125,-5.372668020367622,-2.2611638935416933,-2.180816683629155
1789690648465896000,4.71189599609375,-6.410211910218,-4.6781800275743,-4.2907606726557015
1789690648475883000,4.721883056640625,-6.22236878670454,-6.7084384854674335,-6.388202907505631
1789690648485871000,4.73187109375,-4.591025475734472,-8.371773848503828,-7.551349445533752
1789690648495859000,4.74185888671875,-2.8785201313376425,-9.528580662116408,-8.096945684498548
1789690648505846000,4.751845947265625,-1.9151218202807008,-9.499154661145806,-8.513644325393438
1789690648515833900,4.761833740234375,-1.8940484909832476,-7.220017304018139,-8.39648100425899
1789690648525822000,4.771822021484375,-2.8294588710486885,-3.719711428004503,-7.5254399282515045
1789690648535809000,4.78180908203125,-3.42539998037219,-1.112938445791602,-6.19433803948462
1789690648545796900,4.791796875,-2.7460230474710463,0.6091787765592336,-4.643031849564611
1789690648555785000,4.801784912109375,-1.2314227863967417,1.4770488213151693,-2.9345202509790655
1789690648565772000,4.81177197265625,0.4106102608919143,0.9313795171141623,-1.3546028836026787
1789690648575760000,4.821759765625,1.6777274610042572,0.4827133740723133,0.1535591611176729
1789690648585748000,4.831748046875,2.598887197399139,0.14342238250672817,1.0850171502955257
1789690648595736000,4.841736083984375,3.003593787205219,-0.4980488903701305,1.4425658292159438
1789690648605723000,4.851722900390625,2.3894576804995538,-1.912858405393362,1.7159648372009395
1789690648615711000,4.8617109375,0.8092741364676505,-3.963378145548701,2.66391876475811
1789690648625699000,4.871698974609375,-0.6505892298340797,-6.034923722597957,4.636562361289561
1789690648635686000,4.881685791015625,-0.7246247723817825,-7.8603546044290065,6.704746060690283
1789690648645674000,4.891674072265625,0.532808105594851,-8.889096763664483,7.71709588805139
1789690648655662000,4.901662109375,1.4824831213235854,-7.51974200887084,7.207179449754953
1789690648665649000,4.91164892578125,1.1542238113820553,-2.875449053329229,5.701002733632921
1789690648675637000,4.921636962890625,1.0629249993443488,0.8300988247662782,4.55487659624964
1789690648685625000,4.931625,1.4202479066848754,3.0465736817538738,4.062772585758567
1789690648695612000,4.94161181640625,2.0960288609206676,4.632978949844837,3.8528734055206177
1789690648705600000,4.95160009765625,2.8590707499802113,5.301151182642578,3.535118538458645
1789690648715587800,4.961587890625,3.5226351967215535,5.457012190961837,3.367637527233362
1789690648725575000,4.971574951171875,4.172851501590014,5.682196326354146,3.522284483587742
1789690648735563000,4.98156298828125,4.818540099900961,5.005562554681301,3.814798818670213
1789690648745550800,4.99155078125,4.783029226058721,3.3951042108297345,4.1980566699951885
1789690648755538000,5.001537841796875,4.340567198354005,1.8867846374601125,4.211610563573241
1789690648765526000,5.011526123046875,4.3076615385740995,0.5859376017034054,3.7268323659256097
1789690648775513900,5.021513916015625,4.129689820733666,-0.42979953000843524,2.953488570821285
1789690648785502000,5.031501953125,4.120494706887007,-1.2375929994642734,2.3478116649031637
1789690648795488800,5.04148876953125,3.8554993701100346,-1.845114071944356,1.7594892138898373
1789690648805476900,5.051476806640625,3.43506095816493,-1.787895224162936,1.017930403972417
1789690648815465000,5.06146484375,2.9240479568034408,-1.0711088903218506,0.0227923351097852
1789690648825451800,5.07145166015625,2.0826345418184995,-0.3302501914978027,-1.3100424418643115
1789690648835439900,5.08143994140625,1.1539596074879168,0.13573650417923927,-2.2500104852341116
1789690648845428000,5.091427978515625,0.6236176362782716,0.3554606205999851,-2.8561849654108284
1789690648855414800,5.101414794921875,0.4151052342236042,0.5039449626713991,-3.5887530980125066
1789690648865403000,5.11140283203125,-1.5998044094987212,0.6850929724603891,-4.556398106728494
1789690648875391000,5.121390869140625,-6.906531784838438,0.9450316103696823,-6.2619222139358515
1789690648885377800,5.131377685546875,-8.218384198734164,1.323525900554657,-5.492313805967569
1789690648895366000,5.141365966796875,-5.797461120390892,0.6043371817469596,-3.35865167222321
1789690648905354000,5.15135400390625,-3.883478094881773,0.184268187636137,-2.0794977050974963
1789690648915340800,5.1613408203125,-1.524648923010379,0.053909869363903996,-1.6212880731627344
1789690648925329000,5.171328857421875,-0.19349311209917067,0.36627369103729723,-1.6038606991522013
1789690648935317000,5.18131689453125,0.6958341467052698,0.49060558862686154,-1.6815568100340663
1789690648945303800,5.1913037109375,1.0382440009437501,0.479632943713665,-1.5184128050997852
1789690648955292000,5.2012919921875,0.9364759634703397,0.8123194224476814,-1.3371942142926156
1789690648965279700,5.21127978515625,0.49957376184985036,1.1957774725198744,-1.1923198794119059
1789690648975266800,5.221266845703125,0.17043430807292462,1.33970838907063,-1.2725395174220204
1789690648985255000,5.2312548828125,-0.0705244656868279,1.4055536109000444,-1.4214574286051094
1789690648995242800,5.24124267578125,-0.22621873913705348,1.2834329596191645,-1.463789234508574
1789690649005229800,5.251229736328125,-0.37883696614280343,0.8821370550394058,-1.2936618004277347
1789690649015218000,5.261218017578125,-0.9129099405743181,0.05607143131196499,-1.180535771985352
1789690649025205800,5.271205810546875,-2.4501374823898074,-1.0513508814066648,-1.7058508549436926
1789690649035193000,5.281193115234375,-3.8762133645758032,-2.13440564558804,-2.5907863085299727
1789690649045181000,5.291180908203125,-4.382727300952375,-2.742652109733224,-2.9648534299224614
1789690649055168800,5.301168701171875,-4.568472867664695,-2.659623697912693,-2.927542520920932
1789690649065156900,5.311156982421875,-4.670257710142433,-2.324583934050798,-3.0536575025349855
1789690649075144000,5.32114404296875,-4.130434209360182,-1.8817618408620356,-3.3901825365185734
1789690649085131800,5.3311318359375,-2.918745174220204,-1.9915905813246964,-3.8782533459708093
1789690649095120000,5.341119873046875,-1.5832815831124782,-2.373627074161172,-4.147162641321122
1789690649105107000,5.35110693359375,-0.9107640145868062,-2.4997242278575897,-4.111823616914451
1789690649115094800,5.3610947265625,-0.5604097772151232,-2.5982103210508822,-4.049240904012322
1789690649125083000,5.371082763671875,-0.578239448416233,-2.78643104570508,-4.06536873973161
1789690649135070000,5.381070068359375,-0.9843857156366109,-3.013661007711291,-4.263974957060814
1789690649145057800,5.391057861328125,-1.7184531468853352,-3.191426389324665,-4.5738080912128085
1789690649155046000,5.4010458984375,-2.989906914897263,-3.0137206289440392,-4.802319617462158
1789690649165033000,5.411032958984375,-4.342973090451956,-2.2211685677617785,-4.822061844286322
1789690649175021000,5.42102099609375,-5.575569012281298,-1.2879255948632955,-4.6921895559653635
1789690649185009000,5.4310087890625,-6.992948085531592,-0.7014584163278341,-4.868546532085538
1789690649194996000,5.440995849609375,-8.027798498514294,-1.0294354021966456,-5.411804098969697
1789690649204984000,5.450984130859375,-7.146605446326732,-2.145737771463394,-6.126359897279739
1789690649214972000,5.460971923828125,-5.440759559819102,-3.631399522823095,-6.582392185175419
1789690649224959700,5.470959716796875,-2.806612248468399,-4.340936616188287,-6.358368325734138
1789690649234947000,5.480947021484375,0.5563058490276336,-5.004843592756987,-5.650189661240577
1789690649244935000,5.490934814453125,3.002397270897031,-4.942252988809347,-3.8204561137795445
1789690649254922800,5.5009228515625,5.08382009883821,-3.6642701112896203,-1.1131140215542166
1789690649264910000,5.51091015625,6.814405289804935,-3.372762615162134,0.6869654152687639
1789690649274898000,5.52089794921875,7.579975236037373,-2.9161837992995974,1.9982225666850804
1789690649284885800,5.5308857421875,7.579786435467004,-3.1187720720022916,2.7383392149701713
1789690649294873000,5.540873046875,6.844322289162874,-3.684332656109333,3.244449538981914
1789690649304861000,5.55086083984375,4.322609516859054,-4.594261388915777,3.8202585453808307
1789690649314849000,5.56084912109375,0.8495686643898487,-5.462440645751356,4.028593837302923
1789690649324836000,5.570836181640625,-2.4981670615434646,-5.421794162586331,3.8207080427139997
1789690649334824000,5.580823974609375,-2.860671170914173,-4.822836920312047,3.498029163253307
1789690649344812000,5.59081201171875,-0.414835185110569,-3.936066944774985,3.5983605920523405
1789690649354799000,5.600799072265625,2.130160116972774,-3.17733590465188,3.7385599208593367
1789690649364787000,5.610786865234375,4.310485363823175,-2.430099487489462,3.6723330062359567
1789690649374775000,5.620775146484375,5.424822570496797,-1.5408312653958796,3.5923096214503047
1789690649384761900,5.630761962890625,5.190827936661243,-0.377624521613121,3.0999899223819374
1789690649394750000,5.64075,4.093046727991104,1.4122323580116032,3.15270853613466
1789690649404738000,5.650738037109375,3.93415497367382,3.3114474379777907,3.711820674754679
1789690649414726100,5.66072607421875,3.965090210163593,4.189492255267501,3.9314299326241016
1789690649424713000,5.670712890625,4.085471324300766,4.362057730150222,3.949152051797509
1789690649434701000,5.680701171875,4.355144882021844,4.3617707299023865,4.014890306121111
1789690649444689200,5.690689208984375,3.8610207638800143,4.215923750597239,3.9267771383821963
1789690649454676000,5.700676025390625,3.2872458936572073,4.016539242371916,3.7388586115449667
1789690649464664000,5.7106640625,3.3223578313097355,3.6876100703448054,4.026835303197801
1789690649474652000,5.72065185546875,3.7144285191655158,3.9535248600542543,4.774847380907834
1789690649484639000,5.730638916015625,4.231390199798345,4.233435441890359,5.738775122666358
1789690649494627000,5.740626953125,4.473595612618327,4.63882942943871,6.48473728210926
1789690649504615000,5.750614990234375,4.274581691271067,5.107384514299035,6.835654414060712
1789690649514602000,5.76060205078125,4.016683619278669,5.434436786538362,6.973809085297584
1789690649524590000,5.770590087890625,3.6384018028005953,5.7110664470076555,6.978436160576343
1789690649534578000,5.780577880859375,3.1456147784814235,5.838682188573479,6.852905408591032
1789690649544565000,5.79056494140625,2.5110250818118454,5.708272432374954,6.670591277632117
1789690649554553000,5.800552978515625,1.6704748595274983,5.168925316932797,6.281479147320986
1789690649564541000,5.810541015625,0.4949393800474703,4.270595251983404,5.325079755240679
1789690649574528000,5.820528076171875,-0.7918670015275477,3.1407237915694712,3.759559162007272
1789690649584515800,5.830515869140625,-2.2253411772713063,1.9861060124337673,2.186695804795623
1789690649594504000,5.84050390625,-3.9305587027475237,0.17581424754559993,0.3020658611513674
1789690649604492000,5.850491943359375,-5.703175401496887,-1.8814958834022282,-1.9731408785291016
1789690649614478800,5.860478759765625,-6.922841114604473,-4.002036085245013,-4.314609750276804
1789690649624467000,5.870467041015625,-6.561586713033914,-5.556605368614196,-5.71652237432599
1789690649634455000,5.880455078125,-5.150321738749742,-6.572451805919409,-6.207234345936775
1789690649644441900,5.89044189453125,-3.7469805432021617,-7.361593766397237,-6.058675185063481
1789690649654430000,5.900429931640625,-3.000971622008085,-7.358975108331442,-5.884179618901014
1789690649664418000,5.91041796875,-3.354856371593475,-6.014003684166074,-5.975581306791305
1789690649674404900,5.92040478515625,-3.8705695134699343,-3.70914268771708,-5.742549965029955
1789690649684393000,5.93039306640625,-3.8798330163776873,-1.5486422314077615,-5.212165908244252
1789690649694381000,5.940381103515625,-3.082959000343084,-0.09868424611389637,-4.188248977208137
1789690649704367900,5.950367919921875,-1.4863595243655143,0.5749772317498922,-2.9568630156904456
1789690649714356000,5.96035595703125,0.26152093866467474,0.7261731708675623,-1.7935821837581694
1789690649724344000,5.970343994140625,1.6738976735830307,0.4786322422385215,-0.8100986776582896
1789690649734331000,5.980330810546875,2.8466227718174455,0.026710896793007848,-0.10984130768328905
1789690649744319000,5.990319091796875,3.489151444792747,-0.9685936877429485,0.27671251644715666
1789690649754307000,6.00030712890625,3.392088077878952,-2.6499445999413727,0.9016083559677004
1789690649764294000,6.0102939453125,2.897616461473703,-5.366587239149212,2.263750256773084
1789690649774282000,6.020281982421875,0.2548912913918495,-8.749827409183979,4.930438047853112
1789690649784269800,6.030269775390625,-2.610950560158491,-11.319881310808658,8.390584347435832
1789690649794258000,6.0402578125,-1.304500882089138,-9.97067736364007,8.159111925554274
1789690649804244700,6.05024462890625,-0.27615619773864747,-3.4373727422386406,5.154004226654767
1789690649814232800,6.06023291015625,0.5768342577934265,1.9521113883733747,3.639962183985114
1789690649824221000,6.070220947265625,2.3564111509442327,3.888877323576808,3.4922903273403643
1789690649834207700,6.080207763671875,3.690541447621584,5.055488322845101,3.687584935903549
1789690649844195800,6.09019580078125,3.8157507125675676,6.19465426582694,3.9247289736807343
1789690649854184000,6.100183837890625,3.588321428596973,6.056926880091428,3.771157245342433
1789690649864170800,6.110170654296875,3.9915328114092348,4.918329092386364,3.8774177719295024
1789690649874158800,6.120158935546875,4.218690877223015,4.2074709795504805,4.350869104398787
1789690649884146700,6.130146728515625,4.756625203257799,3.2785224889755247,4.859978317965567
1789690649894133800,6.1401337890625,4.7495057266414165,2.139589185705781,4.608368240201473
1789690649904121900,6.150121826171875,4.279464202615618,0.675874477738142,3.803437466700375
1789690649914109700,6.160109619140625,3.970927830275893,-0.7333569448918104,2.983768850533664
1789690649924096800,6.1700966796875,3.8453298582732676,-1.5072820470154285,2.1042405166879297
1789690649934084900,6.1800849609375,3.6763439954429864,-1.8743594556510448,1.4636670694336293
1789690649944072700,6.19007275390625,3.3802404036968943,-1.5765946526944636,0.8166502912588417
1789690649954059800,6.200059814453125,3.0904391269654035,-0.8751981956869364,0.13536094886511563
1789690649964048000,6.2100478515625,2.4382500607192514,-0.23667992739677426,-1.054089512590319
1789690649974035700,6.22003564453125,1.3735627278774976,0.20898878739476204,-2.2138005232118068
1789690649984022800,6.230022705078125,0.7721200254630297,0.6254407600522041,-2.854971497967839
1789690649994010600,6.2400107421875,0.36127193722724915,0.9020224897265434,-3.440923420457542
1789690650003998700,6.249998779296875,-1.5538777939736843,0.904839300712943,-4.3023584637299175
1789690650013985800,6.25998583984375,-5.999446751025319,0.7882792061686515,-5.5836348298370835
1789690650023973600,6.2699736328125,-8.367817804354429,0.7884177378565073,-4.950038235858083
1789690650033961700,6.279961669921875,-6.282212722292542,0.17077333076894283,-3.2001334273934363
1789690650043949800,6.28994970703125,-4.033118036729097,-0.12231821967959404,-2.360040885748714
1789690650053936600,6.2999365234375,-1.671895686110854,0.2397673720180988,-2.346945987984538
1789690650063924700,6.3099248046875,-0.18985738594532012,0.5369155043810606,-2.6550048059403895
1789690650073912800,6.319912841796875,0.3523053714394569,0.3269879748314619,-2.2618597668513654
1789690650083899600,6.329899658203125,0.47323301354348657,0.2892518261551857,-1.8262572496525942
1789690650093887700,6.3398876953125,0.4319844728320837,0.6106295598894357,-1.6792347968272865
1789690650103875800,6.349875732421875,0.11785524892136454,1.0464560951024293,-1.6231443685539066
1789690650113862700,6.359862548828125,-0.17949673545062542,1.400692142343521,-1.5752730487018822
1789690650123850800,6.369850830078125,-0.23782149864733218,1.3707710513323546,-1.3549940748773515
1789690650133838800,6.3798388671875,-0.27426600007787344,1.0360580352067947,-1.0583819490872324
1789690650143825700,6.38982568359375,-0.24290420873910187,0.6317495048075914,-0.8712827758088707
1789690650153813800,6.399813720703125,-0.3878174143254757,0.1549889016598463,-0.6386669560458511
1789690650163801900,6.4098017578125,-1.2194587923586369,-0.5239303506016731,-0.8839950309310108
1789690650173788700,6.41978857421875,-2.621106627991795,-1.4154098190039395,-1.9954139390051364
1789690650183776800,6.42977685546875,-3.8418455232888458,-2.002947257119417,-3.166625710067153
1789690650193764600,6.4397646484375,-4.376095315591991,-1.8858201763421296,-3.9633497962370514
1789690650203751700,6.449751708984375,-4.583896062245965,-1.405544843071699,-4.2161558057874435
1789690650213739800,6.45973974609375,-4.311142366427183,-1.007670145112276,-4.220056612618268
1789690650223727600,6.4697275390625,-3.4216564099296924,-1.0384773713082074,-4.100658956560492
1789690650233715700,6.4797158203125,-2.133925168594718,-1.4481500590890646,-3.9420936577185985
1789690650243702800,6.489702880859375,-0.941104500053823,-1.9044383675724268,-3.7226854753792282
1789690650253690600,6.499690673828125,-0.19787673401087522,-2.3378210167646407,-3.5563171015709636
1789690650263678700,6.5096787109375,0.051830725002288816,-2.7866519949793815,-3.544124559473991
1789690650273665800,6.519665771484375,-0.21660539987832306,-3.357332990840077,-3.7433310807839035
1789690650283653600,6.529653564453125,-0.617993951177597,-3.904037483307719,-4.141373244264722
1789690650293641700,6.539641845703125,-1.2564344780564307,-4.101140602597594,-4.699226322734356
1789690650303628800,6.54962890625,-2.4790783301919697,-3.4569904659003017,-5.380362666523456
1789690650313616600,6.55961669921875,-3.9705423380896447,-2.4844535934895275,-6.000363865870237
1789690650323604700,6.569604736328125,-5.512013362693787,-1.4346096095144747,-6.3611372059255835
1789690650333591800,6.579591796875,-6.50916912805438,-0.654079994559288,-6.289295374029875
1789690650343579600,6.58957958984375,-7.2586179605692625,-0.675437839886546,-6.39482554051578
1789690650353567700,6.599567626953125,-6.945093862944841,-2.0446312666386364,-7.175168692988157
1789690650363554800,6.609554931640625,-5.337081158679723,-3.8703538248926397,-7.554980495512485
1789690650373543000,6.61954296875,-2.7702023799598217,-4.841106736496091,-6.652995415186882
1789690650383530800,6.62953076171875,-0.07826287791915237,-5.477999449411034,-5.351137741082907
1789690650393517800,6.639517822265625,2.0974422348499298,-5.199677598071098,-2.956234070137143
1789690650403506000,6.649505859375,4.944976276293397,-3.6569022128701207,-0.2822762880541384
1789690650413493800,6.65949365234375,7.425228326439857,-3.0142309165537355,1.3672636277332901
1789690650423480800,6.669480712890625,8.083497589382528,-2.9575018981158734,2.724944895868003
1789690650433469000,6.679468994140625,7.541351783132552,-3.432547514039278,3.8272599485754966
1789690650443456800,6.689456787109375,6.19491613163352,-4.045943031510711,4.7582057504475115
1789690650453443800,6.69944384765625,3.0177965000808236,-4.699847084981203,5.865922662198543
1789690650463432000,6.709431884765625,-0.694576840120554,-5.366933860629796,6.185203715914487
1789690650473420000,6.719419921875,-3.509071950793266,-5.407151304727792,5.1610588213413955
1789690650483407600,6.72940771484375,-3.3557460139095783,-4.909132809495926,3.7010505666762588
1789690650493395000,6.73939501953125,-0.9115573569215834,-4.133451803615689,3.107450467520952
1789690650503382800,6.7493828125,2.137065804708004,-3.647942661345005,2.7534675182580948
1789690650513371000,6.759370849609375,3.6784547039866444,-3.112389092966914,2.6825024691969155
1789690650523358000,6.76935791015625,3.95513697142601,-2.0742004754722116,2.919836476588249
1789690650533345800,6.779345703125,4.121324727970362,-0.8548597565352917,3.479959253555536
1789690650543334000,6.789333984375,4.69448117403388,0.706816728490591,4.0474887996479865
1789690650553321000,6.799321044921875,5.529843618416786,2.3507921420186757,4.400046976804733
1789690650563308800,6.809308837890625,5.5874003198504445,3.924783918738365,4.71172310847491
1789690650573297000,6.819296875,4.581776001352072,4.451125422134996,4.2859687622040505
1789690650583284000,6.829283935546875,2.9142390949726105,4.4413259126544,3.7182574298039075
1789690650593271800,6.839271728515625,3.0323344362601636,4.767151857969164,3.4608816281199455
1789690650603260000,6.849260009765625,3.1657009964376686,4.419454272586107,3.313669790202379
1789690650613247000,6.8592470703125,3.229156985042989,3.7365737154781815,3.5249013880878683
1789690650623234800,6.86923486328125,3.950263227909803,3.339095907881856,4.1363484018400305
1789690650633223000,6.879222900390625,4.629992919771373,3.2735786028325555,4.983114576029777
1789690650643209700,6.889209716796875,4.869004212725162,3.594952244913578,5.912668046760559
1789690650653197800,6.89919775390625,4.881200554214417,4.260479516160488,6.645280895286798
1789690650663186000,6.90918603515625,4.49029160361439,4.78754465765655,7.045636888667941
1789690650673172700,6.9191728515625,3.9932971907332537,5.461085724011063,7.149858895164728
1789690650683160800,6.929160888671875,3.485731407216191,6.181159993481636,6.99019031125605
1789690650693149000,6.93914892578125,3.0524551410079,6.810160491842031,6.653543112197518
1789690650703135700,6.9491357421875,2.533567753009498,7.063496370485424,6.1576236350715154
1789690650713123800,6.959123779296875,1.8799884014487265,6.4126511200636624,5.425448008918762
1789690650723112000,6.96911181640625,1.038513903926313,5.499557785746455,4.148859800627827
1789690650733098800,6.9790986328125,0.14894801406040786,4.331994015797973,2.4357941919997335
1789690650743086800,6.9890869140625,-0.9306440424464643,2.95554959500432,1.1859811779096723
1789690650753075000,6.999074951171875,-3.238722393506765,1.1303215422689914,0.15417305523231625
1789690650763061800,7.009061767578125,-5.259453144598007,-1.4331611642718314,-1.495985723105818
1789690650773049900,7.0190498046875,-6.707680945098399,-4.184013531595468,-3.7490748851329085
1789690650783038200,7.0290380859375,-7.2328972438573835,-6.6755357482969755,-5.796342930015921
1789690650793025000,7.03902490234375,-6.08111322684288,-8.456817107278107,-6.8034525186359875
1789690650803013000,7.04901318359375,-4.548299263685942,-9.646062547680735,-6.889254486823082
1789690650813001200,7.059001220703125,-3.795761232984066,-9.596572832846642,-6.944830828094482
1789690650822989000,7.068989013671875,-3.6875989644289016,-7.146790739765763,-6.914754254260659
1789690650832976100,7.07897607421875,-4.242354661405086,-3.191892837792635,-6.197804838812351
1789690650842964000,7.0889638671875,-4.337139561992884,-0.4719710307836532,-4.951586049821972
1789690650852951000,7.098950927734375,-3.3916707292497157,1.0101631309717893,-3.4632629702985285
1789690650862939100,7.108939208984375,-1.7180067182920873,1.79805246104002,-2.245582878050208
1789690650872927000,7.118927001953125,0.18132234344258905,1.9813474197298286,-1.202352759256959
1789690650882915000,7.1289150390625,1.9776736996531485,1.5329098247468471,-0.008729542161524296
1789690650892902100,7.138902099609375,3.3120427735224363,0.5631032540827989,1.1143211323216557
1789690650902890000,7.148889892578125,3.925485345005989,-0.6508154398053884,1.6376628693804145
1789690650912878000,7.158878173828125,3.806566704636812,-2.3905524899989365,1.7544897981673477
1789690650922865200,7.168865234375,3.5526340291440484,-4.696573762398958,2.357845713791996
1789690650932853000,7.17885302734375,2.6270786881387234,-7.282409755045175,3.8619332025498148
1789690650942841000,7.188841064453125,-1.2108803491055964,-9.918861836206913,7.066569202059507
1789690650952828200,7.198828125,-1.749554679852724,-10.306399849069118,8.922973314303158
1789690650962816000,7.20881591796875,-0.7016437097668647,-7.212554128530621,7.364997437360882
1789690650972804000,7.21880419921875,-1.3836767101347445,-2.1936399248450993,4.875185239447653
1789690650982791000,7.228791015625,-1.1686731924951075,1.6696423542261123,3.273721518434584
1789690650992779000,7.238779052734375,0.4723123915672302,3.567902325424552,2.447227440162003
1789690651002767000,7.24876708984375,2.0304384906351567,4.143396859046817,2.068892432191968
1789690651012754000,7.25875390625,2.7141853091835975,4.35422864395976,2.225093632251024
1789690651022742000,7.268741943359375,3.2158056282997127,4.689401678812503,2.373469107120484
1789690651032730000,7.278730224609375,3.5201872190475463,5.094100669834018,2.1989038367226716
1789690651042717000,7.288717041015625,4.043530709671974,4.859724343204498,1.9864199006885288
1789690651052705000,7.298705078125,4.433784411233663,4.0413095264911645,2.172120166954398
1789690651062693000,7.308693115234375,4.7393525814175606,2.4227426949858666,2.5031580016985533
1789690651072680000,7.318679931640625,4.740617486786842,0.5357967294842004,2.5526038773909208
1789690651082668000,7.32866796875,4.875480130741,-1.0027864647239446,2.4363851436302064
1789690651092656000,7.33865625,4.773507948997617,-1.5275029972672463,2.084318110991269
1789690651102643000,7.348642822265625,4.278965605443716,-1.41089555644989,1.5095223732881247
1789690651112631000,7.358631103515625,3.956600614237785,-0.8948726179718971,1.1190800903517752
1789690651122619100,7.368619140625,3.320073812025785,-0.31219314128160475,0.5837303374500945
1789690651132606000,7.37860595703125,2.3672207142502066,0.2387520574957132,-0.16274806441925466
1789690651142594000,7.388593994140625,1.5762497847795485,0.7201222002655268,-0.9887800050728023
1789690651152582100,7.39858203125,0.8964256926327944,0.987694109532237,-1.8496179592348634
1789690651162569000,7.40856884765625,0.5442237815678119,1.1069845058232546,-2.3840068677477535
1789690651172557000,7.41855712890625,0.32776670411899683,0.9691665191948413,-2.8172803574770686
1789690651182545000,7.428544921875,-0.09784618785455822,0.6276777253240347,-3.2464372056677937
1789690651192532000,7.438531982421875,-3.1119068624079227,0.13642624000906944,-3.8158892442554233
1789690651202520000,7.44852001953125,-8.486781452909112,-0.2444739422738552,-4.1283951047480105
1789690651212508000,7.4585078125,-7.451842777121066,-0.503363363391161,-2.719731252872944
1789690651222495000,7.468494873046875,-4.984485864382982,-0.5654512785136699,-1.6623650566995143
1789690651232483000,7.478483154296875,-3.026652591231465,-0.41198622542023655,-1.6783723347790538
1789690651242471000,7.488470947265625,-1.4255030507341027,0.0819692581564188,-1.8524363776564596
1789690651252458000,7.4984580078125,-0.39562136607468124,0.5934551377266645,-2.0427705873332918
1789690651262446000,7.508446044921875,0.16151318886205554,1.0651970359295606,-2.1073253309607503
1789690651272434000,7.518433837890625,0.3449807276397943,1.8303379430949687,-1.954263305710256
1789690651282421000,7.5284208984375,0.06143719612881541,1.9577181223392486,-1.940395231616497
1789690651292408800,7.538408935546875,-0.20416589728295803,1.349028006079793,-1.6656673131152986
1789690651302397000,7.54839697265625,-0.3620291853353381,0.5196890597701073,-1.3815747694194316
1789690651312384300,7.55838427734375,-0.8422934126898646,-0.16261574327647685,-1.1383692396461964
1789690651322371800,7.568371826171875,-1.5892469212576745,-0.8328490002572536,-1.0038105470746754
1789690651332360000,7.57835986328125,-2.3343802286610007,-1.4683125571519136,-1.4535295601703226
1789690651342348000,7.58834814453125,-3.3929888261109586,-1.8586814095258712,-2.436382221020758
1789690651352335000,7.598335205078125,-4.581276527397335,-1.973935682168603,-3.467247656020522
1789690651362323000,7.608322998046875,-5.083570507991314,-1.57326287792325,-4.3823301183283325
1789690651372311000,7.61831103515625,-5.062361715745926,-0.8977034574836492,-5.0286429860174655
1789690651382298000,7.628298095703125,-4.548598831154406,-0.8189151674509048,-5.575271490639448
1789690651392286000,7.638285888671875,-3.5730931720659136,-1.2567302461326122,-5.959284251984953
1789690651402274000,7.648274169921875,-2.194310079191625,-1.832847880089283,-6.067700787562131
1789690651412261000,7.65826123046875,-0.9459908107906579,-2.2591876250326632,-5.997845161047578
1789690651422249000,7.6682490234375,-0.5796364557325839,-2.3683353974938393,-5.768251392519474
1789690651432237000,7.678237060546875,-1.0593079778909682,-2.436333997964859,-5.462701927036047
1789690651442224000,7.68822412109375,-1.9407897838920354,-2.5932465611636637,-5.509243897980451
1789690651452212000,7.6982119140625,-2.9495269737139345,-2.863603132712841,-5.6586523691594595
1789690651462200000,7.708199951171875,-4.066843196198344,-2.972207884338498,-5.821545175811648
1789690651472187100,7.718187255859375,-5.0195940026432275,-2.5376380711883306,-6.119962889719009
1789690651482175200,7.72817529296875,-5.6407186530619855,-1.6695084987133741,-6.146297938936948
1789690651492162800,7.738162841796875,-6.44919016790986,-1.2372270887613295,-6.074311730134487
1789690651502150100,7.748150146484375,-6.677072456344962,-2.0502917766183613,-6.401922220778465
1789690651512138200,7.75813818359375,-5.073920636114478,-3.894053849431872,-6.835981746318936
1789690651522126000,7.7681259765625,-2.58723007735312,-6.388685138064623,-7.126925178822875
1789690651532113200,7.778113037109375,1.3964385765522718,-8.063378345939517,-6.0027609901398415
1789690651542101200,7.788101318359375,5.008543031796813,-8.236112747648358,-4.297251788240671
1789690651552089000,7.798089111328125,6.995322997969389,-6.467633002573251,-2.121468130342662
1789690651562076200,7.808076171875,8.319707561179994,-5.051635739070177,0.10105877495920285
1789690651572064300,7.818064208984375,8.39325385890603,-4.926480250138044,1.838079058741033
1789690651582052000,7.828052001953125,7.868746000677347,-4.734847086691856,3.6006744219526645
1789690651592039200,7.8380390625,6.972445980250835,-4.517636998918652,5.009078453847765
1789690651602027000,7.848027099609375,4.1577743439674375,-3.8755782815426585,6.9012617354810235
1789690651612015000,7.85801513671875,-1.5126608174443243,-3.541099658694863,8.030348182997107
1789690651622002200,7.868002197265625,-4.279952278393507,-3.6894407929033037,6.646287441980839
1789690651631990000,7.877989990234375,-3.700074999642372,-3.861694133096933,4.719228661799431
1789690651641978000,7.88797802734375,-1.4332406592488287,-3.4790129126161333,3.3539866030216214
1789690651651965200,7.897965087890625,1.5320667980514466,-3.2266777354478835,2.193906028435379
1789690651661953000,7.907953125,4.358952749872207,-2.742961321812868,1.9601094013899563
1789690651671941000,7.917941162109375,5.9335401543974875,-1.6927011582523583,2.062979993277788
1789690651681928200,7.92792822265625,5.749335095125437,-0.5369622661322355,2.1686074826583264
1789690651691916000,7.937916015625,5.347247163385153,0.8049965322136878,2.5071488249003884
1789690651701904100,7.947904052734375,4.928766899770498,2.165762322360277,3.1312820094853637
1789690651711891000,7.957890869140625,5.262988332986831,3.140472447156906,3.6725855196923014
1789690651721879000,7.967879150390625,5.648132144188881,3.683321433240175,3.6943431779921054
1789690651731867100,7.9778671875,5.143203431177139,4.05297482984364,3.044579293066263
1789690651741854000,7.98785400390625,3.5790614328205583,4.257354077616334,2.3095788187511266
1789690651751842000,7.997842041015625,2.748848918546736,4.542194517070055,1.7945586275748908
1789690651761827800,8.007827880859375,2.8596891741394996,4.440191940188408,2.02651035740599
1789690651771816000,8.01781591796875,3.2990529435679314,4.21222781868875,2.9076480261445043
1789690651781803500,8.027803466796875,4.198026859378815,4.221007921993732,4.266688015411794
1789690651791790600,8.03779052734375,4.883688279376924,4.590437446713447,5.31912873788178
1789690651801778400,8.0477783203125,5.019677589273453,5.140465530645847,5.951405481433868
1789690651811766500,8.0577666015625,4.736545122781395,5.4609886933773755,6.238412743532657
1789690651821753600,8.067753662109375,4.107789831353724,6.007980186092853,6.7297823022693395
1789690651831741700,8.07774169921875,3.6388501310899852,6.607535394260287,7.03474666134119
1789690651841729500,8.0877294921875,3.182714675080776,7.099469601142406,7.002558794441819
1789690651851716600,8.097716552734376,2.585215522660315,7.324236387905478,6.624567193081974
1789690651861704700,8.10770458984375,1.6267444388724863,7.011074109330773,5.907876136308908
1789690651871692500,8.117692626953126,0.21236001739352942,6.243338509497046,4.578749347007275
1789690651881679600,8.1276796875,-1.5508464634537695,5.301302573812007,2.975870790760219
1789690651891667700,8.137667724609376,-3.918495339988172,3.6332840213954447,1.831889264190197
1789690651901655600,8.147655517578125,-6.821134305799007,1.2431482955038546,0.7752863074742257
1789690651911642600,8.157642578125,-7.566475702995062,-1.8277052565038203,-1.4981252193525432
1789690651921630700,8.167630615234375,-7.431846283274888,-4.992091663211584,-4.186837941366434
1789690651931618600,8.17761865234375,-6.936337725037336,-7.6346502445548765,-5.730274420824647
1789690651941606400,8.1876064453125,-5.608529617118835,-9.84573814780712,-5.87396568340063
1789690651951594500,8.197594482421875,-4.068185842978954,-11.081544848376511,-5.44152703706026
1789690651961582600,8.20758251953125,-3.238771493345499,-10.393506470113993,-5.1586839089035985
1789690651971569700,8.217569580078125,-3.3005870212674138,-7.513426834374666,-5.141310164776444
1789690651981557500,8.2275576171875,-3.561373800438642,-4.133098752394318,-4.780538286025822
1789690651991545300,8.23754541015625,-3.5078479619562626,-2.0794863069206473,-3.6428970683932302
1789690652001532700,8.24753271484375,-2.458144847756624,-1.028963108509779,-2.565587862126529
1789690652011520500,8.2575205078125,-0.9308230522751808,-0.688162881425023,-1.6381480225488543
1789690652021508400,8.26750830078125,0.288304754563421,-0.46894262287318705,-0.5911264025181532
1789690652031495700,8.27749560546875,1.5971885279119014,-0.5689291837573051,0.2655442028313875
1789690652041483500,8.2874833984375,3.2426118021607397,-1.5077636930525302,1.0504933147292583
1789690652051471400,8.297471435546875,4.715568385726213,-3.1052403902560473,2.022516611594707
1789690652061458700,8.307458740234376,4.3965071122407915,-5.810856024014949,3.1413255568549037
1789690652071446800,8.31744677734375,0.6748969379428774,-10.009280358278751,5.058512639102339
1789690652081434400,8.327434326171876,-2.8841783032298087,-12.159329563200473,7.195852584576606
1789690652091421700,8.337421630859374,-1.1420366030473261,-7.639646153146028,5.848020510283112
1789690652101409500,8.347409423828125,0.8905787201702594,-0.8366893090724945,3.6143268074691295
1789690652111397600,8.357397705078125,3.244721926182508,2.7707728733241557,2.52454594990313
1789690652121384700,8.367384765625,5.084861132323741,5.019768774688243,2.3125530122563243
1789690652131372500,8.37737255859375,4.519703283798695,6.513385868966579,2.478246263282001
1789690652141360600,8.387360595703125,3.4677263794481754,7.096862633514404,2.633457283259928
1789690652151347700,8.39734765625,3.149288206297159,7.3806439193040125,2.8199919545233247
1789690652161335600,8.40733544921875,3.130846540677547,7.129120058518648,2.8251047674924132
1789690652171323600,8.41732373046875,3.6149008079648017,5.904432133334875,2.7463135548502207
1789690652181310700,8.427310791015625,3.946249900615215,4.4379175655156375,2.531821786125004
1789690652191298600,8.437298583984376,4.3966345380127425,2.396162146574259,2.6720933033853767
1789690652201286700,8.44728662109375,4.843880292862654,0.5243418540120125,3.1157743514910337
1789690652211273500,8.4572734375,5.184470676589012,-1.2089327221691608,3.4370667450293895
1789690652221261600,8.467261474609375,5.3079649543106555,-2.4055963298738003,3.2636151349619027
1789690652231249700,8.477249755859376,4.512365195995569,-2.510027595207095,2.513688455802202
1789690652241236500,8.487236572265624,3.6085622525930403,-1.6978431973159311,1.9547081268683075
1789690652251224600,8.497224609375,3.191998636254668,-0.5344441458314657,1.5975702207058666
1789690652261212700,8.507212646484374,2.593643451526761,0.40759938863813877,1.2338931220330298
1789690652271199500,8.517199462890625,1.7630524593293666,0.6813999631613492,0.6221345581136644
1789690652281187600,8.5271875,1.2076391752272844,0.7913385937392711,-0.20112821008749304
1789690652291175700,8.53717578125,0.7677671640157699,0.6614011312276125,-0.8582626968465745
1789690652301162500,8.54716259765625,0.32704993415176864,0.29195348632931706,-2.003174636134505
1789690652311150600,8.557150634765625,-3.991850791317224,-0.18752105195224283,-3.6037118899524208
1789690652321138700,8.567138671875,-13.299400930589437,-0.7434539760142564,-6.781867294293642
1789690652331125500,8.57712548828125,-10.418286691105365,-1.7615303643286226,-6.722047324103117
1789690652341113600,8.587113525390626,-6.68065732909441,-0.9157862266629934,-5.686610635665059
1789690652351101700,8.597101806640625,-3.16974530339241,-0.30665012020170684,-4.677515718446672
1789690652361088500,8.607088623046875,-0.4260802172243595,0.14243863216638564,-3.7985818433627485
1789690652371076600,8.61707666015625,1.3277595926016568,0.9113204794257879,-3.3591397480010983
1789690652381064700,8.627064697265626,2.3900772737026212,1.3491466640233993,-2.888526561567187
1789690652391051500,8.637051513671874,2.706577172267437,1.91888599511981,-2.437592181332409
1789690652401039600,8.64703955078125,2.064050106727332,2.0087673415750262,-2.3188177717395124
1789690652411027500,8.65702734375,1.6695751342087983,1.7710101403355598,-2.1762097743555904
1789690652421014500,8.6670146484375,1.2499649897813796,1.1811708550184965,-1.9305214878559112
1789690652431002600,8.677002685546874,1.0723227961562574,0.4705617485076189,-1.6197124944090842
1789690652440990500,8.686990478515625,1.0125981030337512,0.2413315525949001,-1.159888486080244
1789690652450977500,8.6969775390625,0.8123876653783023,-0.18422259492874143,-0.7615849682494997
1789690652460965600,8.706965576171875,-0.589712005675584,-0.8664578398704529,-0.5766627006188034
1789690652470953500,8.716953369140626,-6.453332090020179,-1.751952973166108,-0.9850462253719567
1789690652480940500,8.7269404296875,-9.371994846653937,-2.6339509119957683,-1.9926297151140868
1789690652490928600,8.7369287109375,-8.349888179910183,-2.6566905670702456,-2.707734817869961
1789690652500916500,8.74691650390625,-6.4998004112064836,-2.2258570178389547,-3.573586216279864
1789690652510903600,8.756903564453125,-4.661709954288602,-1.7098662280648946,-4.444118758243322
1789690652520891600,8.7668916015625,-2.9268323268249627,-1.7750427568525076,-5.385797551053762
1789690652530879500,8.77687939453125,-1.4797762004524468,-2.121681188571453,-6.232106921386718
1789690652540866600,8.786866455078124,-0.595479629291594,-2.3215619558811187,-6.808325093108415
1789690652550854400,8.7968544921875,-0.3129828303545713,-2.352188564813137,-7.0835232594698665
1789690652560842500,8.806842529296874,-0.7110048278301954,-2.3113106109797954,-6.893723741191625
1789690652570829600,8.81682958984375,-1.7901368656098842,-2.40927063447237,-6.64658262553513
1789690652580817400,8.8268173828125,-3.1641251254230736,-2.5915046859323976,-6.699616296586394
1789690652590805500,8.836805419921875,-4.359983846485615,-2.3189830453038214,-6.65516165331006
1789690652600792600,8.84679248046875,-5.674836611241102,-1.5290508112311363,-6.141655666089058
1789690652610780400,8.856780517578125,-8.0566744643867,-0.901963453015685,-5.666072874549031
1789690652620768500,8.8667685546875,-9.368211236461997,-1.077798158827424,-5.206788306859135
1789690652630755600,8.876755615234375,-7.832908963620662,-2.0100544587761164,-4.465427795992792
1789690652640743400,8.886743408203126,-4.226498336103559,-3.3938176781505343,-3.9007545161142945
1789690652650731500,8.8967314453125,0.8252296843599528,-5.136107335436344,-3.585369300793111
1789690652660718300,8.90671826171875,4.691529338490962,-7.030691248470545,-3.263136119273305
1789690652670706400,8.91670654296875,6.761725254496931,-7.641879026764631,-2.2893907478556037
1789690652680694500,8.926694580078125,8.617475871267914,-7.01501320234537,-0.9747428580224513
1789690652690681300,8.936681396484374,8.888434500363468,-6.760241153419018,0.8730756505750119
1789690652700669400,8.94666943359375,8.694365634202956,-7.373130474933982,2.9214707997918126
1789690652710657500,8.956657470703124,8.289445109385252,-8.30504015340209,4.717496138918399
1789690652720644400,8.966644287109375,5.461168141597509,-8.38648684898913,7.658134580516815
1789690652730632400,8.976632568359374,-1.8365175085127352,-6.857581583708524,10.46354154484868
1789690652740620500,8.98662060546875,-4.654628471595049,-5.484773473590612,8.573678230595588
1789690652750607600,8.996607666015626,-4.2951475094377995,-4.178984305256605,5.357399139565229
1789690652760595500,9.006595458984375,-1.982332485244423,-2.7942490259796378,2.5788170537948605
1789690652770582500,9.01658251953125,1.2951169676721095,-1.9511399129927158,0.2639862327996641
1789690652780571400,9.0265712890625,3.2713036436378955,-1.2233306653559206,-0.46228155754879113
1789690652790559200,9.036559326171876,4.472122032934427,-0.4072124351471662,-0.2858335421442985
1789690652800546300,9.04654638671875,4.832613048917055,0.000011690437793731688,0.7874415863007307
1789690652810534100,9.0565341796875,5.347766218823194,0.7517173619687557,2.242033515005559
1789690652820522200,9.066522216796875,5.483484018301963,1.8274486513942478,3.293625950083136
1789690652830509300,9.07650927734375,5.44630141185522,2.5070664073139426,3.60190454826951
1789690652840497200,9.0864970703125,5.032801274740696,3.340854149726033,3.8414725983232256
1789690652850485200,9.0964853515625,5.004173730671406,4.132377452382445,4.0675446224659675
1789690652860472300,9.106472412109374,3.888679170656204,4.384540195593238,4.293164518927037
1789690652870460200,9.116460205078125,3.415864967046678,4.582670904365182,4.374468883433938
1789690652880448300,9.1264482421875,3.533287523639202,4.839837154951692,4.565330477985739
1789690652890435600,9.136435546875,4.039488448543846,5.162321973145008,4.71227343583405
1789690652900423200,9.146423095703126,4.715333115665614,5.262090507364273,4.838948973940313
1789690652910411300,9.156411376953125,4.951931502258778,5.292559879907965,5.57327184125483
1789690652920398300,9.1663984375,4.949242701566219,5.399892711901664,6.349821446663141
1789690652930386400,9.176386474609375,4.84172223804593,5.367336596211791,6.856590234583616
1789690652940374300,9.186374267578126,4.485148980028927,5.452991264882684,7.118572945541143
1789690652950361300,9.196361328125,3.939222486196458,5.6687213432312005,7.103066748851537
1789690652960349400,9.206349365234376,3.3378862398311493,5.939152733582258,7.033718487337231
1789690652970337300,9.216337158203125,2.70808173161149,6.149214703166485,6.9657175487786525
1789690652980324400,9.226324462890625,2.068192467229068,5.946548104530573,6.76448770494759
1789690652990312400,9.2363125,1.3216766194261609,5.293402760472893,6.11156857086122
1789690653000300300,9.24630029296875,0.33983912696763874,4.368363552296161,4.7841351414740085
1789690653010287400,9.256287353515624,-0.7606570397496223,3.217515354827046,3.3089801710814237
1789690653020275500,9.266275390625,-2.9873616143286226,1.726135810342431,1.8816674405768512
1789690653030263300,9.27626318359375,-5.732945101338625,-0.3238590291559696,-0.3056211424801498
1789690653040250400,9.28625048828125,-7.407083597940206,-2.8669290622651573,-3.2741847520321605
1789690653050238500,9.296238525390624,-8.600279821795224,-5.338644754734635,-5.98881371333003
1789690653060226600,9.3062265625,-8.533046944999695,-7.483060922205448,-7.605727516931295
1789690653070213400,9.31621337890625,-6.9900985413193695,-9.18599179804921,-7.746016862109303
1789690653080201500,9.326201416015625,-5.257104535645246,-10.239137746179104,-7.308274848663807
1789690653090189600,9.336189453125,-4.6886990835011,-10.01814054108262,-7.011259402769803
1789690653100176400,9.34617626953125,-4.771465044993162,-7.500217808711528,-6.432993066346645
1789690653110164500,9.35616455078125,-4.4582899069368835,-3.993410295718908,-5.380314735728502
1789690653120152300,9.36615234375,-3.1151661564648148,-1.2693927438288926,-4.064391711392998
1789690653130139400,9.376139404296875,-1.4330300852380693,0.8277993156522512,-2.727097982248664
1789690653140127500,9.38612744140625,0.14162483156546948,2.2078327008485794,-1.3186667700856922
1789690653150115300,9.396115234375,1.5650538525044917,2.6062708779096604,-0.017024492298066615
1789690653160102400,9.406102294921874,3.0304782869994638,2.415716157349944,0.9894975056923925
1789690653170090500,9.416090576171875,4.410816208100319,1.402977038410306,1.826677959282696
1789690653180078300,9.426078369140624,4.537603682148457,-0.6402484530836343,2.025970989832282
1789690653190065400,9.4360654296875,4.052984766715765,-3.5742250987052917,2.2891686295375226
1789690653200053500,9.446053466796876,3.608514321798086,-6.653015288931131,3.6149218507528302
1789690653210041300,9.456041259765625,1.586273166143894,-9.755464587163925,6.211595463755726
1789690653220028400,9.4660283203125,-0.5646704303342849,-11.689841581404208,9.153199535515904
1789690653230016300,9.476016357421875,0.07658632300905883,-9.023771191570162,8.601610193616152
1789690653240004400,9.48600439453125,-0.13700959285497666,-2.467352236562967,5.677088189560175
1789690653249991400,9.495991455078125,-0.2864589440336451,1.8499615119755266,3.726768945300579
1789690653259979300,9.505979248046875,1.172195521402359,3.640890404745936,2.627535491995513
1789690653269967400,9.51596728515625,2.4154642284154892,4.47306778935194,2.619205178284645
1789690653279954400,9.525954345703125,3.2571874400019643,4.8270343720018865,3.1990304345875975
1789690653289942300,9.5359423828125,3.674384093546867,5.164011241406202,3.5044928063094614
1789690653299930400,9.545930419921875,3.7462323551833627,5.36711330884993,3.4882542036920783
1789690653309917400,9.55591748046875,3.7567385516285894,4.797793079948425,3.423910034075379
1789690653319905300,9.5659052734375,4.0362475669264795,3.646125967311859,3.6876051019087432
1789690653329892400,9.575892333984376,4.160243364429474,2.393912321820855,3.9294007648840545
1789690653339880200,9.585880126953125,4.179004179000854,0.6833019973903894,3.9385774662911888
1789690653349868300,9.595868408203126,4.329748282697796,-0.7761293341696262,3.757142163993418
1789690653359855400,9.60585546875,4.433083569487929,-1.4228928682357072,3.185754188907146
1789690653369843200,9.61584326171875,4.122250026121735,-1.2164847449839113,2.382339665187895
1789690653379831300,9.625831298828125,3.6267023049175737,-0.7894634475171566,1.6618971469268202
1789690653389818400,9.635818359375,3.2739614646703004,-0.07164192540943622,1.2266855287417768
1789690653399806200,9.64580615234375,3.078326079845428,0.5394856471300125,0.7027054937794804
1789690653409794300,9.655794189453125,2.359486905127764,0.6264303556114434,-0.2241315575994551
1789690653419781400,9.665781494140624,1.8459166204988955,0.26702771938741204,-1.188330152188614
1789690653429769200,9.675769287109375,1.4469710784375667,-0.11672843684852123,-2.210700511369854
1789690653439757300,9.68575732421875,1.1360545329630374,-0.2616489489585161,-2.9287685555845497
1789690653449744100,9.695744140625,0.9787678757548331,-0.42853520916104315,-3.5368609982118007
1789690653459732200,9.705732177734374,0.8212668451435864,-0.7192962708353996,-4.288751963181793
1789690653469720300,9.71572021484375,-2.285876309993863,-0.7240443421453238,-5.220537430748343
1789690653479707100,9.72570703125,-9.62119172579646,-0.3172919257253408,-6.490740321916341
1789690653489695200,9.7356953125,-10.336035108876228,0.20374504152238368,-4.94834662950933
1789690653499683300,9.745683349609376,-6.483671698704361,0.16729542552530766,-2.941791703286767
1789690653509670100,9.755670166015625,-3.939112596081197,0.2633867325365543,-2.396840776488185
1789690653519658200,9.765658203125,-1.322645610588789,0.12177812145352362,-2.3683310135796667
1789690653529646300,9.775646240234375,0.29044249724447724,0.02311024195253849,-2.482114629147947
1789690653539633200,9.785633056640625,0.7382792037248611,0.2563677936851978,-2.110400354491919
1789690653549621200,9.795621337890625,0.5011040401570499,0.7944897512465715,-1.6164209055177867
1789690653559609300,9.805609375,0.41412352970987554,1.0180588526576757,-1.4228658340983091
1789690653569596400,9.815596435546874,0.4365753077536821,1.0617799209624528,-1.3485697409182786
1789690653579584300,9.825584228515625,0.4454258459463715,1.2144278124541044,-1.3814948360510169
1789690653589572400,9.835572265625,0.2760527373641729,1.3990624953150748,-1.4838088169693946
1789690653599559400,9.845559326171875,-0.09673983404785394,1.1516776340305805,-1.5906446592263876
1789690653609547300,9.85554736328125,-0.792685332173109,0.29944004269242286,-1.8354948874667285
1789690653619535400,9.865535400390625,-2.1623108667321502,-0.7644178535878657,-2.431889293515682
1789690653629522400,9.8755224609375,-4.026841440677643,-1.550244990429282,-3.2318121757268905
1789690653639510300,9.88551025390625,-4.85251338891238,-1.881001962405443,-3.907738968174159
1789690653649498000,9.895498046875,-4.154924799755215,-1.728489679992199,-4.250538552382588
1789690653659485400,9.9054853515625,-2.793073844720423,-1.5491735618054865,-4.400992733222246
1789690653669473500,9.9154736328125,-1.6126716359868645,-1.7899194234669207,-4.468253082546592
1789690653679461000,9.925461181640625,-0.8163837492771446,-1.8832038563638924,-4.430374310529232
1789690653689448400,9.935448486328125,-0.3778960320308804,-1.798223725953698,-4.324216367533802
1789690653699436500,9.9454365234375,-0.4770424888290465,-1.909471685564518,-4.124395805978775
1789690653709424400,9.95542431640625,-1.0398448602691293,-2.043448194333911,-3.739751176470518
1789690653719411500,9.965411376953124,-1.6228791417464612,-2.2604536994457245,-3.372372739061713
1789690653729399600,9.975399658203125,-2.2651376194782555,-2.494616675585508,-3.2032179494053126
1789690653739386400,9.985386474609374,-3.188233146241307,-2.7738743464708326,-3.334940541768074
1789690653749374500,9.99537451171875,-4.320842507186532,-3.0224428645819423,-4.005581210505962
1789690653759362600,10.005362548828124,-5.748976198685169,-2.398072948631644,-4.393915342181921
1789690653769349400,10.015349365234375,-7.499759543550014,-1.3531471318364143,-4.598531029058993
1789690653779336400,10.02533642578125,-9.776072490906715,-0.5739969885408878,-5.2960915611654515
1789690653789324500,10.035324462890625,-9.29655119087398,-0.7836749272435903,-6.413026383116841
1789690653799311600,10.0453115234375,-5.652560482025146,-1.5275509280622004,-6.618621436420082
1789690653809299500,10.055299560546874,-1.7318676319926976,-1.9881454093068838,-5.308561751160025
1789690653819287600,10.06528759765625,1.776281943258643,-3.060955842849612,-4.24366136008948
1789690653829274600,10.075274658203124,4.282926325768232,-5.599416920858621,-5.04694962708056
1789690653839262500,10.085262451171875,6.237534207132458,-7.293203536260128,-4.589486429598927
1789690653849250600,10.09525048828125,7.643411643159389,-6.641431234121322,-2.593274033692479
1789690653859237400,10.1052373046875,7.613368387073278,-5.0452358088999985,-0.7832420887842774
1789690653869225500,10.1152255859375,7.484673033577203,-4.891390232056379,0.31282449798770245
1789690653879213600,10.125213623046875,7.439115397495031,-5.612834620836376,1.4518098967708646
1789690653889200400,10.135200439453126,7.06958533501029,-6.26496523489356,2.3961723757073283
1789690653899188500,10.1451884765625,5.539491736727952,-6.503125171715021,3.4255691994592548
1789690653909176600,10.155176513671876,-0.30959552600383755,-5.762058967620134,3.7584155449301004
1789690653919163400,10.165163330078125,-4.553496832329034,-4.721241170665621,3.12605784509629
1789690653929151500,10.1751513671875,-3.1315958977401253,-3.623286943516135,2.7202055923864243
1789690653939139600,10.1851396484375,-0.36368718167543407,-2.383449379995465,2.9160855996221304
1789690653949126400,10.19512646484375,2.521100485624373,-1.7439023531794546,2.9023265388607977
1789690653959114500,10.205114501953124,4.797418985939026,-1.2114099259376525,2.7889009429499505
1789690653969102600,10.2151025390625,6.002561668175459,-0.5202718280941248,2.72971605579257
1789690653979089400,10.22508935546875,5.404586422675847,0.02871346878707409,3.0387481026947496
1789690653989077500,10.235077392578125,4.374124600040912,0.8906868567198515,3.6414834022030234
1789690653999065600,10.245065673828124,3.9505367841541763,1.7697516647070646,4.274697426605225
1789690654009052400,10.255052490234375,3.5634944458544253,2.7667618841171264,5.064638428506255
1789690654019040500,10.26504052734375,3.3552433250844476,3.547041323703527,5.5591188127398485
1789690654029028600,10.275028564453125,3.250009511196613,4.064866343167424,5.442886634975672
1789690654039015400,10.285015380859376,2.9304665916740893,4.277772011744976,4.719799155163765
1789690654049003500,10.29500341796875,2.840786905270815,4.232270489764213,3.9527348787203427
1789690654058991400,10.304991455078126,3.2276901273608205,4.295619218602776,3.5292113602414723
1789690654068978400,10.314978515625,3.775764739137888,4.060685258090496,3.76021558008939
1789690654078966500,10.324966552734375,4.349022307488322,3.72042629827559,4.844460138577222
1789690654088953600,10.33495361328125,4.502563932949304,4.074910182797908,6.243116391178965
1789690654098941400,10.34494140625,4.3001369882881635,4.731999880567193,7.153764670431613
1789690654108929500,10.354929443359374,3.8919069005310534,5.305507039764523,7.697655274522304
1789690654118916600,10.36491650390625,3.38430546117872,5.834326331451535,7.905335317406058
1789690654128904700,10.37490478515625,2.7168036749884483,6.086938571995496,7.6178434866607185
1789690654138892500,10.384892578125,1.9190821022137998,5.9891965751677745,6.921341231435537
1789690654148879600,10.394879638671876,0.9220490864500402,5.624003080582618,5.997613690379262
1789690654158867700,10.40486767578125,-0.3469409217968583,5.089256736934185,4.593189960291982
1789690654168855600,10.41485546875,-1.7779216732896863,4.38300524111092,3.149068426066637
1789690654178842600,10.424842529296875,-3.752241240209341,3.1548768200844526,1.891047701732069
1789690654188830700,10.434830810546876,-5.277936895793676,1.0912830788224934,0.3238219120159745
1789690654198818600,10.444818603515625,-5.204207642716169,-1.6643483394712209,-1.9590614997722207
1789690654208805600,10.4548056640625,-5.068236160737276,-3.7613305555939673,-3.937141296008229
1789690654218793700,10.464793701171875,-5.00776620220542,-5.201143578970432,-5.287784920591116
1789690654228781600,10.474781494140625,-4.65146474686712,-6.049619771948456,-5.930955983123183
1789690654238768600,10.4847685546875,-3.761079211181402,-6.521061225900054,-6.184305890291929
1789690654248756700,10.4947568359375,-2.315636072963476,-6.38119215196073,-6.865290842911601
1789690654258744600,10.50474462890625,-1.2429646095000206,-5.494490565484762,-7.84719818573594
1789690654268731600,10.514731689453125,-1.2371920174479485,-4.127107403025031,-8.03556504086256
1789690654278719700,10.5247197265625,-2.022245977959782,-2.1116040311932562,-7.666848048326373
1789690654288707600,10.53470751953125,-2.361365412350744,-0.4420575385570526,-6.832784411582351
1789690654298694700,10.544694580078126,-1.716891450526565,0.8747872767984867,-5.510898094928264
1789690654308682500,10.5546826171875,-0.5114541692577302,1.482508255764842,-3.9398526007935404
1789690654318670600,10.564670654296876,0.4859761752605438,0.803923934546113,-2.4185703777372836
1789690654328657700,10.57465771484375,1.2526865236997604,-0.054038464179635044,-1.1121128086224197
1789690654338645500,10.5846455078125,1.9901392134726046,-0.8735235404729843,0.026412352237850427
1789690654348633600,10.594633544921875,2.3125240784227845,-1.749185262018442,0.8504033616483211
1789690654358620700,10.60462060546875,2.2654550148643553,-3.120338006144762,1.4928664220415055
1789690654368608500,10.6146083984375,2.0209096147894856,-4.634423887956142,2.7040876935392615
1789690654378596600,10.6245966796875,0.8960591974079608,-6.5406251735478635,4.814967502111196
1789690654388583700,10.634583740234374,-1.4573065944910049,-8.81131560484767,7.772997808015346
1789690654398571500,10.644571533203125,-1.5346213048398494,-10.06090416253209,9.345169383570552
1789690654408558600,10.65455859375,-0.5715115649333223,-7.935858465963602,7.6883046778529875
1789690654418546400,10.66454638671875,-1.4188554294131694,-2.595086051550507,5.277601964750886
1789690654428534500,10.674534423828124,-2.48545604853034,1.5994716704130172,3.8723336005330085
1789690654438521600,10.684521484375,-1.8014637307882309,3.642324821463227,4.1018627793923015
1789690654448509400,10.694509521484376,1.4815747743070125,4.482544642749429,5.711460414761304
1789690654458497500,10.70449755859375,3.4915772106349467,4.330362615203857,6.350488970661163
1789690654468484600,10.714484619140626,4.062708872872591,4.395723268386721,6.375209570419788
1789690654478472400,10.724472412109375,4.943201083314419,4.432769681233167,5.997883154970407
1789690654488460500,10.73446044921875,4.651318908655643,4.21998617773056,5.040273802578449
1789690654498447600,10.744447509765624,4.214350217670202,3.6904859180420635,4.033545029969513
1789690654508435500,10.754435546875,4.199178367501497,2.573635267242789,3.408555813077092
1789690654518423600,10.764423583984374,4.210387159258127,0.7021990055620669,2.951618685296178
1789690654528410400,10.774410400390625,4.430232856231927,-0.8956213905125856,2.601718036910891
1789690654538398500,10.7843984375,4.75061631823182,-1.6252829880177975,2.482805826282501
1789690654548386600,10.794386474609375,5.00384873650074,-1.7138164269953966,2.3027169701576233
1789690654558373400,10.804373291015626,5.044000129625201,-0.8750362831234931,1.7837329899169503
1789690654568361500,10.814361572265625,4.664657113656402,0.06755319479107856,0.8755725088920444
1789690654578349600,10.824349609375,4.054090097609162,0.777220636537671,0.13896766812019049
1789690654588336400,10.83433642578125,3.47088805834949,1.1652449716120958,-0.2850915646705776
1789690654598324500,10.844324462890626,2.751249842208624,1.267165130907297,-0.6884848799210042
1789690654608312600,10.8543125,2.501810386481881,1.3042553828954695,-1.0735631516061723
1789690654618299400,10.86429931640625,2.0523826114177703,1.0709662669807671,-1.5041300127252935
1789690654628287500,10.87428759765625,1.290435970249027,0.6503793864756823,-1.9383187176033854
1789690654638275600,10.884275634765626,1.1162480087310076,0.05172726462781429,-2.4928181017309425
1789690654648262400,10.894262451171874,0.7584210973910986,-0.2837666727423668,-3.0602275285750626
1789690654658250500,10.90425048828125,-1.181884994637221,-0.45834524101316926,-3.6721503431454297
1789690654668238600,10.914238525390624,-5.880306576859951,-0.8787509197324513,-4.753225916208327
1789690654678225400,10.924225341796875,-8.848418716317415,-0.902472571581602,-4.778200198467076
1789690654688213500,10.934213623046874,-7.868632018908857,-0.6870557969659566,-3.574625496199727
1789690654698200600,10.94420068359375,-5.971566810452938,-0.5711328312814236,-3.006145517514646
1789690654708188400,10.9541884765625,-3.9494361294358966,-0.44890988866984843,-3.1688270195037123
1789690654718176500,10.964176513671875,-1.874091306234151,-0.36778994081914423,-3.4550165354788303
1789690654728163600,10.97416357421875,-0.2768700450964272,-0.39151217719018455,-3.4927117676228283
1789690654738151400,10.9841513671875,0.3118463736705482,0.24555063159465787,-3.021018969258666
1789690654748139500,10.994139404296876,0.3331082112774253,0.8814771298259496,-2.627287946975231
1789690654758126600,11.004126708984375,0.11043021348714828,1.182501226839423,-2.6391891049101948
1789690654768114700,11.01411474609375,-0.23808190314918756,1.0756430266201495,-2.9231854947552085
1789690654778102500,11.0241025390625,-0.782368228559196,0.5664572406858206,-3.2792835364758965
1789690654788089300,11.03408935546875,-1.6468389862656592,-0.5157283394455909,-3.7772979400545355
1789690654798077400,11.044077392578124,-2.899360674792528,-1.4743348861813543,-4.219830110386014
1789690654808065500,11.0540654296875,-4.186610270090401,-2.0208838958263398,-4.5215065338283775
1789690654818052400,11.06405224609375,-4.68705716151297,-2.2278473148733378,-4.582392087423801
1789690654828040400,11.07404052734375,-4.204673165525496,-2.42730547285676,-4.45533281069696
1789690654838028500,11.084028564453124,-3.212924227644503,-2.5197137074410914,-4.227306729876995
1789690654848015400,11.094015380859375,-2.280316337779164,-2.407314239707589,-3.984590444925427
1789690654858003500,11.10400341796875,-1.7060681509561835,-2.3224925147294995,-3.8675814375698563
1789690654867991600,11.113991455078125,-1.5898516091525554,-2.3684774363130328,-3.8958290424108504
1789690654877978400,11.123978271484376,-1.788887450070679,-2.4408687187850475,-4.099177778092026
1789690654887966500,11.133966552734375,-2.238521853622794,-2.4387884053796527,-4.261357760299742
1789690654897954300,11.143954345703126,-3.0937305697262287,-2.5355314542979,-4.4665252358406775
1789690654907941400,11.15394140625,-4.085877274753153,-2.791850732666254,-5.176705887806415
1789690654917929500,11.163929443359375,-5.414252076643705,-2.7727672620117665,-5.79570989280939
1789690654927917300,11.173917236328125,-7.055159919294715,-2.2296435506403447,-6.0214218514680855
1789690654937904400,11.183904296875,-8.77030379550159,-1.6262854430586098,-6.076425945809484
1789690654947892500,11.193892578125,-7.71428024610877,-1.6760270868271587,-5.477471041622757
1789690654957880300,11.20388037109375,-4.679212877753376,-2.504154903781414,-4.721446630109846
1789690654967867400,11.213867431640624,-1.743364593040943,-3.7218233055919407,-4.0416596551030874
1789690654977855500,11.22385546875,2.192409506267309,-5.024994400382042,-3.0374893348053096
1789690654987842300,11.23384228515625,3.5603012027710674,-6.904356778886914,-2.945240090174973
1789690654997830400,11.243830322265625,4.016982894486189,-6.84768679715991,-1.3429915023945271
1789690655007818500,11.253818603515626,4.689251456686854,-4.953934074252843,0.7592351902529597
1789690655017805300,11.263805419921875,5.447652826464176,-4.338583915582299,1.644927891947329
1789690655027793400,11.27379345703125,6.076978318995237,-4.648296345964074,1.4076779095776377
1789690655037781200,11.28378125,6.476278081321716,-5.3957969670206305,2.429706104257703
1789690655047768300,11.293768310546875,6.17331921685338,-5.853183007612824,3.72590005351156
1789690655057756400,11.30375634765625,3.181021899688244,-5.601447549903392,5.17636043536961
1789690655067744300,11.313744140625,-3.0301871950984,-4.8113534032672645,6.1242164555102585
1789690655077731300,11.3237314453125,-4.173849864977598,-3.990587054991722,5.139995575046539
1789690655087719400,11.333719482421875,-1.6543967081688344,-3.1760791825890538,4.046457410773635
1789690655097707300,11.343707275390624,1.2591679946735501,-2.703581497582793,3.5401270142704244
1789690655107694300,11.3536943359375,3.68492565356642,-2.184592110514641,3.056082683855295
1789690655117682400,11.363682373046874,5.676591345953941,-1.4918278727740049,2.649571090453863
1789690655127670300,11.373670166015625,5.327458759331702,-0.5665203690499067,2.1605808280691505
1789690655137657300,11.3836572265625,3.9332852051019667,0.3931131826460361,2.008327342722565
1789690655147645200,11.393645263671875,3.4690780863180755,1.4058382730603218,2.4358975062437356
1789690655157633300,11.40363330078125,3.5304724662184714,2.827763173046708,3.274980870845914
1789690655167620400,11.413620361328125,3.47599853323102,3.6060792036056517,3.952936538772285
1789690655177608200,11.423608154296875,3.0448113482564687,4.058077121418714,4.2761780205518
1789690655187596300,11.43359619140625,2.755590501761436,4.542378641465306,4.406620217715203
1789690655197583400,11.443583251953125,2.867526443636417,4.869553663301468,4.481415930980444
1789690655207571200,11.4535712890625,3.131658733843267,4.966145321050286,4.359483495748043
1789690655217559300,11.463559326171875,3.736157535892725,4.928092361509799,4.480069777068495
1789690655227546400,11.47354638671875,4.172254120218754,4.9969601460307835,5.141347574177384
1789690655237534200,11.4835341796875,4.299447252458334,4.952485629010201,5.994455518609285
1789690655247522300,11.493522216796874,4.287470398938655,5.326987050166726,6.706974258133768
1789690655257509000,11.503509033203125,3.9409041556730866,5.7759372708469625,7.210630466991662
1789690655267497200,11.513497314453126,3.5385692634344097,6.253803204888105,7.603672337967157
1789690655277484500,11.523484619140625,2.9564360224500295,6.491643408235907,7.719496519452333
1789690655287472000,11.53347216796875,2.341339838540554,6.265951907843351,7.400494867199659
1789690655297460200,11.543460205078125,1.8791842454589902,5.7605544082760805,6.646264645627141
1789690655307447600,11.553447509765626,1.4618481834433972,5.244426255857944,5.757471639829873
1789690655317435400,11.563435302734375,0.5525299837507307,4.57004932320118,4.482427153849602
1789690655327423200,11.57342333984375,-0.8198037868537008,3.4779759707838296,2.8083552927434443
1789690655337410600,11.58341064453125,-3.1328000128328797,1.7756103276073931,1.3836428078651428
1789690655347398400,11.5933984375,-6.313135683822631,-0.7648246808230876,-0.17707973743677138
1789690655357386200,11.60338623046875,-7.639967640185356,-3.5970623689353465,-2.919344309157133
1789690655367373300,11.613373291015625,-8.643839562058448,-5.800688265743851,-6.519472495403885
1789690655377361400,11.623361328125,-8.470636373794079,-7.5840926082283255,-9.194510620069503
1789690655387349200,11.633349365234375,-6.162171215373277,-8.963000788787006,-10.194636925673484
1789690655397336300,11.64333642578125,-3.4249987060949203,-9.414127184462547,-9.570680266699194
1789690655407324400,11.653324462890625,-2.0449065764486787,-7.735849688360094,-8.022517343240976
1789690655417312300,11.663312255859376,-2.390893412391096,-4.535139337861538,-6.4028112785726785
1789690655427299300,11.67329931640625,-3.0756700123786924,-2.0553110660851,-4.979351424103975
1789690655437287400,11.683287353515626,-2.694334945809841,-1.2749252435147762,-3.6126574129521845
1789690655447275500,11.693275634765625,-1.4113012146413326,-1.5111498283594846,-2.1464678393036127
1789690655457262300,11.703262451171875,-0.49697687722444533,-1.5631617551475763,-0.7737241727240383
1789690655467250400,11.71325048828125,0.07450674025602638,-1.218204992905259,0.42135362709388136
1789690655477238500,11.723238525390625,1.2580008505903184,-1.2720844671308993,1.301282942955941
1789690655487225300,11.733225341796874,2.6807904045820234,-2.33066003909409,1.8976596672177313
1789690655497213400,11.74321337890625,3.0994857722520828,-4.647500227150321,2.755166138869524
1789690655507201500,11.753201416015624,1.536386560946703,-7.70976773712039,4.367277218364179
1789690655517188400,11.763188232421875,-2.460880410200357,-11.082523338019847,6.416182801321148
1789690655527176400,11.773176513671874,-3.1738942397654055,-10.868366208076477,6.893105901554226
1789690655537164500,11.78316455078125,-1.9336416657030582,-4.7736079022407525,4.255248045247793
1789690655547151400,11.7931513671875,0.42384741667099296,1.4708166489273309,2.99808086900264
1789690655557139500,11.803139404296875,4.053626571750641,4.054673450455069,3.1060660274252294
1789690655567127300,11.813127197265626,6.313216347843408,5.801242977017164,3.8915187779963016
1789690655577114400,11.8231142578125,5.458632485640049,7.096223751088976,4.389287097859382
1789690655587102500,11.8331025390625,4.347479754221439,7.496651056140661,4.566726900780201
1789690655597090300,11.84309033203125,3.8430829561293125,7.1237839581876985,4.409216663949191
1789690655607077400,11.853077392578125,3.195446730881929,6.166933899730443,4.083517852145433
1789690655617065500,11.8630654296875,2.879151414978504,4.4628181980162855,3.9174382321506735
1789690655627052300,11.87305224609375,3.1203274847507476,1.9445044205009936,3.7372514686092733
1789690655637040400,11.883040283203124,3.5660733564317226,-0.6392874990969896,3.7353053029775616
1789690655647028500,11.893028564453125,4.374693924361467,-2.9660639747560023,4.190430412900447
1789690655657015300,11.903015380859374,5.20360909230113,-4.528207492771744,4.4915772595107555
1789690655667003400,11.91300341796875,5.463552990907431,-4.657733451873064,4.422617120531201
1789690655676991200,11.9229912109375,5.114415728110075,-3.3041315620064733,3.817993523058295
1789690655686978300,11.932978271484375,4.779411035561561,-1.457929110303521,3.0710546275377273
1789690655696966400,11.94296630859375,3.9986990497767922,0.35855098783075806,2.4611034053012726
1789690655706954200,11.952954345703125,2.789009956282377,1.4940163227289913,1.6220231094390154
1789690655716941300,11.96294140625,1.8819646699577568,2.038103910696506,0.7269435707181692
1789690655726929400,11.972929443359375,1.1578683053642511,1.9540712902694939,-0.1727417447650805
1789690655736917200,11.982917236328126,0.4625263260900974,1.8376064727932213,-0.8736369377195835
1789690655746904300,11.992904296875,-0.7198276742983609,1.3455360723108052,-1.7257786674678324
1789690655756892400,12.002892333984375,-2.0124433997392654,0.23456512719988823,-2.91921016138345
1789690655766880300,12.01288037109375,-3.597385609540343,-0.42555531656742096,-3.7265927119508384
1789690655776867300,12.022867431640625,-4.1710307159036395,-0.5492728816509247,-3.637203240665793
1789690655786855700,12.032855712890624,-3.338095790928602,-0.5455564914762974,-3.051198711206019
1789690655796843800,12.04284375,-2.3512189891286193,-0.23161504522264004,-2.653636440196633
1789690655806830800,12.052830810546874,-1.9246314069040118,0.1644482194006443,-2.445647769755125
1789690655816818700,12.062818603515625,-1.7187544679194688,0.4482359349310398,-2.2409075797155498
1789690655826806800,12.072806884765624,-1.2389631187736987,0.8431786710917949,-1.897589524590969
1789690655836793900,12.0827939453125,-1.1745792016685008,1.1158084482699633,-1.7067328984752297
1789690655846781700,12.09278173828125,-1.4431876143760978,1.3449766848623752,-1.4301371402755378
1789690655856769800,12.102769775390625,-1.4711732072800396,1.4030974499195814,-1.1699570948258042
1789690655866756900,12.1127568359375,-0.850860457766056,1.0799304946810007,-1.1824913630325347
1789690655876744700,12.12274462890625,-0.051344110529124735,0.7467571092128753,-1.4736758377507329
1789690655886732800,12.13273291015625,0.49906303584873674,0.4733312132209539,-1.9225017013989387
1789690655896719600,12.1427197265625,0.6212020995691419,0.0919990692615509,-2.3382339814797044
1789690655906707700,12.152707763671875,0.05988865151256322,-0.48731180777847766,-2.9836633443325757
1789690655916695800,12.16269580078125,-0.8777205537714063,-0.793623489806056,-4.040407024693489
1789690655926682600,12.1726826171875,-1.7666918387450277,-1.0261194095164536,-5.082466346141696
1789690655936670700,12.182670654296874,-2.2014750023849308,-1.3139531855672597,-5.93840279199779
1789690655946657800,12.19265771484375,-2.4648756173163653,-1.6779940029859541,-6.373107629704475
1789690655956645600,12.202645751953124,-2.9843975038260218,-2.057179782566428,-6.042189914208651
1789690655966633700,12.2126337890625,-3.778291919527948,-2.271396533742547,-5.077160056427121
1789690655976620800,12.222620849609376,-4.2034202428549525,-2.4275690922290085,-4.213797552223503
1789690655986608600,12.232608642578125,-3.703777361291647,-2.6062901671320198,-3.6229932212665674
1789690655996596700,12.2425966796875,-2.6994144410312173,-2.787313089236617,-3.2642478799074888
1789690656006583800,12.252583740234375,-1.8911312883622944,-2.9921406652987,-3.0597540658444164
1789690656016571600,12.262571533203126,-1.227308336815238,-3.041575435075164,-2.9864123507797715
1789690656026559700,12.272559814453125,-0.7880000969663262,-2.858712438061833,-3.229278273335099
1789690656036546800,12.282546875,-0.6774626237124204,-2.585427996367216,-3.8727889430850744
1789690656046534700,12.29253466796875,-0.8515561849452554,-2.402267477712035,-4.728693824759126
1789690656056522800,12.302522705078125,-1.7053189400240778,-2.4733377407133577,-5.7099611161142585
1789690656066509800,12.312509765625,-2.8927929868400097,-2.3590391613602635,-6.3297448733180754
1789690656076498000,12.322497802734375,-4.261768971449136,-1.6016314787954091,-6.74807549932897
1789690656086485800,12.33248583984375,-6.324293622174858,-0.5131546895653009,-7.07721276114881
1789690656096472800,12.342472900390625,-8.19692640016377,0.10837386547923088,-7.122542433694004
1789690656106461000,12.3524609375,-6.8428791046172375,-0.14182429966032503,-6.248720202535391
1789690656116448800,12.36244873046875,-4.36221145940721,-0.6894365546226501,-5.450464376753568
1789690656126435800,12.372435791015626,-3.5112235758692023,-1.7005898656755685,-4.944284786897898
1789690656136424000,12.382423828125,-1.1368816314369439,-3.1145377954334017,-3.6271491719022393
1789690656146411800,12.392411865234376,2.112255188578367,-4.934214059260487,-2.3266575254544613
1789690656156398800,12.40239892578125,4.475387172210216,-5.748934113109112,-0.36288572909943756
1789690656166387000,12.412386962890626,6.047740534073114,-5.607672123506665,1.3180106442645192
1789690656176375000,12.422375,6.66985770266056,-5.404105945682526,1.6146106412254273
1789690656186361900,12.43236181640625,6.946398515802621,-5.936707678517699,1.8277816827408968
1789690656196350000,12.442349853515625,6.965486662632227,-6.571906446996331,2.8879198278456926
1789690656206337800,12.452337890625,6.725657331293821,-6.856580882233381,3.9309564698934554
1789690656216324900,12.462324951171874,3.6332618095636366,-6.283463599136471,6.018570553690195
1789690656226313000,12.47231298828125,-2.2150258272230623,-4.75115817002356,6.850842630842328
1789690656236300800,12.48230078125,-3.5888428221225737,-3.773682672166824,5.269992658790946
1789690656246288000,12.492287841796875,-2.083585705063492,-3.051996291324496,3.9064799080237744
1789690656256276000,12.50227587890625,0.39632337686419483,-2.0949118395894764,3.4250942754238842
1789690656266263800,12.512263916015625,3.322912250322103,-1.277515844529867,3.2628532106786965
1789690656276251000,12.5222509765625,4.7645244320750235,-0.44190205573439595,2.9739661261826753
1789690656286239000,12.532239013671875,5.001083947962522,0.24307167426049708,2.4876784007549286
1789690656296226800,12.542226806640626,3.8006373145878314,0.7366524793058633,2.309289626546204
1789690656306214000,12.5522138671875,2.5613386802494524,1.733923980000615,2.7032155868798493
1789690656316201700,12.56220166015625,3.0126679050207135,2.729745866408944,3.281781783032417
1789690656326188800,12.572188720703124,3.318547040849924,3.451369118887186,4.006896969279647
1789690656336177000,12.582177001953125,3.1829040601730343,3.8807022004276512,4.407382434259355
1789690656346164700,12.592164794921874,2.895783400827646,4.053259492003917,4.451242911034822
1789690656356151800,12.60215185546875,2.684893748247623,4.029805551180243,4.38740844450593
1789690656366140000,12.612139892578124,2.709937004089355,4.051121310931444,4.446271260102093
1789690656376127700,12.622127685546875,3.2554934955656525,4.106933214524388,4.7261447247982025
1789690656386114800,12.63211474609375,3.6627962393447753,4.267666212794184,5.388447773301601
1789690656396103000,12.64210302734375,3.8496880534827707,4.523357714653015,6.234514567050337
1789690656406090800,12.6520908203125,3.8804666381061077,5.036762579587101,6.905044761151075
1789690656416077800,12.662077880859375,3.6028771926939487,5.457637629383802,7.289113052076101
1789690656426065700,12.672065673828126,3.0561691930949686,5.825398344108462,7.369522221308946
1789690656436053800,12.6820537109375,2.5741011311888693,6.011145956647396,7.1863383217781776
1789690656446040800,12.692040771484375,2.2321270380191502,5.919519227829575,6.77912880924046
1789690656456028700,12.702028564453125,1.7738941713392733,5.372424859261512,6.063473525255918
1789690656466016800,12.712016845703126,1.1413317427136003,4.628099945631623,5.134368382814526
1789690656476003800,12.72200390625,0.6652632134832441,3.8280952303558586,3.991259839686751
1789690656485991700,12.73199169921875,-0.11706804406642914,2.7845868791431188,2.527582833380997
1789690656495979800,12.741979736328124,-1.5721733291208744,1.2434101613104342,0.8013381558366119
