time,seconds_elapsed,z,y,x
1789692645920504000,0.005504150390625,-2.154952759054303,-1.2928773720517754,1.1136740665897726
1789692645930469400,0.015469482421875,-3.4849732823252677,-0.8375801204323768,-0.03868775031268597
1789692645940435200,0.025435302734375,-4.800965864765644,-1.211347674356401,-0.9877385331958531
1789692645950400000,0.03539990234375,-4.793061375251412,-1.6238468177348375,-0.9169196146070957
1789692645960365300,0.045365234375,-3.553800734835863,-1.83974436160475,-0.8823580043137073
1789692645970330000,0.055330078125,-2.1372902611136437,-2.1106398623362184,-1.2404162401914596
1789692645980295200,0.065295166015625,-1.1455173578351736,-2.4426295909777282,-1.3578648080080746
1789692645990260200,0.07526025390625,-1.1301859331905841,-2.2872413147367534,-1.2332581851303577
1789692646000225000,0.08522509765625,-1.4647136558771132,-2.1168096370123326,-0.3246373200520873
1789692646010190300,0.0951904296875,-2.7689795601665974,-0.3842708277598023,0.024615385818481442
1789692646020155100,0.105155029296875,-4.202887158891558,1.7764089306391775,1.926873779003322
1789692646030120200,0.1151201171875,-4.411919200906158,0.40890024210363624,2.2066648261129855
1789692646040085000,0.1250849609375,-4.277100980615615,0.39576866559088225,2.431176761332154
1789692646050050300,0.13505029296875,-4.71831680765152,-0.8816558473937213,2.4396190109848974
1789692646060015000,0.14501513671875,-5.515588883092999,-1.5842781929343939,2.163718833833933
1789692646069981200,0.154981201171875,-8.052240281331539,-1.772168808851391,1.6770488310903309
1789692646079946200,0.1649462890625,-9.339382032340765,-2.855400537034869,1.0721773963361978
1789692646089911300,0.174911376953125,-9.325135480323434,-2.709339330457151,1.1371107640177012
1789692646099876000,0.1848759765625,-7.272477559095621,-3.954008259657025,1.094913544279337
1789692646109841200,0.194841064453125,-5.5825359286844725,-3.6671047501936553,1.8970874202877281
1789692646119806200,0.20480615234375,-3.6454607814013955,-4.623077149033546,1.2348667893707752
1789692646129771300,0.214771240234375,-3.9762066474616526,-4.448388106125593,0.8707605055004358
1789692646139736000,0.224736083984375,-3.9593227326780553,-4.239315147578716,0.9234528157681227
1789692646149701000,0.234701171875,-4.547703051358461,-4.208299831590057,1.5158382784366606
1789692646159666200,0.244666259765625,-5.381631079024076,-5.019232183593512,1.5593822366088628
1789692646169631200,0.25463134765625,-5.198005280944705,-6.2982338827669615,2.113281024494767
1789692646179596300,0.26459619140625,-4.195749562096595,-6.742334325328469,2.1748978149741887
1789692646189561000,0.27456103515625,-3.192681942343712,-7.932956899303197,1.5798066004782914
1789692646199527200,0.284527099609375,-2.9398288787811993,-7.640493709886074,1.8116478556722402
1789692646209492200,0.2944921875,-2.0472680448830127,-8.581762752851843,1.5178729991346598
1789692646219457000,0.30445703125,-1.6846750881850718,-9.96189316868186,1.7314742487609385
1789692646229422000,0.314422119140625,-1.884094083201885,-10.214978287434578,2.0333768821746108
1789692646239387400,0.324387451171875,-2.1616560560852287,-10.4955452873528,2.0169418802022934
1789692646249352200,0.334352294921875,-2.5300962775066496,-10.204129561161995,1.9474106633365154
1789692646259317200,0.344317138671875,-2.8123157208070158,-9.740669169092177,1.45733406701982
1789692646269282000,0.354281982421875,-3.197942347089946,-9.692297060111164,0.6672703155219555
1789692646279247400,0.364247314453125,-3.746854578734934,-9.887110607159137,-0.11285831741690636
1789692646289212200,0.374212158203125,-3.8373599023073908,-10.241904872804879,-1.0283300713032484
1789692646299177200,0.38417724609375,-3.3084412418991325,-9.792229844981431,-1.1154939754933118
1789692646309142000,0.39414208984375,-2.8287510150402784,-10.20712114419341,-2.2211182988792655
1789692646319107300,0.404107421875,-1.7048855170428752,-10.210004006153344,-3.008467530721426
1789692646329072000,0.414072021484375,1.3174176468074321,-10.206136809331179,-3.393641737061739
1789692646339038200,0.4240380859375,1.6133832913875579,-9.805783154037595,-3.6718209650605913
1789692646349003000,0.4340029296875,2.844502126401663,-9.736909524297714,-4.032557480236887
1789692646358968300,0.44396826171875,3.667131345939636,-9.689089203980565,-4.293267687040567
1789692646368933000,0.45393310546875,4.13205187368989,-9.53907633716762,-4.5976726586639876
1789692646378898400,0.4638984375,4.0376632789433,-9.763829679927229,-5.664058027595281
1789692646388863200,0.47386328125,3.709934714877605,-9.650216744750738,-6.153367146670818
1789692646398828300,0.483828369140625,3.809147953301668,-9.38799204173088,-6.504882244515419
1789692646408793000,0.49379296875,3.5830560554146764,-9.13694456628561,-6.869129982683062
1789692646418758100,0.503758056640625,3.5109470970153804,-8.676947466412186,-7.275442838642001
1789692646428723500,0.513723388671875,3.6529251259326934,-7.959735600635409,-7.658847112700343
1789692646438688300,0.523688232421875,3.9100937146067616,-7.053998474299907,-8.099372619384527
1789692646448653300,0.5336533203125,4.151530481141806,-6.149864691507816,-8.725912280589341
1789692646458618000,0.5436181640625,4.363991328561306,-5.217420760032534,-9.507653024899959
1789692646468583400,0.55358349609375,4.436711696857214,-4.174649490922689,-10.23653545472622
1789692646478548200,0.56354833984375,4.412120860958099,-3.093554628637433,-10.886370651322602
1789692646488514300,0.573514404296875,4.333824153834581,-2.0042530790209767,-11.474496702980995
1789692646498479400,0.583479248046875,4.176715191280842,-1.0013485408753156,-12.018059974813461
1789692646508444400,0.5934443359375,3.942290349334478,0.002186111867427826,-12.386943556088209
1789692646518409200,0.6034091796875,3.644145607149601,0.9113263246446848,-12.586603374123573
1789692646528374300,0.613374267578125,3.2955145403087136,1.6370996825397013,-12.594078240048885
1789692646538339300,0.62333935546875,3.078748104649782,2.203397933271527,-12.391885104143618
1789692646548304400,0.633304443359375,2.931959460580349,2.582489020305872,-11.990424948912858
1789692646558269200,0.643269287109375,2.968133182245493,2.7942238915383815,-11.318213085335492
1789692646568234200,0.653234130859375,3.1223066758692264,2.886988684475422,-10.51721585189104
1789692646578199000,0.663198974609375,3.20327815515995,2.787320688021183,-9.966208109271525
1789692646588164400,0.673164306640625,3.1979286108255383,2.7494267184346914,-9.53098304708302
1789692646598129200,0.683129150390625,3.020631431245804,2.9040672450482843,-9.169728060990572
1789692646608094200,0.69309423828125,2.5282266842424868,3.0112001705557105,-8.978636164814233
1789692646618059300,0.703059326171875,1.7870622804701328,3.0176369256049393,-8.926623068982362
1789692646628025300,0.713025390625,0.8779414299804716,3.081191406148672,-8.815616516911984
1789692646637990100,0.722990234375,0.17651516235657036,3.013478636881709,-8.712370077449084
1789692646647955200,0.732955078125,-0.21232173120975492,2.957797081670165,-8.59366537209153
1789692646657920300,0.742920166015625,-0.38222814295105634,3.0646739865899084,-8.446461717480421
1789692646667885300,0.75288525390625,-0.3981412399411201,3.0804648454397916,-8.374079202836752
1789692646677850400,0.762850341796875,-0.2878233277220279,3.0335382590919733,-8.387288813021778
1789692646687815200,0.772815185546875,-0.04018350529577583,2.9060639718234538,-8.609004395520687
1789692646697780500,0.782780517578125,0.27919337347745893,2.6996365593492984,-8.93938142826855
1789692646707745300,0.792745361328125,0.44953247754760084,2.5360095932036635,-9.230877818480133
1789692646717710300,0.80271044921875,0.5165057900914922,2.3818629875868558,-9.421777406954766
1789692646727675100,0.812675048828125,0.5045394579658284,2.1156319715350866,-9.449746194854377
1789692646737640400,0.822640380859375,0.5067559284389018,1.763553394588828,-9.23890388854742
1789692646747605200,0.832605224609375,0.7471031461715698,1.371101890721917,-8.789313031876087
1789692646757570300,0.8425703125,0.9621019876360892,0.9286457082360983,-8.405940906521678
1789692646767535000,0.85253515625,1.089791963481903,0.49590311051309105,-8.067297565209865
1789692646777501400,0.86250146484375,1.2147428697526454,0.09040800067782402,-7.714650832986831
1789692646787466200,0.87246630859375,1.302878249323368,-0.275360663446784,-7.4350459560990325
1789692646797431300,0.882431396484375,1.244753392612934,-0.6562684445142746,-7.36451637584567
1789692646807396000,0.89239599609375,1.085049152868986,-0.830395761886239,-7.420685422313213
1789692646817361400,0.902361328125,0.9017208764314651,-0.800648858398199,-7.518368382430076
1789692646827326200,0.912326171875,0.707521661889553,-0.6375234120339155,-7.669284335562586
1789692646837291300,0.922291259765625,0.4576841467559337,-0.3274099996358156,-7.727561752486229
1789692646847256000,0.932256103515625,0.25770284168124197,0.06185001471340656,-7.653336240324378
1789692646857221400,0.942221435546875,0.11482463078750296,0.44575873116254805,-7.54894706056714
1789692646867186400,0.9521865234375,-0.03714578156769276,0.7414402981042861,-7.433304080867767
1789692646877151200,0.962151123046875,-0.2699374328216538,0.7587158425539732,-7.235972998040914
1789692646887116300,0.9721162109375,-0.34664427693784233,0.7136392679870128,-6.75475190835297
1789692646897081300,0.982081298828125,-0.12961539095044136,0.40115035862922666,-6.269744285863638
1789692646907046400,0.99204638671875,0.2415583105554804,-0.47724750988185405,-6.08793868894875
1789692646917011200,1.00201123046875,0.6091430841913447,-1.4771487745583056,-5.800881742489338
1789692646926977300,1.011977294921875,0.8940700694173573,-2.163529448741674,-5.148267728829383
1789692646936942300,1.0219423828125,1.1794506070971489,-2.7163205676466227,-4.4420945589393375
1789692646946907400,1.031907470703125,1.3725386455267667,-3.1208605687141415,-3.6417978749796744
1789692646956872200,1.0418720703125,1.5237205561190843,-3.2929631022602317,-2.8888752288743853
1789692646966837200,1.051837158203125,1.6130781709611415,-3.4946769302159546,-2.383841594183445
1789692646976802300,1.06180224609375,1.629558181118965,-3.68109323579669,-2.025537859112024
1789692646986767400,1.071767333984375,1.5372241808146236,-3.8659886154204606,-1.7915975858122108
1789692646996732200,1.081732177734375,1.4843635282427072,-4.140803919944167,-1.6760048749953507
1789692647006697200,1.091697265625,1.6439643076121806,-4.2919449140042065,-1.566407020679116
1789692647016662300,1.101662353515625,1.9038211124569175,-4.293483960139751,-1.4182330597311257
1789692647026627300,1.11162744140625,2.2084043632566925,-4.292661537840962,-1.3395353705912827
1789692647036592000,1.121592041015625,2.4756115308642386,-4.215003713142871,-1.2690233259946107
1789692647046557200,1.13155712890625,2.6916695259928702,-4.164299946343898,-1.2743933285951614
1789692647056522500,1.1415224609375,2.777324194663763,-4.195062164354324,-1.3380717277795076
1789692647066487300,1.1514873046875,2.7062135996520515,-4.31687301903367,-1.3712404224097727
1789692647076453000,1.161453125,2.5569582732081413,-4.521474969646334,-1.3772878858804702
1789692647086418200,1.171418212890625,2.365506311547756,-4.700313533449172,-1.2761574156582354
1789692647096383200,1.18138330078125,2.149460006856918,-4.908954530319571,-1.0189373890578746
1789692647106348300,1.191348388671875,1.9082967965662478,-5.122497912278771,-0.5676859056979418
1789692647116313300,1.201313232421875,1.6664473575770853,-5.275108394369482,-0.1263759706377983
1789692647126278100,1.211278076171875,1.5503893673360347,-5.3537102219194175,0.29376316609978675
1789692647136243500,1.221243408203125,1.4791466703772544,-5.370634468713402,0.7202911270916461
1789692647146208300,1.231208251953125,1.330668758046627,-5.286821628516912,1.178774899792671
1789692647156173300,1.24117333984375,1.186747778367996,-5.145577759093046,1.6834768183112143
1789692647166138000,1.25113818359375,1.2079309247154741,-5.023126268422604,2.1235615954905747
1789692647176103400,1.261103515625,1.2154817784864456,-4.87872422722876,2.5610949346214533
1789692647186068200,1.271068115234375,1.2270436945296823,-4.760717733268439,2.994541296699643
1789692647196033300,1.281033203125,1.2071276455085724,-4.728711360415816,3.373586206504702
1789692647205998000,1.290998046875,1.1936790389358998,-4.692005431570112,3.7151375442177055
1789692647215963400,1.30096337890625,1.2476444378793239,-4.620940429265797,4.029179528236389
1789692647225928200,1.31092822265625,1.268065148486942,-4.543895475769043,4.381790604624152
1789692647235893200,1.320893310546875,1.2343781290709972,-4.486015533730387,4.712373973599076
1789692647245859000,1.330859130859375,1.2496949406683444,-4.437035229723155,4.991223648205399
1789692647255824400,1.340824462890625,1.3433587282717228,-4.435663356848061,5.240502360412478
1789692647265789200,1.3507890625,1.4314005843400954,-4.416568488016725,5.447538844695687
1789692647275754200,1.360754150390625,1.4451508772730826,-4.430028273570537,5.590200179702043
1789692647285719000,1.370718994140625,1.3873533528208732,-4.452710060977935,5.8095531247228385
1789692647295684400,1.380684326171875,1.2176526197195052,-4.396242323824763,6.045705228853225
1789692647305649400,1.3906494140625,1.1678759777028114,-4.4161847493961455,6.094053372436761
1789692647315614200,1.4006142578125,1.1045266643423586,-4.506681597401202,6.143827749431133
1789692647325579300,1.410579345703125,0.9807646755952387,-4.56684146707058,6.216762052738666
1789692647335544300,1.42054443359375,0.857404764842987,-4.716234156158566,6.300457988557219
1789692647345509400,1.43050927734375,0.7768062105178832,-5.002083480393886,6.385356285902858
1789692647355474200,1.44047412109375,0.7415607096135616,-5.36185494993031,6.485420003676414
1789692647365439200,1.450439208984375,0.8316051376760005,-5.887341297802329,6.51911009183228
1789692647375404300,1.460404296875,0.986433295816183,-6.3776856051445,6.490259260401129
1789692647385369600,1.47036962890625,1.0764379763901233,-6.7659998630762095,6.544758912351727
1789692647395334400,1.48033447265625,1.17553197234869,-7.1879352355808015,6.651299132663011
1789692647405299500,1.490299560546875,1.3299328449875116,-7.531707171952724,6.719752491164207
1789692647415265500,1.500265625,1.4583546422392129,-7.728511016035079,6.8279252811133855
1789692647425230600,1.510230712890625,1.4416238721907138,-7.692959810182452,7.001488534861803
1789692647435195400,1.5201953125,1.3299351830750703,-7.522083603560924,7.08280780467689
1789692647445160700,1.53016064453125,1.1732464917600154,-7.377462366658449,6.9166790848433966
1789692647455125500,1.54012548828125,0.8819412402063608,-7.11203214559555,6.534537378066778
1789692647465090600,1.550090576171875,0.39393151329159737,-6.6816124378621575,5.954800969091058
1789692647475055400,1.560055419921875,-0.20228136217799036,-6.227161281678081,5.311514171224832
1789692647485020400,1.5700205078125,-0.795874483603239,-5.775366192960739,4.693247248324751
1789692647494985500,1.5799853515625,-1.2526210572481156,-5.323078352290391,4.154582854449749
1789692647504950500,1.589950439453125,-1.5567325988829135,-4.812779344417154,3.7438305547386403
1789692647514915600,1.59991552734375,-1.4921359158098697,-4.177421878245473,3.5305338410168883
1789692647524880400,1.60988037109375,-1.2389075891941785,-3.5598856077075003,3.2904198475182054
1789692647534845700,1.619845703125,-1.0028764810949564,-3.175836313743889,2.964084199115634
1789692647544810500,1.629810546875,-0.8304769373636692,-3.035906449528038,2.4853245311051606
1789692647554775600,1.639775634765625,-0.7236760933548212,-3.1228003046050667,1.839781478744745
1789692647564740400,1.649740234375,-0.666137585164979,-3.4229873662725088,1.1906126371026038
1789692647574705700,1.65970556640625,-0.6195008486092091,-3.7536759491875764,0.5492775578260422
1789692647584670500,1.66967041015625,-0.6715519383639097,-4.217963731992245,-0.034625323179364204
1789692647594636500,1.679636474609375,-0.779048436486721,-4.727706567287445,-0.4988280580490827
1789692647604601600,1.6896015625,-0.8383259703636169,-5.080909179827571,-0.8646943373292684
1789692647614566700,1.699566650390625,-0.8705851489335298,-5.251228337088227,-1.110581069010496
1789692647624531500,1.709531494140625,-0.8106202173143625,-5.445231736797094,-1.4123960241407154
1789692647634496500,1.71949658203125,-0.6397124465107917,-5.186410120218992,-1.747944906568527
1789692647644461600,1.729461669921875,-0.4069727811723947,-4.843039165863394,-2.071950650718808
1789692647654426600,1.739426513671875,-0.07709668368399143,-4.389649501430988,-2.4684160664021966
1789692647664391400,1.749391357421875,0.3442459836244583,-3.866108442407846,-3.003489742308855
1789692647674356500,1.7593564453125,0.3914204072535038,-3.6154929286390542,-3.2680618852376937
1789692647684321300,1.7693212890625,1.2414017440974712,-2.562363931643963,-4.068685024672747
1789692647694286600,1.77928662109375,1.5741595345020294,-1.8422727110385895,-4.624341469880938
1789692647704251600,1.789251708984375,1.7350854249954222,-1.1336585777372121,-5.143092956539988
1789692647714216400,1.799216552734375,1.7400386634886265,-0.41951720544695853,-5.609502846065164
1789692647724181500,1.809181396484375,1.6841723993599413,0.30953005955219265,-6.007834640142321
1789692647734146600,1.819146484375,1.5683435416996478,0.8953057486921548,-6.2255047466427085
1789692647744111600,1.829111572265625,1.5113701931118964,1.383103294160962,-6.160297238194942
1789692647754076400,1.839076416015625,1.4981868864119052,1.7643033361732958,-5.9984746911227695
1789692647764041500,1.84904150390625,1.4607400760710239,2.0403250938773154,-5.7200505484521385
1789692647774007600,1.859007568359375,1.3874690881550311,2.193238942828774,-5.2436137704312795
1789692647783972600,1.86897265625,1.2920271849632263,2.2560832292765376,-4.70049561201781
1789692647793937400,1.8789375,1.2476245641350745,2.284740583962202,-4.286337887777388
1789692647803902700,1.88890283203125,1.259330199497938,2.306048160406947,-3.9831428764656183
1789692647813867500,1.898867431640625,1.23017658572793,2.3425042061448096,-3.7850861097127195
1789692647823832600,1.90883251953125,1.0842167936980724,2.395366612282395,-3.5988673725306985
1789692647833797400,1.91879736328125,0.8488415191590786,2.417597733312845,-3.5064486165523525
1789692647843762400,1.928762451171875,0.6370996336638927,2.420634324529767,-3.472764081354439
1789692647853727500,1.9387275390625,0.5691910495638847,2.4869267056047915,-3.4614319554790853
1789692647863692500,1.948692626953125,0.5829916113793849,2.5268057115286586,-3.6246211147293446
1789692647873657300,1.9586572265625,0.644286914819479,2.3958938510268926,-3.9913802511960266
1789692647883622400,1.968622314453125,0.7665981202363967,2.3257360266953704,-4.3645328880921
1789692647893587700,1.978587646484375,0.8742693904042244,2.4515303980529306,-4.715089954559505
1789692647903552500,1.988552490234375,0.8716735286921262,2.607507726228237,-5.073714884409308
1789692647913517600,1.998517578125,0.6793786864668131,2.7064450703203677,-5.579965201413631
1789692647923482400,2.008482421875,0.5001648596107959,2.6183815869420766,-6.1356467810630795
1789692647933447700,2.01844775390625,0.3185638453572988,2.504354810267687,-6.496557483762502
1789692647943412500,2.02841259765625,0.10120470450222492,2.5767583676993846,-7.000908689147233
1789692647953378600,2.038378662109375,-0.1301017131626606,2.4529776742517946,-7.470626388046145
1789692647963343600,2.048343505859375,-0.4486118190387264,2.2079794158428907,-7.811918198040127
1789692647973308700,2.05830859375,-0.5532967303395271,1.9798340925574303,-8.08291599010229
1789692647983273500,2.0682734375,-0.5552753369361162,1.611585302054882,-8.347571135139464
1789692647993238500,2.078238525390625,-0.5575789011707529,1.1690946327775715,-8.708146906796097
1789692648003203600,2.08820361328125,-0.4504758228123188,0.6409528019607067,-9.128672412502764
1789692648013168600,2.098168701171875,-0.36210371187627316,0.1775666441708803,-9.556164250090717
1789692648023133400,2.108133544921875,-0.25831425157785415,0.06972060195803642,-9.778317639485001
1789692648033098500,2.118098388671875,-0.1331599316895008,0.3316360928982496,-9.742808519208431
1789692648043063300,2.128063232421875,0.03204290547072887,0.701827834162116,-9.626485740551352
1789692648053028600,2.138028564453125,0.1753226281037554,0.9732815532982348,-9.667546649736165
1789692648062993400,2.147993408203125,0.31364505712296814,1.137521098384261,-9.735297997447848
1789692648072958500,2.15795849609375,0.585011097975634,1.3636024748772382,-9.614528176254034
1789692648082923500,2.167923583984375,0.5925619882792235,1.346539696395397,-9.543901565366983
1789692648092888600,2.177888671875,1.2518185086935758,2.018117353722453,-9.035144233977794
1789692648102853600,2.187853515625,1.402809280627966,2.04447519929409,-8.782972138416767
1789692648112818400,2.197818359375,1.2974468719244003,1.7998270694971084,-8.485304366093873
1789692648122783500,2.207783447265625,1.0419085148006677,1.2473241198837757,-8.095863149958848
1789692648132749600,2.21774951171875,0.7015344041734933,0.38784313328862186,-7.747214547461271
1789692648142714600,2.227714599609375,0.36983923803176727,-0.6819453220844268,-7.446003403443098
1789692648152679400,2.237679443359375,0.14277644928600638,-1.8040297818839548,-6.959388930279016
1789692648162644700,2.247644775390625,0.10734565494265406,-2.730930107757449,-6.1786898039758205
1789692648172609500,2.257609619140625,0.2384083220919594,-3.334718423449993,-5.233167195218801
1789692648182574600,2.26757470703125,0.44204171993341296,-3.5818022559612985,-4.131669011852145
1789692648192539400,2.277539306640625,0.6545832679063082,-3.490938912731409,-3.121751087813079
1789692648202504400,2.28750439453125,0.8752063789933919,-3.234742383959889,-2.43168821798563
1789692648212469500,2.297469482421875,1.1321551874369382,-2.8647113862156868,-2.0342472352683543
1789692648222434600,2.3074345703125,1.4524825353354214,-2.5608669710844754,-1.9802321519643067
1789692648232399400,2.3173994140625,1.7212532989978788,-2.4023574940830468,-2.2855209206849336
1789692648242364400,2.327364501953125,2.0029636237323283,-2.322116667154431,-2.5638790123820305
1789692648252329500,2.33732958984375,2.3014240077376362,-2.219098191228509,-2.681184956857562
1789692648262294500,2.34729443359375,2.516827338349819,-2.140854675596952,-2.669187645071745
1789692648272259600,2.357259521484375,2.6625392930984497,-2.1306150211334227,-2.581912681722641
1789692648282224400,2.367224365234375,2.8121090923190115,-2.2331424986720085,-2.358696047011018
1789692648292189700,2.377189697265625,2.9146564436018467,-2.3366525575071573,-1.98813371886909
1789692648302154500,2.387154541015625,3.032335897564888,-2.486739658600092,-1.57242408901155
1789692648312120300,2.397120361328125,3.099033352309465,-2.7126211286067963,-1.1269944436728954
1789692648322085600,2.407085693359375,3.049400429612398,-2.900131074643135,-0.5152028542667627
1789692648332050700,2.41705078125,2.986890489685535,-3.027079876732826,0.1179360590726137
1789692648342015500,2.427015380859375,2.936099044603109,-3.246367355301976,0.6137742876559495
1789692648351980500,2.43698046875,2.908034979635477,-3.4851924780339,1.1616016466736794
1789692648361945600,2.446945556640625,2.868420762127638,-3.6571120562285184,1.72624920758903
1789692648371910700,2.45691064453125,2.8552842171788213,-3.796247555196285,2.197978830832243
1789692648381875700,2.466875732421875,2.813385688126087,-3.8796161587566136,2.709691504895687
1789692648391840800,2.4768408203125,2.747049467909336,-3.9644101189449428,3.1790906393647194
1789692648401805600,2.4868056640625,2.6805659481763837,-4.0852278709337115,3.5924662733167407
1789692648411770600,2.4967705078125,2.536835522633791,-4.222800942890346,3.9921769545316694
1789692648421735400,2.5067353515625,2.3295149607121943,-4.338906571665406,4.349650083997846
1789692648431700700,2.51670068359375,2.1286101110517976,-4.461718712341785,4.606447501271963
1789692648441665500,2.52666552734375,1.9237085929706692,-4.647216441772878,4.888864512971043
1789692648451630600,2.536630615234375,1.7955264496937393,-4.78020569307059,5.157596698188781
1789692648461595600,2.546595703125,1.61292721818313,-4.959845928645134,5.392790186420083
1789692648471560700,2.556560791015625,1.3874481914974748,-5.141285614857077,5.637569249120355
1789692648481525800,2.56652587890625,1.2037525430522857,-5.1994870439350604,5.923400453177094
1789692648491491600,2.57649169921875,1.0879228086091577,-5.211242948180437,6.211074070230126
1789692648501456600,2.58645654296875,1.017160296382755,-5.21539656072855,6.450697649863362
1789692648511421700,2.596421630859375,0.9865057765305042,-5.258285269862413,6.661712390127778
1789692648521386500,2.606386474609375,1.0125811518989503,-5.367649315422773,6.773747700724005
1789692648531351600,2.6163515625,1.0873824181221425,-5.572886641329527,6.8808958238005635
1789692648541316900,2.62631689453125,1.1954233253199607,-5.792925815048814,6.9496659931659694
1789692648551281700,2.63628173828125,1.383267544811964,-6.061990008699894,6.975154070165753
1789692648561246700,2.646246826171875,1.6421113732218742,-6.398679293334483,6.915527576720714
1789692648571211500,2.65621142578125,1.9272902508497236,-6.679633246743679,6.915697672590613
1789692648581176800,2.6661767578125,1.8338485815644263,-6.703664695194363,6.926871977555751
1789692648591141600,2.6761416015625,2.478057170450687,-7.1518451005458825,6.784036455026269
1789692648601106700,2.686106689453125,2.6950352030336857,-7.396984228730202,6.590137100213766
1789692648611071500,2.696071533203125,2.8211387864708897,-7.482084770649671,6.46073505975306
1789692648621036500,2.70603662109375,2.9623078370928764,-7.383509830129146,6.284283683347701
1789692648631001600,2.716001708984375,2.937082210421562,-7.19267512358427,5.920706976309418
1789692648640966700,2.725966552734375,2.706903335481882,-7.042722462525964,5.480369685673713
1789692648650932500,2.735932373046875,2.351897472912073,-6.8229486617445945,5.110487156489492
1789692648660897800,2.745897705078125,1.9263690443515777,-6.437130312281846,4.8480561172425745
1789692648670862600,2.755862548828125,1.5237071121156214,-6.0562219466924665,4.532456966909766
1789692648680827600,2.76582763671875,1.1578536923170089,-5.730429319125413,4.228097003471851
1789692648690792400,2.77579248046875,0.8195756771862507,-5.4504059245646,3.8883606062263247
1789692648700757800,2.7857578125,0.45599721658229825,-5.205134694433212,3.55427244400084
1789692648710722600,2.79572265625,0.06406243919902481,-5.038348387473821,3.1089848374813793
1789692648720687600,2.8056875,-0.46904491420388217,-5.015482475671172,2.482772508534789
1789692648730652700,2.815652587890625,-1.0477461349129675,-5.058159003359079,1.772130668798089
1789692648740617700,2.82561767578125,-1.6019792693197725,-5.133958632969856,0.9215648100644349
1789692648750582800,2.835582763671875,-2.1481571075648067,-5.130400063705444,0.05159808529019355
1789692648760547600,2.845547607421875,-2.7553566930055617,-5.0719268319487565,-0.7620996397733688
1789692648770512600,2.8555126953125,-3.1944992208987473,-4.90317536239624,-1.3720610911428928
1789692648780477400,2.8654775390625,-3.2691052568107843,-4.5067093621909615,-1.7938807283133267
1789692648790442800,2.87544287109375,-3.0528987931221723,-3.9757442906469103,-2.0835937422394752
1789692648800407600,2.885407470703125,-2.7427707676768303,-3.4409015008866786,-2.26189805303514
1789692648810373600,2.89537353515625,-2.3852502919375893,-3.0219629721105097,-2.388005728125572
1789692648820338700,2.905338623046875,-1.908770259296894,-2.56255565482378,-2.462667293617129
1789692648830303700,2.9153037109375,-1.3697417082846164,-2.0316805996507403,-2.5024141975939274
1789692648840268500,2.9252685546875,-0.8379226502597331,-1.5118775581121444,-2.549357150554657
1789692648850233600,2.935233642578125,-0.3848655787825584,-1.0221990212023258,-2.5703981850177047
1789692648860198700,2.94519873046875,0.033217246479727326,-0.5938432602614164,-2.52697113122344
1789692648870163700,2.955163818359375,0.4477554579377174,-0.1851519847333431,-2.449140872567892
1789692648880128500,2.96512841796875,0.7907423814117908,0.2066425165295601,-2.3355659313142296
1789692648890093600,2.975093505859375,1.041021795094013,0.5401818127006291,-2.1641578097730876
1789692648900058600,2.98505859375,1.1502549077510833,0.8020125479668379,-1.9825632252603769
1789692648910023700,2.995023681640625,1.1674550488770008,1.0107342088580131,-1.7570348064750432
1789692648919988700,3.00498876953125,1.0357423933863639,1.129737020379305,-1.412098502498865
1789692648929953500,3.01495361328125,0.8282289392411708,1.2020774494469164,-1.0983248140275477
1789692648939918800,3.0249189453125,0.5224339745640755,1.2741361389636994,-0.8410346448004246
1789692648949883600,3.034883544921875,0.17023089445531367,1.3397370306432246,-0.5861398462772369
1789692648959849500,3.044849365234375,-0.12389758869237266,1.3917822751790285,-0.4295212975889444
1789692648969814500,3.054814453125,-0.34106384645700455,1.4090876302450894,-0.3101327016204595
1789692648979779800,3.06477978515625,-0.4759802664250135,1.4275702123969793,-0.21343173827826975
1789692648989744600,3.07474462890625,-0.4867383918046951,1.4550865803539752,-0.18704642017781734
1789692648999709700,3.084709716796875,-0.33905484472215175,1.4632465059339999,-0.25126842471957206
1789692649009674500,3.094674560546875,-0.3354360697031021,1.5513596736729145,-0.3902946180939674
1789692649019639800,3.104639892578125,0.25818450598465276,1.4899655860334633,-1.0978992820918558
1789692649029604600,3.1146044921875,0.5830675992250443,1.4629326176792383,-1.8065967097625135
1789692649039569700,3.124569580078125,0.7958738990813493,1.4060294117182492,-2.5374267665252086
1789692649049534500,3.134534423828125,0.8096721228092908,1.501635565561056,-2.7174451877623795
1789692649059499800,3.144499755859375,0.7962970929294824,1.4571359140992164,-3.455400566360354
1789692649069464600,3.154464599609375,0.6581272241234779,1.416664202979207,-4.11004287097752
1789692649079429600,3.1644296875,0.20539280872941015,1.3000924179971218,-5.08242133795619
1789692649089394700,3.174394775390625,0.20103285995423792,1.3757277969568966,-5.2585599951505655
1789692649099359700,3.18435986328125,-0.0947498384075705,1.3269792558789253,-5.750319429987669
1789692649109324800,3.19432470703125,-0.3029395752459764,1.296490594112873,-6.266145969110727
1789692649119290600,3.20429052734375,-0.41208208701014515,1.2353823376774786,-6.77302932332158
1789692649129255400,3.21425537109375,-0.5196867216825485,1.1550415575057267,-7.224293081641197
1789692649139220700,3.224220703125,-0.5464081398695707,0.9809814601510762,-7.708272530126571
1789692649149185500,3.234185546875,-0.5304442625403404,0.7400964822798967,-8.169501217621564
1789692649159150600,3.244150634765625,-0.4082289187133312,0.4971159934341907,-8.527700907796621
1789692649169115600,3.25411572265625,-0.17695055809915064,0.27257483212053774,-8.822158485901355
1789692649179080700,3.264080810546875,0.1683475649267435,0.03612812895774841,-9.07411255479753
1789692649189045800,3.274045654296875,0.5308452445566654,-0.26808745757341385,-9.417243855178356
1789692649199010600,3.284010498046875,0.8270482050240039,-0.5519248574644326,-9.726951609385013
1789692649208975600,3.2939755859375,1.1186392877817153,-0.588138911139965,-9.808410579931735
1789692649218940700,3.303940673828125,1.4427122519493103,-0.22670330778360365,-9.672190676149725
1789692649228905700,3.31390576171875,1.710755285859108,0.12153846747875213,-9.750562786597014
1789692649238870500,3.32387060546875,1.790249093812704,0.2882826888620853,-9.916862771344185
1789692649248835600,3.333835693359375,1.7163111664205788,0.6966057155996561,-9.840825825846194
1789692649258800600,3.343800537109375,1.4182599477380513,1.3448024973392485,-9.676811321687698
1789692649268766700,3.3537666015625,0.9173188430577516,2.0517834764808414,-9.664735683968663
1789692649278731500,3.3637314453125,0.23428225513789802,2.6944442514032123,-9.717526778435706
1789692649288696600,3.373696533203125,-0.5581523902097717,3.0473522649109364,-9.664663787776231
1789692649298661600,3.38366162109375,-1.5540280160993336,3.067508917754888,-9.578228197860717
1789692649308626700,3.393626708984375,-2.4897581296384335,2.5504005221277475,-9.332392904105783
1789692649318591500,3.403591552734375,-3.137852035525441,1.585585183879733,-8.830083433681725
1789692649328556500,3.413556640625,-3.331681832233071,0.43862581054270267,-8.021988935452699
1789692649338521600,3.423521484375,-2.988528904542327,-0.8072375891387462,-7.03129564410448
1789692649348486700,3.433486572265625,-2.3343951339691875,-1.8204776433378458,-5.826042487230897
1789692649358451700,3.44345166015625,-1.342220664152503,-2.3655706089556214,-4.47311425884217
1789692649368416500,3.45341650390625,-0.4986673145294189,-2.6123335389494895,-3.35570568189919
1789692649378381800,3.4633818359375,0.2334533482993953,-2.6407465634852647,-2.6009295168817044
1789692649388346400,3.473346435546875,0.8583668878734111,-2.4815561184823514,-2.193920495352149
1789692649398311700,3.483311767578125,1.2721452574074268,-2.2339070533037186,-2.0380308454602956
1789692649408276500,3.4932763671875,1.586325773113966,-1.9506126742482184,-2.10695299051702
1789692649418242600,3.50324267578125,1.79516141577363,-1.7465747872591018,-2.295814935684204
1789692649428207400,3.513207275390625,1.9014356786251068,-1.5404922426998615,-2.3414076430797577
1789692649438172700,3.523172607421875,1.933914052903652,-1.3654729449242353,-2.2737708616584538
1789692649448137500,3.533137451171875,1.8638018212795255,-1.334836983641982,-2.1263141090691087
1789692649458102500,3.5431025390625,1.8320714888893066,-1.4225316337078808,-1.8840619344979523
1789692649468067300,3.5530673828125,1.80806765909791,-1.5960095472604034,-1.5043471626073122
1789692649478032600,3.56303271484375,1.8163364518798886,-1.8483166673779488,-1.0479156462609767
1789692649487997400,3.57299755859375,1.9118062659919262,-2.138165874904394,-0.5371896451473236
1789692649497962500,3.58296240234375,2.028145995783806,-2.451977557298541,-0.04009410997927189
1789692649507927300,3.59292724609375,2.1367422718420626,-2.7791414732187985,0.40473873851001263
1789692649517892600,3.602892578125,2.258192914906889,-3.078543521988392,0.8131324923962354
1789692649527857700,3.612857666015625,2.342395485073328,-3.3404537522315976,1.1933265722364186
1789692649537822500,3.622822509765625,2.3614357011079785,-3.584748246285319,1.5888456469804049
1789692649547787500,3.63278759765625,2.345107520511001,-3.810985105600953,1.9725205546736717
1789692649557753600,3.642753662109375,2.2994797418020663,-4.024311045417189,2.346561957103014
1789692649567718400,3.652718505859375,2.2006091793358324,-4.202041355717182,2.737795317351818
1789692649577683500,3.662683349609375,2.0810066483557224,-4.332037562678754,3.1305963653087616
1789692649587648500,3.6726484375,2.029918120022863,-4.499357538123428,3.5071202322036026
1789692649597613600,3.682613525390625,1.96914786337018,-4.634127535358071,3.8641818582594394
1789692649607578600,3.69257861328125,1.8803743320263921,-4.814453122848272,4.184101209878921
1789692649617543400,3.70254345703125,1.8138171625353394,-5.039882172912359,4.541760801827907
1789692649627508500,3.712508544921875,1.8094683196760712,-5.25549242427349,4.828476387503743
1789692649637473500,3.7224736328125,1.8133879773378372,-5.466697718673944,5.0708431283652775
1789692649647438600,3.7324384765625,1.7503578129291533,-5.595859520637989,5.493154348444938
1789692649657403400,3.7424033203125,1.7660453575350343,-5.572983671963215,5.924643146714568
1789692649667368400,3.752368408203125,1.7999987728022038,-5.55734537332654,6.322390418902039
1789692649677333500,3.76233349609375,1.853129620617628,-5.568295806407928,6.557777968400717
1789692649687298600,3.772298583984375,1.8845863967634737,-5.679870513755083,6.762222098103165
1789692649697263400,3.782263427734375,1.921752490466833,-5.798152025264502,6.9754808179020875
1789692649707228400,3.792228515625,1.9740731909431517,-5.8504784248292445,7.113062657687068
1789692649717194500,3.802194580078125,2.1085854140244424,-5.956681376010179,7.1302809189915655
1789692649727159600,3.81215966796875,2.211462581783533,-6.121681968596577,7.067721879225969
1789692649737124400,3.822124267578125,2.293551520796865,-6.3320852989643805,6.876672068625688
1789692649747089700,3.832089599609375,2.3768600647330285,-6.6266884230196474,6.696669137218594
1789692649757054500,3.842054443359375,2.5130665245115758,-6.872348944729566,6.583687485682964
1789692649767019500,3.85201953125,2.6313036123573776,-6.933548971101641,6.60883420189917
1789692649776984600,3.861984619140625,2.7094752317965027,-6.857032133132219,6.688986766022444
1789692649786949400,3.871949462890625,2.7600796298742294,-6.7678083738029,6.635144116675853
1789692649796914700,3.881914794921875,2.7788825300216673,-6.652165394103527,6.491182804986834
1789692649806879500,3.89187939453125,2.694582783091068,-6.503696834123134,6.215512344938516
1789692649816844500,3.901844482421875,2.5481635568559167,-6.252129718717932,5.772796634733677
1789692649826809300,3.911809326171875,2.2314134829223153,-5.835381393462419,5.244017675057053
1789692649836774700,3.921774658203125,1.7995429918587207,-5.375875291976333,4.659706213250756
1789692649846739500,3.931739501953125,1.1840391039311886,-4.912268769434094,3.994721378317475
1789692649856705500,3.94170556640625,0.4610416404902935,-4.55706709203124,3.1546734064668414
1789692649866670600,3.951670654296875,-0.24895605612397192,-4.395393890301883,2.1824211962163447
1789692649876635600,3.9616357421875,-0.9240705823402852,-4.33156965290606,1.2428963665693997
1789692649886600400,3.971600341796875,-1.4915934794962404,-4.384904352730512,0.3700613928824663
1789692649896565500,3.9815654296875,-2.003695445138216,-4.548834685736894,-0.4518851050883531
1789692649906530600,3.991530517578125,-2.4465350739836693,-4.755687630146742,-1.1517992145836353
1789692649916495600,4.00149560546875,-2.725070275813341,-4.874593411034345,-1.5981044737130403
1789692649926460400,4.01146044921875,-2.6973884881615637,-4.71852139031291,-1.7909253856390714
1789692649936425500,4.021425537109375,-2.46523977445364,-4.275520433425903,-1.7384212914198636
1789692649946390500,4.031390625,-2.029325560957193,-3.684013507157564,-1.6245763010531662
1789692649956355600,4.04135546875,-1.604878497892618,-3.07103066214025,-1.5362643958717583
1789692649966320600,4.051320556640625,-1.2626888622760772,-2.4334867918401955,-1.4859943443149328
1789692649976285400,4.061285400390625,-0.9527332707881927,-1.7493413293629885,-1.4750100089639424
1789692649986250500,4.07125048828125,-0.7350667444843798,-1.0393857183247803,-1.4580302325904368
1789692649996215600,4.081215576171875,-0.524421422054246,-0.3973848686158657,-1.4443050740987062
1789692650006180600,4.0911806640625,-0.2908207559723407,0.1306108317285776,-1.3842740915060043
1789692650016146400,4.101146484375,-0.1047602415593341,0.5831675524681806,-1.2514052517175673
1789692650026111500,4.111111572265625,-0.003125913468189537,0.8765683149963617,-1.0330974318355322
1789692650036076500,4.12107666015625,0.05310498272180557,1.0313906279176472,-0.7201479192286729
1789692650046041600,4.13104150390625,0.11237776735834777,1.0886182435274123,-0.28379239170551296
1789692650056006400,4.14100634765625,0.16183310499880463,1.0549854385167359,0.190695005813241
1789692650065971700,4.1509716796875,0.20744689171500502,0.9076859223157167,0.5425830286234616
1789692650075936500,4.1609365234375,0.29643443113565443,0.7823153293281793,0.8433943596690893
1789692650085901600,4.170901611328125,0.41155945137552913,0.7918249159514904,1.1618909850090742
1789692650095866400,4.180866455078125,0.5367839138906448,0.807124191892147,1.3953151254802942
1789692650105831700,4.190831787109375,0.7374818428020924,0.8340823414444923,1.480484640982747
1789692650115796500,4.20079638671875,0.9072071988880633,0.9408709835588932,1.4180939435213804
1789692650125761500,4.210761474609375,1.0108476791698484,1.000599768334627,1.1037602830797433
1789692650135726300,4.220726318359375,1.095581068277359,1.0478969415605068,0.5780383728861809
1789692650145691600,4.230691650390625,1.1664333046138287,1.1706260801285504,0.003017301994562149
1789692650155656700,4.24065673828125,1.125839574549347,1.285022859159112,-0.5263473486155271
1789692650165622500,4.25062255859375,0.9867840820152312,1.3253653909415006,-1.1012801567018031
1789692650175587300,4.26058740234375,0.8311667462587357,1.3113169918447731,-1.6879297060668468
1789692650185552600,4.270552734375,0.7371873899001627,1.3316378953397274,-2.1910972546249625
1789692650195517400,4.280517333984375,0.7797732436299324,1.2370885570734738,-2.7453637067794796
1789692650205482500,4.290482421875,0.8344505902349948,1.0814847383856774,-3.3238428091704844
1789692650215447600,4.300447509765625,0.9352022172074764,0.9128034114599227,-3.9582413671821355
1789692650225412600,4.31041259765625,1.034658689802885,0.7457996623575687,-4.617497595335543
1789692650235377700,4.320377685546875,1.05336697046943,0.7088356670975685,-5.350315903306007
1789692650245342500,4.330342529296875,0.9712496821444481,0.8080594269156456,-6.181538763666152
1789692650255307500,4.3403076171875,0.8201437593977898,1.0934592538177967,-7.198550737619399
1789692650265272600,4.3502724609375,0.6404557391587644,1.3554349505126475,-8.184014896142482
1789692650275237600,4.360237548828125,0.5607048877041787,1.35654963375628,-8.875403753876686
1789692650285202400,4.370202392578125,0.47689738126993175,1.1313783578455447,-9.243973446896671
1789692650295167500,4.38016748046875,0.7128291206479073,0.19388240367770193,-9.375743970054387
1789692650305132500,4.390132568359375,1.3333178112506865,-0.2777957816392183,-9.328291898527741
1789692650315097600,4.40009765625,1.910894411844015,-0.8102548911333084,-9.43228477244377
1789692650325063400,4.4100634765625,2.367761396998167,-1.2483984711170195,-9.589420623004436
1789692650335028500,4.420028564453125,2.6814439000546932,-1.1673059957951306,-9.65192705579996
1789692650344993500,4.42999365234375,2.7893057243585586,-0.6434200688570737,-9.793789349383115
1789692650354958600,4.43995849609375,2.7788801919341086,-0.6313835941046476,-9.824586638706922
1789692650364923400,4.44992333984375,2.360823122167587,0.8166442999094724,-10.487067381864785
1789692650374888400,4.459888427734375,1.8885376186072824,1.5972645157575607,-10.704338844436407
1789692650384853500,4.469853515625,1.2908558030962942,2.3290648788571358,-10.673250463211536
1789692650394818600,4.479818603515625,0.7170470306038856,3.009415040704608,-10.238896923160553
1789692650404783600,4.48978369140625,0.40348610810041424,3.4649919860482212,-9.55187035228908
1789692650414748700,4.499748779296875,0.3941758434414863,3.7254549400925634,-8.684262757861614
1789692650424713700,4.509713623046875,0.4037222549438476,3.7008565054088827,-7.714266217583417
1789692650434678500,4.519678466796875,0.38817170765586195,3.251453280264139,-6.864165638273954
1789692650444643800,4.529643798828125,0.36310620344970373,2.5342595346659422,-6.156401399800181
1789692650454608600,4.539608642578125,0.39363340712785716,1.6896832717359065,-5.4932420267283915
1789692650464573700,4.54957373046875,0.42925888379309324,0.826904412639141,-4.8318198527127505
1789692650474538500,4.55953857421875,0.41532501445412634,-0.09787292973101139,-4.2259070922121404
1789692650484503800,4.56950390625,0.5288883018026128,-0.9205103325754403,-3.6742344559431075
1789692650494469600,4.5794697265625,0.7208253800988197,-1.3955547794550656,-3.020653058555722
1789692650504434700,4.5894345703125,0.9075333621025085,-1.5326701707720756,-2.3878297870367766
1789692650514399500,4.5993994140625,1.024818848311901,-1.4609183552473783,-1.9254495914191005
1789692650524364800,4.60936474609375,1.035557684469223,-1.2947136475682257,-1.6937614809602497
1789692650534329600,4.61932958984375,1.0322691643178463,-1.0796925942718982,-1.6704215219050644
1789692650544294700,4.629294677734375,1.0114683683514594,-0.8236410269290209,-1.8128122232764958
1789692650554259500,4.639259521484375,0.9119956022083758,-0.6289063903361558,-1.9591472783595323
1789692650564224800,4.649224853515625,0.8555249424457549,-0.48337213024199005,-2.03832076831758
1789692650574189600,4.659189453125,0.8546119192540645,-0.3710363753944635,-2.00555305570364
1789692650584154600,4.669154541015625,0.9097335024952888,-0.48437458528280253,-1.875961045628786
1789692650594119400,4.679119384765625,1.077047121264413,-0.39725042858123777,-1.8715046507418154
1789692650604084700,4.689084716796875,1.1439455784738064,-0.5079132817804813,-1.6723860999763012
1789692650614049800,4.6990498046875,1.2526631428241728,-0.6889344503194094,-1.449176479527354
1789692650624014600,4.7090146484375,1.3775871610879897,-0.8852525567114352,-1.1540659904718398
1789692650633979600,4.718979736328125,1.4795277786493302,-1.1541355485767126,-0.8510627023398876
1789692650643944700,4.72894482421875,1.575710709466785,-1.4171762441545723,-0.46953883520066736
1789692650653909800,4.73890966796875,1.6813947513401508,-1.7159598687648772,-0.04834989714920521
1789692650663875600,4.74887548828125,1.749993071269989,-2.0279507654726503,0.45232934172451494
1789692650673840600,4.758840576171875,1.7963013795889913,-2.2832529757529496,0.9842249721169471
1789692650683805700,4.7688056640625,1.8087784377157687,-2.515331546834111,1.4272119004786015
1789692650693770800,4.778770751953125,1.8028114921353757,-2.7536002047270536,1.844964434340596
1789692650703735600,4.788735595703125,1.8047171796262262,-2.9543145002514124,2.2667034074902532
1789692650713700600,4.79870068359375,1.7812533019304275,-3.1742753480374812,2.6502824535936114
1789692650723665700,4.808665771484375,1.7780362395800648,-3.4034038371413944,3.0276690747976303
1789692650733630700,4.818630615234375,1.7744108886897563,-3.6416546671167014,3.434515014719963
1789692650743595500,4.828595458984375,1.786198357117176,-3.888875570011139,3.8352351652383803
1789692650753560600,4.838560546875,1.837562633651495,-4.102872540956735,4.261681877687574
1789692650763525600,4.848525634765625,1.8574318478561938,-4.283253950287402,4.677930436727404
1789692650773490700,4.85849072265625,1.8686591981828211,-4.525763022229075,5.090128843593597
1789692650783455500,4.86845556640625,1.804603782379627,-4.70618359452635,5.530431062915921
1789692650793420500,4.878420654296875,1.8141794199764727,-4.908364747732877,5.603430832675099
1789692650803385900,4.8883857421875,1.600547044559568,-4.7397219992518425,6.47136575936079
1789692650813350700,4.8983505859375,1.4857963375248013,-4.82676490741074,6.741918730264902
1789692650823315700,4.908315673828125,1.402139418542385,-5.070329918146133,6.817972626897692
1789692650833281800,4.91828173828125,1.3868179307699202,-5.492179365932941,6.691793055614829
1789692650843246600,4.92824658203125,1.4210114384032786,-5.928322712010145,6.569580634397268
1789692650853211600,4.938211669921875,1.5030175214387476,-6.148463592538238,6.491677895027399
1789692650863176700,4.9481767578125,1.6592356726326047,-6.390873588019609,6.260573721936344
1789692650873141500,4.9581416015625,1.8696213212132453,-6.654868223321437,5.77749034550786
1789692650883106800,4.96810693359375,2.073105081450939,-6.870888809049129,5.239264343050122
1789692650893071600,4.978071533203125,2.3230875580132007,-6.956569196683168,4.837149523302912
1789692650903036700,4.98803662109375,2.5275907244265077,-6.930039501675963,4.50102371776998
1789692650913001500,4.99800146484375,2.60658768877387,-6.935137701597809,4.192721154186129
1789692650922966800,5.007966796875,2.673584418725967,-6.90350571501553,3.9327141272157426
1789692650932931600,5.017931640625,2.7848385158166287,-6.696866705617309,3.8089533075124025
1789692650942896600,5.027896728515625,2.964550063061714,-6.352649363565445,3.783943953940272
1789692650952861400,5.037861328125,3.1763807958841324,-5.960467908811569,3.680171444776654
1789692650962826800,5.04782666015625,3.3252035761296748,-5.607629453408718,3.317614143913984
1789692650972791600,5.05779150390625,3.372783657950163,-5.388076017379761,2.7058856828719375
1789692650982756600,5.067756591796875,3.2136335449576374,-5.129267844805121,1.9972282949507236
1789692650992721700,5.0777216796875,2.8790649057388302,-4.881030750605464,1.2469161236047743
1789692651002686700,5.087686767578125,2.2388696441471576,-4.697580893614888,0.4337386230230331
1789692651012652500,5.097652587890625,1.27047937002182,-4.52891505651921,-0.3657786009967327
1789692651022617600,5.10761767578125,0.13570603597573935,-4.334239748898148,-1.0503618703693152
1789692651032582400,5.11758251953125,-1.0999790109753609,-4.036926781362295,-1.4428981299102306
1789692651042547700,5.127547607421875,-2.2438778276979923,-3.6164538826256987,-1.6012527086108923
1789692651052512800,5.1375126953125,-3.0460686548411844,-3.0940310139775273,-1.5020815557628868
1789692651062477600,5.1474775390625,-3.427670263391733,-2.5131074410438536,-1.187594750586152
1789692651072442600,5.157442626953125,-3.3962498737335203,-1.9967583393514154,-0.8021744605302811
1789692651082407700,5.16740771484375,-3.402009752434492,-1.8929513433963059,-0.8727186538308859
1789692651092372700,5.177372802734375,-2.3406115242660044,-1.1518512370318175,-0.07152794364094733
1789692651102337500,5.187337646484375,-1.6271955436408518,-0.7661229039400815,0.33837855289578433
1789692651112302600,5.197302490234375,-1.0362065037667751,-0.38821839634180066,0.7811001083195209
1789692651122267600,5.207267578125,-0.5488999566853046,-0.12921090180277825,1.1412503480404614
1789692651132232700,5.217232666015625,-0.09750413295123725,0.1278700085878372,1.4952765519231557
1789692651142197500,5.227197509765625,0.2274152554452419,0.39646424663960933,1.8010002049297094
1789692651152162600,5.23716259765625,0.461409889280796,0.5730196679413319,1.9748428601413963
1789692651162127600,5.247127685546875,0.5425169776499271,0.7232371174156665,2.1153262665867802
1789692651172092700,5.2570927734375,0.5476093323528767,0.8744207815736532,2.1868559637933966
1789692651182057700,5.2670576171875,0.4815875849127769,0.9867004223197698,2.3071342020779846
1789692651192022500,5.2770224609375,0.2824304557025432,1.0943009653389453,2.4720190593302247
1789692651201988600,5.286988525390625,0.08641220903992652,1.1483423521280287,2.5021716210097074
1789692651211953700,5.29695361328125,0.009082305688527413,1.0826689797341822,2.4912644425481556
1789692651221918500,5.30691845703125,-0.11521277158856391,1.1225205131292342,2.612961315459013
1789692651231883500,5.316883544921875,-0.07981997116804122,1.1417121203333138,2.487237086728215
1789692651241848800,5.326848876953125,-0.058470893669128415,1.0602116487324238,2.1719716983944175
1789692651251813600,5.336813720703125,-0.015051436376140918,1.0582032315194607,1.8590075727403164
1789692651261778700,5.34677880859375,0.03524666994810104,1.0359422998726366,1.3848591979175806
1789692651271743500,5.356743408203125,-0.022910335466265676,0.9601929391443729,0.8141922305822372
1789692651281708800,5.366708740234375,-0.059820550145837474,0.819722392180562,0.26777240027487276
1789692651291673600,5.376673583984375,-0.14024900403446516,0.6621762072533368,-0.2689022810876369
1789692651301638700,5.386638671875,-0.151980376626784,0.7969353908330201,-0.43978316388428207
1789692651311603500,5.396603515625,-0.5542021547466516,0.41362464027702806,-1.431419873562455
1789692651321568800,5.40656884765625,-0.7422264800459146,0.29220775335133076,-2.140139220803976
1789692651331533600,5.416533447265625,-0.9658961192220449,0.22347557790875433,-2.853441804182529
1789692651341498600,5.42649853515625,-1.135076043319702,0.21920155385136603,-3.571640927430987
1789692651351463700,5.436463623046875,-1.266558981707692,0.2631009013324976,-4.262961396104097
1789692651361428700,5.4464287109375,-1.3403501941055058,0.30050796418488024,-4.987781983318925
1789692651371393800,5.456393798828125,-1.4046546162337064,0.29618542481064797,-5.683516761302948
1789692651381358000,5.466358154296875,-1.4536445648521183,0.2880190694898367,-6.297091142472625
1789692651391324200,5.47632421875,-1.3849825320363045,0.27183365836441514,-6.867523716530203
1789692651401289200,5.486289306640625,-1.455610896489024,0.39188276406824585,-6.924888694784045
1789692651411254300,5.496254150390625,-0.32508126442730423,-0.047021278893947596,-7.759526916545629
1789692651421219000,5.506218994140625,-0.823058843126893,0.4298270025372505,-8.062965088963509
1789692651431184100,5.51618408203125,-0.47973815765380856,-0.11516776340305805,-8.402658231589198
1789692651441149200,5.526149169921875,-0.05083469970226288,-0.44433834297060965,-9.228671248346567
1789692651451114200,5.5361142578125,-0.11692192272716201,-0.7611597285747528,-9.691458271199464
1789692651461079000,5.5460791015625,-0.0787999713373836,-1.1097340967923401,-10.193433979624508
1789692651471044000,5.556044189453125,-0.10641746158129535,-1.0653706389307975,-10.350779089021682
1789692651481009200,5.566009033203125,-0.2571499022399075,-0.6893693346053361,-10.343866533154248
1789692651490974200,5.57597412109375,-0.47923020813167094,-0.22643267414867876,-10.337335085558891
1789692651500939000,5.58593896484375,-0.6512146682560443,0.41107963196933267,-10.255392130887508
1789692651510904000,5.595904052734375,-0.7252572250664234,1.2303963659584523,-10.0356715215981
1789692651520869400,5.605869384765625,-0.7928355542987584,2.102180369287729,-9.796616097241639
1789692651530834200,5.615834228515625,-0.8086959712535142,2.8208921182334423,-9.592239772078395
1789692651540799200,5.62579931640625,-0.833310772550106,3.2407062608003616,-9.40593511017859
1789692651550764000,5.635763916015625,-0.8578063313812017,3.379354853034019,-9.121379917407035
1789692651560729000,5.64572900390625,-0.8194798155963421,3.1365029590040443,-8.76427912838459
1789692651570694100,5.655694091796875,-0.8371148410081863,2.475601593992114,-8.207654714927077
1789692651580659200,5.6656591796875,-0.841067378026247,2.4144676185935734,-8.034525760942698
1789692651590625000,5.675625,-0.6669844843178987,0.7183990297347307,-6.729571289867162
1789692651600590300,5.68559033203125,-0.2693003404945135,-0.06051438219547271,-5.888520862975716
1789692651610555100,5.69555517578125,0.16740414659678934,-0.69850073556602,-4.923370593684911
1789692651620520200,5.705520263671875,0.5889467203915119,-1.068670849519968,-3.9281194929018612
1789692651630485000,5.715485107421875,0.8703063319921494,-1.224454700949788,-3.0988217553853987
1789692651640450300,5.7254501953125,0.9569248772591352,-1.169782030519843,-2.438827568346262
1789692651650415000,5.7354150390625,0.8741653455078602,-1.0132254411518573,-2.037981745621562
1789692651660380200,5.745380126953125,0.7063228074938058,-0.798233613950014,-1.9041455221056938
1789692651670345000,5.755344970703125,0.6010597675114869,-0.6215121884316206,-2.04816820859313
1789692651680310300,5.765310302734375,0.6425087992310523,-0.7265630469679832,-1.8872429026216266
1789692651690275000,5.775275146484375,0.8078536752104759,-0.1875976243197918,-2.338316691327095
1789692651700240100,5.785240234375,0.8575473881840705,-0.2991951280206442,-2.181864731377363
1789692651710205200,5.795205078125,0.9982698640823364,-0.16573299851417542,-2.1509680733323098
1789692651720170000,5.805169921875,1.1715770972430706,-0.16935586518645285,-2.1040672059476373
1789692651730135300,5.81513525390625,1.3368144211947917,-0.25604396855831146,-1.9028776941269634
1789692651740100000,5.82510009765625,1.4990683454215525,-0.4090338053554296,-1.5998311513751744
1789692651750065200,5.835065185546875,1.645795030170679,-0.684580346763134,-1.2336498147964476
1789692651760030000,5.845030029296875,1.7107506096839904,-1.01413437269032,-0.7679039421379565
1789692651769995300,5.854995361328125,1.7001579039990902,-1.3689204550296068,-0.32270635198950764
1789692651779960000,5.8649599609375,1.7280033577799796,-1.713166438654065,0.17582710702717302
1789692651789925000,5.874925048828125,1.8017536536455154,-1.997093270394206,0.6705681880235672
1789692651799890000,5.884889892578125,1.9353122292637823,-2.2446067264944314,1.076281909045577
1789692651809856300,5.894856201171875,1.992812816596031,-2.4416648375988004,1.4761311219483613
1789692651819821000,5.904821044921875,1.9784370852410793,-2.5981582986027,1.8467782057642936
1789692651829786000,5.9147861328125,1.9676748682081697,-2.7699107035368677,2.102639218971133
1789692651839751200,5.924751220703125,1.890647742629051,-2.9105647903740404,2.347211945444345
1789692651849716200,5.93471630859375,1.7189701564967632,-3.0371763233333824,2.5943711812794206
1789692651859681000,5.944680908203125,1.5501017825663088,-3.2032997824698684,2.844978511741757
1789692651869646000,5.95464599609375,1.3086053947985172,-3.4191254301473495,3.110418085154891
1789692651879611100,5.964611083984375,0.9426490991473198,-3.632277474701404,3.412584337940812
1789692651889576200,5.974576171875,0.5267465040009468,-3.7881864138156174,3.784111711722612
1789692651899541200,5.984541259765625,0.09863697290606796,-3.8645822557538745,4.148993071618676
1789692651909506000,5.994506103515625,-0.35143662578091023,-3.8702880661800503,4.4329397771030665
1789692651919471000,6.00447119140625,-0.7260474255960434,-3.8960523297727105,4.689866958236694
1789692651929436200,6.014436279296875,-0.9205519797600805,-3.8912238867029547,4.957127901858091
1789692651939401200,6.024401123046875,-0.8826245462954044,-3.8355142744407056,5.155169763302803
1789692651949366000,6.034365966796875,-0.5839992540519684,-3.866362417168915,5.122082317215204
1789692651959331000,6.0443310546875,0.004691372686624526,-4.043832615227997,4.840574237054586
1789692651969296100,6.054296142578125,0.6438660590589046,-4.243590048418939,4.45441861846149
1789692651979261200,6.06426123046875,1.342872259929031,-4.4703544387400145,4.1688492802113295
1789692651989226000,6.07422607421875,1.8726807087838648,-4.734889756789803,3.9835774684906005
1789692651999191000,6.08419091796875,2.274415443172306,-4.951979433053731,3.942309638556838
1789692652009156400,6.09415625,2.6391911507368087,-5.091248787534236,3.9894852312296627
1789692652019121200,6.10412109375,2.9415058720827103,-5.2744636667251585,4.011541580215097
1789692652029087000,6.1140869140625,3.087717008525133,-5.552275230455399,3.98288773266077
1789692652039052300,6.12405224609375,3.1808149789392948,-5.93069937801361,3.8616625689148902
1789692652049017000,6.13401708984375,3.191097888022661,-6.210349847608804,3.8176346266180277
1789692652058982100,6.143982177734375,3.138283997201919,-6.221987678432464,3.876558524751663
1789692652068947200,6.153947265625,3.0592133830964565,-6.106147130334377,3.9293022729456424
1789692652078912300,6.163912353515625,2.8408547098100185,-5.889592291599512,4.031674267661571
1789692652088877300,6.173877197265625,2.5656571279704568,-5.553308665156364,4.1357746936053035
1789692652098842000,6.183842041015625,2.326287230837345,-5.14883471506238,4.358330818581581
1789692652108807200,6.19380712890625,2.168561305429041,-4.719532028660178,4.4894098523437975
1789692652118772000,6.20377197265625,2.0277521741606295,-4.410917914909124,4.506607655382156
1789692652128737300,6.2137373046875,1.8675474375486374,-4.15911348361671,4.502738704994321
1789692652138702000,6.2237021484375,1.71545133472085,-3.9085353792488573,4.451365660631656
1789692652148667100,6.233667236328125,1.6031319464862346,-3.720144266463816,4.289935912269353
1789692652158632000,6.2436318359375,1.3981693458676336,-3.57596229776144,4.029527318760753
1789692652168597200,6.25359716796875,1.1358815144836902,-3.5792572476536035,3.6336914331525563
1789692652178562000,6.26356201171875,0.8133880015272646,-3.7109126199990508,3.0862890215486285
1789692652188527000,6.273527099609375,0.4270259005766362,-3.8225469485789536,2.519984925597906
1789692652198492200,6.2834921875,-0.06611183687634765,-3.8427822196170687,2.018835146602988
1789692652208457200,6.293457275390625,-0.5767781436920165,-3.756032449185848,1.5498060144901276
1789692652218422300,6.30342236328125,-1.0691384670317172,-3.5331010611563918,1.2190583948642015
1789692652228387000,6.313386962890625,-1.3992355137944221,-3.1559047018274664,1.0355974319577217
1789692652238352100,6.32335205078125,-1.4045301130712031,-2.6823119150608776,0.9122785108029842
1789692652248317200,6.333317138671875,-1.1946060175877065,-2.2004203787654637,0.8254840244472026
1789692652258282200,6.3432822265625,-0.9266402136325835,-1.7687813583701848,0.8136632382720709
1789692652268248000,6.353248046875,-0.5536310768604278,-1.4792641592770814,0.7826034986197948
1789692652278213000,6.363213134765625,-0.16085107169151305,-1.1670622501671313,0.8047153771847486
1789692652288178200,6.37317822265625,0.1978396534034982,-0.8468857089161872,0.9447136304616928
1789692652298143200,6.383143310546875,0.49162382575869557,-0.5611749163687229,1.1161667601883412
1789692652308108000,6.39310791015625,0.6921896527230739,-0.32043256183862684,1.278997022998333
1789692652318073000,6.403072998046875,0.769324330329895,-0.12011223406791686,1.4870038136184214
1789692652328038100,6.4130380859375,0.7198445523679255,0.013628712379932403,1.67716222833693
1789692652338003200,6.423003173828125,0.5017535901069641,0.07694763060212134,1.8574416385978458
1789692652347968000,6.432968017578125,0.22567630282342432,0.13809505000412464,1.9648709167033434
1789692652357933000,6.44293310546875,0.1575853478938341,0.14198855031132698,1.9857921241790055
1789692652367898000,6.452898193359375,0.2228039805238135,0.11609189251065254,1.958772599828243
1789692652377863200,6.46286328125,0.2962982192690484,0.12281740137338637,1.8883716143906115
1789692652387828200,6.472828125,0.4617331298857927,0.12193126618862152,1.7266724014371633
1789692652397793300,6.482793212890625,0.6183844117999077,0.11190262412726878,1.3736650192081927
1789692652407758300,6.49275830078125,0.7682225065678358,0.10612637881338596,0.8488315822869539
1789692652417723400,6.502723388671875,0.8452239131838083,0.11408873599469661,0.3707400227963924
1789692652427688400,6.5126884765625,0.8151356489121914,0.12644845135211943,-0.027587679627537727
1789692652437653200,6.5226533203125,0.8623410522013902,0.10034195019304752,-0.5070704012155532
1789692652447618300,6.532618408203125,0.8907879790067672,0.147272043672204,-0.9819342308312654
1789692652457583000,6.5425830078125,0.8705547537952661,0.1847954263806343,-1.412559105747938
1789692652467548400,6.55254833984375,0.8539087394207715,0.2761842547893524,-1.9080273319751022
1789692652477513200,6.56251318359375,0.8701537717789412,0.04144961624145507,-2.5325281808286904
1789692652487478300,6.572478271484375,0.8629951321959495,0.056927171358466144,-2.94751124997735
1789692652497443000,6.582443115234375,1.061018873462081,0.26106325802505015,-3.3972657727777955
1789692652507409400,6.592409423828125,1.1491712041676043,0.047616906699538226,-4.117731964175403
1789692652517374200,6.602374267578125,1.2867360928177833,-0.0016284779846668243,-4.9785044518858195
1789692652527339300,6.61233935546875,1.4881155742526053,0.04590191947519779,-5.9134951452344655
1789692652537304300,6.62230419921875,1.6354659438580275,0.21578385436236858,-6.738683986127376
1789692652547269400,6.632269287109375,1.572567296874523,0.510839982882142,-7.35317665118575
1789692652557234200,6.642234130859375,1.1535223851144314,0.5516185679942369,-7.856835198131203
1789692652567199200,6.65219921875,0.485227987241745,0.4569441420435905,-8.297266012269258
1789692652577164300,6.662164306640625,-0.042055180919170376,0.26873686139285563,-8.719263928616046
1789692652587129300,6.67212939453125,-0.17550386642217636,-0.011896189498901366,-9.0918650691092
1789692652597094400,6.682094482421875,-0.0766401720881462,-0.3123696668922901,-9.437202939623594
1789692652607059200,6.69205908203125,0.10163432809114456,-0.7273679336100817,-9.88542601507306
1789692652617024500,6.7020244140625,0.37482583080530163,-1.0889765554457902,-10.43552891780734
1789692652626989300,6.7119892578125,0.7326572721898555,-1.1588397807449102,-10.903806939291954
1789692652636954400,6.721954345703125,1.0071978514254092,-0.8759306016147136,-11.15342701228261
1789692652646919200,6.731919189453125,1.0851508596777915,-0.4441396055281162,-11.36170969723463
1789692652656884200,6.74188427734375,1.0125614242851733,0.06956804174482822,-11.505478701221943
1789692652666849300,6.751849365234375,0.8309270922839641,0.6826467483520507,-11.503445734089611
1789692652676814300,6.761814453125,0.6043488721847534,1.4527180976569651,-11.388688889575004
1789692652686779100,6.771779052734375,0.31798809129595756,2.2033383120387793,-11.182558414220809
1789692652696744200,6.781744140625,0.1513292101085186,2.845338577225804,-10.88111463049054
1789692652706709500,6.79170947265625,0.14055003280765377,3.3562118778556584,-10.36184291934967
1789692652716674300,6.80167431640625,0.12049509590566157,3.669844696551561,-9.6935192953825
1789692652726639400,6.811639404296875,0.14780570302433332,3.657265200963616,-8.997861089766024
1789692652736604200,6.821604248046875,0.2570925825621001,3.165998518079519,-8.31259509882629
1789692652746569500,6.831569580078125,0.4144721970170736,2.3020336640685795,-7.514558468753099
1789692652756534300,6.8415341796875,0.5170592957884073,1.287546240156889,-6.686200350174308
1789692652766499300,6.851499267578125,0.6815314805865288,0.28477438848018644,-5.899833115106821
1789692652776464100,6.861464111328125,0.8582201728790998,-0.5271306079477072,-4.955756613504886
1789692652786430500,6.871430419921875,0.9586135609984398,-1.1280723020374774,-3.927491131870448
1789692652796395300,6.881395263671875,0.9442588724315166,-1.4912252307057379,-2.9074671166196464
1789692652806360300,6.8913603515625,0.8753571856409311,-1.566858856099844,-2.0206246603682634
1789692652816325000,6.9013251953125,0.7790659721434116,-1.463013281700015,-1.3148095101356505
1789692652826290400,6.91129052734375,0.6629600511074065,-1.2544020954459905,-0.834866185298562
1789692652836255200,6.921255126953125,0.5009580558151007,-1.0208990445196628,-0.5847200426071882
1789692652846220300,6.93122021484375,0.5064999078512191,-0.7603396443635225,-0.5859124672621489
1789692652856185000,6.94118505859375,0.668431175994873,-0.5755564929425716,-0.8068570653885603
1789692652866150400,6.951150390625,0.8242997830986977,-0.375177712982893,-1.0802332770198584
1789692652876115200,6.961115234375,0.9215677326738834,-0.1998749220907688,-1.1494313164085148
1789692652886080300,6.971080322265625,1.007927334743738,-0.12017068625688553,-1.1661118175745009
1789692652896045300,6.98104541015625,1.029492685341835,-0.07361351774334907,-1.1662474266529081
1789692652906010400,6.99101025390625,0.8842658837616443,0.02586217100918293,-1.040906644281745
1789692652915975400,7.000975341796875,0.8994108459234237,-0.11265081214606762,-0.8029384306401014
1789692652925940200,7.010940185546875,0.9276736483335495,-0.2883253589600324,-0.36809856837689875
1789692652935905300,7.0209052734375,1.0527426280260086,-0.49032326455414293,0.0908703574925661
1789692652945870300,7.030870361328125,1.196008870122954,-0.7272808398485183,0.4715285477131605
1789692652955835400,7.04083544921875,1.3125649460792541,-0.9158470169395208,0.840821294310689
1789692652965800200,7.05080029296875,1.4483669167101383,-1.1268015514492988,1.1895318561285733
1789692652975765200,7.06076513671875,1.605570571810007,-1.3769465250968933,1.5009464142531155
1789692652985730300,7.070730224609375,1.706338638460636,-1.6138263589799404,1.8596359337717294
1789692652995695400,7.0806953125,1.8664380150020121,-1.8254846578449009,2.163041372963786
1789692653005660400,7.090660400390625,2.000540195977688,-2.0749673681914804,2.407351649108529
1789692653015625200,7.100625244140625,2.028252524898201,-2.379514378634095,2.6624942849129436
1789692653025590500,7.110590576171875,2.0664333486020565,-2.677173383128643,2.9067911170542238
1789692653035555300,7.120555419921875,2.070634745814651,-2.9679625018537044,3.127851450514793
1789692653045520400,7.130520263671875,2.0147769572533667,-3.270407279320061,3.3430747483849523
1789692653055485200,7.140485107421875,1.9735199409745632,-3.6038042444109917,3.5331881549179553
1789692653065451300,7.150451171875,1.9232897830367086,-3.9233579775884744,3.773089966970682
1789692653075416300,7.160416259765625,2.026824976313114,-4.249211687692999,4.023459981545805
1789692653085381400,7.17038134765625,2.1567606852591035,-4.602262909063697,4.220424569147825
1789692653095346200,7.18034619140625,2.195347313284874,-4.988561150997877,4.2402807777404785
1789692653105311500,7.1903115234375,2.1513607259117067,-5.4190650298833845,4.182621200454235
1789692653115276300,7.2002763671875,2.0254291380405425,-5.797250692510604,4.103224423134327
1789692653125241300,7.210241455078125,1.9757868629932402,-6.1298646905303,4.036392528355122
1789692653135206100,7.2202060546875,1.9488029944777487,-6.402465826135874,4.0047786619514225
1789692653145171500,7.23017138671875,2.0303179329954086,-6.572567541253567,4.018432508772611
1789692653155136300,7.24013623046875,2.1505789278842506,-6.783676974064111,3.982615929982066
1789692653165101300,7.250101318359375,2.1931354824543,-7.110332940462231,3.9303859765291214
1789692653175066000,7.260066162109375,2.2203977295197546,-7.342963884729147,3.9633442432790993
1789692653185031400,7.270031494140625,2.2626349890075623,-7.387384041213989,4.118900131171942
1789692653194996500,7.27999658203125,2.2848329384207724,-7.267477558851241,4.3404777665048835
1789692653204961300,7.289961181640625,2.26096574062109,-7.1115984303534026,4.589905531793833
1789692653214926300,7.29992626953125,2.232532403949648,-6.861985371625423,4.908040922605991
1789692653224891400,7.309891357421875,2.3011130420923234,-6.387241368997096,5.247102781590819
1789692653234856400,7.3198564453125,2.3398820409476757,-5.962270574319362,5.4942696162104605
1789692653244821200,7.3298212890625,2.336346852558851,-5.655453865379095,5.595114839750528
1789692653254786300,7.339786376953125,2.3956442601799965,-5.44964020088911,5.603123958683014
1789692653264751000,7.349751220703125,2.4844553470551967,-5.273395160710812,5.497822924777865
1789692653274716400,7.35971630859375,2.5505121658086773,-5.02535212777853,5.269748913162946
1789692653284681200,7.36968115234375,2.600926009750366,-4.8234191041141745,4.935716865038872
1789692653294646300,7.379646240234375,2.54355051010251,-4.714563884858787,4.433762783923745
1789692653304611300,7.389611328125,2.368002220016718,-4.699154718802869,3.7526112425655125
1789692653314576400,7.399576416015625,2.098530614608526,-4.64950776758045,3.014863953760266
1789692653324541400,7.40954150390625,1.5741595345020294,-4.58714951108396,2.218447033843398
1789692653334506200,7.41950634765625,1.5005705666780471,-4.384176038455963,2.1242758812397717
1789692653344471300,7.42947119140625,0.2611673029214144,-4.0862370479762555,0.9550596679091453
1789692653354436400,7.439436279296875,-0.554656328254938,-3.5032430985093113,0.6532108105093241
1789692653364401400,7.4494013671875,-1.2663871322721243,-2.879237924218178,0.5336813447654247
1789692653374366200,7.4593662109375,-1.7998913669049739,-2.204489235639572,0.6179027657628059
1789692653384331300,7.469331298828125,-1.8463403988689182,-2.035704448339343,0.513941456028819
1789692653394296300,7.47929638671875,-2.380719078248739,-1.0562877532869577,0.8267436691194773
1789692653404262700,7.4892626953125,-2.367341710281372,-0.5359656563103199,0.9100760323226451
1789692653414227500,7.4992275390625,-2.3041320976525546,0.030638299369812008,0.908692469009757
1789692653424192500,7.509192626953125,-2.247701769900322,0.5028180044680833,0.8646960908949375
1789692653434157300,7.5191572265625,-2.212902843719721,0.8733809171319007,0.7985603616863489
1789692653444122400,7.529122314453125,-2.1620710666269063,1.1453308953523635,0.7381839266568422
1789692653454087400,7.53908740234375,-2.0789754347890614,1.2915648281484842,0.6944470762610435
1789692653464052500,7.549052490234375,-1.9642945781201122,1.310702074816823,0.5821738652557135
1789692653474017300,7.559017333984375,-1.9685569117397068,1.2372013697981834,0.4689747715771198
1789692653483982300,7.568982421875,-2.227840885132551,1.0881710842818022,0.5108545959293842
1789692653493947400,7.578947509765625,-2.5526269660055636,0.8826426664739847,0.538951394122839
1789692653503912400,7.588912353515625,-2.6977427084267136,0.6996411377727985,0.46923663738369936
1789692653513877500,7.59887744140625,-2.8576433475255962,0.5587140792131423,0.42391222553551194
1789692653523842300,7.60884228515625,-2.976301291131973,0.4316378513514995,0.3229629570990801
1789692653533807600,7.6188076171875,-2.9896424187421795,0.5611100344389677,0.17810557335317134
1789692653543772400,7.6287724609375,-2.6942151188224552,0.11002455529570579,-0.12877952464818954
1789692653553737500,7.638737548828125,-2.2444459829747676,-0.019629998621344565,-0.6640244654685259
1789692653563702300,7.648702392578125,-1.662567301273346,0.01002864206135273,-1.2841753024190663
1789692653573667600,7.65866748046875,-1.1814468224156647,-0.2035521492987871,-2.051672417321801
1789692653583632400,7.66863232421875,-1.1319711361069231,-0.05133855757117271,-2.2565309730440375
1789692653593597400,7.678597412109375,-0.6961077029496431,0.3170277218312025,-3.4603754321634765
1789692653603562200,7.688562255859375,-0.5561398448109627,0.6483171932488679,-4.2398020543128245
1789692653613527600,7.698527587890625,-0.7049169592838734,1.1280652877748012,-4.9998891852200025
1789692653623492400,7.708492431640625,-0.9863958864152431,1.5086439830183982,-5.5980257587611675
1789692653633457400,7.71845751953125,-1.198472191496566,1.7931839782208203,-6.089888069450855
1789692653643422500,7.72842236328125,-1.41425246566236,2.001962337735295,-6.548326249444484
1789692653653387500,7.738387451171875,-1.4549796128481625,2.0439707569032906,-6.870684226387739
1789692653663352600,7.7483525390625,-1.1477157446622848,2.0458079092025754,-7.084854215812682
1789692653673317400,7.7583173828125,-0.7706810787010937,1.9111141920745371,-7.138135724145173
1789692653683282400,7.768282470703125,-0.4387614926863461,1.5691291391193867,-7.180767243647575
1789692653693247200,7.778247314453125,-0.10857311437837779,1.0784551614314317,-7.1897688807487485
1789692653703212500,7.788212646484375,0.21666239076256752,0.4395440944314003,-7.210870120966434
1789692653713177300,7.79817724609375,0.4950999043714255,-0.13218670274317265,-7.227796705847978
1789692653723142400,7.808142333984375,0.6503431461185216,-0.5984224047452211,-7.208819618177413
1789692653733107500,7.818107421875,0.6792325559943914,-0.5784533834278583,-7.25914461479187
1789692653743072500,7.828072509765625,0.7690203789472579,-1.5016566083490848,-7.690209634691477
1789692653753037600,7.83803759765625,0.8314935670603066,-1.7478811936825513,-8.02263892379403
1789692653763002400,7.84800244140625,0.9347978011250495,-1.8400135339349508,-8.327041557329892
1789692653772968400,7.857968505859375,1.0195336013853549,-1.7591285638839005,-8.637968624198436
1789692653782933500,7.86793359375,1.1418120735764503,-1.5110890380829571,-8.8748928817451
1789692653792898300,7.877898193359375,1.302094989991188,-1.210659399831295,-9.08576733675599
1789692653802863400,7.88786328125,1.4097422947615383,-0.7588666492015123,-9.247485838931798
1789692653812828400,7.897828369140625,1.5644330902576447,-0.10203297201991081,-9.238928438466786
1789692653822793500,7.90779345703125,1.7229583493500946,0.6762894882798195,-9.077330932322145
1789692653832758500,7.917758544921875,1.7155898664087057,0.6658429130673408,-9.046890201351045
1789692653842723300,7.927723388671875,1.7036784793406723,1.4620277777940034,-8.731113940885663
1789692653852688400,7.9376884765625,1.310863987380266,2.4113708216220138,-8.243776414144039
1789692653862653400,7.9476533203125,0.9014531654059886,2.2632214105933905,-8.016061883491277
1789692653872618500,7.957618408203125,0.46010224074833095,1.6778940497428179,-7.646996515908837
1789692653882583300,7.967583251953125,0.4035281936764717,1.6023510252416133,-7.4647548656642435
1789692653892548400,7.97754833984375,-0.23633673998229204,0.00450257211625576,-6.447869148439168
1789692653902513400,7.987513427734375,-0.3924035000067204,-0.7273001290708779,-5.627278741252422
1789692653912478500,7.997478515625,-0.36115620189309117,-1.3026368417829275,-4.679483511388302
1789692653922443300,8.007443359375,-0.3042213586848229,-1.6653081244140862,-3.675173198097944
1789692653932408300,8.017408203125,-0.29266426494717596,-1.8183914847135543,-3.4030385109603403
1789692653942373600,8.02737353515625,-0.04670972872674465,-1.8706500797390937,-1.7804595212042331
1789692653952338400,8.03733837890625,0.20542963360846042,-1.7545955966293811,-1.026167340311408
1789692653962303500,8.047303466796874,0.47447859315779056,-1.5333715970396995,-0.49931028860807414
1789692653972268300,8.057268310546876,0.7634656674295663,-1.2853425926327704,-0.20116437737941742
1789692653982233600,8.067233642578126,1.0692407583624124,-1.0248287851840256,-0.06283844122886657
1789692653992198400,8.077198486328125,1.3250883275657892,-0.7473311097085475,-0.0036211131066083905
1789692654002163500,8.08716357421875,1.4958786094695329,-0.55191141346097,-0.07556289824545383
1789692654012128300,8.097128173828125,1.5347259342581032,-0.47512861803174017,-0.09504793543815612
1789692654022093600,8.107093505859375,1.5341899276852606,-0.3611293138861656,0.07621990084946155
1789692654032058400,8.117058349609374,1.5846961260855197,-0.5116577290058135,0.23163667253255843
1789692654042023400,8.1270234375,1.4523597857385873,-0.33047406338155266,0.567858924177289
1789692654051988500,8.136988525390626,1.3798065907031296,-0.47431437903940676,0.9431979652017355
1789692654061953500,8.14695361328125,1.2696014181435107,-0.6689514004766941,1.353448160609603
1789692654071918600,8.156918701171875,1.0699603048086166,-0.919874957281351,1.7230355062395333
1789692654081883400,8.16688330078125,1.0993442202031611,-1.1029524738281964,1.871434508115053
1789692654091848400,8.176848388671875,1.0182324556589126,-1.228324820381403,2.4602479575157163
1789692654101813200,8.186813232421875,1.0503542715847491,-1.4170236839413641,2.5984821237295863
1789692654111778600,8.196778564453124,1.0078875872552395,-1.5359727194488049,3.1637282350599762
1789692654121743400,8.206743408203126,0.9698083242297172,-1.6687626487821339,3.4401889687031506
1789692654131708400,8.21670849609375,1.0131342557370662,-1.857174512094259,3.5581513312608
1789692654141673200,8.226673095703125,0.8662018192827701,-1.9818711513429879,3.7998406112521885
1789692654151638500,8.236638427734375,0.9180056562781334,-2.1677458973929284,3.9041707542985677
1789692654161603300,8.246603271484375,0.6152174722015857,-2.5320506264448164,4.057203845715523
1789692654171568400,8.256568359375,0.509137270617485,-2.8312869632586835,4.199260200566053
1789692654181533400,8.266533447265624,0.4485175648840144,-3.1911946263954043,4.346728059071302
1789692654191498500,8.27649853515625,0.4555201736550778,-3.5001270123153922,4.625467259040475
1789692654201463600,8.286463623046876,0.4831318917453289,-3.755062727370858,4.949329210805892
1789692654211428400,8.296428466796876,0.5530967507880181,-4.036533982652426,5.19987867360115
1789692654221393400,8.306393310546875,0.6861036838728934,-4.337307612036168,5.3471764362365
1789692654231358500,8.3163583984375,0.80125566518493,-4.555834043104946,5.4281648666620255
1789692654241323500,8.326323486328125,0.9076246205825358,-4.841914838008583,5.392305617773532
1789692654251288300,8.336288330078125,0.8952502921778708,-4.933863930648565,5.425707536637783
1789692654261254700,8.346254638671875,1.3002245199441909,-5.476861969813704,4.8737423471629615
1789692654271219500,8.356219482421874,1.5352128409922121,-5.602724145710468,4.570333985361456
1789692654281184500,8.3661845703125,1.7033458863854407,-5.816072297358512,4.136989330092073
1789692654291149300,8.3761494140625,1.808274579846859,-6.219394154807925,3.642284489452839
1789692654301114400,8.3861142578125,1.7863515018522738,-6.233049170672893,3.647992930227518
1789692654311079400,8.396079345703125,1.7903379411399363,-6.754834325939417,3.0037948627352713
1789692654321044500,8.40604443359375,1.6336720461785792,-6.797731218379735,2.9435791712254282
1789692654331009300,8.41600927734375,1.4100176045715809,-6.7903171427309506,3.0647073043376207
1789692654340974300,8.425974365234374,1.1117862800817937,-6.813432645380496,3.1616917607963084
1789692654350939400,8.435939453125,1.109296289896965,-6.810630447441339,3.160910839551687
1789692654360904400,8.445904541015626,0.8214660209774971,-6.42475949100852,4.167726413661241
1789692654370869500,8.455869384765625,0.8202969771981239,-6.408358975827694,4.162454610738158
1789692654380834300,8.465834228515625,0.9308429260194301,-5.440099634605645,5.528479344326257
1789692654390800000,8.4757998046875,0.9255611862242221,-5.3836663842439645,5.509933049288391
1789692654400764700,8.4857646484375,1.1804676751852035,-4.333050831374526,5.964806230276823
1789692654410729700,8.495729736328125,1.1644915228962898,-4.214316607661545,5.923504498073458
1789692654420694800,8.50569482421875,1.1507353847444057,-4.114922751973569,4.541611164224148
1789692654430659800,8.515659912109374,1.1253227110683917,-3.9449832416802644,4.476357478547096
1789692654440624600,8.525624755859376,1.0039116693615913,-4.095546143591403,3.52706236551404
1789692654450589700,8.535589599609375,0.7628887443244456,-4.473645004718005,2.492809918424487
1789692654460554800,8.5455546875,0.3828711900949478,-4.805507599848508,1.6422399680376052
1789692654470519800,8.555519775390625,0.02918753430591896,-4.915308867782354,1.197727437543869
1789692654480484600,8.565484619140625,-0.2358569023097865,-4.82816425281465,1.0062503414422272
1789692654490449700,8.57544970703125,-0.49371875221133227,-4.5137043356448405,1.1100023923397064
1789692654500415000,8.5854150390625,-0.6583949351489543,-4.006958928599953,1.3469798413783312
1789692654510379800,8.5953798828125,-0.6581120265543461,-3.3827877500921484,1.4434072484761475
1789692654520344800,8.6053447265625,-0.5173989030063152,-2.7378789039820433,1.3555904333353042
1789692654530309600,8.6153095703125,-0.35948910893108693,-2.1298077964037656,1.0931681619167328
1789692654540275000,8.62527490234375,-0.24770638485644011,-1.5864146204411982,0.7633610380113124
1789692654550239700,8.63523974609375,-0.16375738759227096,-1.048577325040102,0.4621750284343958
1789692654560204800,8.645204833984375,-0.05902032597912475,-0.6097942781090736,0.093323011341691
1789692654570169600,8.655169677734374,0.07660038806702942,-0.15001988107562064,-0.2586024208694696
1789692654580135000,8.665135009765624,0.09720595372226089,0.2923071220725775,-0.5893249060541391
1789692654590099700,8.675099609375,0.08795885396003722,0.6655903996109962,-0.8431506140410899
1789692654600064800,8.685064697265625,0.09733809220194815,0.9556792611122131,-1.074872042247653
1789692654610029800,8.69502978515625,0.13288867700006812,1.177221240609884,-1.24332482111454
1789692654619995000,8.704994873046875,0.1584486867249012,1.3617448643118142,-1.296322836330533
1789692654629960000,8.7149599609375,0.15958850440979003,1.454193430906534,-1.3195681028395891
1789692654639924700,8.7249248046875,0.13790274230241775,1.5289210473716257,-1.2694102794855833
1789692654649889800,8.734889892578124,0.09698038307176902,1.5799673439979551,-1.1634551655858754
1789692654659854600,8.7448544921875,0.04029690254237502,1.5844915434241293,-1.1390601445198059
1789692654669820000,8.75481982421875,-0.051885670059919356,1.5552034896194933,-1.2283154680311679
1789692654679784700,8.76478466796875,-0.07310735831949859,1.5622931556195019,-1.4120488181382418
1789692654689749800,8.774749755859375,0.0016074351966381072,1.5980530357867477,-1.6879676999896764
1789692654699714600,8.784714599609375,0.0681248754655011,1.6863766314059494,-1.9629016624569893
1789692654709679900,8.794679931640625,0.010889606272242962,1.7219219920396804,-2.2916233292132615
1789692654719644700,8.804644775390624,-0.010609072297811507,1.702704081350565,-2.547325936987996
1789692654729609700,8.814609619140626,0.1452209198286757,1.5830892754107713,-2.7364152611702677
1789692654739574800,8.82457470703125,0.40566874936912206,1.439624222806096,-2.833044912841916
1789692654749539800,8.834539794921875,0.7136030276298523,1.3041150976419449,-2.9338685090720653
1789692654759505000,8.8445048828125,1.0693301171462983,1.179064238128066,-3.1216181090831756
1789692654769469700,8.8544697265625,1.3982991097271442,1.0339788908451795,-3.4916464764788744
1789692654779434800,8.864434814453125,1.4982593671262263,0.9464256950765848,-3.9153161254301665
1789692654789399800,8.87439990234375,1.4644190568447113,0.8960667961925267,-4.30076797966808
1789692654799364900,8.88436474609375,1.341978087568283,0.925820713943243,-4.726653551103174
1789692654809329700,8.89432958984375,1.1747381916224955,0.986744845983386,-5.218999553656578
1789692654819294700,8.904294677734375,0.9755670338869095,0.9814566764473914,-5.711683117601275
1789692654829259800,8.914259765625,0.8564636115353554,0.8779033629924058,-6.207974350649118
1789692654839224800,8.924224853515625,0.8844027349490672,0.6464169125854968,-6.7083391167461865
1789692654849189600,8.934189697265625,0.9049918609261512,0.24919571009874342,-7.265196754437684
1789692654859154700,8.94415478515625,0.9249754952907562,-0.3783656953692436,-7.896255354371666
1789692654869120000,8.9541201171875,0.9665664927642792,-1.134074757322669,-8.54612854489088
1789692654879084800,8.964084716796876,0.9647533789277076,-1.6744482932031153,-9.031352440479397
1789692654889049900,8.9740498046875,0.9063923753738403,-1.7191215476661919,-9.270353504300116
1789692654899014700,8.9840146484375,0.754055449527502,-1.3484317937523125,-9.513747250121831
1789692654908979700,8.993979736328125,0.3861117794513702,-0.7558131068497895,-9.797624397501348
1789692654918944800,9.00394482421875,0.01723871957063675,0.05240472549796104,-9.965947412508726
1789692654928909800,9.013909912109375,-0.3535048103570938,1.1130705477386713,-9.899791225033997
1789692654938874600,9.02387451171875,-0.5131575756421313,2.2394196792453527,-9.76546751026213
1789692654948839700,9.033839599609376,-0.40906361597180363,3.2417689215958116,-9.668120650231838
1789692654958804700,9.0438046875,-0.11227258995082229,3.991219507676363,-9.525341826325654
1789692654968769800,9.053769775390625,0.2543254742026329,4.422296802535653,-9.243106600934267
1789692654978734800,9.06373486328125,0.5829050656070932,4.361227709066868,-8.89645297164619
1789692654988699600,9.07369970703125,0.8998585896909236,3.8760225181788206,-8.440433543232082
1789692654998665000,9.0836650390625,1.1111796194255352,3.0405799942970275,-7.802195845448971
1789692655008629800,9.093629638671874,1.1992951252520083,2.0217758762300013,-6.861380975991487
1789692655018594800,9.1035947265625,1.2279974881231783,0.859224966007471,-5.979477145186066
1789692655028559600,9.1135595703125,1.2704466367959975,-0.16270868225693702,-5.052881355217099
1789692655038525000,9.12352490234375,1.2692401836156844,-0.9001566958546638,-3.9834266618430614
1789692655048489700,9.13348974609375,1.0948936705350876,-1.4872896448224782,-3.002672580707073
1789692655058454800,9.143454833984375,0.7276753921240567,-1.862836775639653,-2.1134213097482917
1789692655068420600,9.153420654296875,0.3298696677476167,-1.9202572834730147,-1.30720137321949
1789692655078385000,9.163385009765625,-0.052296579815214496,-1.700329753434658,-0.6926654535412788
1789692655088349700,9.173349609375,-0.39601767191588877,-1.3634300409197806,-0.3939069633722305
1789692655098315800,9.183315673828124,-0.666444970613718,-1.0239192691236734,-0.4165419890284538
1789692655108280600,9.193280517578126,-0.755758161792159,-0.6918927156031132,-0.6791402015358209
1789692655118246000,9.203245849609376,-0.5789578258186578,-0.3987900592386722,-1.1451689827889204
1789692655128210700,9.213210693359375,-0.21347616194188593,-0.16957272280752658,-1.4476485393077134
1789692655138175700,9.22317578125,0.06388240189042407,-0.07362403913736343,-1.6717039629310368
1789692655148140500,9.233140625,0.2555798581779003,-0.10983867733478546,-1.8150579563766718
1789692655158105900,9.24310595703125,0.4596551545679569,-0.16867723527252673,-1.770832445681095
1789692655168071000,9.25307080078125,0.6778817259073256,-0.3113677963733673,-1.6598972052812575
1789692655178035700,9.26303564453125,0.8376713058471679,-0.526550762233138,-1.4289771565854548
1789692655188000800,9.273000732421876,0.9710802438616752,-0.7122410916268825,-1.022200190246105
1789692655197965800,9.2829658203125,1.0099158782124518,-0.9018506402909755,-0.5024263748019934
1789692655207931000,9.292930908203125,0.9767769941985607,-1.191293020582199,-0.0013929156631231306
1789692655217895700,9.302895751953125,0.9868645999055355,-1.4817413630455731,0.4257756813198328
1789692655227860700,9.31286083984375,1.1440916358809918,-1.698335949268937,0.8464262747108936
1789692655237825800,9.32282568359375,1.3103694818615912,-2.015112326687574,1.2010083589106797
1789692655247790800,9.332790771484374,1.4567922152280806,-2.372030160358548,1.4901964721798895
1789692655257755600,9.342755615234376,1.6122878973662853,-2.680026434472203,1.7856787171572446
1789692655267720700,9.352720703125,1.711335131573677,-2.993132598945498,2.105780439606309
1789692655277685800,9.362685791015625,1.723446425127983,-3.2638112420558927,2.4349118562072514
1789692655287650800,9.37265087890625,1.7528081286907196,-3.475210597723722,2.791387791329622
1789692655297616000,9.382615966796875,1.7911073180772363,-3.6794562822446224,3.1979771261423826
1789692655307580700,9.39258056640625,1.8593816667497156,-3.86621365634799,3.6009903560340404
1789692655317545700,9.402545654296874,1.94479083622694,-3.973010481768846,3.964656494921446
1789692655327510800,9.4125107421875,2.037800105444342,-4.068661936058104,4.328284055364132
1789692655337475800,9.422475830078126,2.037420020085573,-4.26962465338558,4.597989469528198
1789692655347440600,9.432440673828125,2.0486206285357476,-4.534596901547909,4.783524316099286
1789692655357405700,9.44240576171875,2.0569090028010306,-4.7376992612525815,4.963323833888769
1789692655367370800,9.452370849609375,2.0180384432673453,-4.914066174244881,5.105319398462772
1789692655377335800,9.462335693359375,1.9815781597457824,-5.0959600339651105,5.218879142147302
1789692655387300600,9.472300537109374,1.901309275766462,-5.3489820243537425,5.183296372112632
1789692655397265200,9.48226513671875,1.808988865596056,-5.685535699909925,5.060273803555965
1789692655407230500,9.49223046875,1.7165736167490482,-5.9486582285523415,5.005424022993445
1789692655417195300,9.5021953125,1.629309320924431,-6.1197366797477,4.983436063069105
1789692655427160300,9.512160400390625,1.5129904877901077,-6.260244636112451,4.941410692766309
1789692655437125000,9.522125,1.369327720656246,-6.406394982278346,4.911849082717299
1789692655447090200,9.532090087890625,1.224071692981571,-6.481300293397903,4.941100311642885
1789692655457055200,9.54205517578125,1.118784103079885,-6.453308709144592,4.950044081076979
1789692655467020300,9.552020263671874,0.9881833543539047,-6.461680816170573,4.942802439385653
1789692655476985300,9.5619853515625,0.8740754022020846,-6.3874003589510915,5.026424140924215
1789692655486950100,9.5719501953125,0.8511878630895167,-6.233805541998148,5.1143432473957535
1789692655496915500,9.58191552734375,0.9064554306726902,-6.025837329822778,5.104229849660396
1789692655506880300,9.59188037109375,1.110329797663167,-5.765905121654272,4.951270408001542
1789692655516845300,9.60184521484375,1.4352420621991158,-5.453754650470614,4.632444696837664
1789692655526810000,9.61181005859375,1.6533528982043266,-5.021615863859653,4.238578065475822
1789692655536775400,9.621775390625,1.6863994277596472,-4.570231986291707,3.7770653003424406
1789692655546740200,9.631740234375,1.556229910057783,-4.211465602144599,3.1171336571455
1789692655556705300,9.641705322265626,1.2773065856933592,-3.9462709434032437,2.277316571441293
1789692655566670000,9.651670166015625,0.9252455444037914,-3.804515617325902,1.438579682189226
1789692655576635400,9.661635498046875,0.19507011562492696,-3.7758190996736287,0.10202361966967582
1789692655586600200,9.67160009765625,-0.1301052568266168,-3.5634716495007273,-0.24754443576037882
1789692655596565200,9.681565185546875,-0.2055389392018318,-3.23026494628489,-0.3153331928730011
1789692655606530300,9.6915302734375,-0.07517769832015037,-2.8271906338557597,-0.13212591246664523
1789692655616495400,9.701495361328124,-0.07218260815739631,-2.6859114008575675,-0.21480828732848167
1789692655626460400,9.71146044921875,0.5550350619068369,-1.9305203188121318,0.5154290642380714
1789692655636425200,9.72142529296875,0.8672025207579135,-1.5563012217283247,0.8779360962182283
1789692655646390300,9.731390380859375,1.1098609380424023,-1.185697977054119,1.2121949388355016
1789692655656355300,9.741355224609375,1.262704059845209,-0.8390238894999027,1.466187235561013
1789692655666320400,9.7513203125,1.2220762813806534,-0.5824520976752042,1.6397177560836076
1789692655676285200,9.76128515625,0.9044237056493759,-0.31108138064742086,1.7201631656736134
1789692655686250200,9.771250244140624,0.8508838386416435,-0.19947686268389223,1.639707819211483
1789692655696215000,9.781215087890626,0.13939794929623603,0.16743045008182525,1.6855284901440142
1789692655706180400,9.791180419921876,-0.27251404184401035,0.36548867813944813,1.6285095488488672
1789692655716145200,9.801145263671875,-0.7033353161156177,0.56461190508008,1.58840667104125
1789692655726110200,9.811110107421875,-1.1272229917317629,0.774412008857727,1.51056179933846
1789692655736075300,9.8210751953125,-1.389263570356369,0.9240531197488308,1.5061837303847074
1789692655746040300,9.831040283203125,-1.5505354978084562,1.0029892938196658,1.4702449865192173
1789692655756005400,9.84100537109375,-1.595542514270544,1.0501976197183132,1.479503813251853
1789692655765970200,9.85097021484375,-1.5520605154186486,1.036730819901824,1.4394237317979335
1789692655775935200,9.860935302734376,-1.402571964740753,1.0008289009153841,1.3001222286134957
1789692655785900300,9.870900390625,-1.1457920831233261,0.9131260675430297,1.1097329277485608
1789692655795865300,9.880865234375,-0.8298603398352861,0.8902572331309317,0.8471171795845032
1789692655805830100,9.890830078125,-0.46028351559937,0.9291121567040681,0.5119821386545896
1789692655815795200,9.900795166015625,-0.45665246562063694,1.0602911437094211,0.36704467540979385
1789692655825760300,9.91076025390625,0.03459438005182892,0.7982476424753665,-0.44487668763101096
1789692655835725300,9.920725341796874,0.03680153470728546,0.7836930474221706,-0.8302052077502011
1789692655845690400,9.9306904296875,0.040388672479055816,0.7477285845935344,-1.3999585673719643
1789692655855655200,9.9406552734375,0.07327449504733086,0.6596738690435886,-2.0289181492000816
1789692655865620500,9.950620361328125,0.07909282593727111,0.7900041302651166,-2.208320192104578
1789692655875585300,9.960585205078125,0.011308708467148244,0.7992424987316131,-2.7161154004633423
1789692655885550300,9.97055029296875,0.02163490870296955,0.7380664377570152,-3.296262143805623
1789692655895514400,9.980514404296875,-0.14102644554721191,0.5709849472433328,-4.506940832859278
1789692655905479200,9.990479248046874,-0.33370822299718855,0.5852624789208173,-5.248830628296733
1789692655915444500,10.000444580078126,-0.6218295838177204,0.6686889501482248,-6.091971305465698
1789692655925409300,10.0104091796875,-1.072660211417079,0.7535515916585922,-6.832073048442601
1789692655935374300,10.020374267578125,-1.0592927803218364,0.8360030803740024,-6.991529450905323
1789692655945339100,10.030339111328125,-2.0282786822527648,0.6627753421902656,-7.82871735714972
1789692655955304200,10.04030419921875,-2.1252888576745987,0.3690057463496923,-8.05240628554821
1789692655965269200,10.050269287109375,-1.899868575438857,0.022253917384147642,-8.080636354732514
1789692655975234300,10.060234375,-1.2943483213871716,-0.5446767860323191,-8.209358596235512
1789692655985199000,10.07019921875,-0.4623427862167358,-1.2090811907291412,-8.393746026337146
1789692655995164200,10.0801640625,0.377223539596796,-1.7579069131344556,-8.508326929762958
1789692656005129200,10.090129150390625,1.1171546021819114,-2.0151871454894543,-8.57326497361958
1789692656015094300,10.10009423828125,1.747816311752796,-1.8511527675867079,-8.522835932108759
1789692656025059300,10.110059326171875,2.173227835935354,-1.4859966824024915,-8.564614634174108
1789692656035024100,10.120024169921875,2.395473579788208,-0.9528922607421875,-8.643301801919936
1789692656044989400,10.129989501953125,2.568912914896011,-0.20181261215507984,-8.671205123367905
1789692656054954200,10.139954345703124,2.706207754433155,0.623422990489006,-8.716746977359056
1789692656064919300,10.149919189453126,2.7316508232474326,1.5229191766083239,-8.638385388305784
1789692656074884000,10.159884033203125,2.731955943673849,2.3841145659059286,-8.54437381017804
1789692656084849400,10.169849365234375,2.7016765407443044,2.3839164129853248,-8.5395474129349
1789692656094814200,10.179814208984375,2.4880922422528267,3.390681718212366,-8.227290558767319
1789692656104779300,10.189779296875,2.1457366024196145,3.3748218857795,-8.013212923800944
1789692656114744000,10.199744140625,1.6374258457541464,2.9859453177899122,-7.516212665700912
1789692656124709400,10.20970947265625,1.088911673516035,2.2997212954729793,-6.830887638050317
1789692656134674400,10.21967431640625,0.7065607079029083,1.5428852753162383,-6.156928054022789
1789692656144639200,10.22963916015625,0.42429158024191854,0.8382143266826868,-5.353036268180609
1789692656154604300,10.239604248046875,0.13192951311171053,0.16116086829304693,-4.488983151364327
1789692656164569300,10.2495693359375,-0.15745090785920618,-0.38978140787482257,-3.6304227867454286
1789692656174534400,10.259534423828125,-0.3848790227860212,-0.6873936506181955,-2.720914617438614
1789692656184499200,10.269499267578125,-0.5633563520610332,-0.696475367218256,-1.8280355113714932
1789692656194464300,10.27946435546875,-0.6875701762288808,-0.47457039962708947,-1.1152478917777537
1789692656204429000,10.289428955078124,-0.766038148266077,-0.23466741853058337,-0.7289250999242067
1789692656214394400,10.299394287109376,-0.8200491399168968,-0.02320727258622646,-0.6466138964623213
1789692656224359200,10.309359130859375,-0.8193179030328989,0.12771978646218776,-0.8594377319753169
1789692656234324200,10.31932421875,-0.7842366527795791,0.02725976284742355,-0.724513713222742
1789692656244289300,10.329289306640625,-0.2496539752602577,0.5644681126952171,-1.4277443999201058
1789692656254254300,10.33925439453125,0.02246317622065544,0.5564759448975324,-1.5113386289298534
1789692656264219400,10.349219482421875,0.24555180063843726,0.4298749333322048,-1.5553578033983706
1789692656274184200,10.35918408203125,0.4077414274573326,0.3414923010021448,-1.4332026653259993
1789692656284149200,10.369149169921876,0.46713937284350393,0.21837620894312856,-1.2964222050517797
1789692656294114300,10.3791142578125,0.6796107416570186,-0.001339139649271965,-0.9496674534767866
1789692656304079400,10.389079345703125,0.7303741296887397,-0.18833353737890718,-0.5865402437716722
1789692656314044200,10.399044189453125,0.7180243512034415,-0.4174351384758949,-0.14908873770534992
1789692656324009200,10.40900927734375,0.7174106032192706,-0.6614724428981542,0.2370183655709028
1789692656333974300,10.418974365234375,0.7746236057817936,-0.88528119828403,0.5615256295025348
1789692656343939300,10.428939208984374,0.8886462908029555,-1.0645733510732651,0.8389911562740803
1789692656353904000,10.438904052734374,1.0183377426642923,-1.2256003638535737,1.1286778667151927
1789692656363869200,10.448869140625,1.1446412325877695,-1.3988620043069124,1.3632751426190137
1789692656373834500,10.45883447265625,1.237619887471199,-1.6004969218075273,1.5584423254102469
1789692656383799300,10.46879931640625,1.2963538159906864,-1.782552109569311,1.6848574590146541
1789692656393764600,10.4787646484375,1.3130758182108402,-2.107056450891495,2.0036065978109834
1789692656403730000,10.48872998046875,1.330509768092632,-2.3705969126850364,2.260534363466501
1789692656413695000,10.498695068359375,1.3880547790884972,-2.5644816544502973,2.3752561366677285
1789692656423659800,10.50865966796875,1.393940914517641,-2.9104622067824004,2.6445471248120067
1789692656433624800,10.518624755859374,1.3794506168723106,-3.2588919058322903,2.9854484741836784
1789692656443589600,10.528589599609376,1.4062113441564141,-3.567925706300139,3.376195512220263
1789692656453555000,10.538554931640626,1.4660859671436248,-3.8491310041218996,3.7033132509112354
1789692656463519700,10.548519775390625,1.5195160901665687,-4.160218229988217,3.9874803211480376
1789692656473484800,10.55848486328125,1.5694636317707598,-4.459013545036315,4.268411478203535
1789692656483449600,10.56844970703125,1.5808476339638233,-4.790099895097315,4.451538679111003
1789692656493415000,10.578414794921875,1.605717871326208,-5.114250892937183,4.583239059641957
1789692656503379700,10.588379638671874,1.60647891882658,-5.358649431887269,4.721176288735866
1789692656513344800,10.5983447265625,1.6838016663514077,-5.5579076833844185,4.8122792859405275
1789692656523309800,10.608309814453126,1.7797849829435348,-5.7881035094588995,4.716646828612685
1789692656533275000,10.61827490234375,1.8010181789778172,-6.005716917335986,4.513869170817733
1789692656543240000,10.628239990234375,1.8151216692626475,-6.270312441140413,4.181108457803726
1789692656553204700,10.638204833984375,1.8092916479349135,-6.66230567984581,3.7664234948188065
1789692656563169800,10.648169677734375,1.7511504246115683,-7.04968470275402,3.604448387533426
1789692656573134800,10.658134765625,1.6489292365431785,-7.31087830916047,3.6598867816388605
1789692656583100000,10.668099853515624,1.535970381361246,-7.387502114635706,3.82078227699399
1789692656593064700,10.678064697265626,1.4266729712963104,-7.297856330502033,4.003659887054562
1789692656603029800,10.68802978515625,1.383709443360567,-7.13971042611599,4.189566489547491
1789692656612994800,10.697994873046875,1.3227286126971245,-6.840259862029552,4.394717890736461
1789692656622959900,10.7079599609375,1.19778815475516,-6.218425602036715,4.753939909696578
1789692656632924700,10.717924560546875,1.1674036109507082,-5.526607120713591,4.944350253349542
1789692656642889700,10.7278896484375,1.2053987028241158,-4.896827454674244,4.939251468905806
1789692656652855000,10.73785498046875,1.1932675355255604,-4.1796842702195045,4.81328174098134
1789692656662818800,10.74781884765625,1.2772563168108462,-3.4704826924189924,4.5310687274217605
1789692656672784000,10.757783935546875,1.2562883475840092,-2.8523604386866093,4.218940468069911
1789692656682748700,10.767748779296875,1.0406675748288632,-2.4005054364755747,3.774195882385969
1789692656692713700,10.777713623046875,0.7565197938144207,-2.078911137381196,3.246186738038063
1789692656702679000,10.787678955078125,0.4594879813075065,-1.9890061177894471,2.5778490855455396
1789692656712643800,10.797643798828124,-0.002473697778797941,-2.0898086712315678,1.838524756681919
1789692656722609000,10.80760888671875,-0.6099000765711069,-2.2321198776260016,1.2915391091853379
1789692656732573700,10.81757373046875,-1.1741028163284062,-2.35711579208225,0.9568956511646508
1789692656742538800,10.827538818359375,-1.7227052513718604,-2.4537965894192455,0.8167460067182779
1789692656752503800,10.83750390625,-2.1814923909336326,-2.3987509940236804,0.992535704344511
1789692656762468900,10.84746875,-2.4626608638763425,-2.2366741799294947,1.2414344773232937
1789692656772433700,10.85743359375,-2.57257085288167,-1.9858593441963195,1.5317857891529798
1789692656782398700,10.867398681640625,-2.46529471951127,-1.6913117497205734,1.7145400650948286
1789692656792363800,10.87736376953125,-2.171305927962065,-1.3920172529786825,1.6754694529443979
1789692656802328800,10.887328857421876,-1.6179624358713627,-1.081729653057456,1.3801573038369417
1789692656812294000,10.8972939453125,-0.9668220018953084,-0.7521358796417713,1.1056377673894167
1789692656822258700,10.9072587890625,-0.5052887419631704,-0.5027466927975416,0.8457406305342913
1789692656832224000,10.91722412109375,-0.14237844467805696,-0.2484381697297096,0.528624645897746
1789692656842188800,10.927188720703125,0.15760054546296595,0.11562836665213107,0.33505963760614393
1789692656852153900,10.93715380859375,0.4168833863446489,0.4337286861509084,0.1300970369875431
1789692656862118700,10.94711865234375,0.5880091838130727,0.6509837821096182,-0.08510112644135952
1789692656872084000,10.957083984375,0.7187152560770511,0.859685569256544,-0.31945173410773275
1789692656882048800,10.967048828125,0.8006307382196187,1.0373007287442684,-0.523311341920495
1789692656892013800,10.977013916015625,0.8091074746638536,1.1698615254968403,-0.6488268963366747
1789692656901978600,10.986978515625,0.8226917633801698,1.284347151854634,-0.7532090618312358
1789692656911944000,10.99694384765625,0.7636872012257575,1.3461673559516667,-0.8343874618709087
1789692656921908700,11.00690869140625,0.6784265003085136,1.399282275545597,-0.8910907613456249
1789692656931873800,11.016873779296875,0.5475643241673708,1.5103969641655683,-0.9368646705269813
1789692656941838800,11.0268388671875,0.38819676903188227,1.6242483842730522,-1.0006173039913178
1789692656951804000,11.036803955078126,0.24076458462821318,1.7284534396350382,-1.0942354988873004
1789692656961769000,11.04676904296875,0.12302727213124744,1.8040747900694607,-1.2603870150744914
1789692656971733800,11.056733642578125,0.08848375461697577,1.8248229790657757,-1.4125661200106143
1789692656981698800,11.06669873046875,0.1628922221302986,1.8001245911389587,-1.6368828249186276
1789692656991663600,11.07666357421875,0.3194055568784475,1.65806472915709,-1.9329571905702352
1789692657001629000,11.08662890625,0.543725768917799,1.558527665606141,-2.1343758349716664
1789692657011593700,11.09659375,0.6858043356001376,1.5086679484158754,-2.350159689334035
1789692657021558800,11.106558837890624,0.7315589555591344,1.4558335993289946,-2.6878245410025117
1789692657031523600,11.116523681640626,0.6989467257678509,1.4274509699314832,-3.1035142971158027
1789692657041489000,11.126489013671875,0.5416980624824762,1.4715946475625037,-3.547612693850696
1789692657051454000,11.136453857421875,0.3219721924960613,1.408357562404871,-4.062874584828317
1789692657061418800,11.146418701171875,0.0920294643998146,1.2903244726985692,-4.544139221397042
1789692657071383800,11.1563837890625,-0.014049568140506744,1.1764900037258863,-4.974648360979557
1789692657081348900,11.166348876953125,0.028876548111008014,0.9233224673867225,-5.5210816352903835
1789692657091314000,11.17631396484375,0.08171849826574325,0.39359541320502756,-6.063406889760494
1789692657101278700,11.18627880859375,0.1775929476559162,-0.31105215455293656,-6.600297259700298
1789692657111243800,11.196243896484376,0.35354338880181313,-1.3319903620392084,-7.2328615880221125
1789692657121207800,11.206207763671875,0.5846493154585362,-2.4815496887415645,-7.70943105251193
1789692657131172900,11.2161728515625,0.886388867264986,-3.1938387111634015,-7.944418204516172
1789692657141138000,11.226137939453125,1.2482710453450678,-3.191996882688999,-8.054628053250909
1789692657151102700,11.236102783203124,1.566681161445379,-2.565216982987523,-8.181960886222123
1789692657161067800,11.24606787109375,1.5482418339133261,-1.7007944483369588,-8.451270579066872
1789692657171032800,11.25603271484375,1.1612205384016037,-1.0049521183252335,-9.063152184844016
1789692657180998000,11.265997802734375,0.773863727325201,-0.38251521626412865,-9.918871188557148
1789692657190962700,11.275962646484375,0.5734253261327743,0.3841343418985605,-10.620008702367544
1789692657200927700,11.285927734375,0.5484440296113491,1.2975316275984048,-11.044474470132588
1789692657210892800,11.295892822265625,0.6951485025286674,2.312100884574652,-10.975846924108266
1789692657220857900,11.30585791015625,0.9588719196736812,3.2463726159989834,-10.426685101616382
1789692657230823000,11.315822998046874,1.1996306408166886,3.744357793483138,-9.703624509811402
1789692657240787700,11.32578759765625,1.409782626771927,3.757659173604846,-8.868170295491813
1789692657250752800,11.335752685546876,1.5580758301854132,3.3199387874692676,-7.860561525177955
1789692657260717800,11.3457177734375,1.476118846988678,2.4357453844219443,-6.779882842478155
1789692657270683000,11.355682861328125,1.2969243093550205,1.2878291487514972,-5.897386890998482
1789692657280647700,11.365647705078125,1.2830898452699184,0.22679916937351224,-4.901163438051939
1789692657290612700,11.37561279296875,1.1771838312089442,-0.7702221559524536,-3.768164493267238
1789692657300577800,11.385577880859374,0.9143670075148344,-1.7444810298502444,-2.5971377233833075
1789692657310542800,11.39554296875,0.6370826825290918,-2.352135957843065,-1.4022761966645716
1789692657320507600,11.405507568359376,0.39015433284044265,-2.4833295578956602,-0.2639642401635647
1789692657330472700,11.41547265625,0.2667342893987894,-2.2089713494896888,0.7346534144431353
1789692657340438000,11.42543798828125,0.11794365785717964,-1.6382868464976548,1.432973532745242
1789692657350402800,11.43540283203125,-0.12328209627568722,-1.0249293229490517,1.7331635170221327
1789692657360367900,11.445367919921875,-0.276349071695935,-0.44595162338614464,1.6110884584486485
1789692657370332700,11.455332763671874,-0.24629765056967734,0.0496790999263525,1.0377765295624732
1789692657380298000,11.465298095703124,-0.03795593803995289,0.42020811032056804,0.36035189977288246
1789692657390262800,11.4752626953125,0.1598912867486477,0.7368588155329227,-0.12751987997591493
1789692657400227600,11.4852275390625,0.35237843667566776,0.8680699512422084,-0.519722962039709
1789692657410192400,11.4951923828125,0.5324643701910973,0.879454684087634,-0.8079740867197513
1789692657420157400,11.505157470703125,0.7209399463891982,0.8156628876566886,-0.9045797729939222
1789692657430122500,11.51512255859375,0.8639245220005511,0.6483388205587863,-0.8295014433950185
1789692657440087600,11.525087646484375,0.9733984576761722,0.38610710327625275,-0.5476075787872076
1789692657450052600,11.535052490234374,1.1266273639261721,0.09013269086778164,-0.11185235524475574
1789692657460017400,11.545017333984376,1.2158137138545513,-0.19706103371381758,0.4948690912902355
1789692657469982700,11.554982666015626,1.249261225426197,-0.46419747417271134,1.0489958427131176
1789692657479947500,11.564947509765625,1.3170154957473277,-0.6981810020923614,1.51168057423532
1789692657489911600,11.57491162109375,1.3575170174837112,-0.892325271576643,1.9799398910194634
1789692657499876600,11.584876708984375,1.4386252748966215,-1.0948159291237591,2.3155945719093083
1789692657509841400,11.59484130859375,1.4924118101418018,-1.3023106785684824,2.551255677652359
1789692657519806700,11.604806640625,1.4648422506928442,-1.5399264255106448,2.767944956421852
1789692657529771500,11.614771484375,1.4740075539231299,-1.8001795361965893,2.9360598816365
1789692657539736600,11.624736572265626,1.4699778600156306,-2.061429841226339,3.0404549066126343
1789692657549701400,11.634701416015625,1.3840437898814677,-2.3715794939815997,3.1951831115096807
1789692657559666700,11.644666748046875,1.3145593347668647,-2.6495219906151295,3.4026632479071615
1789692657569631500,11.654631591796875,1.2951520389854907,-2.854621077094972,3.6674265294939277
1789692657579596500,11.664596435546875,1.2074632341384888,-3.118586486302316,3.8758267033457754
1789692657589561300,11.674561279296874,1.1433739160656928,-3.367005659070611,4.08115521466732
1789692657599526400,11.6845263671875,1.1275310347676277,-3.6630960990741848,4.167946778413653
1789692657609491700,11.69449169921875,1.076308285595849,-4.052898257476091,4.138759262374043
1789692657619456500,11.70445654296875,1.0123007275223732,-4.520217370800673,4.02934611697495
1789692657629421600,11.714421630859375,0.9727589176636189,-4.955063955065608,3.9115187789738175
1789692657639386400,11.724386474609375,0.8951859947700053,-5.303344893294573,3.8083021501272913
1789692657649351700,11.7343515625,0.8328291265130042,-5.586763190990686,3.7206840724289414
1789692657659316500,11.74431640625,0.788565621894598,-5.7883642062217,3.726030109632015
1789692657669281500,11.754281494140624,0.7581073552668094,-5.757565163332224,3.8390187754303216
1789692657679246300,11.764246337890626,0.8219359765768051,-5.56942860983014,4.02011242468357
1789692657689211600,11.774211669921876,0.9508557864785194,-5.568340230071544,3.996407139447331
1789692657699176400,11.784176513671875,1.0390087017059326,-5.80682633010745,3.872011528971791
1789692657709141500,11.7941416015625,1.0350468123376368,-6.036545770841837,3.9707425368368625
1789692657719106600,11.8041064453125,0.9863175604820251,-6.148116971057653,4.14743707434833
1789692657729071600,11.814071533203125,0.9959703549683093,-6.094389472523331,4.502043708467483
1789692657739036700,11.82403662109375,1.0322539667487143,-5.995943711340427,4.779939443349838
1789692657749001500,11.83400146484375,1.095051491445303,-5.836733977115154,4.991672561016679
1789692657758966500,11.843966552734376,1.0669640456020832,-5.560127697521448,5.195460857158899
1789692657768931600,11.853931640625,1.042155767560005,-5.2333524886578315,5.345233485475182
1789692657778896600,11.863896728515625,1.153787758052349,-4.7587189606666565,5.271926841723919
1789692657788861400,11.873861328125,1.2994623034000397,-4.1572102803438895,4.910812140884995
1789692657798826500,11.883826416015625,1.4840069698899983,-3.536543602825701,4.420350929164886
1789692657808790500,11.89379052734375,1.5774901402294634,-3.1352506208553907,3.8351784666150808
1789692657818755600,11.903755615234376,1.467649709329009,-3.0255069283276796,3.0137901870489117
1789692657828720600,11.913720703125,1.317214817711711,-3.0498975654795766,2.128130218580365
1789692657838685400,11.923685546875,1.0792945348650216,-3.2423362000897527,1.3772107289910316
1789692657848650500,11.933650390625,0.7064484797000885,-3.5168536907106636,0.8374556172698736
1789692657858615300,11.943615234375,0.3401204646596685,-3.6933150039881464,0.582387215745449
1789692657868580600,11.95358056640625,-0.03248067583348602,-3.720851245689392,0.6790075150668621
1789692657878545400,11.96354541015625,-0.2932470698038116,-3.5525814221739767,0.974663363045454
1789692657888510500,11.973510498046876,-0.46243634625170377,-3.1501299178183078,1.2129115626722573
1789692657898475500,11.9834755859375,-0.5927531269371509,-2.604340786629915,1.3589298068910836
1789692657908440600,11.993440673828125,-0.7024269690990448,-1.9747125117599964,1.2703770786911248
1789692657918405600,12.003405517578125,-0.7147481060117483,-1.3326947109162808,0.9829255799561738
1789692657928370400,12.013370361328125,-0.7366951494038104,-0.7397218037486076,0.6735135938256979
1789692657938335500,12.02333544921875,-0.8243161497116088,-0.2142541605770588,0.2921370262026787
1789692657948300500,12.033300537109374,-0.9165800073891878,0.289573897716403,-0.059603112569451326
1789692657958265600,12.043265625,-1.036378426267579,0.7441326059281825,-0.3369914824515581
1789692657968230400,12.05323046875,-1.2327326999515293,1.0804285073310136,-0.6005377894639968
1789692657978195500,12.063195556640625,-1.5098650492459535,1.3528858505517243,-0.7689017210036516
1789692657988160500,12.073160400390625,-1.693473896190524,1.5535685818940401,-0.8512281220346689
1789692657998125600,12.08312548828125,-1.8211346459418534,1.6648615496903656,-0.7829419367939233
1789692658008090600,12.093090576171875,-1.8717098179250955,1.7619506355673074,-0.5039116449236869
1789692658018055400,12.103055419921875,-1.7646452814787625,1.7462825263142585,-0.1411596982717514
1789692658028020700,12.113020751953124,-1.5530933655977248,1.5782067640662192,0.07920973031520843
1789692658037985500,12.122985595703126,-1.4658464592993259,1.5890753640830515,0.14142214860022068
1789692658047950600,12.13295068359375,-1.1285475913990288,1.415511525812745,0.37162791154682634
1789692658057915400,12.142915283203125,-0.4653513934481889,1.3634212730914355,0.178848500674963
1789692658067880700,12.152880615234375,-0.48239649014286695,1.4455635497272015,0.042487142595648765
1789692658077845500,12.162845458984375,-0.2294032874573022,1.3623118505448102,-0.18114216457009313
1789692658087810600,12.172810546875,0.008376856266334652,1.472780057954788,-0.5004273099392652
1789692658097775400,12.182775390625,0.03259586317837238,1.50539579487741,-0.7698176668047905
1789692658107740400,12.192740478515624,0.15614917761087416,1.4840852958232162,-1.1335510257095098
1789692658117704700,12.20270458984375,0.3531565083760768,1.4181576564073561,-1.4676695830732582
1789692658127669500,12.21266943359375,0.5203477794071659,1.2939344798892736,-1.8087474580556153
1789692658137634600,12.222634521484375,0.691637937124446,1.1632663650155066,-2.197790614783764
1789692658147599400,12.232599365234375,0.819394548465684,1.0249585490435362,-2.705976283764839
1789692658157564400,12.242564453125,0.7333049224436282,0.9543617487728595,-3.2562118729680773
1789692658167529500,12.252529541015624,0.65439329829216,0.8452133917897939,-3.8405560680001973
1789692658177494500,12.26249462890625,0.27328276119418443,0.9559738601446152,-4.530149566750228
1789692658187459600,12.27245947265625,-0.1760018790721893,1.0393991623282433,-5.10599510576725
1789692658197424400,12.28242431640625,-0.35664899013433604,1.051078494206071,-5.766544004079699
1789692658207389700,12.2923896484375,-0.6800204915016889,0.9517910215020179,-6.404286611822247
1789692658217354500,12.3023544921875,-0.8132231663543731,0.631737229847908,-7.056675000032782
1789692658227319600,12.312319580078125,-0.7168973930001259,0.35212650774121285,-7.612030416467785
1789692658237284400,12.322284423828124,-0.5795856023281812,0.07760872485935688,-8.024398334681987
1789692658247249700,12.332249755859374,-0.3502806241462007,-0.773227767509222,-8.928931930446625
1789692658257214500,12.34221435546875,-0.2954856790434569,-1.15846685577929,-9.416343691468239
1789692658267179500,12.352179443359375,-0.3266395997852087,-1.2104805361330508,-9.70804758695066
1789692658277144300,12.362144287109375,-0.3847539351016283,-0.8334539804130792,-9.769568515840172
1789692658287109600,12.372109619140625,-0.38492863408140837,-0.807239927226305,-9.848868847048282
1789692658297074400,12.382074462890625,-0.40145021835863587,0.18237550575733183,-9.964954894340037
1789692658307039500,12.39203955078125,-0.25458211584482343,0.7844190236091614,-10.089839165115356
1789692658317004500,12.402004638671874,-0.050280024961568415,1.4601649065315723,-10.134856702971458
1789692658326969600,12.411969482421876,0.22242168494164943,2.270277758845687,-10.053880547505617
1789692658336934700,12.4219345703125,0.2259259667355567,2.269393377226591,-10.050313794934748
1789692658346899500,12.4318994140625,0.3955664210170507,3.1784260379761458,-9.809995803296566
1789692658356864500,12.441864501953125,0.28890345110893245,2.9931992344409224,-9.732738376092911
1789692658366829300,12.451829345703125,0.03617489070892334,2.36592833635211,-9.51690133023858
1789692658376794600,12.461794677734375,-0.30248898193426427,1.3910562989920376,-8.944873011422157
1789692658386759400,12.471759521484374,-0.330169527477026,1.3189590310305357,-8.749944313561915
1789692658396724000,12.481723876953126,-0.6229390794295817,-1.0040975473225116,-7.81166919171512
1789692658406689000,12.49168896484375,-0.640709640854597,-1.9165332945138216,-6.983503965359926
1789692658416653800,12.50165380859375,-0.6419259578417986,-2.036708072423935,-6.7178937115550035
1789692658426619000,12.511618896484375,-0.6142156747478992,-2.78404327378571,-4.971798232245445
1789692658436584000,12.521583984375,-0.5915133560091257,-2.9189906734138726,-4.7125426081642505
1789692658446549000,12.531549072265625,-0.5330407087743282,-2.23770819915235,-3.0304899774372576
1789692658456513800,12.541513671875,-0.3899304974893108,-1.9110668458014726,-2.6273481527298688
1789692658466478800,12.551478759765626,-0.0704185210943222,-1.633439406466484,-2.5849159551918506
1789692658476444000,12.56144384765625,0.3310077318668365,-1.335183605122566,-2.7307091584831475
1789692658486409000,12.571408935546875,0.7490308262985199,-1.0872066231638193,-2.753399713718891
1789692658496374000,12.5813740234375,1.0754939735382796,-0.9709417121738195,-2.6457565006017685
1789692658506338800,12.5913388671875,1.3283762631952762,-0.9803642050355672,-2.445775780048966
1789692658516304000,12.601303955078125,1.5403537110120058,-1.0534060603708029,-2.092654416051507
1789692658526269000,12.61126904296875,1.6610756014108656,-1.1574427734285593,-1.5797744517743586
