time,seconds_elapsed,z,y,x
1789583613976308200,0.05730810546875,-0.29511750331819053,0.18689122961610555,-0.2526347446367144
1789583613986354200,0.067354248046875,-0.2674532513231039,0.19533727866113185,-0.3832905845507979
1789583613996401200,0.077401123046875,-0.24655834733247756,0.36551527388542887,-0.47085751658380026
1789583614006447000,0.087447021484375,-0.22414543999433517,0.4045557831585407,-0.5003091634523124
1789583614016493000,0.0974931640625,-0.12120879713296889,0.27754765209704635,-0.3624023294966668
1789583614026539000,0.1075390625,0.228513572075963,0.1546656610548496,-0.1479327726032585
1789583614036586000,0.1175859375,0.35325463498830795,0.21867110023647546,-0.004236614656448364
1789583614046632000,0.1276318359375,0.22984978911578655,0.23714783716946838,0.034035248331725595
1789583614056678100,0.13767822265625,0.17138590970933437,0.18653262543678284,-0.01856616878211498
1789583614066725400,0.147725341796875,0.23300328471064566,0.187613990932703,-0.11615334037430584
1789583614076771300,0.157771240234375,0.021520926934480666,0.17927607843726873,-0.18710377638824283
1789583614086817300,0.1678173828125,0.08665653918981552,0.2488829908877611,-0.4125083495981991
1789583614096863000,0.177863037109375,-0.28570670089423655,0.029307050766050814,-0.25464038537070155
1789583614106910200,0.18791015625,-0.5464683456242084,0.231609492264688,-0.3572206890750676
1789583614116956200,0.1979560546875,-0.45652036367356774,0.2172767232686281,-0.4513672186940908
1789583614127002000,0.208002197265625,-0.290659354865551,0.13734803102910517,-0.34810112468265
1789583614137049000,0.218049072265625,-0.11906126371026038,0.14615706816762686,-0.28614436165913937
1789583614147095300,0.22809521484375,0.13315759360194204,0.15566051731109617,-0.16409575270116328
1789583614157141200,0.238141357421875,0.3141992204070091,0.1714557600751519,-0.12172346865683793
1789583614167187200,0.248187255859375,0.4528466435968876,0.17903408637493848,-0.16453516703173518
1789583614177234200,0.258234130859375,0.3217991740167141,0.1177834988594055,-0.2553586166426539
1789583614187280100,0.268280029296875,0.20568623871803282,0.00680091218650341,-0.29960473173484203
1789583614197326000,0.278326171875,0.25475743587911126,-0.04290039957165718,-0.3198037624157965
1789583614207372300,0.288372314453125,0.17394786915183066,-0.012414368154108523,-0.353026963712275
1789583614217419300,0.298419189453125,0.15146832631826398,-0.03261807501018047,-0.24455270659849046
1789583614227465200,0.30846533203125,0.22662673541605471,-0.05329436781406402,-0.13031900917515157
1789583614237511200,0.31851123046875,0.12826865251660347,-0.059712125901877876,-0.10409005068019032
1789583614247558100,0.32855810546875,-0.08755144220292568,-0.0036541385933756827,-0.16149974485859273
1789583614257604000,0.33860400390625,-0.19806582684218882,0.045368250989913934,-0.23024382993467152
1789583614267650000,0.348650146484375,-0.15649989074468612,0.12315291693806647,-0.28440168271027505
1789583614277697000,0.358697021484375,0.14413374564647674,0.2767582552850246,-0.24172391291335224
1789583614287743000,0.368742919921875,0.5999123510420322,0.4365788148850202,-0.1564220762681216
1789583614297789200,0.3787890625,0.5865560258626937,0.44049248119741674,-0.12318981488235294
1789583614307835100,0.388835205078125,0.35942718614339825,0.28310616300702096,-0.21695070618465542
1789583614317882000,0.398882080078125,0.06876373962461949,0.19096184005588293,-0.344639586051926
1789583614327928000,0.408927978515625,-0.23089900590777396,0.1889864483296871,-0.3106004652626812
1789583614337974000,0.41897412109375,-0.3766489545792341,0.12435907785743475,-0.17318097643256186
1789583614348020000,0.42902001953125,-0.5206511828005314,0.055520227169990534,-0.008143339771404861
1789583614358067000,0.43906689453125,-0.5004150349795818,0.20211656353771684,0.1847016836825758
1789583614368113200,0.449113037109375,-0.3889011179089546,0.25861001965403557,0.2024321322929114
1789583614378159000,0.4591591796875,-0.422623354768753,0.17908055586516855,0.18897636532709
1789583614388206300,0.469206298828125,-0.5239256744265556,-0.001315174251794815,0.08294102579802275
1789583614398252300,0.479252197265625,-0.6377385160893202,-0.15794745920449493,-0.06801818195432424
1789583614408298200,0.48929833984375,-0.46481882094144816,-0.26394436641931535,-0.15885755978673696
1789583614418344200,0.49934423828125,-0.3582353460103273,-0.17079729616641998,-0.22867402333468198
1789583614428391200,0.50939111328125,-0.315144976824522,-0.04971124863028526,-0.23722229064516723
1789583614438437000,0.51943701171875,-0.2644394564598799,0.02963701337277889,-0.17772943351715803
1789583614448483300,0.5294833984375,-0.14901391890347004,0.15952362248003482,-0.14239545061178505
1789583614458530300,0.5395302734375,0.046644262275099754,0.25638357577621934,0.013607669591903685
1789583614468576300,0.549576171875,0.0453133059322834,0.2197360991194844,0.13872096335012465
1789583614478622200,0.559622314453125,-0.08307692713737487,0.0932581294119358,0.15243114346843212
1789583614488668200,0.569668212890625,-0.3693219726920128,0.01510550693422556,0.10946940563097596
1789583614498715100,0.579715087890625,-0.6580518207997084,-0.08387129238545894,0.034557080248743294
1789583614508761000,0.589760986328125,-0.7389590026825666,-0.1676321101337671,-0.1283304291738197
1789583614518807300,0.599807373046875,-0.4802583821356296,-0.013742694148421287,-0.3310683029476553
1789583614528854300,0.609854248046875,-0.25856384242475033,0.1889338413596153,-0.2995383154351264
1789583614538900500,0.619900390625,-0.28766309565901754,0.3547226617142558,-0.3063492010263726
1789583614548946400,0.629946533203125,-0.29237434208989144,0.3491001456573605,-0.27684834472127257
1789583614558992400,0.639992431640625,0.04837678515613079,0.3586956569984555,-0.15159845550395548
1789583614569039400,0.650039306640625,0.21927520360946653,0.2545867554873228,-0.07441350901462138
1789583614579085300,0.660085205078125,0.09143500563800334,0.15591829146444797,-0.09471201801467687
1789583614589131300,0.67013134765625,-0.1712368566274643,0.04615004901736974,-0.1210420987965539
1789583614599178200,0.68017822265625,-0.2665466578722,-0.005797872623801231,-0.10342541275899857
1789583614609224200,0.69022412109375,-0.1612766036272049,0.016472411373257636,-0.09585132424291223
1789583614619270400,0.7002705078125,-0.0662011956602335,0.0714379272699356,-0.10838986676596105
1789583614629316400,0.71031640625,-0.035191724890470504,0.02927811693251133,-0.16280078098718076
1789583614639363300,0.72036328125,-0.1021726727515459,0.039811201384663576,-0.205090537847206
1789583614649409300,0.7304091796875,-0.22131401596069333,0.07179623918831347,-0.24987094247918576
1789583614659455200,0.740455322265625,-0.3036608752578497,0.10766337912231683,-0.27481420854516325
1789583614669502200,0.750502197265625,-0.2580032859325409,0.14252864853739738,-0.2563732370452955
1789583614679548200,0.760548095703125,-0.08898585892021656,0.17367986586540937,-0.24072207892704753
1789583614689594400,0.770594482421875,0.06859948897361755,0.17611060014367103,-0.19193192719705401
1789583614699640300,0.780640380859375,0.05516542238295078,0.09637275430113076,-0.15339133027009666
1789583614709687300,0.790687255859375,-0.12565408610403536,-0.010928221249580383,-0.11312215598486364
1789583614719733200,0.800733154296875,-0.2090852335065603,-0.07930442286133765,-0.08616181447543203
1789583614729779200,0.810779296875,-0.196651868391037,-0.02711918533295393,-0.06164411687776446
1789583614739826200,0.820826171875,-0.14484920043945312,0.09222235662341118,-0.05378441635333001
1789583614749872000,0.8308720703125,-0.07396773800849914,0.13700959285497666,-0.10031053214147687
1789583614759918300,0.84091845703125,-0.11687456732094287,0.09975012177973985,-0.1018864762213081
1789583614769964300,0.85096435546875,-0.24264906493425367,0.04546148223131895,-0.1819884061358869
1789583614780011300,0.86101123046875,-0.10105448237657547,0.020202245551347732,-0.35574966667443514
1789583614790057200,0.87105712890625,0.12328209627568722,0.13954115715920926,-0.41812947741560635
1789583614800103200,0.881103271484375,0.04047580277323723,0.3188002844616771,-0.3786223735440522
1789583614810150400,0.891150390625,-0.09853285494446754,0.3320706849232316,-0.3816816149841994
1789583614820196400,0.9011962890625,-0.19744681816101073,0.2525885674074292,-0.38127493387944994
1789583614830242000,0.911241943359375,-0.1812701748639345,0.22056319759339094,-0.2551918087083846
1789583614840288300,0.921288330078125,-0.09298924934267998,0.20117431425154209,-0.15518025951348244
1789583614850335200,0.931335205078125,0.021204116070270538,0.04562748644798994,-0.09214161953739822
1789583614860381400,0.94138134765625,0.23374095133543013,-0.0033142391145229337,-0.16422113264650107
1789583614870427400,0.951427490234375,-0.14293956742584704,0.21787118203043937,-0.2618389916379005
1789583614880474400,0.961474365234375,-0.3818085292994976,0.03705050449967384,-0.4406171304903924
1789583614890520300,0.971520263671875,-0.05932020397484302,-0.47458764302283524,-0.4923964175663888
1789583614900566300,0.981566162109375,0.42481414281129837,-0.39299364791959523,-0.337893911183998
1789583614910612200,0.9916123046875,0.3625520401656627,0.20402298168092964,0.13791680736038833
1789583614920659200,1.0016591796875,0.19947861624956129,0.2576139943540096,0.29153224697625263
1789583614930705400,1.011705322265625,-0.232749017688632,0.15948592081815002,0.1631659427714534
1789583614940751400,1.02175146484375,-0.2978957358598709,0.05797609588950872,-0.017845599422603844
1789583614950798300,1.03179833984375,-0.37949616070389747,-0.06337210971415043,-0.13817029806426726
1789583614960844300,1.04184423828125,-0.6174053376346826,-0.19276245973706244,-0.28566839644415304
1789583614970890200,1.05189013671875,-0.9199427618205547,-0.2516325818568468,-0.4068246048733592
1789583614980936200,1.061936279296875,-0.9504512973308563,-0.13778583792448043,-0.44728294505514204
1789583614990983200,1.071983154296875,-0.5983101765424013,0.1007657285630703,-0.3496136846700683
1789583615001029400,1.082029296875,-0.0006008885025978088,0.11093524039983749,-0.12936176324924453
1789583615011075300,1.092075439453125,0.18164777600467205,-0.010521686275303364,0.13237088193735108
1789583615021122300,1.102122314453125,0.2716752529323101,-0.20654314780831337,0.24944208607524632
1789583615031168300,1.112168212890625,-0.061461892178654665,-0.32202187685668465,0.08353921088688075
1789583615041214200,1.122214111328125,-0.44299511166810984,-0.18711480923891066,-0.13312276888373306
1789583615051260200,1.13226025390625,-0.3146779438346624,-0.22277152129262684,-0.09629712264849803
1789583615061307100,1.14230712890625,-0.30513737755119796,-0.4476271553829312,0.0561885959848063
1789583615071353000,1.15235302734375,-0.8353121755003928,-0.48119215585440395,-0.2794002394274808
1789583615081399300,1.1623994140625,-0.5033358908623456,-0.49056233400702476,-0.631961467057839
1789583615091446300,1.1724462890625,0.2914800235986709,-0.2720882176473737,-1.2225146727979181
1789583615101492200,1.1824921875,0.30104455527961255,-0.057441550621390336,-1.9843528851561247
1789583615111538200,1.1925380859375,-0.6930296106785535,0.13553104473501443,-2.5569632416442034
1789583615121584000,1.202584228515625,-2.3668881212949753,0.5374225771203637,-1.281789722456783
1789583615131631400,1.21263134765625,-2.4315309815973043,2.0131258290454745,1.5991374700225889
1789583615141677300,1.22267724609375,-1.5695055712163448,2.283983628115058,2.1150782831750807
1789583615151723300,1.23272314453125,-0.31928046919405456,0.11395984891802072,0.9313331937544047
1789583615161770200,1.242770263671875,0.771133425578475,-1.7995654959514735,-0.26919319032561034
1789583615171816400,1.25281640625,1.2501947068840265,-1.7520581871062517,-0.695547950175032
1789583615181862400,1.2628623046875,1.4266554356396197,-0.7765484363645315,-0.5630106073632836
1789583615191908400,1.272908447265625,0.8781886096745729,-0.27983137912005185,-0.3667655662074685
1789583615201955300,1.282955322265625,0.37253918117284773,-0.2656704595595598,-0.34205373427718877
1789583615212001300,1.293001220703125,0.42673020556569097,0.0017749007180333136,-0.15783563286047428
1789583615222047200,1.303047119140625,0.8349246374875307,0.38476299519091844,0.01584722867961973
1789583615232094200,1.31309423828125,1.1537141082942486,0.27903759839385744,0.01867498118514195
1789583615242140400,1.323140380859375,1.001301194602251,-0.04883475805670023,-0.09292807547366246
1789583615252186400,1.333186279296875,0.8128899158120155,-0.3438450016081333,-0.4733394695926457
1789583615262232300,1.343232421875,0.12121230426430701,-0.12616875762790442,-0.4392483263552189
1789583615272279300,1.353279296875,-0.9251058436721563,0.3909899068817496,-0.5133409328524023
1789583615282325200,1.3633251953125,-0.8542109372377396,0.14744973832666874,-0.9076442751310765
1789583615292371200,1.37337109375,-0.8978174392521381,-0.28982027369290586,-1.3293332716591655
1789583615302418200,1.383418212890625,-0.38406069214046,-0.2790893285810947,-1.5313586497820912
1789583615312464100,1.393464111328125,-0.0010375263541936874,-0.17010522224903105,-1.5156164523795246
1789583615322510300,1.40351025390625,-0.011895020455121993,-0.2648854466617107,-1.4229555582083762
1789583615332556300,1.413556396484375,-0.1569230845928192,0.16188187604397533,-1.1615320155035704
1789583615342603300,1.423603271484375,0.3237368640810251,-0.5724871684998274,-1.272385495904088
1789583615352649200,1.433649169921875,0.5387058949291705,-0.7047963285788893,-1.468374370341748
1789583615362695200,1.443695068359375,0.4296346948355436,-1.0570563995718956,-1.6715876430749892
1789583615372742100,1.4537421875,0.3891846110254526,-1.8286881300613282,-1.6091604129955173
1789583615382788000,1.4637880859375,0.2160620867818594,-2.1868819750174877,-1.3070365380465983
1789583615392834300,1.473834228515625,-0.32012861045598984,-2.389980827590823,-1.1379492606684565
1789583615402880000,1.4838798828125,-1.2575859861791132,-2.4143255797743794,-1.1840632154591382
1789583615412926000,1.493926025390625,-2.331142269653082,-2.4493302576601503,-1.1051673733986913
1789583615422972000,1.503971923828125,-2.797052392962575,-2.4295552976101638,-1.098576158440113
1789583615433019000,1.514018798828125,-2.689531344920397,-2.6561668354570864,-0.9053953271605074
1789583615443064800,1.52406494140625,-1.8276053032606838,-3.5080870314091444,-0.870686417350918
1789583615453111000,1.534111083984375,-0.7924439246326684,-4.715785827869176,-0.7820403117790817
1789583615463158000,1.544157958984375,-1.06320264724195,-5.0757127802282564,-0.7492880889952183
1789583615473204000,1.554203857421875,-2.306839018523693,-4.513514366030693,-0.3874833600655198
1789583615483250000,1.56425,-2.999434913960099,-3.376408862709999,0.2749441916003823
1789583615493295900,1.5742958984375,-4.012423623746633,-2.424466450038552,0.5460913290053606
1789583615503342800,1.5843427734375,-4.729232169419527,-2.4753286222696302,0.4995239313587546
1789583615513388800,1.594388916015625,-4.247929246667027,-2.937526154796779,0.23611001855432986
1789583615523434800,1.604434814453125,-2.9979215867877005,-2.6639152576267717,-0.14392857846319673
1789583615533482000,1.61448193359375,-1.8090040631651878,-2.966821515125036,0.4550935457408428
1789583615543528200,1.624528076171875,-0.9010556905210018,-2.83529356855154,0.6252659880071878
1789583615553574100,1.63457421875,-0.23343933804035186,-2.626817991375923,0.9258782893493771
1789583615563620000,1.6446201171875,0.023496610921621322,-2.4733032539218662,1.48300597615391
1789583615573667000,1.6546669921875,-0.6020014322757721,-2.930357578341663,2.3747274366185067
1789583615583713000,1.664713134765625,-1.8015671911627054,-3.89255659661144,3.5271693330198524
1789583615593759000,1.674759033203125,-2.6324627192646264,-4.17774511885047,3.5197540883272884
1789583615603806000,1.684805908203125,-4.7564942703545094,-3.835992413346469,2.755958750551939
1789583615613852000,1.694851806640625,-4.582185751196742,-3.4447616834461687,2.2328005533665416
1789583615623898000,1.704898193359375,-0.2226180842965841,-2.4601339757472274,2.709493351975083
1789583615633944000,1.714944091796875,-0.07040916874408722,-2.0013070886969566,2.504353056702018
1789583615643991000,1.724990966796875,-2.1655589087426663,-2.636006675481796,2.2711183013230563
1789583615654037000,1.735037109375,-2.701334595438838,-2.9133956298857924,2.2796967445760963
1789583615664083000,1.7450830078125,-2.4100223296225067,-2.635567407281697,2.363695462733507
1789583615674130000,1.7551298828125,-1.0133242253512142,-1.4240782786279915,2.5097984626263377
1789583615684176000,1.76517578125,-0.8123135772287845,0.6722852210745215,0.5802993035554885
1789583615694222000,1.77522216796875,0.655489861357212,0.19857903706133365,2.4536457827717064
1789583615704268000,1.78526806640625,2.3168676605850456,-0.22765695524662732,4.474980929496884
1789583615714315000,1.79531494140625,2.7641847271054982,1.1446737466178833,3.57786491651237
1789583615724361000,1.80536083984375,3.5955870356857775,1.7824333054952322,3.847070564460754
1789583615734407000,1.815406982421875,3.370520389193296,2.329036821806431,3.976295494788885
1789583615744454000,1.825453857421875,3.0821289792597293,1.759989272366464,3.211489518666267
1789583615754499800,1.835499755859375,1.5700246266543865,2.4329808881446717,4.174441401129961
1789583615764545800,1.8455458984375,1.0696487546414137,3.7412799934729932,5.686145940762758
1789583615774592800,1.8555927734375,2.1295593746006487,4.473460295800864,6.060780632910132
1789583615784639000,1.865638916015625,1.898266400939226,1.6169338234759867,3.1241379829496143
1789583615794685000,1.875684814453125,-0.391662399315834,0.8966456920590251,1.8322405618458986
1789583615804731000,1.88573095703125,-0.32554157541543244,2.320462762467563,1.170778055819869
1789583615814778000,1.895778076171875,1.5117685447797178,2.036818985452503,0.9337088368445634
1789583615824824000,1.905823974609375,2.4582971157088873,0.8862845301076769,1.2859452347010374
1789583615834870000,1.9158701171875,4.148502950014174,-0.08161269980370998,1.292678342348337
1789583615844917000,1.9259169921875,5.600080353203415,-1.0440426042199134,1.0837076751321553
1789583615854963000,1.935962890625,5.753696797466278,-2.1173492968469856,-0.13987959533333777
1789583615865009200,1.946009033203125,5.007928699290752,-2.8424098302975294,-1.5242852042645214
1789583615875055000,1.95605517578125,3.7303824596226214,-4.348897219803929,-4.036892879092693
1789583615885102000,1.96610205078125,4.0254374190986155,-4.054408077517151,-4.102891245657205
1789583615895148000,1.97614794921875,2.5095307516008614,-5.334932456213235,-5.730412952512502
1789583615905194000,1.986194091796875,1.0242577072978019,-4.895620709232985,-6.667847531881928
1789583615915241000,1.996240966796875,-0.016640315286070108,-3.95944548227489,-7.707414451992511
1789583615925287000,2.006286865234375,-1.7051010594896971,-3.1154578328877687,-8.935014465230703
1789583615935333000,2.0163330078125,-1.4966522241905331,-2.6227012037068604,-9.225720581847428
1789583615945379000,2.026379150390625,-1.369472974345833,-2.333281035247445,-9.039341685667633
1789583615955426000,2.036426025390625,-0.8838517500028014,-2.3885177693009374,-8.789299587872623
1789583615965472000,2.046471923828125,0.0936186332874,-2.8811119013965127,-8.718281931841373
1789583615975518000,2.05651806640625,0.022265023300051687,-3.4974539937138553,-8.930736349520087
1789583615985565000,2.06656494140625,0.1910758218243718,-3.305958192911744,-8.520009768772125
1789583615995611000,2.07661083984375,-0.3065624419182539,-2.536161568894982,-8.044398335659503
1789583616005656800,2.08665673828125,-1.656557831725478,-2.5308026722103354,-10.055088169729709
1789583616015703000,2.096703125,0.77931147133708,-0.8178308793455362,-7.580792397639155
1789583616025750000,2.10675,-1.0201187077969311,0.05669511616826057,-7.643190693885088
1789583616035796000,2.1167958984375,-2.14059748596549,0.5678256064295768,-6.788132199907302
1789583616045842000,2.126842041015625,-0.70100921125561,1.3686486523509025,-2.923928714337945
1789583616055889000,2.136888916015625,-0.010959785431623459,-0.2579711372286081,-2.0235738655626774
1789583616065934800,2.146934814453125,1.5764900232762098,-2.3801994382888076,-2.561537417691946
1789583616075980800,2.156980712890625,2.5533888902887703,-2.947274518612027,-2.6050018808871505
1789583616086027000,2.167027099609375,2.6607693608164786,-2.835085478758812,-1.7180290762543677
1789583616096074000,2.177073974609375,2.3575883780300617,-2.656320564714074,-0.6973918975412845
1789583616106120000,2.187119873046875,1.9786957361772655,-2.35725578507483,-0.7216887189298867
1789583616116166000,2.197165771484375,2.9406062928944823,-1.3479799583315848,-0.8124708136171102
1789583616126213000,2.207213134765625,2.7032977122053503,-0.5943056170761585,-0.15400573584139346
1789583616136259000,2.217259033203125,1.3654945722341536,0.7278273678153753,0.766478293249011
1789583616146305000,2.227304931640625,1.3598863769635556,2.518395610579848,0.6621849750816822
1789583616156351000,2.23735107421875,0.7104717438668012,3.1129122400581837,0.5564367819309234
1789583616166398000,2.24739794921875,0.307172098249197,2.366411151432991,0.5779647231280803
1789583616176444200,2.257444091796875,-0.38536885212957855,1.7453484603345393,0.5003033912986516
1789583616186490000,2.267489990234375,-0.40345454391837116,2.6691508201926943,0.17380466128885744
1789583616196537000,2.277537109375,-2.1120418380886314,3.819458919435739,0.03352934463620186
1789583616206583000,2.2875830078125,-2.734101139008999,3.573552314010262,0.16981822200119495
1789583616216629000,2.29762890625,-3.34580154300034,1.0854998192459344,-0.48230596231520173
1789583616226676000,2.307676025390625,-3.0270600029885766,-1.8604566025048492,-0.8621867384225129
1789583616236722000,2.317721923828125,-1.8154685830041766,-2.301400626862049,-0.4099094191461801
1789583616246767900,2.327767822265625,-0.8696367621675133,-1.5002286213725804,-0.4224129268884659
1789583616256814000,2.33781396484375,0.23501637809872625,-2.6647142990499733,-1.2445680991739034
1789583616266861000,2.347861083984375,1.173683714133501,-1.9994354496061801,-0.26633096929490563
1789583616276907000,2.357906982421875,-1.6929723764091729,-2.5214129125744105,0.28469313993752
1789583616286953000,2.367952880859375,-5.310527498275041,-2.6823212674111128,0.17765256888866424
1789583616297000000,2.378,-3.5590538330584764,0.6250897546574473,2.366498245194554
1789583616307046000,2.3880458984375,-0.7964537447959185,3.642011517730355,4.897036713510752
1789583616317091800,2.398091796875,4.334454268431664,7.714220624876022,7.817922406890988
1789583616327138000,2.408137939453125,0.47199411939829583,10.982678815954923,6.890458601915836
1789583616337185000,2.41818505859375,-3.2918501725822686,5.052962603759766,2.3825369413256645
1789583616347231000,2.42823095703125,-0.9337176046729088,-0.7701628269806504,1.6298445968449116
1789583616357277000,2.43827685546875,1.2976380105823277,-1.216791326715052,2.8526871864229437
1789583616367324000,2.448323974609375,0.5412694618068635,-0.24133126033395527,2.7650451433271166
1789583616377369900,2.458369873046875,-4.155355007866024,0.013367431095242499,0.9719891754001379
1789583616387415800,2.468415771484375,-7.537947527647018,0.7271215576335788,0.5794365492463112
1789583616397462000,2.4784619140625,-5.26459518366158,2.594909233678877,0.48206221668720245
1789583616407508700,2.4885087890625,0.5304138674020767,0.6050058747887611,0.7580114936769008
1789583616417555000,2.498554931640625,1.2730799079090356,-3.8784240263625978,-0.30783669963777066
1789583616427601000,2.508600830078125,0.6767875009298324,-4.553998352110385,-2.1280922246575353
1789583616437648000,2.51864794921875,0.66017480430305,-2.762695073069632,-3.148236651417613
1789583616447693800,2.52869384765625,0.007902078361436724,-0.1315565881460905,-3.089220398825407
1789583616457739800,2.53873974609375,0.5720299993168563,0.4141398963227868,-3.7851083215445276
1789583616467786800,2.548786865234375,2.5269787300080058,-0.8442220426648854,-4.275117697843909
1789583616477832700,2.558832763671875,1.5764479377001523,-1.4436945409849284,-4.384048612684011
1789583616487879000,2.56887890625,1.3097721004903315,-2.2866177760109303,-4.045817943826318
1789583616497924900,2.5789248046875,1.7919792786061763,-2.3634461641475557,-4.160603429913521
1789583616507972000,2.58897216796875,0.8484837917625904,-1.8582801352486014,-4.66932101381421
1789583616518018000,2.59901806640625,-2.079733559679985,-0.6593108809500933,-4.272946199023723
1789583616528064000,2.60906396484375,-4.055902699989081,2.46635913387239,-2.789761651432514
1789583616538111000,2.619111083984375,-3.718351830089092,3.258523364780843,-1.3505033393293617
1789583616548157000,2.629156982421875,-2.912251720547676,2.9060101958096025,0.13249006960391999
1789583616558203000,2.639202880859375,-0.6274211202144623,2.7898715415477753,1.3587807538092136
1789583616568249000,2.6492490234375,-1.0196084201872349,3.102428255444765,2.2352976308792827
1789583616578296000,2.659296142578125,-1.7850713989138602,2.719950740842521,2.1573837855935096
1789583616588342000,2.669342041015625,-1.6579297046005725,2.6258897706151005,2.533005150690675
1789583616598388000,2.679387939453125,-0.6988941187977791,3.175474494694173,3.470838958510756
1789583616608435000,2.68943505859375,0.4006605292856693,3.1344281985566016,4.077198585996031
1789583616618481000,2.69948095703125,1.1997557285010814,3.0389345651775597,4.978841136494278
1789583616628526800,2.70952685546875,1.5554887363016605,2.2731102057926353,6.044257952654362
1789583616638573800,2.71957373046875,0.8484007896542549,0.11741641911268233,6.188784497010707
1789583616648619800,2.729619873046875,-1.0454373465139417,-1.8000712535165249,4.899374801069498
1789583616658666000,2.739666015625,0.5927730737466365,-1.4795013290338217,2.7230834859102964
1789583616668712000,2.7497119140625,1.7922879061639307,-0.8860518903955816,0.611930705615878
1789583616678759000,2.759759033203125,-0.06262107215113938,-2.061370804515481,-0.4263578651219606
1789583616688804900,2.769804931640625,1.4349591536045074,-3.2912183044195173,-0.8211626541167497
1789583616698850800,2.779850830078125,0.9378853918768465,-1.798921352829039,-1.2897744376003741
1789583616708897800,2.789897705078125,-0.5786065281629562,0.5375742605507373,-1.0293787035733462
1789583616718943700,2.79994384765625,-0.0538052399456501,1.5434557686805723,-0.6833803233236074
1789583616728990000,2.809989990234375,0.6198621562022716,2.747123994450271,-0.2920873418420553
1789583616739036000,2.820035888671875,1.3787022827230393,1.9807177435241639,-0.28758593876957894
1789583616749083000,2.830082763671875,1.5281366189956664,0.5092771174795925,-1.3908417794585226
1789583616759128800,2.84012890625,1.9194528352223335,-1.2589141660429537,-1.5693343063026666
1789583616769174800,2.8501748046875,1.5901438700973987,-3.0069962891250848,-0.6539554913967848
1789583616779222000,2.860221923828125,0.6345708458386361,-2.840415149348974,0.00670505059659481
1789583616789268000,2.87026806640625,-0.4350396956842392,-0.4606758759178221,0.01567453899383545
1789583616799313700,2.880313720703125,-0.593373889183998,0.25568141885623336,-0.08248656002879143
1789583616809360000,2.89035986328125,-0.8593206814669072,0.758977123838663,-0.5391571458280087
1789583616819407000,2.900406982421875,0.11571312232613563,0.22964345288872717,-0.463012063780427
1789583616829453000,2.910453125,1.1591082224227487,0.38073096319586036,-0.33937750080525875
1789583616839499000,2.9204990234375,-0.9902630832374095,2.8237264648765326,0.4114356058001518
1789583616849546000,2.9305458984375,-0.5860708726942538,3.9287867246389387,0.18943711470663546
1789583616859592000,2.940592041015625,-0.9298375483691692,7.7682170034796,0.38642800579369063
1789583616869638000,2.950637939453125,0.12631766457930207,10.070666847133635,-0.28541443994939325
1789583616879684900,2.960684814453125,-0.818287244810909,4.9051831950873135,-1.6216396630793808
1789583616889730800,2.970730712890625,2.3420295743703843,-6.050504153567553,-3.351111924368143
1789583616899777000,2.980777099609375,10.44617539950609,-10.725242516255378,-0.9212912538200616
1789583616909823000,2.990822998046875,-1.1354384468913077,-2.0090634019121527,1.9399673615932465
1789583616919870000,3.000869873046875,-2.375376694307476,-3.2267277120694517,2.639016963213682
1789583616929916000,3.010916015625,-2.093942263904959,-5.57724366749525,2.7913024511337277
1789583616939961900,3.0209619140625,-4.855049337130785,-5.10345828076601,3.168077662441134
1789583616950008800,3.0310087890625,-2.67106162225008,-4.572794237995147,2.4977491283923388
1789583616960054800,3.0410546875,-1.1620366770900785,-2.945082561525702,1.3171312310814858
1789583616970101000,3.05110107421875,-0.03203559894710779,-1.651484035592526,1.0595967317044734
1789583616980147000,3.06114697265625,1.0605269982919097,-0.41932387483194467,0.6074930154293775
1789583616990194000,3.07119384765625,1.7552584444522856,3.453963227033615,1.0446019916683436
1789583617000239900,3.081239990234375,1.8113374745488167,1.7033558232575654,0.7835258741617203
1789583617010285800,3.091285888671875,2.4134746620334684,-0.529238393881917,1.0890151338905096
1789583617020332800,3.101332763671875,1.4737044793233274,-1.7667749869838356,0.4179723140925169
1789583617030378800,3.111378662109375,-0.18587167731001972,-2.3881489359885455,-1.0438520500838755
1789583617040424700,3.1214248046875,-0.7043569142483175,-2.452925944064557,-1.493416603270173
1789583617050471000,3.131470947265625,-0.44429041217565535,-2.3389015054777262,-1.0314514181941747
1789583617060518000,3.141517822265625,-0.29774814408272504,-1.8336863767400382,0.2771680051296949
1789583617070563800,3.151563720703125,-0.571755785485357,-1.4370198855265974,1.3244541213154792
1789583617080609800,3.16160986328125,-0.22589798275008796,-1.3305264269664883,0.643809360435605
1789583617090657000,3.171656982421875,-0.6588790654040872,-0.5728988180406391,0.21711831783652305
1789583617100703000,3.181702880859375,-2.0853027381144464,0.667279521741718,0.8184586558550596
1789583617110749000,3.1917490234375,-4.035042282789945,2.128147461976111,1.30444126085639
1789583617120795100,3.201795166015625,-4.205582389324904,2.9628856369808316,1.06902156265378
1789583617130841900,3.211841796875,-5.072784910082817,3.4727740182265636,0.06854454391598701
1789583617140888000,3.22188818359375,-7.174084989404678,1.5771673380158842,-1.8653034580141306
1789583617150934000,3.23193408203125,-3.268922301459312,-2.603677062024176,-2.382373275196552
1789583617160981000,3.24198095703125,-1.053036642536521,-5.8759776077449315,-2.0949048253268003
1789583617171027000,3.25202685546875,-1.8094407010167837,-7.019767703396082,-0.8403998540282249
1789583617181073000,3.262072998046875,-0.2787051515690982,-6.519311167362332,0.508227170035243
1789583617191118800,3.272118896484375,1.0827201253995298,-5.077742824751138,0.54879649631083
1789583617201165800,3.282165771484375,0.1389212716951966,-2.8423505013257264,-1.9236568627834318
1789583617211212000,3.2922119140625,0.6089513975441455,-1.5212446675248443,-3.0747640034496784
1789583617221258000,3.302258056640625,2.0002385826826092,-0.9714647131346166,-2.5303157654762267
1789583617231305000,3.312304931640625,1.3075912493199109,-0.43234804544746874,-2.3756413365930316
1789583617241351000,3.322350830078125,1.737366813930869,0.21777722013667225,-1.9956483322829006
1789583617251396900,3.33239697265625,2.9683892028331753,0.6103621411249042,-3.3333594100564716
1789583617261442800,3.34244287109375,2.9455858348727224,1.9124008708842097,0.6298240897029638
1789583617271489800,3.35248974609375,1.2156114692807196,1.097573557268828,0.6272597921729087
1789583617281535700,3.36253564453125,0.09011749329864978,-0.7994305686496198,-0.3304091814517975
1789583617291582000,3.37258203125,1.2220277660638093,-1.4270622628748415,1.3585603890568017
1789583617301629000,3.38262890625,3.140118226891756,-1.3244798402786253,1.5740461372554302
1789583617311675000,3.3926748046875,1.6037117922008037,-2.0254634787015617,1.529161285868287
1789583617321720800,3.402720947265625,1.9754969401359557,-2.0729500370197,1.7246674913555382
1789583617331766800,3.412766845703125,1.2614251259505749,-1.9910418614007532,0.8858587059110402
1789583617341813800,3.422813720703125,0.6715069301784038,-1.881465634394437,-0.03215279558598995
1789583617351859700,3.432859619140625,0.06085106680393219,-1.5013041416496038,0.44420741006731984
1789583617361906000,3.442906005859375,-1.3421692262262106,-1.5950065076977014,-0.21859540465176105
1789583617371953000,3.452952880859375,-4.145674740850925,-1.7573982329599558,-2.1208312937438487
1789583617381999000,3.4629990234375,-6.137284026876092,-1.490110255201161,-2.5677163985878226
1789583617392044800,3.473044921875,-7.453456642058491,-0.6469983657352626,-1.455596283441782
1789583617402090500,3.483090576171875,-6.829561357882619,0.3444321538463235,-0.36370997802913185
1789583617412137500,3.493137451171875,-5.621677267983555,0.3017917203851044,-0.7032885543644428
1789583617422183400,3.503183349609375,-3.2011563407003876,-0.31558190693706273,0.05227320807278156
1789583617432229600,3.513229736328125,-0.010362404060363768,-1.3036803594864903,1.4252467378854752
1789583617442276400,3.5232763671875,1.7327444148272275,-2.613714764174819,2.510965752840042
1789583617452322600,3.533322509765625,2.8486878876537083,-1.9957962163209915,3.2536534206569194
1789583617462368500,3.543368408203125,2.7319524365425107,-0.006491407845914363,3.682469200325012
1789583617472414500,3.55341455078125,1.826187837678194,0.984156290794909,3.483203934565186
1789583617482461400,3.56346142578125,1.7866770805448293,1.9513162924729286,3.8111616312116383
1789583617492507400,3.57350732421875,2.092673120751977,3.071726827710867,4.238215661904215
1789583617502553300,3.58355322265625,1.7642741100788115,2.850902056571841,4.110172634837031
1789583617512600300,3.593600341796875,1.7514450236439705,0.6899201003558934,3.1346991244524713
1789583617522646500,3.603646484375,0.4883604400485754,-0.33268677099496125,1.883515991052985
1789583617532692500,3.6136923828125,-2.6102146470993755,-0.4824018239051103,0.026660627910494804
1789583617542738400,3.623738525390625,-3.690251524764299,0.47833442833572626,-1.5760188986331223
1789583617552785400,3.633785400390625,-3.1533167311608787,1.1536363668829202,-1.4122598305404186
1789583617562831400,3.643831298828125,-2.2288766579210755,0.647892684226483,-1.1113228272885083
1789583617572877300,3.653877197265625,-2.156797510138154,0.26037133023813364,-0.7632318586736917
1789583617582924300,3.66392431640625,-0.8622171335607767,0.12027911506742238,0.1992518217563629
1789583617592970500,3.673970458984375,2.125619697064161,0.8311500873848795,2.179746424049139
1789583617603016400,3.684016357421875,3.2520886555582282,1.0715154252961276,4.666949608507752
1789583617613062400,3.6940625,1.9664649078965186,0.04147358163893223,5.132829336678982
1789583617623109600,3.704109619140625,1.735156736665964,-0.7295236503392457,4.083797838130593
1789583617633155600,3.714155517578125,0.36446108865737914,-0.8740069400757551,2.15249659807384
1789583617643201500,3.724201416015625,-0.5315571922183037,-0.20667758784294127,-0.526823149433732
1789583617653248500,3.73424853515625,-0.3131704618811607,0.8410086335763335,-2.075744782304764
1789583617663294500,3.74429443359375,-0.39525340954512356,2.4016423315510154,-3.4028666615247722
1789583617673340700,3.754340576171875,3.044907794368267,3.986492771415412,-0.2139268283188343
1789583617683386600,3.76438671875,3.1359207752019165,2.1534259878784416,7.44390964603424
1789583617693433600,3.77443359375,2.6296611058473585,0.3418596730098128,6.897592107057571
1789583617703479600,3.7844794921875,2.884485761743784,2.1543638532504437,5.9999734052479266
1789583617713525500,3.794525390625,0.39691958919167514,0.8848691103518008,4.40490201562047
1789583617723572500,3.804572509765625,-0.2353723519295454,1.6631205512419343,0.1399906544923782
1789583617733618400,3.814618408203125,-2.942035448914766,5.035024796009063,-1.7283435495197772
1789583617743664400,3.824664306640625,-5.119672333464026,5.3028737686514855,-1.140654720234871
1789583617753710600,3.834710693359375,-5.804371338170767,3.5424060651183127,-1.0999082838267087
1789583617763757600,3.844757568359375,-5.542402071216702,2.400333879300952,-1.5108926387280226
1789583617773803500,3.854803466796875,-4.98102140314281,0.3282236541062593,-1.3144763326585291
1789583617783849500,3.864849365234375,-2.3276257859647274,-1.1195230848789215,-0.6789578307062387
1789583617793895400,3.8748955078125,3.078504943543672,9.994815779596566,6.453470037186145
1789583617803942400,3.8849423828125,2.3692612801671027,7.129735560068488,15.104863960146902
1789583617813988400,3.89498828125,0.3349171603955328,-0.9816092366605996,8.6799957480669
1789583617824034600,3.90503466796875,2.543528298270702,-5.627552297496796,4.478671016186476
1789583617834081500,3.91508154296875,0.2931467877671122,-6.129611008030176,1.4305220479398966
1789583617844127500,3.92512744140625,-0.8838628559187054,-5.206382064145803,-1.9748446137070654
1789583617854173400,3.93517333984375,-2.7660321085378525,-6.660057024136186,-3.9757016205489633
1789583617864219400,3.945219482421875,2.81924522780925,-6.524121197992563,-2.370527354580164
1789583617874266400,3.955266357421875,-2.4199136090397833,-6.599178484803438,-0.11934241873919964
1789583617884312300,3.965312255859375,-9.720791333189606,-4.485218830394745,-0.46439036639630793
1789583617894358300,3.975358154296875,-8.54103677470982,-2.549658763849735,-4.577292133936286
1789583617904405500,3.985405517578125,-7.212234395056963,-1.3289800743073223,-7.468950563788414
1789583617914451700,3.99545166015625,-5.426719344028831,-0.7431435948908328,-7.061821130749583
1789583617924497400,4.005497314453125,-4.083626573216915,-2.0369921500623227,-6.0339434793889515
1789583617934543400,4.01554345703125,-3.770918468150496,-2.9132050757497545,-3.7852731567174196
1789583617944590600,4.025590576171875,-2.3673867184668778,-3.8728421345770356,-0.5856506014555692
1789583617954636500,4.035636474609375,0.3258341286212206,-4.451706436893343,2.3768787694334983
1789583617964682500,4.0456826171875,2.413123218247294,-2.553998838880658,4.502425401261449
1789583617974729500,4.0557294921875,2.5520459512472153,0.10076865117251872,5.298372950100898
1789583617984775400,4.065775390625,2.2068962967813013,1.3538129022687673,4.108223838856816
1789583617994821600,4.075821533203125,2.313597845134139,2.2403519916594026,2.864695604124665
1789583618004867600,4.08586767578125,2.078103912651539,2.5846435679912565,2.0131202760875224
1789583618014914600,4.09591455078125,0.9644365680634975,1.2597598230868576,0.7445885330021381
1789583618024960500,4.10596044921875,0.6492150188714265,-0.6646914049446583,-0.7238157940864562
1789583618035006500,4.11600634765625,1.3246961133778095,-1.9395213713914154,-1.928477414807677
1789583618045052400,4.126052490234375,1.4420178399443626,-2.7087784817039964,-3.837143629208207
1789583618055099400,4.136099365234375,0.09707213474214077,-3.801856042727828,-6.497333144310116
1789583618065145600,4.1461455078125,-2.1181442466169593,-4.452466899871826,-8.44694745517075
1789583618075191600,4.156191650390625,-4.305513420629501,-4.414461286604404,-10.112001897084712
1789583618085238500,4.166238525390625,-5.430194911184906,-1.4683172333270311,-9.658554364985227
1789583618095284500,4.176284423828125,-5.644859990650415,3.1287723647519945,-7.074103689217567
1789583618105330400,4.186330322265625,-6.448909012880921,6.3509180097281925,-5.40704492174387
1789583618115376400,4.19637646484375,-7.570064082875847,7.067908926230668,-3.7255630766421555
1789583618125423400,4.20642333984375,-5.329155626377463,6.739768858754634,6.988628468766808
1789583618135469300,4.21646923828125,1.4320909046918153,-0.4768225624680519,7.52962627402544
1789583618145515500,4.226515625,-1.5063555798202752,-8.36209182792306,4.236005000117421
1789583618155562500,4.2365625,-5.1577849142372605,-8.437294660684465,3.5750919446676965
1789583618165608400,4.2466083984375,-0.38568537073284387,-3.1555148257270456,-2.8142320758223534
1789583618175654400,4.256654296875,0.8310080485656857,4.065326654155552,-4.150184327229857
1789583618185700400,4.266700439453125,-1.4410010641172528,6.005789398050308,-0.43185996966958046
1789583618195747300,4.276747314453125,-2.4954814757212995,2.7555922553271053,1.9501281056016682
1789583618205793300,4.286793212890625,-1.052943411295116,0.6656102733552456,3.5751503968566656
1789583618215839500,4.296839599609375,1.01041359860152,0.8786270010918378,5.414146278181672
1789583618225886500,4.306886474609375,1.6942109782934187,-0.1618909361332655,6.266050107520818
1789583618235932700,4.3169326171875,-0.12166969264298677,-1.7718547744661568,3.4563843167006967
1789583618245978600,4.326978515625,-3.1316850373283027,0.5694289499729871,-0.8575900582820176
1789583618256024600,4.337024658203125,-4.241118689869344,3.721061381308734,-3.2494074536502358
1789583618266071600,4.347071533203125,-6.26159020550251,5.863038631194829,-8.483734340298176
1789583618276117500,4.357117431640625,-1.6976316003918648,9.247994372975826,-8.729695890781283
1789583618286163500,4.36716357421875,0.11564049548134207,7.387091780269145,-5.128839390259981
1789583618296209700,4.377209716796875,0.39763387494087216,6.417195193234086,-2.3151304615288972
1789583618306256600,4.387256591796875,4.919100076758861,5.995941373252868,1.2779501442939043
1789583618316302600,4.397302490234375,11.18095331711173,3.660033496633172,5.686268105837702
1789583618326348500,4.4073486328125,11.965019289499521,0.024829320830106735,9.102802058187127
1789583618336395500,4.4173955078125,2.0766928768098354,-2.490197690099478,9.676589787891507
1789583618346441500,4.42744140625,-9.298665406548976,-2.7619237964361902,7.958086664384603
1789583618356487400,4.4374873046875,-4.090609271711111,-7.621020947653054,9.13748583355546
1789583618366533600,4.44753369140625,0.14710896206498145,-11.751154420500994,9.367655940666793
1789583618376580400,4.457580322265625,-1.5640978669539094,-9.241641204556823,5.501778384405374
1789583618386626600,4.46762646484375,-1.737091942512244,-3.7998707141295074,1.727724540838599
1789583618396673300,4.47767333984375,-1.2431491722866892,-0.9472294126749038,-0.7636445311278104
1789583618406720300,4.48772021484375,0.39733723008185623,-2.449536301626265,-2.3754081123590467
1789583618416766200,4.49776611328125,3.303478066533804,-5.403482260826229,-2.815025272026658
1789583618426812200,4.507812255859375,3.777022630244493,-4.22142234801352,-1.599947471231222
1789583618436858000,4.517858154296875,0.22217340926900506,-0.48250499201864,-2.297361580604315
1789583618446905000,4.527905029296875,-1.2238882992386817,0.24469123828634617,-3.236297796708345
1789583618456951000,4.537950927734375,0.04226224779859185,-0.6991755660876632,-2.0224398930966854
1789583618466997200,4.547997314453125,-0.34273791714906693,-1.1044394975155591,-0.26435703887343404
1789583618477044200,4.558044189453125,-1.18870797252506,0.15010186027064917,0.3629869244515896
1789583618487090200,4.568090087890625,-0.8181120343744754,1.0780782909430562,0.7043669972509146
1789583618497136000,4.57813623046875,-0.8874608804106712,-0.025181933660060166,1.2660393417477607
1789583618507182000,4.58818212890625,-0.7600048594512044,0.07104191368967294,0.9212637812912463
1789583618517229000,4.59822900390625,0.4307717360414564,-0.5948563828267157,1.518252938362956
1789583618527275000,4.60827490234375,1.7637525704227386,0.18254720906242727,1.4516379012048244
1789583618537321200,4.6183212890625,2.2393792011044917,1.1246429121106862,0.9259200826644897
1789583618547367200,4.6283671875,2.3794771153636276,1.7063240254133938,1.0827712710648774
1789583618557414100,4.6384140625,1.694020131896436,3.7112063422486186,2.5689228517681357
1789583618567460000,4.648460205078125,1.9640395804457365,3.376164240299165,2.402181552994251
1789583618577506000,4.658506103515625,2.9743641855895517,1.1338625758767127,0.8922031065016984
1789583618587553300,4.66855322265625,3.7180584001004693,-1.8121461605831979,-1.0775509060680866
1789583618597599200,4.67859912109375,3.3940511946454643,0.6789145760864019,0.33739772516489025
1789583618607645000,4.68864501953125,0.6291279241323471,5.993030454242229,1.8599790481209755
1789583618617691100,4.698691162109375,-9.409949021995066,3.7692397212833164,-0.25210662910938264
1789583618627738000,4.708738037109375,-6.659014821606874,0.5290215362608433,-2.2375684984207154
1789583618637784300,4.718784423828125,0.8015290022335946,0.7973600459858775,-1.334719494742155
1789583618647830300,4.728830322265625,2.4460863073028625,-1.0247788085624574,-0.2155202349901199
1789583618657877200,4.738877197265625,0.31034824406728145,-2.00265236582607,0.29503099407851696
1789583618667923200,4.748923095703125,-1.9354291336417198,-1.698615642993152,0.03246083862185478
1789583618677969200,4.75896923828125,-1.8518974484741686,-0.44290246494859453,0.0006827215671539307
1789583618688015000,4.76901513671875,-1.0326268917143344,1.5786232359126209,0.06835983499884606
1789583618698062000,4.77906201171875,-0.08976853373050689,1.4414225043997169,0.02428571547269821
1789583618708108300,4.7891083984375,-0.6281856748461723,2.167273019184172,0.6558879207640886
1789583618718154200,4.799154296875,0.5373686549760401,2.5990266058698297,1.3018553360164165
1789583618728200200,4.8092001953125,2.4636592272639275,0.9027864598363637,0.35939269935190676
1789583618738247200,4.8192470703125,2.6277824524939057,0.7418745978683233,-0.2797580216228962
1789583618748293000,4.829293212890625,1.718920179875195,-0.5980424655169249,-1.7889882800966501
1789583618758339000,4.839339111328125,-0.7270595983132719,-1.4000252028673887,-2.7087656222224235
1789583618768386000,4.849385986328125,-0.4051825367547571,-2.079703749063611,-2.4435119267702103
1789583618778432300,4.859432373046875,-0.22104148262962697,-2.5760031654179096,-1.542384340056777
1789583618788478200,4.869478271484375,-0.4376877990402281,-2.528894208240509,-1.797722206172347
1789583618798524200,4.879524169921875,-0.9876735051356256,-1.398515967348218,-1.4670903218805789
1789583618808571100,4.889571044921875,-1.6171160481750964,-0.7696721208542585,-0.4616232397705316
1789583618818617000,4.8996171875,-0.7174830839335918,-0.7301268769294023,0.10013386040031909
1789583618828663000,4.9096630859375,-1.5496258356176316,0.17768296402692793,0.007741992428898811
1789583618838710000,4.9197099609375,-1.1602535930655895,1.1324690756917,-0.09023089054524898
1789583618848756000,4.929755859375,-0.7138119942054152,1.4734744699597357,-0.1294739366531372
1789583618858802200,4.93980224609375,-0.5508896691977977,1.0824573828101158,1.1131821914196014
1789583618868848000,4.94984814453125,0.5285808067560196,-1.5398954458504914,1.9977228004693983
1789583618878895000,4.95989501953125,0.9494903433442116,-4.418063110488653,2.2304998752087353
1789583618888941000,4.969941162109375,-1.2863323343224822,-2.8927906487524506,1.6860282563596962
1789583618898987000,4.979987060546875,1.386954416631162,-0.11969371639490127,1.7021575533837079
1789583618909033000,4.990032958984375,0.13232304247394203,0.49234337220489977,1.5225444980770348
1789583618919080200,5.000080078125,-0.18741846836060286,-0.29736440546214576,0.3066933748215437
1789583618929126100,5.010126220703125,-0.29265593551024793,0.16048106933534145,-1.6527660382270812
1789583618939172400,5.02017236328125,-0.3902056246362626,-0.24127836110293863,-1.4103501975268125
1789583618949219300,5.03021923828125,0.5211325365766882,-0.20253040503561495,-0.9976789124518632
1789583618959265300,5.040265380859375,0.25371070330515505,0.430683911627531,-0.4757885432451963
1789583618969311200,5.050311279296875,-1.3685530830219388,0.8377975625753402,0.11439677903056145
1789583618979357200,5.060357177734375,-2.53626882866174,1.048088664740324,0.3845551976591348
1789583618989404200,5.070404052734375,0.10215952100902795,0.5060919115722179,1.855486997398734
1789583618999450000,5.0804501953125,0.2686408536724746,0.9453682949781417,1.3343120829850434
1789583619009496300,5.090496337890625,-2.0307278289705515,1.5532494329422712,-1.5517635782986878
1789583619019543300,5.100543212890625,-2.352709081555903,1.4106284299463032,-1.779172988525033
1789583619029589200,5.11058935546875,-2.314590801694244,1.730199406519532,-1.4021306507140396
1789583619039635200,5.12063525390625,-2.3464567431628702,3.86401293143332,-1.511604001867771
1789583619049681200,5.13068115234375,-2.5879133834421633,6.360381419122219,-2.0610884804427623
1789583619059728100,5.14072802734375,-4.6754012105107305,8.81037920078039,-3.550007187771797
1789583619069774000,5.150774169921875,-2.263346790538728,8.588751296564936,-5.286324784910678
1789583619079820000,5.160820068359375,5.0301124740481375,5.225923799961805,-3.209863378769159
1789583619089866200,5.1708662109375,9.028055152499675,1.4011235194981098,2.349914774662256
1789583619099913200,5.180913330078125,8.028360224050283,-0.7361316703021525,5.722721813488007
1789583619109959200,5.190959228515625,3.340936275051534,-0.7033417458564043,6.192575121465325
1789583619120005000,5.201005126953125,-5.4696811183989045,-0.4253431351214647,3.0562147858023643
1789583619130052000,5.211052001953125,-7.1401932411968705,-0.8231868534207344,-1.3093249412447214
1789583619140098000,5.22109814453125,-0.2725254400208592,-1.5679665250808,0.22984511294066903
1789583619150144000,5.23114404296875,2.0943185498714447,-1.917609983834624,0.9005372196048498
1789583619160190200,5.241190185546875,2.2665721823260188,-1.5688292793899774,0.0010895488023757935
1789583619170237200,5.2512373046875,1.4869992835737764,-1.564154273316264,-0.38686113651394843
1789583619180283100,5.261283203125,0.12368833898901939,-2.0217010574281216,-0.18264204773902892
1789583619190329000,5.2713291015625,0.005376432341337204,-2.745376566261053,1.7054273688346147
1789583619200376000,5.2813759765625,0.44992885645404457,-1.4440841248244047,0.8984241729736328
1789583619210422000,5.291422119140625,5.659406402397155,1.8451129029005764,-0.35856910800933833
1789583619220468000,5.301468017578125,0.5603871269918977,2.133839828398824,-0.9082084848850965
1789583619230514200,5.31151416015625,-5.575740277194977,0.8231225560128689,-0.23533377348482606
1789583619240561200,5.32156103515625,-3.4380724149405952,0.2925964604079723,-0.3519809617906809
1789583619250607400,5.331607421875,0.1046374554298818,-0.8101485081493854,-0.8370125496774912
1789583619260653300,5.3416533203125,-0.5653576088808476,-4.051420586138963,-1.0731254908412695
1789583619270699300,5.35169921875,-0.3918364407084882,-4.270076196545363,-1.4303051903188229
1789583619280746200,5.361746337890625,-0.6713688368819654,-2.838729388219118,-2.340263441480696
1789583619290792200,5.371792236328125,-2.259920469351858,-1.9635072271347045,-2.21055481928885
1789583619300838100,5.381838134765625,-1.6239350805401802,-0.2275987953186035,-2.257287928891182
1789583619310885000,5.391885009765625,-0.7959599699296057,1.8394991546720265,-3.0601310824632644
1789583619320931000,5.40193115234375,-0.8569899004317819,3.199223326811194,-5.36532291830182
1789583619330977300,5.411977294921875,-0.4874653909049928,4.23442153031826,-6.248685131222009
1789583619341023200,5.422023193359375,1.3205096214734018,3.4419302594125267,-4.108239328686893
1789583619351070200,5.4320703125,5.704657749009132,-0.8097679843991994,1.8550769552931188
1789583619361116200,5.4421162109375,5.118669878423214,-1.183618832692504,4.018611956992745
1789583619371162000,5.452162109375,3.7248610658526418,0.6344196007996797,4.716317158266902
1789583619381208000,5.4622080078125,2.3032522460781037,-0.4611743269592523,7.461335412609577
1789583619391255000,5.472255126953125,0.7755087180532515,-0.47062312330603595,7.6703341368764635
1789583619401301200,5.48230126953125,2.122545258054882,-0.9730366386264562,6.835107886093854
1789583619411347200,5.49234716796875,1.4218063881732523,-1.9511615403026341,4.005275505557656
1789583619421394400,5.50239453125,-1.9627100854076445,-3.705343879956007,1.294064243748784
1789583619431440100,5.512440185546875,-3.528822945445776,-5.055781168311834,-0.33120237765610216
1789583619441486000,5.522486083984375,-1.3698492603123187,-4.7729877245157954,-1.8797586843460796
1789583619451532000,5.532531982421875,-0.4804476210974157,-1.776001957273483,-2.277434644863009
1789583619461579300,5.542579345703125,-2.1496517300367355,1.723069993031025,-2.7204776873260736
1789583619471625200,5.552625244140625,-3.4574984154224393,4.659302893146872,-3.3208962343245743
1789583619481671400,5.56267138671875,-1.61877389838472,3.8656969389975067,-2.643188695940375
1789583619491717400,5.57271728515625,0.26809666379317637,4.098370553362369,-0.8171388054281473
1789583619501764400,5.582764404296875,0.7912590256970375,3.9120390034556385,0.6305848449423909
1789583619511810300,5.592810302734375,0.20788060695715246,3.1851006934344768,1.758734011608362
1789583619521856300,5.602856201171875,0.600616188462451,1.099409686654806,3.484349305208027
1789583619531903200,5.6129033203125,1.3751825841642915,0.5909083758533,4.271830054475367
1789583619541949200,5.62294921875,1.753937424981594,1.528625863817334,3.257162305560708
1789583619551995400,5.632995361328125,1.6006535736739635,1.5476292549729347,1.112106671142578
1789583619562041300,5.643041259765625,2.279611988902092,1.0833329966008662,-0.057715691387653346
1789583619572088300,5.65308837890625,2.158958487564325,0.912840236338973,-0.596544628174603
1789583619582134300,5.66313427734375,-0.28871169139649716,0.29710721583068367,-0.5484431528285145
1789583619592180200,5.67318017578125,-2.363738717353344,-0.2156482452839613,1.0209309009626508
1789583619602227200,5.683227294921875,-1.9707213962972163,4.4172231525331735,2.1561457682311533
1789583619612273200,5.693273193359375,-1.0172890373289585,11.132684668505192,-1.7428195263788102
1789583619622319000,5.703319091796875,-0.6372276439577341,6.080537472781539,-1.7217863829612732
1789583619632365300,5.713365234375,0.08053253988418728,-1.7059429171413183,0.3231055804401636
1789583619642412300,5.723412353515625,2.0697990256428715,-4.859312839794159,-0.24262568405866622
1789583619652458200,5.733458251953125,1.6814415130913256,-8.104434578949213,-0.45430531797260043
1789583619662504200,5.743504150390625,0.9333885188490152,-8.953598754191399,-1.1511442578062414
1789583619672550100,5.753550048828125,-0.3729051649410277,-5.246760251763463,-1.6225778207123278
1789583619682597000,5.76359716796875,-1.5760019474983213,-4.728010518670081,-1.344990421126783
1789583619692643000,5.77364306640625,-0.8521692022770643,-7.494242241433263,0.25531097810864445
1789583619702689300,5.783689208984375,0.3619271132003516,-6.521609507432579,1.964969993163645
1789583619712736300,5.793736328125,1.226998540213704,-2.383117371562123,3.3638474873006343
1789583619722782200,5.8037822265625,1.719449464446306,-0.6523948179513216,3.6421520952448247
1789583619732828200,5.813828125,1.0040069464296102,1.3986317026823758,2.5784318538695574
1789583619742874000,5.8238740234375,-0.7383493463516235,0.5971697743356228,-0.6328183030828833
1789583619752921300,5.83392138671875,-3.3298867655098436,0.5711708252042532,-2.1779642168074846
1789583619762967300,5.84396728515625,-1.2593646862894297,-0.2252466792345047,-1.862046209783852
1789583619773013000,5.854012939453125,1.5143465785741805,-0.24602234075963494,-0.6064657182082533
1789583619783059200,5.86405908203125,2.106265008252859,0.7685814030081033,1.067123035556078
1789583619793106400,5.8741064453125,1.5138064803481102,1.6364239752352236,1.6668877948209642
1789583619803152400,5.88415234375,1.7544266698032616,2.2013661351829765,1.1647767695784568
1789583619813198300,5.8941982421875,1.7684405821084974,1.4115835387140512,0.850522896374762
1789583619823245300,5.904245361328125,0.7071212643951177,0.8635556886881589,0.33172435570359227
1789583619833291300,5.914291259765625,-0.7561807711184024,7.353419227769971,-1.7315677722632883
1789583619843337200,5.924337158203125,-2.2686966271340845,6.044425125914811,-1.913164402602613
1789583619853383400,5.934383544921875,-2.6647645679324863,-0.0354489145219326,-0.5826356375485658
1789583619863430100,5.94443017578125,-1.2308417716383933,-0.0756640205323696,-1.8798019389659166
1789583619873476400,5.954476318359375,0.26768589103519913,-2.753604880902171,-1.6363555861741303
1789583619883522300,5.964522216796875,0.36676995012164115,-4.577572704443336,-1.0680825282379984
1789583619893568300,5.974568359375,-0.27705815154705193,-4.0996413039505475,-0.9724372114285826
1789583619903615200,5.984615234375,-0.6317378143697977,-2.0613041690200564,-0.33038609283715487
1789583619913661200,5.9946611328125,-0.6453402232646942,-0.9257353737473487,0.6637178837373853
1789583619923707100,6.00470703125,-0.1327110188782215,-1.0732254440844058,1.6742045475751162
1789583619933754000,6.014754150390625,-0.2566747407425195,-0.41221828061044213,1.844496524567902
1789583619943800300,6.02480029296875,-0.45698630068488416,0.46335926978290076,0.9997226932391524
1789583619953846300,6.03484619140625,0.15617657707445323,0.9190601337671279,0.21944617626219987
1789583619963892200,6.044892333984375,1.4343296235293148,3.509878006479144,-0.3721332307204604
1789583619973939200,6.054939208984375,1.368438808992505,2.5112235269933936,-0.5761611808374524
1789583619983985200,6.064985107421875,0.012137670104578138,1.6012649835705757,-1.2071592827558517
1789583619994031000,6.075031005859375,-0.1829166999619454,1.0895224988907575,-1.9598942973345517
1789583620004077300,6.085077392578125,1.8086393215060232,0.8896423161029815,-2.512390524946153
1789583620014124000,6.0951240234375,-3.729838269743323,1.1173907490253447,-1.1007568634800613
1789583620024170200,6.105170166015625,-1.2400877388894558,-0.49590427955687044,-1.5703801620937883
1789583620034216200,6.11521630859375,7.393066763025522,4.086869500660896,-2.2486907809376717
1789583620044263200,6.12526318359375,2.362101325409859,2.3793776005119085,0.3254536048710346
1789583620054309000,6.13530908203125,0.4260936612278223,-0.8904851966679096,2.021460965061933
1789583620064355000,6.14535498046875,-1.1917775892287492,1.642829750624299,-0.7479397431261837
1789583620074401000,6.155401123046875,-0.9831821850657463,4.131034221079945,-2.23330251153931
1789583620084448300,6.1654482421875,0.4871353552330285,0.9569622866600751,-0.7845506871648132
1789583620094494500,6.175494384765625,0.17687632381916046,-1.0599135425686836,-0.5493247579686343
1789583620104540400,6.18554052734375,0.3405504901073873,3.8154678039729593,-2.4646076140299438
1789583620114587400,6.19558740234375,0.9635409343980252,4.517783713912964,-2.3413692107655106
1789583620124633300,6.20563330078125,0.047652416404336685,4.414776343902945,-0.7012775068029761
1789583620134679300,6.21567919921875,-0.30438027557358144,3.426474331605434,0.8302621255692094
1789583620144725200,6.225725341796875,-1.3601847753882408,0.07345920396447181,3.6155221547335383
1789583620154772200,6.235772216796875,-0.3311642376028001,-5.68250553843379,7.880157037007808
1789583620164818200,6.245818115234375,2.312251106700301,-3.871977626702189,6.161763219094276
1789583620174864400,6.255864501953125,2.6958611324638126,-8.072468245846032,8.917778083747624
1789583620184910300,6.265910400390625,-1.0215256519854068,-11.28345273759961,9.120871383363008
1789583620194957300,6.275957275390625,-7.5559958100348705,0.4578443057537079,1.3005828318625687
1789583620205003300,6.286003173828125,-4.172022649550438,0.7438672329902648,-0.19415376796498893
1789583620215049200,6.29604931640625,-0.22509002736806868,-0.5537900668144226,0.04532368119582533
1789583620225096200,6.30609619140625,2.0216635018967093,-2.5749925270706413,0.8441247197702526
1789583620235142100,6.31614208984375,0.7708949406474829,-4.1538025177270175,2.5411940101042387
1789583620245188400,6.326188232421875,0.11106902284733951,-3.7084570435404776,2.6206571306586266
1789583620255234300,6.336234375,0.8327543077111244,-2.8185119450986384,0.32148703932762146
1789583620265281300,6.34628125,0.0012462737340480088,-2.091751914253831,-3.1560441102981565
1789583620275327200,6.3563271484375,-1.1082564254552125,1.2423860789597034,-5.89979804379344
1789583620285373200,6.366373291015625,-1.2926947089612484,1.6235107176482677,-3.160795396478474
1789583620295419100,6.376419189453125,-1.615852311849594,0.6073866324454545,1.1103231487266718
1789583620305466000,6.386466064453125,-1.7870891684770582,0.47056233302950856,3.4296950472176073
1789583620315512000,6.396511962890625,-2.104090586823225,1.563576181167364,3.2530636380702256
1789583620325558300,6.406558349609375,-2.325071425306797,1.6035639081627129,2.4247902751654387
1789583620335605200,6.416605224609375,-2.29304313288331,1.6674661792308092,1.6174641309604048
1789583620345651200,6.426651123046875,-1.612424675488472,1.5672744511634111,1.3707596531555055
1789583620355697200,6.436697265625,-0.7332803725242615,1.568494348347187,1.0187084756728262
1789583620365743000,6.4467431640625,0.20615144507698713,1.1651420957595109,1.0267542002886534
1789583620375790000,6.4567900390625,1.1710897521175443,0.8940332445383071,0.8703776436626911
1789583620385836000,6.4668359375,0.3506184412658214,0.33755554607510563,0.5022290255989879
1789583620395882200,6.47688232421875,-0.4307097767211497,-0.4808867431670427,0.08328530919104814
1789583620405927700,6.486927734375,-0.6570001197896898,-1.0029904628634452,-0.4476389919511974
1789583620415974700,6.496974609375,-0.7154791967652737,-1.5377350529462097,-0.9258092427011578
1789583620426020600,6.5070205078125,-0.32618323431983587,-1.920271896520257,-1.294595866407454
1789583620436066600,6.517066650390625,0.7906989806614816,-2.0634376739174125,-1.1151508611440657
1789583620446113800,6.52711376953125,1.1254137503527104,-2.1901894921302794,-0.9504001516655087
1789583620456159700,6.53715966796875,0.40326866595745087,-2.3409932170599697,-0.8708660117015242
1789583620466206000,6.5472060546875,-0.32057620809301735,-2.161812123429775,-0.6853859640575944
1789583620476252000,6.557251953125,-0.1780512128174305,-1.5247054755032061,-0.305524842498824
1789583620486299000,6.567298828125,0.8764860435403883,-0.6134925481051207,0.17733466204591095
1789583620496344800,6.5773447265625,1.591761826688051,0.038032501274347305,0.24127759391795842
1789583620506390800,6.587390869140625,0.6814835497915744,0.09779460379779338,0.08816624963302165
1789583620516436700,6.597436767578125,-0.22070684384778141,0.18263444895446299,0.1335150652701035
1789583620526483700,6.607483642578125,-0.6451017383337021,-0.013477905732393264,0.11661809007553384
1789583620536529700,6.61752978515625,-0.1798059475302696,0.19039573060572146,-0.07070868141362444
1789583620546576000,6.627575927734375,0.23110797248333692,0.11206629025638103,0.18615995619948952
1789583620556622800,6.637622802734375,0.7359174430295825,0.3625970483511686,0.25366448954325166
1789583620566668800,6.647668701171875,0.8400774902060627,0.47258419424593445,0.4253538391785696
1789583620576714800,6.65771484375,0.7508776962742209,0.8034504718154668,0.561081721659936
1789583620586760700,6.6677607421875,0.59137482432127,1.5745336285114286,0.23741770361941306
1789583620596807700,6.6778076171875,-0.2629953951314091,1.5581950726509093,0.2855750190722756
1789583620606853600,6.687853515625,-0.6528446075454354,1.7070225290715693,0.3324871933022514
1789583620616899800,6.69789990234375,-0.4981491358742118,2.3118840269535776,-0.02483090999899432
1789583620626945800,6.70794580078125,-0.7072577502563595,2.2866087159216404,-0.020166160457814112
1789583620636992800,6.71799267578125,-0.6179983350917697,2.3098259253799913,0.045631002712482584
1789583620647038700,6.728038818359375,-0.44493718564659357,2.233253557831049,0.05081753850490786
1789583620657084700,6.738084716796875,-0.5238663454547524,2.1906156085878608,0.030492050166381523
1789583620667131600,6.748131591796875,-0.6761117936253547,1.9851205085277557,0.001606366617558524
1789583620677177600,6.758177490234375,-0.40600013674795626,2.232283836016059,-0.23035235007675364
1789583620687223600,6.7682236328125,-0.4759487022429704,2.337046525260806,-0.46576848634909834
1789583620697269800,6.778269775390625,-0.8496437754526733,2.3073457990020514,-0.5394834917055442
1789583620707316700,6.788316650390625,-0.8203931310489774,2.2762369595110417,-0.5621579360567033
1789583620717362700,6.79836279296875,-0.7709484244003891,2.2389999925285577,-0.5878555641539395
1789583620727408600,6.80840869140625,-0.9516969134777784,2.2426181830257175,-0.7692197739768772
1789583620737454600,6.81845458984375,-1.2577952450156211,2.2075147209405896,-1.083359300085902
1789583620747501800,6.828501708984375,-1.5729881526350975,2.126649624633789,-1.4287486085265875
1789583620757547500,6.838547607421875,-1.6699425062164663,1.9893460172683,-1.8436467758707702
1789583620767593700,6.84859375,-1.8669392425224185,1.815630203306675,-2.140877179689705
1789583620777640700,6.858640625,-2.1538485972046852,1.6163853958129881,-2.333745145627856
1789583620787687000,6.86868701171875,-2.719182094557583,1.0705424886107444,-2.3596818431779742
1789583620797732900,6.87873291015625,-2.9066008551791307,0.4112532349705696,-2.30497483208701
1789583620807778800,6.88877880859375,-2.747468862365186,-0.1541559579670429,-2.0969551819853485
1789583620817825800,6.89882568359375,-2.45997060187906,-0.5607821176588536,-1.730325517117232
1789583620827871700,6.908871826171875,-2.4394451157227155,-0.6799421655684709,-1.283346888770908
1789583620837917700,6.918917724609375,-2.313368128031492,-0.12540507977902887,-1.176715483044833
1789583620847964000,6.9289638671875,-2.522950205144286,0.30510815145671366,-1.2337354472532869
1789583620858011000,6.939010986328125,-2.8128324381574985,0.8325339429587125,-1.5148653417512774
1789583620868056800,6.949056884765625,-2.884016975188255,1.4574229143470525,-2.1635963764980435
1789583620878102800,6.959102783203125,-3.061056965136528,2.1053502314954993,-2.5451503465145824
1789583620888149800,6.969149658203125,-3.15744550152868,2.6196318792641162,-2.937102668687701
1789583620898195700,6.97919580078125,-3.479379115580022,3.0194600493788717,-3.3745629425823687
1789583620908241700,6.98924169921875,-4.613486313867568,2.2392653654664754,-3.1590815782979127
1789583620918288000,6.999287841796875,-6.118448978024721,0.4958218619704246,-2.196905940903723
1789583620928334600,7.00933447265625,-6.879363207405805,-1.7112848626911639,-1.245553603079915
1789583620938380800,7.019380859375,-5.870437509274482,-5.036964239639044,-0.07090637767650186
1789583620948426800,7.0294267578125,-2.228860583569109,-8.792491077390313,1.9215236501470208
1789583620958472700,7.03947265625,6.45353608815968,-11.390631840336322,3.559127190555632
1789583620968519700,7.049519775390625,7.3388196245312685,-7.395362180486321,2.2117840688228605
1789583620978565600,7.059565673828125,1.601480379886925,0.5513818366289138,1.1267209604937583
1789583620988611600,7.069611572265625,0.015543898351490497,3.0111615921109913,1.4272307513095437
1789583620998658600,7.079658447265625,-0.46959348799735307,3.1947213392168283,1.9665723137937485
1789583621008704800,7.089704833984375,-2.2049881250724197,3.2491309747964143,2.3266183624878525
1789583621018750700,7.099750732421875,-2.791565193723142,2.2522698084682227,2.307986142732203
1789583621028796700,7.109796630859375,-1.2152663091048597,0.7756652237892151,2.072909266617894
1789583621038843600,7.11984375,0.6389481841400265,0.18964637354314326,1.5979802628114819
1789583621048889600,7.1298896484375,1.984679486761987,1.629097577869892,0.6136912855476141
1789583621058935600,7.139935546875,2.946984011232853,2.089774476701021,0.8088016235850751
1789583621068981800,7.149981689453125,3.5668837960317727,1.6199159080266952,1.539776787906885
1789583621079028700,7.16002880859375,4.4117634258225555,0.8349374969691038,1.976822051259875
1789583621089075000,7.170074951171875,4.7354897685095665,-0.14003390911221503,2.545302322205901
1789583621099120600,7.18012060546875,4.247538493783772,-0.4000292456448078,2.56632289840281
1789583621109167900,7.19016796875,4.54652085583657,-0.763376820102334,2.004803552510589
1789583621119213800,7.2002138671875,4.3205473236322405,-1.3657956010073422,1.1853247598275543
1789583621129259800,7.210259765625,2.9219895629689097,-1.6585370228439569,0.14801847812533378
1789583621139305700,7.2203056640625,1.9773453444816171,-1.7037585588395594,-0.9786310976326466
1789583621149352700,7.230352783203125,0.9363982220590114,-1.7190777085244655,-1.6962538822978734
1789583621159399000,7.24039892578125,0.10135288080126047,-1.1238140600711106,-1.8520453325122594
1789583621169444900,7.25044482421875,0.12366262002587318,-0.052042906448245045,-1.4579330558262764
1789583621179490800,7.26049072265625,1.2438486988581716,0.2728255920112133,-0.8094871216312051
1789583621189537800,7.270537841796875,2.034983586718887,0.3075023531168699,-0.4336318016476929
1789583621199583700,7.280583740234375,1.370165048263222,0.8293617426633835,-0.2262310140967369
1789583621209629700,7.290629638671875,0.11492270260080695,1.3536404683113097,-0.7333854403339326
1789583621219676700,7.3006767578125,-0.4178456189729273,1.7341186257898806,-1.3019609883479772
1789583621229722600,7.31072265625,-0.3561187922477722,1.9971867938965557,-1.3449888136915862
1789583621239768800,7.320768798828125,-0.24414427192807195,1.8524065670400858,-1.1613384656928478
1789583621249814800,7.330814697265625,0.7203108547054231,1.4724696768313645,-1.0584276879251002
1789583621259861800,7.34086181640625,0.7148187600951641,1.065652963003516,-0.7668450807347893
1789583621269907700,7.35090771484375,0.47394444974847133,0.5893634844988584,-0.6784384830072522
1789583621279953700,7.36095361328125,0.40805590023398397,0.5847714805334806,-0.47342196024432776
1789583621289999600,7.37099951171875,0.030616124070622024,0.7457640065222978,0.003326952465623617
1789583621300046600,7.381046630859375,-0.2804337106610648,0.5739040495604276,0.5645084447056055
1789583621310092800,7.3910927734375,-0.5789701007783412,0.2140267815619707,0.9869630187787115
1789583621320138800,7.401138671875,-0.8213204750269651,0.027851298999786375,1.2078623164586721
1789583621330185700,7.411185791015625,-1.4739315660774708,0.3250286574572325,1.3542743823006749
1789583621340231700,7.421231689453125,-2.1672633745729923,0.9101040893733501,1.2457538018271326
1789583621350277600,7.431277587890625,-2.6076614554852244,1.5453560493439435,1.0412833686396479
1789583621360323600,7.441323486328125,-2.6261919684320687,2.0219418804466724,0.6187423583921045
1789583621370370600,7.45137060546875,-2.139271790319681,2.2755817104727027,0.05654321354217827
1789583621380416500,7.46141650390625,-1.3537988737434148,2.269607896760106,-0.29271204961165787
1789583621390462700,7.471462646484375,-0.5994249328512699,1.9684417609274387,-0.404744072272256
1789583621400509200,7.48150927734375,-0.1464754134017974,1.6190940702497958,-0.39415721180625257
1789583621410556400,7.491556396484375,-0.13159874678738415,1.1205483362734316,-0.22507504899464548
1789583621420602400,7.501602294921875,-0.4751152470935136,0.5110691154628991,0.15225779619552193
1789583621430648300,7.5116484375,-1.311768827265501,0.16966624630987642,0.43536666261628265
1789583621440695300,7.5216953125,-2.2032490263201296,0.04039689231812954,0.20788630604557692
1789583621450741200,7.5317412109375,-3.3850328986704348,-0.23114333605766296,-0.36211547537930305
1789583621460787200,7.541787109375,-4.657049561262131,-0.6544225243866443,-0.9518185670960694
1789583621470833400,7.55183349609375,-5.573851686969399,-1.156339196100831,-1.0964895614244043
1789583621480880400,7.56188037109375,-5.330344543901085,-1.9611662169665096,-0.9327182183720171
1789583621490926300,7.57192626953125,-3.953898369541764,-1.9319079737782476,-0.9535926640965043
1789583621500972300,7.58197216796875,-2.139004225424677,-1.514257731246948,-1.5106030081316828
1789583621511018200,7.592018310546875,-0.594534165135026,-1.3076970477819443,-2.22146915814355
1789583621521065200,7.602065185546875,-0.22102774636521935,-1.8031506609618664,-2.5719766863808036
1789583621531111200,7.612111083984375,-1.3758826952576637,-2.7788649943649766,-2.4316072617039084
1789583621541157000,7.6221572265625,-3.5810540679425,-3.66585591917634,-1.7693544820830225
1789583621551204000,7.6322041015625,-6.016685470595956,-4.231704088053107,-0.878331086885184
1789583621561250300,7.642250244140625,-7.436818226468563,-3.1179256843060252,0.08919380258247256
1789583621571296300,7.652296142578125,-6.552891365402936,-2.4103104989141224,1.4901245759874582
1789583621581342200,7.66234228515625,-3.5691064405173063,-3.8934412704914805,2.341919976516068
1789583621591389200,7.67238916015625,0.6140759009510278,-5.548795571646094,1.5718705467820167
1789583621601435100,7.68243505859375,4.74834252808094,-5.357409076437354,-0.8495080202437937
1789583621611481000,7.692481201171875,5.862565168464183,-3.767351131057739,-2.817063499855995
1789583621621527300,7.70252734375,4.729105328169465,-2.3553777162432668,-3.369648282533884
1789583621631574300,7.71257421875,2.2398984026730058,-1.7267963200777767,-3.175521548706293
1789583621641620200,7.7226201171875,-0.9527532175976783,-1.3785089521080254,-2.5173352878719566
1789583621651666200,7.732666259765625,-2.92617620100379,-1.70927819904387,-1.4814287899650633
1789583621661712100,7.742712158203125,-2.7157863146394488,-1.6231331165075302,0.2384791588384658
1789583621671759000,7.752759033203125,-1.4741618677020072,-0.6168237383544445,1.5278887817144393
1789583621681805000,7.76280517578125,-0.09488543835282325,-0.23647066856026647,1.8420605295926331
1789583621691851300,7.772851318359375,1.100853455722332,-0.8839496574193239,2.050892957381904
1789583621701898200,7.782898193359375,1.953590228754282,-1.843214960324764,2.5534219157755373
1789583621711944400,7.7929443359375,2.0686241366446017,-2.6532722830593585,3.284115778937936
1789583621721990400,7.802990478515625,1.7785902202010153,-3.2366642919331787,3.838924375145137
1789583621732036400,7.813036376953125,1.1145476345539092,-2.78354000043869,3.7510517381638286
1789583621742083300,7.823083251953125,-0.3477121984302997,-1.6490519861400126,3.1638971618860956
1789583621752129300,7.83312939453125,-0.989449136506021,-0.5928203469544648,2.4432386627867815
1789583621762175200,7.84317529296875,-0.5605167447209358,-0.04808686229884624,2.038576788905263
1789583621772221400,7.853221435546875,0.6318618791408837,-0.09544424127936363,1.84579138668403
1789583621782268200,7.86326806640625,1.9678502247750758,-0.6729431004613637,1.7165497974820434
1789583621792314400,7.873314453125,2.9400676559731362,-0.6601151830703019,1.5512904078289866
1789583621802360300,7.8833603515625,3.247804110106826,-0.4318693220198154,0.9404266007922589
1789583621812407300,7.8934072265625,3.026440409785509,-0.25667700576484204,0.12528791967276484
1789583621822453200,7.903453369140625,2.296524691388756,-0.33498774141371246,-0.8790538482017815
1789583621832499200,7.913499267578125,2.091609875434637,-0.24483517680168151,-1.688820809687674
1789583621842545200,7.923545166015625,2.3752558444067833,-0.23827508763372895,-2.0845625872716305
1789583621852592000,7.933592041015625,1.743107695670426,-0.19323592246770857,-2.089177387590706
1789583621862638300,7.943638427734375,1.6679294128283857,-0.14953706599473954,-1.734420239084959
1789583621872684300,7.953684326171875,2.4590616703405974,0.062139353048801416,-1.1718874053012578
1789583621882730200,7.963730224609375,2.9905694704592225,0.363185661894083,-0.7585336178548634
1789583621892777200,7.973777099609375,3.403919677709043,0.979282839539647,-0.44769017414916307
1789583621902823200,7.9838232421875,3.5133269778892395,1.6981038940787314,-0.07559095529615878
1789583621912869000,7.993869140625,3.879954889191687,2.138718248090148,0.1616715212289244
1789583621922915300,8.003915283203124,3.8972286800757048,2.546220021572709,0.7479192117948085
1789583621932962300,8.01396240234375,3.8213311430484054,3.1206688455343246,1.2673024935513735
1789583621943008300,8.02400830078125,3.708655488722026,3.8124949256420133,1.7137062446191906
1789583621953054200,8.03405419921875,3.4059415389254686,4.273154873338341,1.9291557524606584
1789583621963101200,8.04410107421875,3.1393323372110724,4.884771690699458,1.8787470230855046
1789583621973147100,8.054147216796874,2.633909410941601,5.573920076030492,1.7564469235844908
1789583621983193000,8.064193115234374,1.6461834449663757,5.933215744748711,1.6459966902226209
1789583621993239000,8.074239013671875,0.7774801642566919,5.906972465467453,1.4317111115939913
1789583622003286000,8.0842861328125,-0.06358312211632729,5.663490456840395,1.090028987108171
1789583622013332200,8.094332275390625,-0.8478367260307073,5.235041756919026,0.7216239100653677
1789583622023378200,8.104378173828126,-1.2841124663159251,4.666902262234688,0.45415275775939223
1789583622033424100,8.114424072265624,-1.2516864067465066,4.042258790040016,0.21706689817653968
1789583622043471400,8.124471435546875,-1.3011375431358814,3.199538384109735,-0.05111919746575877
1789583622053517300,8.134517333984375,-1.648344422392547,2.079656987312436,-0.09877206139466725
1789583622063563300,8.144563232421875,-2.2902874044343826,0.9677724344879388,-0.2982090030601248
1789583622073610200,8.1546103515625,-3.026113662049174,0.29417583855390544,-0.8955535129081458
1789583622083656200,8.16465625,-3.5817236377671358,0.004659223982691764,-1.8065217448301611
1789583622093702400,8.174702392578125,-3.7846316439434884,-0.09744389066398143,-2.6612568520724773
1789583622103748400,8.184748291015625,-3.403121220807731,-0.3660685238540172,-3.3609298462882635
1789583622113795300,8.19479541015625,-3.293341580183804,-1.2986141621381044,-3.7671523936152456
1789583622123841300,8.20484130859375,-2.964348110748827,-2.9472669198274613,-3.3787852364525195
1789583622133887200,8.21488720703125,-2.1194962457478046,-4.417703629526495,-2.018808404726535
1789583622143933200,8.22493310546875,-1.3167466156780718,-4.681597727063298,-0.6741663586460054
1789583622153980200,8.234980224609375,-1.2435402174308896,-3.918360607692599,-0.3931367827173322
1789583622164026400,8.2450263671875,-2.1458473693177105,-2.0323352641671897,-1.624332263164222
1789583622174072300,8.255072265625,-3.658807461969554,0.8874106115281581,-3.353862392120063
1789583622184119300,8.265119384765624,-5.2274833043634885,2.1447493449479342,-4.948155490851402
1789583622194165200,8.275165283203124,-6.557687367507815,3.0262995400100943,-5.174818466624617
1789583622204211200,8.285211181640625,-7.878585842168331,-0.5639823750048876,-2.5694284632027147
1789583622214257200,8.295257080078125,-6.747177089184523,-8.556184659481048,0.4191675152264535
1789583622224304000,8.30530419921875,-3.704211661055684,-14.84861891605854,2.438608226507157
1789583622234350000,8.31535009765625,2.880714426511526,-18.00590688893795,4.935352707901597
1789583622244396300,8.325396240234374,11.488459761881828,-14.922586654067038,6.9823916202038525
1789583622254442200,8.335442138671874,8.366682078322768,-2.480666476166248,5.690721578115225
1789583622264489200,8.3454892578125,3.3387723750159144,6.65702686266005,2.7521938450604675
1789583622274535200,8.35553515625,0.8474366207972168,11.240337233972548,1.325867349114269
1789583622284581000,8.3655810546875,-3.6220775677263735,12.245586289417743,1.6046601789668202
1789583622294628000,8.375628173828124,-4.658845504768193,9.42191769220829,3.6936063881501555
1789583622304674000,8.385674072265624,-1.4038903538629413,6.576375116842985,5.157298007503152
1789583622314720300,8.39572021484375,3.0551550476163625,4.4317619654953475,4.961308402413129
1789583622324766200,8.40576611328125,6.902357129502296,3.008361147737503,4.4605005687236785
1789583622334813200,8.415813232421876,8.427241468703746,1.7305863600105047,3.9341824462026356
1789583622344859100,8.425859130859376,9.017119916987419,-0.3820709796279669,3.1897204621896145
1789583622354905000,8.435905029296874,8.026895412194728,-2.9708640685141083,2.4248390827432273
1789583622364951000,8.445950927734375,6.323339097929001,-4.676173363927006,1.6337454036757348
1789583622374998300,8.455998291015625,5.460797554719448,-5.567095782968401,0.38245778698846694
1789583622385044200,8.466044189453125,4.704332705962658,-6.1572051173985,-0.9325965647537261
1789583622395090400,8.47609033203125,3.284568491141498,-6.435355119302868,-2.1211913592278955
1789583622405136600,8.48613671875,0.7682514404013753,-5.737111573368311,-3.2176106318950652
1789583622415183600,8.49618359375,-1.2495181227967143,-3.1880309016674757,-3.551241698002815
1789583622425229600,8.5062294921875,-0.8751891355976462,-0.27172376824915406,-2.7392472697257992
1789583622435275500,8.516275634765625,0.615425854255259,0.9764245274990796,-1.6752346212752163
1789583622445322500,8.526322509765626,1.1057472191132605,1.1739251216739415,-0.5529999393500388
1789583622455368400,8.536368408203124,1.1779172600500285,0.9190759158581495,0.6468174562104047
1789583622465414400,8.546414306640624,1.2551786327764392,0.7629699928671121,1.2966384781509637
1789583622475460600,8.556460693359375,0.9134078070938587,1.1426841802358627,1.481768689443916
1789583622485507600,8.566507568359375,0.44328737261295315,1.8571441169559955,1.551498497621715
1789583622495553500,8.576553466796875,0.12835764597430824,2.5661481263577937,1.6177767040409148
1789583622505599500,8.586599609375,0.3544492516003549,2.748013929027319,1.4564993697613478
1789583622515645400,8.5966455078125,0.9382429731428623,2.7071348061501976,1.0236490008149295
1789583622525692400,8.6066923828125,1.1005481891654432,2.313452299183607,0.3846900030199438
1789583622535738400,8.61673828125,1.2977834104023873,1.7671306685537098,-0.2501717155240476
1789583622545784600,8.62678466796875,0.8150690864820033,1.5967273401409388,-0.5720812911126762
1789583622555830500,8.63683056640625,-0.04341127170324325,1.9678543164283036,-0.5073372354581952
1789583622565877500,8.64687744140625,-1.2187538589596747,2.3878671964377163,-0.18966902376636863
1789583622575923500,8.65692333984375,-2.1165420721173285,2.5783476827174425,0.0289471314124763
1789583622585969400,8.666969482421875,-2.2675813593685628,2.2863363287210463,0.12088942898549139
1789583622596016400,8.677016357421875,-1.7162860319793223,1.8014514558285473,-0.021733692902326584
1789583622606062300,8.687062255859376,-0.7343354345351457,1.2887088541954754,-0.2722750454563647
1789583622616108500,8.697108642578126,-0.11430324639505705,0.9849532863914966,-0.4597387411981821
1789583622626154500,8.707154541015624,-0.007266191610693931,1.0376759917974472,-0.5327857841651886
1789583622636201500,8.717201416015625,-0.4654927381476387,1.300414489558339,-0.42932314466834065
1789583622646247400,8.727247314453125,-1.1538817930113523,1.2345990783452987,0.0452276004102081
1789583622656293400,8.73729345703125,-1.890041593429446,0.9643553195208311,0.8546781894233078
1789583622666339300,8.74733935546875,-2.4009306761503217,0.7430272750347853,1.3457739727199076
1789583622676386600,8.757386474609374,-2.8627473926663396,0.6000947218716144,1.455452491056919
1789583622686432500,8.7674326171875,-2.6880875758528706,0.5997042612493038,1.0422706991765647
1789583622696478500,8.777478515625,-2.017590114977956,0.44261283435225485,0.2030351396873593
1789583622706525400,8.787525390625,-1.6634236258417368,-0.10501286461353301,-0.6162406777694821
1789583622716571600,8.797571533203126,-1.8007576283454894,-1.0180553455263375,-0.9657450203135609
1789583622726617600,8.80761767578125,-2.084748172971606,-2.2419956672132013,-0.7381253283374011
1789583622736663600,8.81766357421875,-2.6006927855163813,-2.566330497187376,-0.39318624788224693
1789583622746710500,8.82771044921875,-2.766720967584848,-1.1551876879781484,-0.7248213178671896
1789583622756756500,8.837756591796875,-1.749684589842707,-0.11735913596749305,-1.644372742282599
1789583622766802400,8.847802490234375,-0.6826373960018157,-0.07754501197338104,-2.7959119907557963
1789583622776848600,8.8578486328125,-0.7060030740201473,-1.3552128321945667,-3.498063357783854
1789583622786895600,8.8678955078125,-2.112448226932436,-3.2165970709383487,-3.4911890881001946
1789583622796941600,8.877941650390625,-4.645183182379603,-4.603378761351109,-2.7182453982293606
1789583622806987500,8.887987548828125,-6.192615453475713,-5.278908955696225,-1.628740581125766
1789583622817033500,8.898033447265625,-5.548091222769021,-5.430538025534153,-0.5162396499685943
1789583622827080400,8.90808056640625,-3.06728212326169,-6.075579558113217,0.38930268444716926
1789583622837126400,8.91812646484375,0.6281463657490909,-5.149602192303538,0.1962888802975416
1789583622847172600,8.928172607421875,3.7340252000391483,-3.750566000473499,-0.9869317468576133
1789583622857219600,8.938219482421875,4.940598791861534,-3.6916070310264826,-1.979206754439324
1789583622867265500,8.948265625,4.064054442262649,-3.719427934888005,-1.8717860980316996
1789583622877311500,8.9583115234375,1.6025718283854424,-3.3436382274866103,-0.7305453946024179
1789583622887357400,8.968357421875,-1.5757587863922118,-2.8761148237615823,0.8853071364428847
1789583622897404400,8.978404296875,-3.351407692444324,-2.035008282768726,2.31092833366394
1789583622907450400,8.988450439453125,-2.5637825662702323,-0.8630003928929567,3.313060718393326
1789583622917496300,8.998496337890625,-0.9077250852823256,-0.6076064126759767,3.1482743530794974
1789583622927542500,9.00854248046875,0.41740240525007244,-1.2639514295578003,2.4581653060227633
1789583622937589500,9.018589599609374,1.1517431004822254,-1.5217770208358763,2.353490002800524
1789583622947635500,9.028635498046874,1.4182523489534855,-1.3145096504062412,2.7713144328549504
1789583622957681400,9.038681396484375,2.0275193883180616,-1.2695698539614677,3.6172713364884257
1789583622967727400,9.048727294921875,1.3802315381169319,-1.6758786182671785,4.444565040706098
1789583622977774300,9.0587744140625,0.2693361424602568,-2.00103937767148,4.307229576897621
1789583622987820300,9.0688203125,-0.6112099901258945,-1.315908995810151,3.712198860417306
1789583622997866500,9.078866455078124,-0.8342122514344751,-0.408751481282711,2.9245471384972332
1789583623007913500,9.08891357421875,-0.38325916649922726,-0.036848259925842286,2.3952286651164294
1789583623017959700,9.098959716796875,0.9227249398849904,-0.27449907818138597,2.175202935400605
1789583623028005600,9.109005615234375,2.5813036099135873,-0.6674696374863386,1.6761133038058875
1789583623038051300,9.11905126953125,3.1392180631816387,-0.7671025626271962,1.0953668410047888
1789583623048098600,9.1290986328125,3.0407030361548064,-0.5057581495732069,0.6485733599670231
1789583623058144500,9.13914453125,2.6165575863853094,-0.09473346266150474,0.26208744997363537
1789583623068190500,9.1491904296875,3.0998458377361295,-0.09326748176217078,-0.40736594520844516
1789583623078236700,9.159236572265625,3.0100799343541262,0.18419570692181586,-0.9613822950594126
1789583623088283600,9.16928369140625,2.2751965105473992,0.46718671911656856,-1.2525368860960007
1789583623098329600,9.17932958984375,2.348993860425055,0.26471009009480473,-1.369570004979521
1789583623108375600,9.18937548828125,3.01066007232964,0.2299468197494745,-1.150337325337529
1789583623118422500,9.199422607421875,3.4081130377456543,0.8603390647292136,-0.7256285425968467
1789583623128468500,9.209468505859375,3.5963024904787537,1.5752923379242418,-0.2984599456138909
1789583623138514400,9.219514404296875,4.051426723618805,2.356847788795829,0.10133370117675512
1789583623148560600,9.229560546875,3.8988872609376903,3.1978859407275912,0.5157158087575808
1789583623158607400,9.239607421875,3.815173204940557,3.5566754134893417,0.8127109790485352
1789583623168653600,9.249653564453125,3.6109172912865874,3.9619729549258946,1.1052961143448947
1789583623178699500,9.259699462890625,3.132930068953335,4.308155459570885,1.2264433905489742
1789583623188745500,9.269745361328125,3.022342911338806,4.37233830114603,1.1661881707463413
1789583623198792400,9.27979248046875,2.86394946193248,4.654997889429331,1.0733104920193552
1789583623208838400,9.28983837890625,2.113915523006022,5.126666722396016,0.8533970635715872
1789583623218884400,9.29988427734375,0.7665984124973416,5.3373786803215735,0.7371775260932744
1789583623228930600,9.3099306640625,-0.2663718858271837,5.757959715607762,0.5236845591470599
1789583623238977500,9.3199775390625,-0.6173708508431911,6.008273031559586,0.23757002637060357
1789583623249023500,9.3300234375,-0.9060624127671122,5.76562981184423,-0.09228316516624763
1789583623259069400,9.3400693359375,-1.4816788192033767,5.18003590901196,-0.48473775603938846
1789583623269116400,9.350116455078124,-2.248921667084098,4.337852678698301,-0.9284631912760436
1789583623279162400,9.360162353515625,-3.1464447995647786,3.4831291157633064,-1.4615937702909112
1789583623289208300,9.370208251953125,-4.042862016630172,1.913070586839318,-1.235909284161031
1789583623299254500,9.380254638671875,-3.6940409801751373,-0.2761275561660528,-1.2375531058453022
1789583623309301500,9.390301513671876,-2.95665872529,-1.6527362276107072,-1.3079954462066292
1789583623319347500,9.400347412109374,-1.8364032344833014,-2.7720973999261855,-1.5814816940836607
1789583623329393400,9.410393310546874,-0.6600429946169257,-3.3084915107816455,-1.9501297130368649
1789583623339439400,9.420439453125,-0.499789888818562,-3.1944127116590737,-1.9375282978780566
1789583623349486600,9.430486572265625,-0.9172919550508261,-3.1650667901873586,-1.3344753107227385
1789583623359532500,9.440532470703126,-1.222296646133065,-3.393113329273462,-0.2463467138757929
1789583623369578500,9.45057861328125,-1.7750605847701428,-3.6531747167795894,0.6737918993104249
1789583623379624400,9.46062451171875,-2.6808143699795006,-3.497104449623823,0.9214720172144472
1789583623389671700,9.470671630859375,-3.603125614497065,-2.4852105493366716,0.15369659682698547
1789583623399717400,9.48071728515625,-4.267474489614367,-1.095888526791334,-1.2283464476913213
1789583623409763300,9.490763427734375,-4.096677485708892,0.7217956864356995,-2.796172395257652
1789583623419810300,9.500810302734376,-3.528873214328289,3.0939409976065155,-3.789028709858656
1789583623429856300,9.510856201171874,-3.093274934913218,5.453392831420898,-3.8618016851246355
1789583623439902200,9.520902099609375,-4.193972615551949,4.371458595702052,-1.9100708205014467
1789583623449948400,9.530948486328125,-5.320502948844433,-0.9020879561781883,1.507709917038679
1789583623459995400,9.540995361328125,-4.748055820094049,-7.270992288973927,3.7414702553480863
1789583623470041300,9.551041259765626,-2.1922978625863787,-12.665509153056144,5.053747032135725
1789583623480087300,9.56108740234375,0.16320026516616343,-14.682694194364547,5.278111667838693
1789583623490133200,9.57113330078125,4.137217001368105,-9.95159506202936,3.8441160985693332
1789583623500180200,9.58118017578125,6.613294688439368,-0.6899667159765959,1.5055579997017978
1789583623510226200,9.59122607421875,6.901870807290077,4.642715915483236,0.5108597104959189
1789583623520272100,9.601272216796875,4.324632254858315,7.110176288595795,0.7499772403031587
1789583623530319000,9.611319091796876,1.8963263727873563,7.436513690564036,1.5044291418023406
1789583623540365300,9.621365234375,0.8034913883477449,6.192278768867254,2.142216027078032
1789583623550411300,9.631411376953125,0.39587037239968775,4.390735543102026,2.6460271342366934
1789583623560457200,9.641457275390625,0.6625748511821031,2.5217928518027066,3.0918469479367134
1789583623570504200,9.651504150390625,2.273515133331716,0.5219383000016212,3.5067212960138914
1789583623580550100,9.661550048828126,4.641909275275468,-0.9389362161040306,3.7485306952536104
1789583623590596000,9.67159619140625,6.9364172200143335,-1.567781816163659,3.2682758202493187
1789583623600642300,9.681642333984374,7.943221103686094,-1.757322391244769,2.4536349691167474
1789583623610689300,9.691689208984375,7.38514415333271,-2.775805606794357,1.7908945521093904
1789583623620735200,9.7017353515625,6.425658485674858,-3.372112042298913,0.7289163320958614
1789583623630781200,9.71178125,5.078814837896823,-3.988434845393896,-0.6081439536187797
1789583623640827100,9.7218271484375,3.661696753670275,-3.695855920642614,-1.8207339561864733
1789583623650874000,9.7318740234375,1.6099641305938361,-1.9834218879163263,-2.630639595490694
1789583623660920000,9.741920166015625,-0.49588265224695205,-0.24071254391372202,-2.732403395180404
1789583623670966300,9.75196630859375,-1.2294307357966898,0.9337368938952684,-2.199625136734545
1789583623681013200,9.76201318359375,-0.9649348729744553,0.9877151523202657,-1.4158739293843507
1789583623691059500,9.7720595703125,-0.6053042732134462,0.8627700912684202,-0.35812209489420055
1789583623701105200,9.782105224609374,-0.4277659783542156,1.4575363115936517,0.5777817677766084
1789583623711151000,9.792151123046875,0.11995339024439454,2.392435235005617,1.2817685335382818
1789583623721198300,9.8021982421875,0.7494624226488172,2.7737884217530486,1.8636144820138811
1789583623731244300,9.812244384765625,1.10054497429505,2.761116571706533,2.0821900129213926
1789583623741290200,9.822290283203126,1.4813471030309795,2.632293792438507,1.983773185572028
1789583623751336400,9.83233642578125,1.4195090710163116,2.4015748192727564,1.572841437640786
1789583623761383200,9.842383056640625,0.9166261115532368,2.0132956326544282,1.0385542359367013
1789583623771429400,9.852429443359375,0.7166716944854706,1.6788702012985943,0.5398475392449646
1789583623781475300,9.862475341796875,0.026752397847175598,1.5385112980157136,0.1803210574455559
1789583623791522300,9.872522216796876,-0.6338542950671165,1.4023416631162167,-0.13641579168029128
1789583623801568300,9.882568359375,-1.1702011327147483,1.5327087492167948,-0.4318175918325782
1789583623811614200,9.8926142578125,-1.3119687337517738,1.5391045877337455,-0.6388205391723663
1789583623821660200,9.90266015625,-1.4984160189926623,1.2973287985026836,-0.6755543789383024
1789583623831707100,9.91270703125,-1.7452748105764389,1.1881763498663902,-0.7248292819779366
1789583623841753300,9.92275341796875,-2.128658041846752,0.9939186831355095,-0.6701848877944052
1789583623851799300,9.93279931640625,-2.363155949029326,0.8663999722033738,-0.6393069344498217
1789583623861845200,9.94284521484375,-2.619291103002429,0.7109066281527281,-0.6518299506101757
1789583623871892200,9.952892333984375,-3.0481419539839028,0.7255436407923698,-0.611657587762922
1789583623881938200,9.962938232421875,-3.1727561756461857,0.8507073130309581,-0.5191059991851449
1789583623891984100,9.972984130859375,-2.870889782589674,0.7004705743342637,-0.38835941224768755
1789583623902030300,9.9830302734375,-2.161981634777784,0.4735252744883299,-0.39603696113824843
1789583623912077300,9.993077392578124,-1.4034458249658346,0.5132254167139529,-0.8161696681350469
1789583623922123300,10.003123291015624,-0.6648674190986901,0.534853895676136,-1.4113022375546396
1789583623932169200,10.013169189453125,-0.18936697207987307,0.12873919263780118,-1.7126579046100376
1789583623942216200,10.02321630859375,-0.42733569717817005,-0.26443127315342424,-1.6256081283189356
1789583623952262100,10.03326220703125,-0.9025649260401726,-0.5980792903959751,-1.3021318148702383
1789583623962308000,10.04330810546875,-0.9029647390127181,-0.7720347583323717,-1.362170396247506
1789583623972354000,10.05335400390625,-0.5001940857052802,-0.2970633766889572,-2.07943998356089
1789583623982401000,10.063401123046875,-0.20708163859918713,-0.5478413875430822,-2.9697280502215024
1789583623992447200,10.073447265625,-0.5026233586788177,-2.058255887365341,-3.480486492300033
1789583624002493200,10.0834931640625,-1.9372458276748656,-3.92212609770596,-2.9547987766370176
1789583624012539100,10.0935390625,-4.422521843463183,-5.286946131679415,-1.7466062053106723
1789583624022586400,10.10358642578125,-6.777368813830614,-4.765061607691646,-0.8765580858632922
1789583624032632300,10.11363232421875,-7.540662047302723,-2.7119103499889374,-0.25457813378944993
1789583624042678000,10.123677978515625,-6.579963496723771,-1.7487854490458965,0.6572127396270633
1789583624052724200,10.13372412109375,-4.415839589220285,-2.562729257825017,1.2103611475370823
1789583624062771200,10.143771240234376,-0.9665671503514051,-3.9302117890059947,0.6575529313668609
1789583624072817400,10.1538173828125,2.2548184700377285,-4.941916304200888,-0.3772936822235584
1789583624082863400,10.16386328125,4.28850617172718,-5.083250189995765,-1.4204440137788652
1789583624092910300,10.173910400390625,4.9423213778704405,-4.265721508467197,-2.4408060288123785
1789583624102956300,10.183956298828125,3.2305332418322563,-3.1998142784416674,-2.545531454786658
1789583624113002200,10.194002197265625,-0.0029962592065334317,-2.6851585366636512,-1.580419179418683
1789583624123048200,10.204048095703126,-3.7508693673342464,-2.309748183968663,-0.5472627839375287
1789583624133095200,10.21409521484375,-5.3956899995148175,-1.8261960209846495,0.1932934248086065
1789583624143141400,10.224141357421875,-3.671151102975011,-1.2054431264877319,1.2617077422842382
1789583624153187300,10.234187255859375,-0.7930109108656644,-0.38640754752755163,2.3167368738122285
1789583624163233300,10.2442333984375,1.2036229253232478,-0.2313642853319645,2.8211636286512016
1789583624173280300,10.2542802734375,2.9393045626461505,-1.1925041499376297,3.3134315975323316
1789583624183326200,10.264326171875,3.9355964046537872,-2.8501351638525723,3.8443195121869445
1789583624193372200,10.2743720703125,3.282893543666601,-3.3156191707044838,3.7959354205071922
1789583624203418400,10.28441845703125,1.61917941044569,-2.3400386928141117,3.718013099654019
1789583624213465000,10.294465087890625,0.3959608271621167,-1.5176602331668139,3.7713638738304374
1789583624223511300,10.30451123046875,-0.5235105908196419,-0.8604612298041582,3.580709200027585
1789583624233557200,10.31455712890625,-1.032492305549234,-0.554740499407053,3.272064106616378
1789583624243604200,10.324604248046874,-0.0872268864236772,-0.7006096905440091,2.790489673446119
1789583624253650200,10.334650146484375,1.2145172443032264,-0.8606710731625556,2.5260432027235624
1789583624263696100,10.344696044921875,2.142380131598562,-1.0073673627734183,2.1685895086102187
1789583624273742000,10.3547421875,2.7922806485161185,-1.1961913140177727,1.6031135340467095
1789583624283789000,10.3647890625,3.6524727059900757,-0.8211585624635219,0.4696485061202198
1789583624293835300,10.374835205078124,3.4170255352586505,-0.5417430706679821,-0.9075773473747074
1789583624303881200,10.384881103515625,1.4837620552182196,0.35043782400190826,-1.4089521672971546
1789583624313927200,10.39492724609375,0.3672805299922824,0.6238257260710001,-1.086160548176989
1789583624323974100,10.40497412109375,2.2382354378968476,0.5237170001119374,-0.4472568607658148
1789583624334020000,10.41502001953125,3.7496497624114156,0.785094730913639,-0.11438855919148773
1789583624344066000,10.425066162109376,4.168469340983033,1.0370885472983122,0.058049649749486704
1789583624354112300,10.4351123046875,4.490770619302988,1.3032131803661584,0.22634685902874915
1789583624364159200,10.4451591796875,4.136892299458384,1.8440443968862295,0.42827611983343955
1789583624374205400,10.455205322265625,4.035687302695215,2.446637949836254,0.5310444203905761
1789583624384251100,10.465251220703125,3.483819728375971,3.254357769533992,0.815792286190018
1789583624394298400,10.47529833984375,3.2301910042658446,4.156865412428975,1.1637912656724452
1789583624404344300,10.48534423828125,3.1927310421824453,4.9198856741786,1.395451611341536
1789583624414390300,10.495390380859375,3.139023709653318,5.382950344929099,1.4848793688103556
1789583624424436200,10.505436279296875,2.889699696999788,5.496784813901781,1.4854616987429559
1789583624434483200,10.515483154296875,2.4126199449002743,5.643212223443388,1.1155196213912217
1789583624444529400,10.525529296875,1.43113111974895,6.140219495806098,1.2504796613052487
1789583624454575400,10.535575439453124,1.0899871937930583,5.90645457907319,1.4553808871254323
1789583624464621300,10.545621337890625,0.6451116752058267,5.541521196728945,1.3507237040817737
1789583624474668300,10.555668212890625,-0.8679314195543527,5.215407666644453,1.3070410680912434
1789583624484714200,10.56571435546875,-2.0503367848038674,4.979834823706746,0.9230293296590447
1789583624494760200,10.57576025390625,-2.4015227968245743,4.326804045939445,0.21063951374385503
1789583624504807200,10.58580712890625,-2.576445648488402,2.9915882921129464,-0.7728022355735301
1789583624514853000,10.59585302734375,-3.1562410941749808,1.422956581121683,-1.7433844667851923
1789583624524899300,10.6058994140625,-3.259756413707137,0.19948913764357565,-2.314359184895456
1789583624534945300,10.6159453125,-2.649528420355916,-0.5904542023450136,-2.257986286418885
1789583624544992300,10.6259921875,-1.9965052413731812,-1.3156640811383724,-1.7370336364537478
1789583624555038200,10.6360380859375,-2.2596008820086717,-1.8655103787630796,-1.07415227660574
1789583624565084200,10.646084228515624,-3.1441449981898066,-2.3696394658297297,-0.3734418291009962
1789583624575130000,10.656130126953125,-4.099558009581267,-3.145543174549937,0.6102675216440111
1789583624585177000,10.666177001953125,-4.295743721765279,-4.191567307975888,1.7712072703428565
1789583624595223300,10.676223388671875,-3.739212247288227,-4.512858532470465,2.0780001600161193
1789583624605269200,10.686269287109376,-3.9966678362101313,-3.3661908355563877,1.0722271537620574
1789583624615315200,10.696315185546876,-4.74958376031369,-1.2097715110808611,-0.9270417801707983
1789583624625362200,10.706362060546875,-5.272308534517884,0.9107026397883892,-3.096354196228087
1789583624635408100,10.716408203125,-4.7188200809985394,2.59023276630044,-4.549708545961976
1789583624645454000,10.7264541015625,-3.151469641989469,3.351982861983776,-4.481586611372232
1789583624655501000,10.7365009765625,-2.5695424449712037,1.3174264146357775,-2.5070278288692234
1789583624665547000,10.746547119140626,-3.0001152974396943,-4.39818702815175,0.5053749224092811
1789583624675593200,10.75659326171875,-2.1122674635380507,-10.6887589979887,3.060668842601776
1789583624685639200,10.76663916015625,0.07894172702878713,-14.748245986205339,5.2091486062496895
1789583624695686400,10.776686279296875,1.8758388805538415,-13.54147248789668,5.575377873623371
1789583624705732400,10.786732421875,2.5107296059966084,-4.910585930913687,2.959626635184884
1789583624715778300,10.7967783203125,2.674075709374249,2.8943711959421634,1.1009962982591242
1789583624725824000,10.806823974609374,3.5417870564371343,7.623277202147245,1.3448058583401143
1789583624735871200,10.816871337890625,2.4164108616158364,9.743031806570292,2.2464966318942605
1789583624745917400,10.82691748046875,0.5556757344305515,8.427612055581807,4.119547489164769
1789583624755963400,10.83696337890625,-0.10968670164346694,6.2804644173204895,5.510143477168679
1789583624766009300,10.84700927734375,-0.08856295733302831,4.435438023659587,5.580183228078484
1789583624776056300,10.857056396484374,1.5156106071606277,2.167687152943015,4.569778981827199
1789583624786102300,10.867102294921875,4.098784394860267,1.1341799712628124,3.2591058408439157
1789583624796148200,10.877148193359375,6.616871962404251,0.6547784982174635,2.655018542204797
1789583624806195200,10.8871953125,7.960193281275034,-0.6715022540032863,2.345238745675236
1789583624816241200,10.8972412109375,8.305791848552227,-2.3768799384772774,1.8996888349577783
1789583624826287400,10.907287353515626,7.94108292261362,-3.5647061597317453,1.615648167579621
1789583624836333300,10.917333251953124,7.064576566937565,-4.389427383112907,0.8740389426492154
1789583624846380300,10.92738037109375,5.948955750194192,-5.23602258464992,-0.1358170951347798
1789583624856426200,10.93742626953125,4.222779023319482,-5.782026235371828,-1.0093762183777988
1789583624866472200,10.94747216796875,1.9477043855860827,-5.190165673360228,-1.5822317817986011
1789583624876518100,10.95751806640625,-0.16798691492080686,-3.1889971163511275,-1.9638927193209528
1789583624886565000,10.967565185546874,-1.3814984893128275,-1.1589046626746653,-1.8444065081968903
1789583624896611300,10.977611328125,-1.3557263346746564,-0.15765315243303774,-1.1002998404275626
1789583624906657300,10.9876572265625,-0.7215957799494266,0.2059668092250824,0.033133184925466776
1789583624916704300,10.997704345703125,-0.3616718963302672,0.4218757512718439,1.1351087034802883
1789583624926750200,11.007750244140626,-0.4773112227678299,0.8961714256107807,1.4756041754648088
1789583624936796200,11.017796142578124,-0.4907774380624294,1.9963678787291048,0.9850912335574626
1789583624946842000,11.027842041015624,-0.47851299977302547,2.9512217949330806,0.47512635300941763
1789583624956889000,11.03788916015625,0.14980594606399536,3.297052417400479,-0.1744490236070007
1789583624966935000,11.04793505859375,1.2557798135399818,3.2340351124733684,-0.5260127828989177
1789583624976981200,11.057981201171875,2.124276319631189,2.6286580662846566,-0.6059506082929671
1789583624987027200,11.068027099609376,2.7888112188398835,1.9025152905553577,-0.45826779186278577
1789583624997074200,11.07807421875,2.306841502741724,1.5299796165138482,-0.03703231125585735
1789583625007120100,11.0881201171875,1.1281798540651797,1.889685619598627,0.3332312531352043
1789583625017166000,11.098166015625,-0.12433715828657149,2.678625335502624,0.5616524707525968
1789583625027212000,11.1082119140625,-1.1514824037194251,2.9984020637810227,0.7224662791736424
1789583625037259300,11.11825927734375,-1.7181413044571876,2.6981910367161035,0.6562686637099832
1789583625047305500,11.128305419921874,-1.5139870976120233,2.155273077049851,0.18995346673093735
1789583625057351400,11.138351318359375,-1.0650240174502135,1.8581103316396475,-0.3032396541710943
1789583625067398400,11.1483984375,-1.1227350326627492,1.456954127791524,-0.36602329647280274
1789583625077444400,11.1584443359375,-1.2178484345525502,1.1337824963778256,-0.47561662074439226
1789583625087490300,11.168490234375,-1.6538409739822149,1.2883137173980475,-0.6006645576488227
1789583625097536300,11.178536376953126,-2.4416759435147046,1.668501367497444,-0.5982046703413129
1789583625107583200,11.188583251953125,-3.0637118635594844,1.2841922535538672,-0.38830790125615894
1789583625117629200,11.198629150390625,-3.566038285118341,0.4412368698239326,0.09536503856331109
1789583625127675400,11.20867529296875,-3.4721816052913663,0.020620763224363327,0.4295592184465378
1789583625137721300,11.218721435546875,-2.8053613716244694,-0.1804816548347473,0.29631051249504087
1789583625147768300,11.228768310546876,-2.1550445289909836,-0.2706073314398527,-0.42951632915288207
1789583625157814300,11.238814208984374,-1.2736843035429715,-0.22895956227779388,-1.4075133666656912
1789583625167860200,11.248860107421875,-0.3533511541653424,-0.6254232243955135,-2.0669526963010427
1789583625177906200,11.25890625,-0.3978752824813127,-1.8253040405809877,-1.8709914405226706
1789583625187953200,11.268953125,-2.050202929291129,-2.7289836498647926,-0.7157116903468966
1789583625197999400,11.278999267578126,-3.5942134092450138,-1.7698463572531937,-0.0992860113993287
1789583625208045300,11.28904541015625,-3.1267297530084845,-0.29695699370503426,-0.839332809318602
1789583625218092300,11.29909228515625,-1.7999321373067796,-0.135160750117898,-2.03854946250692
1789583625228138200,11.30913818359375,-1.8375057888977229,-1.0145143119186162,-2.6855837763383983
1789583625238184200,11.31918408203125,-3.439076623547077,-2.991865355488658,-2.3574441472537813
1789583625248230100,11.329230224609375,-5.4237739382267,-4.317047791078687,-1.4483165016971529
1789583625258277000,11.339277099609374,-5.97767974037528,-4.669610352149605,0.056184390167146915
1789583625268323000,11.349322998046874,-3.9945851847171783,-5.208416784843802,1.9740613543748855
1789583625278369300,11.359369384765625,-0.18131050687432287,-5.398920067477226,2.7846222427174445
1789583625288415200,11.369415283203125,2.512064069470763,-3.531159279438853,1.158450489166379
1789583625298462200,11.379462158203125,3.060861150303483,-1.8835089767903088,-1.0318994542226194
1789583625308508200,11.389508056640626,2.253408457109332,-1.8511498449772594,-2.198320922268182
1789583625318554000,11.39955419921875,0.9446527671199292,-2.1302304057300088,-2.6202356903761626
1789583625328600000,11.40960009765625,-0.09768654031343757,-2.8698966798990964,-1.9086995321482418
1789583625338647000,11.41964697265625,-0.3728834645658731,-3.1045202592879533,-0.5742425607997924
1789583625348693200,11.429693359375,-0.031401100435853,-2.536478964281082,0.6481614181652665
1789583625358739200,11.4397392578125,0.0401694950367324,-1.7835130635559557,1.781500993081182
1789583625368786400,11.449786376953124,-0.7683914333939552,-1.3064169448435305,2.580101832908392
1789583625378832400,11.459832275390625,-1.2956558968544005,-1.7948223930776117,2.8856054134234785
1789583625388878300,11.46987841796875,-0.3238461696743965,-3.242458657425642,3.0377485702633855
1789583625398924300,11.47992431640625,0.8982396101869642,-4.373424342817068,3.0171926889687777
1789583625408971300,11.48997119140625,0.4568764105696231,-3.585919628152251,2.824348103906214
1789583625419017200,11.500017333984376,0.3145967683572322,-2.1901760481268164,3.0378704430773853
1789583625429063400,11.5100634765625,-0.36553193275928497,-1.2271984466999768,3.513916175954044
1789583625439109400,11.520109375,-0.392427976860851,-0.6049304714649916,3.837207634355128
1789583625449156400,11.53015625,0.3794261642076075,-0.4177881896972656,3.834779238164425
1789583625459202300,11.540202392578125,2.170540204286575,-0.6947896060883998,3.552942364440858
1789583625469248300,11.550248291015626,3.7868727008685465,-1.1257254466503859,2.816653165489435
1789583625479294200,11.560294189453124,2.8635855970561503,-1.6329408092945814,1.6508778863929212
1789583625489341200,11.570341064453125,1.4347420037224887,-1.4830541992098092,0.8896509378008544
1789583625499387400,11.580387451171875,1.446390648201108,-1.3710568825364111,0.19840716935945674
1789583625509433300,11.590433349609375,0.9179077488616109,-1.0034364530652762,-0.42662616066932674
1789583625519480300,11.600480224609376,0.7208183658361434,-0.5828174238562583,-0.6906236455153674
1789583625529526300,11.6105263671875,2.354305118575692,-0.35169688415229317,-0.7623590213619172
1789583625539572200,11.620572265625,3.4144121378898618,0.042704000216722486,-0.8045756764531136
1789583625549618200,11.6306181640625,3.328673882588744,0.5567424868792296,-0.6355173329085111
1789583625559665200,11.6406650390625,3.917068522055447,1.2291922508656978,-0.2429982071654871
1789583625569711000,11.650711181640625,4.306721919636428,2.109188202223182,-0.015499967878218739
1789583625579757300,11.66075732421875,4.676288514739275,2.8034236815601585,0.10208681196584365
1789583625589803300,11.67080322265625,4.792249766607583,2.8346868348300456,0.33571057579554614
1789583625599850200,11.680850341796875,3.986066070435941,3.167710582694411,0.7032445690922439
1789583625609896200,11.690896240234375,3.6553555679500103,3.8509529588520524,0.878670036515966
1789583625619942100,11.700942138671875,2.955851500560343,4.5165795988202095,1.0744979482382535
1789583625629989000,11.710989013671876,2.933027674333751,4.949554836255312,1.1586202197100965
1789583625640035000,11.72103515625,3.302261968742311,5.279052748081088,1.0747398672353476
1789583625650081300,11.731081298828125,3.1132594460606575,5.6593374288141725,0.9318977688346057
1789583625660127200,11.741127197265625,2.693626505279541,5.966865500894189,0.8358166178911924
1789583625670174200,11.75117431640625,2.394434299868345,6.419851260700821,0.6665733462337404
1789583625680220200,11.76122021484375,1.3282505909889937,6.655860741490125,0.6459064057800918
1789583625690266000,11.77126611328125,0.16039192974716424,6.502360032561421,0.739048872923106
1789583625700312000,11.78131201171875,-0.6463982078850269,5.965294306054711,0.5896260809578001
1789583625710359300,11.791359375,-1.3850181878715753,5.253185316374898,0.2841759293966927
1789583625720405200,11.8014052734375,-2.208255017913878,4.245381315749883,-0.004300071814097464
1789583625730451500,11.811451416015625,-3.07977803221941,2.760706821861863,-0.4899801502048969
1789583625740497400,11.821497314453126,-3.652301148815453,1.0466408040195703,-1.0395223503164945
1789583625750544400,11.83154443359375,-3.6611397043094036,-0.7619821508735418,-1.3472111659161745
1789583625760590300,11.84159033203125,-3.2774893465355035,-2.376103108885884,-1.6429177211686967
1789583625770636300,11.85163623046875,-2.6311604044944046,-3.337006826648116,-1.9824463208824394
1789583625780683300,11.861683349609375,-1.8911726432859897,-3.8621296019047495,-1.9495394920587539
1789583625790729200,11.871729248046876,-2.276941600649059,-4.451586609905958,-1.1459100104145705
1789583625800775200,11.881775146484374,-2.8917852711021896,-5.221308999642729,0.26299134001079943
1789583625810821400,11.8918212890625,-2.7061639152914285,-5.430628626427054,1.5307196212261915
1789583625820868400,11.901868408203125,-2.3478069887280464,-4.749444936364889,1.6032621487371623
1789583625830914300,11.911914306640625,-3.308711291012168,-2.6708944489896296,-0.12684778940062968
1789583625840960300,11.921960205078125,-4.55742189681828,-0.4104968636453151,-2.479063132622838
1789583625851006200,11.932006103515626,-5.228951038828492,1.9367501531124114,-4.260345368386805
1789583625861053200,11.94205322265625,-5.100938991421461,4.461438141834735,-5.070916778123379
1789583625871099100,11.95209912109375,-3.8733904161095616,6.5398050893366335,-4.688674533581733
1789583625881145300,11.962145263671875,-3.026048780119419,5.8749371587812895,-2.8489821944251656
1789583625891191300,11.97219140625,-3.5745068382561205,1.5304542482882737,0.17048501534685492
1789583625901238300,11.98223828125,-3.628186405995488,-4.635692300456762,2.034630097106099
1789583625911284200,11.9922841796875,-1.2472756045669318,-11.656848827862738,3.3914728685900566
1789583625921330200,12.002330078125,0.5945704054921865,-17.023802562236785,5.762083517539501
1789583625931377200,12.012377197265625,2.681162452764809,-16.259246761482952,6.9498021867662665
1789583625941423000,12.022423095703125,5.793799090752005,-5.670272664326429,4.991528184109926
1789583625951469000,12.032468994140626,6.104708037441968,2.602097391617298,2.791347167058289
1789583625961515300,12.042515380859374,4.342370448383688,6.393555374449491,2.0665186887979505
1789583625971562200,12.052562255859375,1.866499974322319,8.284353339204191,1.729348196517676
1789583625981608200,12.062608154296875,-0.049613048952817915,8.349934941661358,1.6185750148117541
1789583625991654100,12.072654052734375,-1.2307988092795015,6.935953109633922,1.768466447202116
1789583626001700000,12.0827001953125,-1.0717825517997146,4.459531431430578,2.421440526346117
1789583626011747000,12.0927470703125,1.9425427650392055,1.6742670914173126,3.2935976007714864
1789583626021793000,12.10279296875,6.393609150463342,-0.9447516243845224,4.036887033873796
1789583626031839200,12.112839111328125,9.179322403287888,-2.2354133662134408,3.9241859528452157
1789583626041885200,12.12288525390625,8.769857805299758,-3.004715484711528,2.9339217005640266
1789583626051932400,12.132932373046875,6.71473027908802,-3.539523787680268,1.90223121291697
1789583626061978400,12.142978271484376,5.09463609188497,-3.6119051332801577,0.7539196943186223
1789583626072024300,12.1530244140625,4.2177030352294445,-3.3153006062746044,-0.48869230235144495
1789583626082071300,12.1630712890625,3.159595957560837,-2.8275813867390154,-1.4447748835675418
1789583626092117200,12.1731171875,2.287204051466286,-2.0004677152633668,-2.158718541328609
1789583626102163200,12.1831630859375,1.0809247664153576,-1.0467828428387642,-2.4424124410957098
1789583626112209400,12.19320947265625,-0.13233458678126334,-0.1503618263810873,-2.198420875511318
1789583626122256400,12.20325634765625,-0.7587441918656229,0.4623492159575224,-1.3748371317274868
1789583626132302300,12.21330224609375,-0.7791875526964664,0.3013753946691751,-0.2865135602977127
1789583626142348300,12.223348388671875,0.28290625652074813,1.2470756980806588,0.8656582869905978
1789583626152394200,12.233394287109375,0.2349943123973906,1.9362720142066479,1.1861563152808696
1789583626162441200,12.243441162109375,0.3564031621471047,2.710734291946888,1.516717691619694
1789583626172487200,12.253487060546876,1.1948958673797547,2.777408365815878,1.5454758763313292
1789583626182533400,12.263533447265624,1.2473546611525117,2.365545474514365,1.491700739262998
1789583626192579300,12.273579345703125,0.815388162368536,2.0083733738213776,1.2135364896375684
1789583626202626300,12.283626220703125,0.5936814207632094,1.7881459840536116,0.6312899244718253
1789583626212672300,12.29367236328125,0.25842297264933584,1.7133283512175081,0.18136925132423637
1789583626222718200,12.30371826171875,-0.12555661707893012,1.9055343461155891,0.0009605155952274798
1789583626232764200,12.31376416015625,-0.5026104991972447,2.2051333787620067,-0.09155468649491667
1789583626242811100,12.32381103515625,-1.0058394225537777,2.1529764905452726,-0.2259529278077185
1789583626252857000,12.333857177734375,-1.655519136327505,2.090996711972356,-0.3406024394903332
1789583626262903300,12.3439033203125,-2.0667712022542952,2.034080062007904,-0.5288677339386194
1789583626272950300,12.3539501953125,-1.9789163931906222,1.800631371617317,-0.7530985141288489
1789583626282996200,12.363996337890624,-1.7043822436958551,1.3504261824399233,-0.7912400287356227
1789583626293042200,12.374042236328124,-1.6711486671358347,1.058683708512783,-0.7003807040937244
1789583626303088000,12.384088134765625,-1.7123305723518132,0.8153285411357879,-0.5716277751915156
1789583626313135000,12.394135009765625,-1.6416928555488586,0.6851596079558133,-0.3917171251777559
1789583626323181000,12.40418115234375,-1.444974936184287,0.6682622491687535,-0.19041677339375018
1789583626333227300,12.414227294921876,-1.7434715605467557,0.6870967134982348,0.0042230245225131505
1789583626343273200,12.424273193359374,-2.551790515181422,0.6538397560626268,0.03169913353435695
1789583626353320200,12.4343203125,-3.1916227886795996,0.7395727506667376,-0.3293414060898125
1789583626363366100,12.4443662109375,-3.264378228288889,0.7290577863931655,-0.368768576592952
1789583626373412000,12.454412109375,-2.8201246409922835,0.857238760626316,-1.130137710134685
1789583626383459300,12.464459228515626,0.15341544179804623,-0.34414310777187346,-1.9991874661944806
1789583626393505300,12.47450537109375,0.6231815829485654,-1.0575818847507237,-1.6776266309782861
1789583626403551000,12.484551025390624,0.05972469312250614,-1.2307190220415591,-1.1233378208614886
1789583626413597200,12.49459716796875,-0.8992412615101784,-0.7796107465445995,-1.2116809979639946
1789583626423644200,12.50464404296875,-0.6839911486983299,-0.14089198724627494,-2.0481632401570677
1789583626433690000,12.514690185546876,-0.9197996270228177,-0.9369365667194127,-2.5684850448727605
1789583626443736000,12.524736083984376,-2.2419565042465925,-2.660744226375222,-2.043218038839847
1789583626453782000,12.534781982421874,-4.132029661858081,-3.933907720914483,-0.9747695998989045
1789583626463829000,12.5448291015625,-4.210779957967996,-3.9404783314764495,-0.9538212121553719
1789583626473875000,12.554875,-7.003378878653049,-2.563316117802262,1.0272785164237022
1789583626483921200,12.564921142578125,-6.052325523775815,-1.836467824152112,1.9575639546908437
1789583626493967000,12.574967041015626,-3.1734184389472007,-2.4508108516067266,2.3002041105538606
1789583626504014000,12.58501416015625,0.42733927737474436,-3.703955640468001,1.696737281900644
1789583626514060000,12.59506005859375,3.0581501377791165,-5.701556275862455,0.5012072082705795
1789583626524106000,12.60510595703125,4.124468286693096,-5.7364662612020965,-1.3880103554248808
1789583626534152000,12.61515185546875,3.276589475086331,-4.567107424530387,-2.9136589569970965
1789583626544199000,12.625198974609376,1.1378694734305144,-4.319274234956502,-3.6924502038523555
1789583626554245000,12.6352451171875,-1.93520467723608,-3.3089836782127615,-3.181647922632098
1789583626564291000,12.645291015625,-1.7884896829247474,-3.2911949235439297,-3.120110042607784
1789583626574338300,12.65533837890625,-3.5632612216204405,-0.5586380913674831,-0.7171581628281622
1789583626584384300,12.66538427734375,-0.7977250799059867,-0.11898235325515269,0.9993117012854665
1789583626594430200,12.67543017578125,1.2877724501281975,0.41110651997625824,2.145019394060969
1789583626604476200,12.68547607421875,1.7839514549732207,-0.0856856483310461,2.8067957883417605
