time,seconds_elapsed,z,y,x
1789485092743294500,0.08129443359375,1.8354449108451605,-0.28609803829938174,0.04759520632438361
1789485092753339600,0.091339599609375,1.6094862839490174,-0.23685060778856276,0.14359788520410657
1789485092763384600,0.101384521484375,1.4009411486685275,-0.14278642269074915,0.08603650759533048
1789485092773429800,0.1114296875,1.3060305758744477,0.01625263114273548,-0.1000502007048577
1789485092783475500,0.121475341796875,1.230756431442499,0.1553635801911354,-0.1255724722351879
1789485092793520400,0.131520263671875,1.064272906821966,0.20654519363492727,0.053508375890925525
1789485092803565600,0.141565673828125,0.8514806354910135,0.27012890027314423,0.4102581595186144
1789485092813611500,0.151611572265625,1.0868979956060647,0.2937295560911298,0.6750487675037234
1789485092823656400,0.161656494140625,1.8256454013645649,0.08278305875733494,0.7840261518340558
1789485092833701600,0.17170166015625,2.8230162707805633,-0.47589536462053655,0.7238888593226671
1789485092843746300,0.181746337890625,3.822714121839404,-1.1900079492077231,0.5428643297828734
1789485092853792500,0.19179248046875,4.486403656265139,-1.8515549186468123,0.4714334898408502
1789485092863837400,0.20183740234375,4.466591286814213,-2.4021342067211866,0.5669746156234294
1789485092873882600,0.211882568359375,3.8208161792635917,-2.7208184635877606,0.6705547440201044
1789485092883928600,0.221928466796875,2.920173745718598,-2.7845553149610756,0.8010567085467278
1789485092893973500,0.231973388671875,2.131281960609555,-2.5768098056256767,0.898701163284108
1789485092904018400,0.242018310546875,1.464035610485077,-2.202093718805164,0.9229615981850773
1789485092914063400,0.2520634765625,0.8601905961692333,-1.7594678788408635,0.9679192225474864
1789485092924109600,0.262109619140625,0.3570382451802492,-1.3910098295018076,1.074486330865696
1789485092934154500,0.272154541015625,-0.06434416961669921,-1.1377493541821837,1.060109503532201
1789485092944199700,0.28219970703125,-0.3841127145886421,-0.937860988087952,0.9099274906974285
1789485092954245600,0.29224560546875,-0.7112450663268566,-1.0139502482950686,1.0041724391896276
1789485092964290600,0.30229052734375,-0.7016998238682747,-0.8754137381337582,0.6496520951144397
1789485092974335500,0.31233544921875,-0.6450193207472562,-0.42519802756235003,0.2812611927274614
1789485092984381400,0.32238134765625,-0.8820698350220918,-0.6714271429404616,0.9445353512853384
1789485092994426400,0.33242626953125,-0.9449795879215002,-0.6085001466453075,0.9706384914435445
1789485093004471600,0.342471435546875,-1.1079653335541486,-0.44780572682023045,1.0155305032238364
1789485093014516500,0.3525166015625,-1.173907586017251,-0.26173984211236234,0.8990446429595351
1789485093024562700,0.362562744140625,-1.1394511896640063,0.1509519012287259,0.7356585728976875
1789485093034607400,0.372607421875,-1.3306085522919893,0.031711773820221424,1.4089283480301498
1789485093044652500,0.382652587890625,-1.5318442413419484,0.06381517730653286,1.4504377316348254
1789485093054698500,0.392698486328125,-1.6251900490373372,0.4856561495259404,0.780990291269496
1789485093064743400,0.402743408203125,-1.9010650917470453,0.3291927913993597,0.7348392193388193
1789485093074788600,0.41278857421875,-1.9634844307810067,0.20211393318921325,0.5145099035665393
1789485093084833500,0.42283349609375,-1.787432867348194,0.23667525122165678,0.26071217956505716
1789485093094879700,0.432879638671875,-1.5025304685741663,0.09340075275301933,0.10546265420764685
1789485093104924400,0.44292431640625,-1.2508745058417319,-0.2304213053934276,-0.12463935610353946
1789485093114969600,0.452969482421875,-1.0617968720972537,-0.5165056074284017,-0.3463888408720493
1789485093125015600,0.463015625,-0.8907944087475538,-0.603805997479707,-0.505609827143699
1789485093135060500,0.473060546875,-0.6979764194309711,-0.47692134666740893,-0.512140324890986
1789485093145105700,0.483105712890625,-0.4382902949780226,-0.36976270219683643,-0.529689279454574
1789485093155151600,0.493151611328125,-0.40232290953993793,-0.3875865281790495,-0.4623679206579923
1789485093165196500,0.503196533203125,-0.6801613612771034,-0.4369553931124508,-0.3397054906506091
1789485093175241500,0.513241455078125,-1.0150456423163414,-0.3333703693449497,-0.32033545813970266
1789485093185286400,0.523286376953125,-1.2525538372308016,-0.04322144821956753,-0.26821722143292426
1789485093195332600,0.53333251953125,-1.2556219926297665,0.21501491581648588,-0.14991400954835116
1789485093205377500,0.54337744140625,-1.0068816250830888,0.24635142658352852,-0.05336904048547148
1789485093215422700,0.553422607421875,-0.7553454893380404,0.08323825517892837,0.032563203017786146
1789485093225468700,0.56346875,-0.5519950000911951,-0.043012627774477,0.008005027279257775
1789485093235513300,0.573513427734375,-0.4553104033619165,-0.036971886305510994,-0.09988200453110038
1789485093245558500,0.58355859375,-0.5354349104344844,0.035848727494478226,-0.014518646956980227
1789485093255604500,0.5936044921875,-0.4453028040885925,0.1825697131551802,0.17395714843682944
1789485093265649700,0.603649658203125,-0.2900760020196438,0.35295287556275723,0.32668248907886444
1789485093275694600,0.613694580078125,-0.30139234580397606,0.3813922035835683,0.395205040358752
1789485093285739500,0.623739501953125,-0.46501697386205193,0.329388021710515,0.41720943996123966
1789485093295785500,0.633785400390625,-0.6309475407749414,0.36723128402307625,0.42685697375051673
1789485093305830400,0.643830322265625,-0.6167910051286221,0.5266882710076868,0.47906055065318937
1789485093315875600,0.65387548828125,-0.4108370553851127,0.604141513044387,0.581583863473311
1789485093325921500,0.663921630859375,-0.13869710755050182,0.516945167889446,0.7111456976056099
1789485093335966500,0.673966552734375,0.20406652856171129,0.32963030603379007,0.6660415043793618
1789485093346011400,0.684011474609375,0.6621013884514569,0.1520880656518042,0.4577581618402153
1789485093356056600,0.694056640625,1.134337792173028,-0.015993834076076744,0.2799217608172446
1789485093366102500,0.7041025390625,1.3330524383127689,-0.2043900614276528,0.21913016911558805
1789485093376147500,0.7141474609375,1.4195850588619707,-0.3004085954636335,0.24750680716373025
1789485093386192600,0.724192626953125,1.4515093063890934,-0.2752440513297915,0.24950915996208786
1789485093396238600,0.734238525390625,1.4436650226294994,-0.19531360552459953,0.26580365748517215
1789485093406283500,0.744283447265625,1.5008248337000607,-0.14681523981541394,0.3145011259630322
1789485093416328400,0.754328369140625,1.536143984362483,-0.1363248254612088,0.3045690761439502
1789485093426374400,0.76437451171875,1.5104039784282446,-0.19641805963516235,0.12906148339472712
1789485093436419600,0.774419677734375,1.3628729915589093,-0.2814800231099129,-0.11905885255746543
1789485093446464500,0.784464599609375,1.0919295600324868,-0.2518050158143043,-0.2752957084517926
1789485093456509700,0.794509765625,0.7381032626360654,-0.057761868616938584,-0.2707408216264099
1789485093466555600,0.8045556640625,0.44536593245267864,0.22491963923722505,-0.2658419436689466
1789485093476600300,0.814600341796875,0.3186795806914568,0.33632074358314273,-0.2890345301426947
1789485093486645500,0.8246455078125,0.2938713026493788,0.19943097771555185,-0.32682094770148395
1789485093496691500,0.83469140625,0.48585108757615086,-0.11975626023709773,-0.35383740331232544
1789485093506736600,0.844736572265625,0.8732318640500306,-0.4382283356577158,-0.4589990287467837
1789485093516781600,0.854781494140625,1.464385739096999,-0.6852022780537604,-0.5607203044690191
1789485093526827500,0.86482763671875,2.077689486631751,-0.9049673110067844,-0.5700825915761292
1789485093536872700,0.874872802734375,2.4444652819722887,-1.1502753660172222,-0.5568237354218959
1789485093546917400,0.88491748046875,2.6526129423677918,-1.2855568199053407,-0.5333285127397627
1789485093556962000,0.894962158203125,2.568806531912088,-1.3125228605031967,-0.6195544054273515
1789485093567008000,0.905008056640625,2.1590999418616295,-1.3294593822568654,-0.7911153063774108
1789485093577053200,0.91505322265625,1.6435241626292467,-1.321547001697123,-0.9463732342369854
1789485093587097900,0.925097900390625,1.2262252177536488,-1.230152328069508,-1.111521710861474
1789485093597143800,0.935143798828125,0.8948305323958397,-1.1452990389093756,-1.2512810408160089
1789485093607189000,0.94518896484375,0.6007336042970418,-1.1050754573315382,-1.3435183027476072
1789485093617234000,0.95523388671875,0.4425391845941543,-1.0876152039647102,-1.376551388299465
1789485093627280000,0.96527978515625,0.2588040809214115,-1.146982169690728,-1.3307193191900848
1789485093637325000,0.975324951171875,0.0952753144532442,-1.208613573217392,-1.2364604883030057
1789485093647370000,0.985369873046875,-0.06930033071935177,-1.2515417375788092,-1.0536450567584483
1789485093657415000,0.995414794921875,-0.16893851655721664,-1.2047741411849855,-0.835857388292998
1789485093667460900,1.0054609375,-0.3338753962576389,-1.1090595585316418,-0.5667654298521578
1789485093677506000,1.015506103515625,-0.41932314417958255,-1.0110583262458444,-0.3305813231483102
1789485093687551000,1.025551025390625,-0.4709463639110327,-0.9257593391448259,-0.1540600963771343
1789485093697597000,1.035596923828125,-0.45386195811927316,-0.830606482027471,-0.15175510737039147
1789485093707642000,1.04564208984375,-0.3343810076922178,-0.7817009968221187,-0.18354279597103595
1789485093717686800,1.055686767578125,-0.24805998406708238,-0.771877521944046,-0.13467610840611158
1789485093727733000,1.06573291015625,-0.2795014165133238,-0.8221937507301569,-0.1104424884468317
1789485093737778000,1.07577783203125,-0.33803660759031773,-0.8662588101670146,-0.13193966917954383
1789485093747823000,1.085822998046875,-0.5597720638334751,-0.9220911720260977,-0.13668883646801114
1789485093757868000,1.095867919921875,-0.8231038513123988,-0.8892696833983064,-0.20804025449827312
1789485093767914000,1.1059140625,-0.9789268657088279,-0.8217164886072278,-0.2734818639628589
1789485093777959000,1.115958984375,-1.050858129453659,-0.7457327346011996,-0.2828103218656033
1789485093788003800,1.12600390625,-1.0930068338751793,-0.6158285898372531,-0.16898118665516376
1789485093798050000,1.136050048828125,-1.1510504420429468,-0.43750265173166986,-0.006060030691325664
1789485093808095000,1.146094970703125,-1.1383400135517119,-0.18797697902619837,0.01958601334914565
1789485093818140000,1.156139892578125,-1.0045651648342608,0.010459142433106899,-0.06767872086688875
1789485093828186000,1.16618603515625,-0.7911445324718952,0.03620557810813188,-0.10698284951224922
1789485093838231000,1.17623095703125,-0.6770709940463304,-0.025543898840248585,-0.10335355309918522
1789485093848276000,1.18627587890625,-0.7271025606721639,-0.07038257299810648,-0.21078933401070535
1789485093858321000,1.19632080078125,-0.9828384861946106,-0.05499971042722463,-0.3792148595444858
1789485093868366800,1.206366943359375,-1.2138999891877174,-0.05127250659763813,-0.5371058393213898
1789485093878412000,1.216412109375,-1.3091606905937194,-0.006511866112053394,-0.662026861910522
1789485093888457000,1.22645703125,-1.2207336346000432,0.02524988432973623,-0.7222527825534343
1789485093898503200,1.236503173828125,-0.9816074830949306,0.0422916200235486,-0.7396184895046055
1789485093908547800,1.2465478515625,-0.5879115321248769,0.054174657779932016,-0.610498992312327
1789485093918593000,1.256593017578125,-0.32105098599791526,0.037135260173678394,-0.4827552404526621
1789485093928639000,1.266638916015625,-0.15986206065416336,0.017515490685403347,-0.40668746142499146
1789485093938684000,1.276683837890625,-0.10180617752671241,0.1023731637597084,-0.32005116130560635
1789485093948729000,1.28672900390625,-0.15191314747631549,0.2455406947225332,-0.20315767008848487
1789485093958774000,1.29677392578125,-0.1744032117038965,0.4459729584351182,-0.006635638622194528
1789485093968820000,1.306820068359375,-0.17736439959704875,0.6653180124104022,0.009708835522457956
1789485093978865000,1.316864990234375,-0.29515374367535113,0.7500304317951202,-0.19890198540538548
1789485093988910000,1.32691015625,-0.458073438334465,0.6624839580282569,-0.3871877381198108
1789485093998956000,1.3369560546875,-0.5317091679096222,0.531595770663023,-0.48583472096323965
1789485094009001000,1.3470009765625,-0.47478959533572196,0.46811581666022534,-0.45066849584020674
1789485094019046100,1.357046142578125,-0.1863292118191719,0.48326662404090165,-0.3371000573925674
1789485094029090800,1.3670908203125,0.33131109872758385,0.49287733295112846,-0.16458981982842086
1789485094039136800,1.37713671875,0.7230933250308036,0.4467313755869865,0.10705876429267228
1789485094049182000,1.387181884765625,0.6074468382000923,0.34910686765909194,0.2363640663806349
1789485094059227000,1.397226806640625,0.12808628168702124,0.27220366072058677,0.002178659213334322
1789485094069273000,1.407273193359375,-0.4563292250156402,0.30316987687051294,-0.3648729573938995
1789485094079318000,1.417318115234375,-0.975541899445653,0.5132327232375741,-0.7354770788509398
1789485094089363000,1.427363037109375,-0.9297247356444597,0.6063330317392945,-0.6802117032248527
1789485094099409000,1.437408935546875,-0.2608300337910652,0.6270844356060028,-0.2809393403619528
1789485094109453800,1.447453857421875,0.29058336701989174,0.6755906923606991,0.07320077222399413
1789485094119499000,1.4574990234375,0.46708267422020433,0.6569733779132366,0.20813049006499348
1789485094129544000,1.4675439453125,0.3850111247330904,0.5661828076586127,0.3211054926641285
1789485094139590100,1.477590087890625,0.4245072688192129,0.5711340003252029,0.39389899926148353
1789485094149635000,1.487635009765625,0.5440116001218557,0.602037088111043,0.3477302455436438
1789485094159680000,1.497679931640625,0.6006582009732723,0.5194345004871487,0.22486480377744883
1789485094169726000,1.507725830078125,0.7349117731183767,0.38450668234229085,0.22903628077581523
1789485094179771000,1.51777099609375,0.7989613437026739,0.268126328279078,0.3174625330518931
1789485094189816000,1.527816162109375,0.8731500309854745,0.10472644888758659,0.42008115947265173
1789485094199862000,1.537862060546875,1.0388391903579235,-0.1333785428762436,0.5634240835350006
1789485094209907000,1.547906982421875,1.3647177426427601,-0.3957555138483643,0.6497440111815929
1789485094219951900,1.557951904296875,1.7838339660733937,-0.677207772168517,0.6991469975803047
1789485094229996800,1.567996826171875,2.0706594418644904,-0.9809384977921843,0.6787446263469755
1789485094240043000,1.57804296875,2.0718845997452733,-1.3052794652462005,0.6210852682564407
1789485094250088000,1.588087890625,1.822099691581726,-1.547804027017951,0.5407104031519964
1789485094260133000,1.598133056640625,1.4303355854570865,-1.654575425736606,0.38119865377284584
1789485094270179000,1.608178955078125,1.0503554406285285,-1.6891569097742438,0.2573086547318846
1789485094280224000,1.61822412109375,0.7071043132603168,-1.6709470070838928,0.25060723913079125
1789485094290269000,1.62826904296875,0.41778935874104495,-1.6406185043156145,0.31908801536187525
1789485094300315000,1.63831494140625,0.27006080347299577,-1.6303288732305168,0.3931528570692986
1789485094310360000,1.648360107421875,0.4514420374959707,-1.4744319168150424,0.6127666449833661
1789485094320405000,1.658405029296875,0.7924252199321985,-1.3070242630869149,0.8730825187072158
1789485094330450200,1.6684501953125,0.9875082315713166,-1.337511463548243,1.0236636869274078
1789485094340496100,1.67849609375,0.9250842163622379,-1.4555679341301322,0.9936626625478268
1789485094350540800,1.688540771484375,0.5336924506813288,-1.4399240825355053,0.9178224086657166
1789485094360586000,1.6985859375,0.024257658421993254,-1.2630886752486228,0.766081841277331
1789485094370632000,1.7086318359375,-0.42143326820135113,-0.9948521645933389,0.6115584382373839
1789485094380676900,1.7186767578125,-0.76849430924654,-0.8187722518488765,0.47174752422608435
1789485094390722000,1.72872216796875,-1.1115344242125749,-0.6840469705387949,0.38399712538495656
1789485094400767000,1.73876708984375,-1.4483715928852556,-0.532336067636311,0.30811555311176925
1789485094410813200,1.748813232421875,-1.7019570623755453,-0.2964180645227432,0.28893740817746144
1789485094420857900,1.75885791015625,-1.7102181102424858,-0.005158697937428951,0.355631447122246
1789485094430903000,1.768903076171875,-1.466720904046297,0.16974661806970834,0.4391898741662502
1789485094440949000,1.778948974609375,-1.166650746756792,0.1372314189121127,0.502434229314886
1789485094450994000,1.788993896484375,-0.9531465277642011,0.007122399225831032,0.4781298091417178
1789485094461039000,1.7990390625,-0.9163140499293804,-0.07232815410792827,0.41846210690345614
1789485094471085000,1.8090849609375,-0.844051362273097,-0.15138766229748726,0.31851456285547464
1789485094481130000,1.8191298828125,-0.660857525870204,-0.28102175794839857,0.13728929571234622
1789485094491175000,1.8291748046875,-0.49203474464714525,-0.4346782419607043,0.039004981302004305
1789485094501220000,1.83922021484375,-0.36751463100910187,-0.5444868164181709,-0.03180785003926139
1789485094511266000,1.84926611328125,-0.2796300113290548,-0.5257987748220563,-0.12525441012880764
1789485094521311000,1.85931103515625,-0.05877893670499324,-0.42437545913308855,-0.18722265352755785
1789485094531356000,1.86935595703125,0.1702688883781433,-0.3883253638476133,-0.10802764585744588
1789485094541401900,1.87940185546875,0.3100906160444021,-0.4335772949814796,-0.01008354830307653
1789485094551447000,1.889447021484375,0.3293628872692585,-0.5102537074267864,0.027720158317231104
1789485094561492500,1.899492431640625,0.14050854088664055,-0.5453215136766434,-0.02125524118602043
1789485094571538400,1.909538330078125,-0.09318097252249717,-0.42983723167032,-0.015664442291506566
1789485094581583600,1.91958349609375,-0.07190729834735393,-0.31466128496080636,0.018088952324958517
1789485094591628500,1.929628662109375,0.10406827723979949,-0.3246332283988595,0.13829263666914776
1789485094601673500,1.939673583984375,0.35470950997173784,-0.44951019265055653,0.2759513228163123
1789485094611719400,1.949719482421875,0.5902326685488224,-0.5376330050006508,0.3042415612226352
1789485094621764400,1.959764404296875,0.7431944482952356,-0.5912625961184501,0.23580908111268653
1789485094631809500,1.9698095703125,0.7872305738985538,-0.7145774256199597,0.22877320939283816
1789485094641855500,1.97985546875,0.7631587934374808,-0.836660375238955,0.17670798151493072
1789485094651900400,1.989900390625,0.6660340517252683,-0.9191998344987631,0.15893102688174693
1789485094661945600,1.999945556640625,0.5034831903785467,-0.8737953431516885,0.14212260675346478
1789485094671991600,2.009991455078125,0.3240595201641321,-0.7040241751626134,0.20750539870290086
1789485094682036500,2.020036376953125,0.19177344869971275,-0.44333851827830073,0.3652874564789235
1789485094692081400,2.030081298828125,0.10080255344212055,-0.19416881940364836,0.5116901699706912
1789485094702126600,2.040126708984375,-0.08442658818066119,0.008373568330705166,0.6089763127896934
1789485094712172500,2.050172607421875,-0.41301849107742306,0.14475830728560685,0.649173956208676
1789485094722217500,2.060217529296875,-0.7561813556402921,0.2798188118994236,0.6271832198053598
1789485094732262400,2.070262451171875,-0.9548334579378366,0.38223961419314145,0.5481322237158194
1789485094742308400,2.080308349609375,-1.0580705450505017,0.4658940489575267,0.4926020596737042
1789485094752353500,2.090353515625,-1.1224702442467211,0.5384732552170753,0.5300990658318624
1789485094762398500,2.1003984375,-1.0861346100181342,0.612598521874845,0.6449119148500263
1789485094772444400,2.1104443359375,-0.8013882785886526,0.9174138278648257,0.5399940715761855
1789485094782489600,2.120489501953125,-0.5570762488782406,1.0412968126431106,0.7039376659229397
1789485094792534500,2.130534423828125,-0.42648353732824323,0.9923130015045404,0.8703837080772966
1789485094802579500,2.140579345703125,-0.35585634191930293,0.9552850010976195,0.9314084509477019
1789485094812625400,2.15062548828125,-0.07416472188532353,0.9743719788834452,0.9286549144558608
1789485094822670300,2.16067041015625,0.3092442283481359,1.0580043479464947,0.9075518476072698
1789485094832715500,2.170715576171875,0.4643038571566343,0.8786896910645067,0.9927533656831831
1789485094842761500,2.180761474609375,0.5118354236602783,0.6630829468347131,0.86094287584126
1789485094852806700,2.190806640625,0.5386801759660244,0.5533455379173159,0.6754521606728434
1789485094862851300,2.200851318359375,0.5499900900095701,0.4581847897544503,0.5300661864755675
1789485094872897300,2.210897216796875,0.6238759949535131,0.38754181225448847,0.5195610494762659
1789485094882942500,2.2209423828125,0.6836340058237313,0.3831649123445153,0.5427330680860206
1789485094892987400,2.2309873046875,0.6999649628996849,0.38464959794431924,0.543919172598049
1789485094903032600,2.241032470703125,0.6270762522995471,0.37756270842328665,0.5542118358904495
1789485094913078500,2.25107861328125,0.7009200716674328,0.5606427091881633,0.4082141595356166
1789485094923123500,2.26112353515625,0.6741109751969575,0.6076257018983364,0.5315714034067467
1789485094933168400,2.27116845703125,0.6081558632522821,0.591257335421443,0.5964664849044755
1789485094943214300,2.28121435546875,0.4870230539649725,0.5763388754919171,0.5870164099160582
1789485094953259500,2.291259521484375,0.3769762868374586,0.5406466537334025,0.4830111514424905
1789485094963304400,2.301304443359375,0.24052432786524294,0.49607247573062774,0.3825166045036167
1789485094973350400,2.311350341796875,0.11465689127147197,0.48514001669734713,0.3054318852520548
1789485094983395600,2.3213955078125,-0.019431845700740812,0.46742520404756066,0.28598513424312694
1789485094993440500,2.3314404296875,-0.10460603737831115,0.4224360155031085,0.2662307237908244
1789485095003485400,2.3414853515625,-0.21089549779891967,0.38908056612908837,0.23487978263963014
1789485095013531400,2.351531494140625,-0.22498539794981479,0.3831435772955417,0.2294069955180399
1789485095023576600,2.36157666015625,-0.11495908908843994,0.4063967348501086,0.19482183995228258
1789485095033621500,2.37162158203125,-0.07984218299984931,0.42308278897404666,-0.01804707681145519
1789485095043667500,2.38166748046875,-0.1984977885186672,0.359547013130784,-0.27141667506135997
1789485095053712400,2.39171240234375,-0.41016076355874537,0.18151771988421678,-0.4146911004647612
1789485095063757300,2.40175732421875,-0.5050672446995973,0.10068506454229355,-0.5237910151962191
1789485095073802500,2.411802490234375,-0.38921208355426784,0.09911562326848507,-0.6372361195251345
1789485095083848400,2.421848388671875,-0.37732115475237366,0.05205225879848003,-0.7071203145470469
1789485095093893600,2.4318935546875,-0.38546938989460466,-0.08979571399837732,-0.7131446163378655
1789485095103938600,2.4419384765625,-0.31105741524994374,-0.1836816199198365,-0.6710818366341292
1789485095113984500,2.451984619140625,-0.02607902863025665,-0.2009402132347226,-0.6134319770243019
1789485095124029400,2.462029541015625,0.1875660601377487,-0.2973854482501745,-0.5571142062684521
1789485095134074400,2.472074462890625,0.377654332229495,-0.41815906883627174,-0.5954014494888484
1789485095144120600,2.48212060546875,0.28108839344382286,-0.352972895437479,-0.7979187758471816
1789485095154165500,2.49216552734375,-0.1684434265166521,-0.46528848427981134,-0.9314664647452533
1789485095164210400,2.50221044921875,-0.3202642195343971,-0.5422969051584601,-0.9889293504156171
1789485095174255400,2.51225537109375,-0.5930903960675,-0.3940995633348822,-1.182975274091959
1789485095184301300,2.52230126953125,-1.2396604533880948,-0.3583040273323655,-1.2115368402529507
1789485095194346500,2.532346435546875,-1.8139356743484734,-0.20532997262626884,-1.142848577017337
1789485095204391400,2.542391357421875,-2.112087430796027,0.1235764030471444,-1.1787069491229951
1789485095214437400,2.552437255859375,-1.9657061984837054,0.5096189166545868,-1.3109472817495464
1789485095224482600,2.562482666015625,-1.2817957138061522,0.8491165367081761,-1.5195279267348347
1789485095234527500,2.572527587890625,-0.6066536419957876,0.9867378317207097,-1.6603547397904097
1789485095244573700,2.58257373046875,-0.42533319824934,0.6127966747954487,-1.7438890553064643
1789485095254618400,2.592618408203125,-0.375159008282423,0.18531915799379348,-1.8497146976076067
1789485095264663600,2.60266357421875,-0.0406903223067522,0.0028258710756897923,-1.8363092725895345
1789485095274708500,2.61270849609375,1.0297206488788126,-0.10348463213294744,-1.9542701738424597
1789485095284754400,2.62275439453125,2.443333647593856,-0.2174196388706565,-2.1582849722169337
1789485095294799600,2.632799560546875,3.9064965668976304,-0.5724544352740049,-2.089509688284993
1789485095304844300,2.64284423828125,3.587984159466624,-1.0211983197271823,-1.310598176050931
1789485095314890500,2.652890380859375,1.5391957731485366,-1.9188740124210715,-0.6021467224979773
1789485095324935400,2.662935302734375,0.5476379739254713,-3.183410548390448,-1.6708179738767444
1789485095334980600,2.672980712890625,0.8683844240188598,-1.6637833990648387,-2.1080663585864006
1789485095345026600,2.683026611328125,1.1061176598608493,1.04516780885756,-1.763266102080047
1789485095355071500,2.693071533203125,-0.5587316148698329,1.7601356950998306,-0.5828553447138518
1789485095365116400,2.703116455078125,-1.481482419848442,1.2596446722745895,1.2417290763556956
1789485095375161300,2.713161376953125,-0.9968570746749639,0.821346778512001,1.640821333411336
1789485095385207300,2.723207275390625,-0.4961696524947881,0.9958119495362043,0.4612086676202714
1789485095395252500,2.73325244140625,-0.6888432649046182,0.8027645353779196,0.0039015374831855294
1789485095405297400,2.74329736328125,-1.117634494653344,0.7641893055289983,0.4148228370856493
1789485095415343600,2.753343505859375,-1.7343576952427624,0.49157589496374127,0.7992270819667726
1789485095425388500,2.763388427734375,-3.2036592634320256,0.5692173530489206,1.3854986648648977
1789485095435433500,2.77343359375,-4.099662931260466,0.9862333893299102,1.856950932471454
1789485095445479400,2.7834794921875,-4.794008885234594,0.7828457829430698,2.1010613021299243
1789485095455524400,2.7935244140625,-5.180872944357991,0.5219681106179952,2.188539386835694
1789485095465569500,2.803569580078125,-5.135628027486801,0.6347282283574343,2.1377306983575224
1789485095475614500,2.813614501953125,-3.5156811397999523,0.9134566146716475,1.4768131128631532
1789485095485660700,2.82366064453125,-0.21234861921668052,1.2592179712951184,0.7236644029170274
1789485095495705300,2.833705322265625,0.5052233120441436,0.5947638822376727,1.2336954075038433
1789485095505750500,2.84375048828125,0.2686509366750717,-0.11415829409956932,1.640586063350737
1789485095515796500,2.85379638671875,-0.7993933053791522,-0.3659168404236436,1.6702904428713023
1789485095525841400,2.86384130859375,-1.9452841727018355,-0.2911550294280052,1.0476562646724283
1789485095535886600,2.873886474609375,-3.198834035232663,0.06451397322565317,0.05390353095466271
1789485095545932500,2.8839326171875,-5.5461693147957325,2.2085861495643853,-1.6997921394266187
1789485095555977500,2.8939775390625,-4.990188459938764,1.9218185414403677,-1.5185677034005522
1789485095566022100,2.904022216796875,-3.114450117149949,-0.13301701608747243,-0.3265204303849488
1789485095576067300,2.9140673828125,-3.435603394478559,-1.5464900218099356,0.20388905310295521
1789485095586113300,2.92411328125,-3.5118501833349463,-0.6856111511155962,1.0613817154251037
1789485095596158200,2.934158203125,-3.3899025505334137,1.2438687187328934,1.432791600307077
1789485095606203400,2.944203369140625,-2.9746143609583378,2.4621499917447567,1.304757341068238
1789485095616249300,2.954249267578125,-2.226212407147884,3.5066593366935845,1.3995400496989487
1789485095626294300,2.964294189453125,-2.17750653616786,4.135895105114579,1.3482491306617854
1789485095636339200,2.974339111328125,-1.659625987124443,4.042225180031359,1.0673369705677032
1789485095646384000,2.984384033203125,-1.6534411610096693,2.0254899283170698,1.8266545784071087
1789485095656430300,2.994430419921875,-1.6734762333005666,-1.0007330393254756,3.048758624577522
1789485095666475300,3.004475341796875,-0.82298986954391,-2.1882669996351,3.1377094121843574
1789485095676520400,3.0145205078125,-1.925605658763647,-1.8260685952126978,1.9293474756404756
1789485095686566400,3.02456640625,-2.8189906685262915,-1.5141133543401957,1.2267162161409855
1789485095696611000,3.034611083984375,-3.3199235899001356,-1.7840227666437625,1.2158075763747096
1789485095706656300,3.04465625,-4.0852766785115,-2.1758561386123296,1.6050149837538599
1789485095716702200,3.0547021484375,-4.63916377595961,-2.3253993420869112,1.7125667191952465
1789485095726747400,3.064747314453125,-4.773645896163583,-2.301182600197196,1.710697856583446
1789485095736792300,3.074792236328125,-3.9409038634121414,-2.3059683731690046,1.8973250284358858
1789485095746837500,3.08483740234375,-2.6892496053695676,-2.687652691566944,2.1532488777458667
1789485095756883500,3.094883544921875,-1.265104106724262,-3.622958442214131,2.231508613859862
1789485095766928100,3.10492822265625,0.35667876421809197,-4.852307344946265,2.1446827094525096
1789485095776973300,3.114973388671875,1.5853806012183427,-5.867925818714499,1.5015005410045386
1789485095787019300,3.125019287109375,2.2022516858458516,-6.6330567890077825,0.7620587232410907
1789485095797064200,3.135064208984375,2.219649979892373,-6.918991453438997,0.6140694712102412
1789485095807109400,3.145109375,1.2147528066247701,-6.715152303892373,0.9236971459180117
1789485095817155300,3.1551552734375,-0.47315118047893046,-6.2528235462009905,1.8010767772972582
1789485095827200300,3.1652001953125,-1.9777870968997477,-5.832140804105997,2.649979086732864
1789485095837245200,3.1752451171875,-3.1155180386424064,-5.544697488677501,2.6611276727348563
1789485095847290400,3.185290283203125,-3.380312299889326,-5.070124166440963,2.139837607508898
1789485095857336300,3.19533642578125,-2.5966315274268386,-4.468195214879512,2.4407453846663234
1789485095867381200,3.20538134765625,-1.3186889819175005,-3.917131358158588,3.2470120829463003
1789485095877426400,3.215426513671875,-0.13147592412531375,-3.5868244680374857,4.041533398374915
1789485095887472000,3.22547216796875,0.8017647106856107,-3.6632401837199926,4.183874415385723
1789485095897517300,3.235517333984375,0.8798056894823908,-3.4364497821748254,2.6440087801516055
1789485095907562200,3.245562255859375,0.3605246259912848,-2.7499063186451793,0.87405370182693
1789485095917608200,3.255608154296875,0.003381459131836891,-2.0009690889142453,0.029294483545422554
1789485095927653400,3.2656533203125,0.278854789172858,-1.4839068705163896,0.4323971452862024
1789485095937698300,3.2756982421875,0.8585027892127632,-0.8102262495607138,2.0340847381830214
1789485095947743200,3.2857431640625,1.482907484215498,-0.3239280758041888,4.161448648566007
1789485095957789200,3.2957890625,2.110133812510222,0.06726473323851824,5.654519799399376
1789485095967834000,3.305834228515625,2.8431971812829375,0.778010106414929,6.542036209389567
1789485095977879300,3.31587939453125,3.9160605140566824,1.754778551980853,6.786514827838539
1789485095987925200,3.32592529296875,4.469794466769695,2.4974808328449725,5.7304696511358015
1789485095997970400,3.335970458984375,4.254665276923776,2.651236685578525,3.6625720752000808
1789485096008015000,3.34601513671875,3.8659213954031464,2.6634815423846243,1.2395692679733037
1789485096018061000,3.35606103515625,3.321204277360439,2.6976573682308196,-0.5602794288337231
1789485096028106200,3.366106201171875,2.884653519526124,2.3588833862766623,-0.8248018874019384
1789485096038151200,3.376151123046875,2.6088591408371924,2.0916627746656538,0.17885960659086703
1789485096048196400,3.3861962890625,2.3293214839667082,2.1774232417985795,1.3528607161104678
1789485096058242300,3.3962421875,2.9097739322572944,2.070885651835799,1.2923802361845969
1789485096068287500,3.40628759765625,4.25366925162375,1.6435186096712946,1.1992998014271259
1789485096078332200,3.416332275390625,5.4898763496875755,2.183219068595767,1.7147838107228277
1789485096088378000,3.426378173828125,6.034335109055042,2.560527948388457,1.1900433127820491
1789485096098423300,3.43642333984375,6.348368909767269,2.617992879885435,1.4034259512215852
1789485096108468200,3.44646826171875,6.033674599319696,2.4222464359015223,1.2461813795894383
1789485096118513400,3.456513427734375,4.864132807296515,2.5723154168158766,0.8886328467994928
1789485096128559400,3.466559326171875,3.606848434412479,2.9346307256162163,0.4269125763952732
1789485096138604300,3.476604248046875,2.735607451918721,3.1731334845259784,0.1952647979468107
1789485096148649200,3.486649169921875,1.9676742836862802,3.251931126908958,0.08960895925462245
1789485096158695200,3.496695068359375,1.498739551858604,3.270187499089539,0.018299042278528212
1789485096168740400,3.506740234375,1.446252408774197,3.1815906394869087,0.20058394714295863
1789485096178785300,3.516785400390625,1.6762176409631966,3.0268036901399493,0.4705401211977005
1789485096188831200,3.526831298828125,2.100858765295148,3.0529759500116107,0.9166583333224058
1789485096198876400,3.53687646484375,2.399574000844359,2.959115763053298,1.359748137536645
1789485096208921000,3.546921142578125,2.340979188534617,2.913544682967663,1.9261533557742834
1789485096218966300,3.55696630859375,1.906032358765602,2.909336125361919,2.6337387305498123
1789485096229012200,3.56701220703125,1.377075412173569,3.073166505125165,2.8624843578159807
1789485096239057400,3.577057373046875,0.8833110672548413,3.1552257796525955,2.6174101115614175
1789485096249102300,3.587102294921875,0.2533148358553648,2.8786826284229754,2.2793442778766155
1789485096259148300,3.597148193359375,-0.21236089417636395,2.3797779980063436,2.240084865155816
1789485096269193200,3.607193115234375,-0.29471432934477926,1.877727470779419,2.5876713913798333
1789485096279238100,3.617238037109375,0.02224573407769203,1.584012819996476,3.5215281122624873
1789485096289284400,3.627284423828125,0.5607346252553165,1.4836457353621721,4.542224327686429
1789485096299329300,3.637329345703125,1.323788643144071,1.5727736331015825,5.258727752932906
1789485096309374200,3.647374267578125,1.940854081299901,1.4388234278172254,5.602042008665204
1789485096319419400,3.65741943359375,2.5842887632042166,1.2278016732901333,5.688738879865408
1789485096329465000,3.667465087890625,2.9588439603745935,0.8137590998619795,5.576957251769304
1789485096339510300,3.67751025390625,2.941144637554884,0.1418862589806318,5.485603494673967
1789485096349555200,3.68755517578125,3.0253648895084857,-0.023843232402205466,5.434238633617759
1789485096359601200,3.69760107421875,2.7794378258168697,-0.19423077872395514,5.72116698526144
1789485096369646300,3.707646240234375,2.551430449697375,-0.6068237378656863,5.96020370491743
1789485096379691300,3.717691162109375,2.5843197428643703,-0.7181061842679977,5.905926171284913
1789485096389737500,3.727737548828125,2.5606056897997855,-0.34293314746022224,6.04741320181489
1789485096399782100,3.7377822265625,2.298387270390242,0.22973463830351828,6.353174848744273
1789485096409827300,3.747827392578125,2.000330206488818,1.0605366429030894,6.2256181438893075
1789485096419872300,3.757872314453125,1.5526834696225822,2.012723385724425,5.941503096100687
1789485096429918200,3.767918212890625,0.9719212247304618,2.475791563606262,5.822482748922705
1789485096439963400,3.77796337890625,0.42503085430189963,2.4251520942151545,5.626393775111437
1789485096450008000,3.788008056640625,-0.0797948367267847,2.226075044503808,5.254155038189888
1789485096460054300,3.79805419921875,-0.46171325614154335,1.9816233140617607,4.860950085607171
1789485096470099200,3.80809912109375,-0.5729616541437804,1.5331442180246113,4.34757093963623
1789485096480144400,3.818144287109375,-0.6093704997390508,0.9707605103880167,3.716213064494729
1789485096490190300,3.8281904296875,-0.5625033884935081,0.44295711774528024,2.9657687912017106
1789485096500235300,3.8382353515625,-0.5564874892048537,0.059364627638459205,2.3054443492949006
1789485096510280400,3.848280517578125,-0.6037164195001125,-0.18752455908358096,1.6953513805001974
1789485096520325000,3.8583251953125,-0.6235254279501736,-0.34356092396974564,1.0688596500903367
1789485096530371000,3.86837109375,-0.47223231206834315,-0.3825608089715242,0.7481389189600944
1789485096540416300,3.878416259765625,-0.2857376805543899,-0.4160656036883592,0.5118570509701967
1789485096550461200,3.888461181640625,0.051986719281598925,-0.4390905054450035,0.15540449672341347
1789485096560507100,3.898507080078125,0.2393148790102452,-0.4079840040415525,-0.23635259513854978
1789485096570551800,3.9085517578125,0.45002267221733927,-0.5780956560313701,-0.2817623471826315
1789485096580597000,3.918596923828125,0.6739176445819437,-0.8007897281736135,-0.35483284409046173
1789485096590643000,3.928642822265625,1.0112029954135417,-0.7584916784092783,-0.7262859835922718
1789485096600687900,3.93868798828125,1.2757991037398575,-0.8481883159473538,-1.0944903504312038
1789485096610733000,3.948733154296875,1.3397487210810184,-0.9995254171013831,-1.2963853801727294
1789485096620779000,3.958779052734375,1.3710755872368812,-1.113408693651855,-1.5357891795754433
1789485096630824200,3.96882421875,1.4076608123123644,-1.2540604424014687,-1.7948153788149355
1789485096640868900,3.978868896484375,1.6449018807232378,-1.4195961647778748,-2.0471224989324805
1789485096650914000,3.9889140625,1.9715607697308062,-1.6099468871980904,-2.451408232977986
1789485096660960000,3.9989599609375,2.0504180333465336,-1.7318696778193114,-2.918281063839793
1789485096671005000,4.0090048828125,1.7717302713036536,-1.8409709807902574,-3.0372254231721163
1789485096681050000,4.019050048828125,1.4559031574338674,-1.8738576436087488,-3.1098762333631513
1789485096691096000,4.029095947265625,1.3676409366130828,-1.982294345191121,-3.3324089774638415
1789485096701141000,4.03914111328125,1.3356360250651835,-2.096173530088365,-3.5899025603085755
1789485096711186000,4.04918603515625,1.2377777083814143,-2.2409040725842115,-3.71831851234138
1789485096721232000,4.05923193359375,1.0873322223048656,-2.234633321751654,-3.993679760310054
1789485096731277000,4.069277099609375,0.8979963029503821,-2.162193231701851,-4.110750142464042
1789485096741322000,4.079322021484375,0.7305008978735655,-2.246295994755626,-4.034695661309361
1789485096751367200,4.0893671875,0.6445715769797563,-2.2381486363962293,-4.1353327950567005
1789485096761412900,4.099412841796875,0.5921061342705041,-2.181984850625694,-4.11110786986053
1789485096771457800,4.109457763671875,0.4912970780223608,-2.197299324135482,-4.137171116399765
1789485096781503000,4.1195029296875,0.48965632507801055,-2.258593166270852,-4.183718348041176
1789485096791549000,4.129548828125,0.536909074640274,-2.358735794499516,-4.269319825220108
1789485096801594000,4.139593994140625,0.6231195505630225,-2.6045918387815354,-4.300896866744757
1789485096811639000,4.14963916015625,0.7495937939435243,-2.787135102321207,-4.40941510913074
1789485096821685000,4.15968505859375,0.8754617419939488,-2.899467350037396,-4.429135124123096
1789485096831730000,4.16972998046875,0.9923573521029203,-3.107487584660947,-4.298555856576562
1789485096841774800,4.17977490234375,1.1782756450336427,-3.3976503881812095,-4.342418379178643
1789485096851820000,4.189820068359375,1.1995429625332354,-3.675069445462525,-4.396578423911333
1789485096861866000,4.199865966796875,1.1125303033821283,-3.786322081248462,-4.384880971854925
1789485096871911200,4.2099111328125,1.0369418323040007,-3.8296082652673125,-4.469911371147632
1789485096881955800,4.219955810546875,0.9598381343573331,-3.9124022838100787,-4.409048029384016
1789485096892001800,4.230001708984375,0.8309773611664771,-3.972259371140599,-4.207866700869799
1789485096902047000,4.240046875,0.7790924217589199,-4.105877567991614,-3.979261358857155
1789485096912092000,4.250091796875,0.8199374231707304,-4.291020784896612,-3.714610889995098
1789485096922137900,4.260137939453125,0.8716168300688266,-4.636093866994977,-3.41473245588541
1789485096932183000,4.27018310546875,0.9264653685223311,-5.087804784560204,-3.110496411088109
1789485096942228000,4.28022802734375,1.123141786832735,-5.54617399097085,-2.8811119013965127
1789485096952273000,4.29027294921875,1.3504326121807098,-5.879595798242092,-2.605117031699419
1789485096962318800,4.30031884765625,1.3828355831354855,-6.050568450975418,-2.18675659507215
1789485096972364000,4.310364013671875,1.1873738013118504,-5.976006838726997,-1.6832810034781693
1789485096982409000,4.320408935546875,0.8362187689512968,-5.624729056769609,-1.1170289299756289
1789485096992455000,4.330454833984375,0.41252164747118947,-5.072438873124122,-0.5547679719358682
1789485097002500000,4.3405,-0.003059387570619583,-4.503278510959446,-0.19226561613082885
1789485097012544800,4.350544677734375,-0.07751352085657418,-3.946982891064882,0.2920183682590723
1789485097022591000,4.360591064453125,0.22145079408288001,-3.428908280754089,0.8578799811393022
1789485097032636000,4.370635986328125,0.7488975553076714,-3.025318127757311,1.5641864220201969
1789485097042681000,4.38068115234375,1.4629811329960822,-2.7019115185439584,2.384327916395664
1789485097052726000,4.39072607421875,2.189505601519346,-2.194797278186679,3.2219173891782757
1789485097062772000,4.40077197265625,2.7899750019222496,-1.6110224074751138,4.073740554496646
1789485097072817200,4.410817138671875,3.0691683753997085,-1.0274462742060422,4.864233345061541
1789485097082861800,4.42086181640625,3.089908381089568,-0.3607815233618021,5.486128979852795
1789485097092908000,4.430907958984375,2.8954169056028127,0.3935585883259773,5.887120933049917
1789485097102953000,4.440952880859375,2.2891554777950045,1.0921113463401795,6.099265554127097
1789485097112998000,4.450997802734375,1.4073434169262646,1.7949854746848344,6.136102708137035
1789485097123044000,4.461044189453125,0.4868640640109777,2.4076731361478565,5.970560848280787
1789485097133089000,4.471089111328125,-0.517142370961979,2.8826065238684415,5.481935035294294
1789485097143134000,4.481134033203125,-1.4013380390316248,3.105390027859807,4.811953707247972
1789485097153179000,4.491178955078125,-2.108750979849696,3.2180572066187856,4.048828816080093
1789485097163224800,4.501224853515625,-2.463301499867439,3.3653748429983854,3.382466263052821
1789485097173270000,4.51127001953125,-2.5260522628128528,3.4804040747135874,2.822356345567107
1789485097183315000,4.52131494140625,-2.436735418372601,3.4844641637593505,2.3095886094927787
1789485097193361200,4.531361083984375,-2.147189139315486,3.404760512447357,1.823735183829069
1789485097203405800,4.54140576171875,-1.8009407298274338,3.3325860875964164,1.2913824573189019
1789485097213451000,4.551450927734375,-1.6817127312481401,3.230863496699929,0.7919815678179264
1789485097223497000,4.5614970703125,-1.7669624723799526,3.0828163770020005,0.28344167857170105
1789485097233542000,4.5715419921875,-1.90144853810668,2.8740795185416936,-0.132579501453042
1789485097243587000,4.581587158203125,-2.36085044856593,2.6410844171375034,-0.1686217056930065
1789485097253633000,4.591633056640625,-2.9810820956677198,2.5598317828178403,-0.15340893899202346
1789485097263678000,4.601677978515625,-2.867999321845174,2.2924942668288946,-0.5629939484894275
1789485097273723000,4.611722900390625,-3.096016050314903,2.3147844245702025,-0.8567489312827586
1789485097283768000,4.62176806640625,-3.2696149598985906,2.5544571040421724,-0.9974100323826074
1789485097293814000,4.63181396484375,-3.2728099565476176,2.667842075681686,-1.2606634939283132
1789485097303859000,4.64185888671875,-3.1356355285197495,2.637370365050435,-1.516350319612026
1789485097313904000,4.651904052734375,-2.568221425500512,2.442936172708869,-1.978243608495593
1789485097323950000,4.6619501953125,-1.8444101614587007,2.0495161160707474,-2.159102279949188
1789485097333994800,4.671994873046875,-0.9111241531360894,1.6055419302374123,-1.9699749618440865
1789485097344040000,4.6820400390625,0.01467325299680233,1.0932727913349867,-1.805872194880247
1789485097354086000,4.6920859375,1.0025163425456731,0.9298609292447566,-1.5797972481280564
1789485097364131000,4.702131103515625,1.6410089649379251,0.9015344139486551,-0.9696166010499
1789485097374176000,4.712176025390625,1.9881582687884567,0.8761912983775139,-0.35529753899276256
1789485097384221200,4.72222119140625,2.2831296416342255,0.8638976339936256,0.16108137331604958
1789485097394267100,4.73226708984375,2.2995693197816607,0.8376409107089042,0.7041127302289009
1789485097404311800,4.742311767578125,2.1592419806808234,1.0022183094471693,1.2988789505541325
1789485097414357000,4.75235693359375,1.764122134387493,1.1884195109724998,1.983066498607397
1789485097424403000,4.76240283203125,1.0957926652014256,1.2565952215760945,2.6898762128353115
1789485097434448100,4.7724482421875,0.37657355125546454,1.4105495194911957,3.3501837036073208
1789485097444493000,4.7824931640625,-0.18343173681199548,1.6525526877373455,4.033975530341268
1789485097454539000,4.7925390625,-0.6657219170361757,1.847223026922345,4.564915467444062
1789485097464584000,4.802583984375,-1.194577449080348,2.0224398930966854,4.99284394288361
1789485097474628900,4.81262890625,-1.6032909364402292,2.242022555220127,5.406621727895736
1789485097484674000,4.822674072265625,-1.9329992761462926,2.3254437657505274,5.675241100388765
1789485097494720000,4.832719970703125,-2.1580290977597234,2.2774814066141844,5.837536525669694
1789485097504765000,4.842764892578125,-2.235187156242132,2.001384830108285,5.906427106544375
1789485097514810000,4.85281005859375,-2.2180139031231403,1.5526573122680187,5.903455981779098
1789485097524856000,4.86285595703125,-2.129358883592486,1.0037135164409876,5.7569327106475825
1789485097534901000,4.87290087890625,-1.8191057704627513,0.4100239854365587,5.4347576890558
1789485097544946000,4.88294580078125,-1.3158651566684245,-0.17459259679615496,5.058595641210675
1789485097554991900,4.892991943359375,-0.8705664442330598,-0.6491355238944292,4.74841617783904
1789485097565038000,4.9030380859375,-0.5477367581248284,-0.9365957904577255,4.519996713787317
1789485097575083000,4.9130830078125,-0.38531215350627895,-1.1577239284574985,4.3310646259933705
1789485097585129000,4.92312890625,-0.22110892184264958,-1.314963239392638,4.148689120236039
1789485097595174100,4.933174072265625,-0.2572615276545286,-1.3634177659600972,3.9240444985479113
1789485097605219000,4.943218994140625,-0.5185585944354534,-1.065616138124466,3.8150440256029365
1789485097615264300,4.95326416015625,-0.7428040607381612,-0.3863274680286646,3.8106349769890304
1789485097625310200,4.963310302734375,-1.0742185467749834,0.2622106744945049,3.773067755138874
1789485097635355000,4.97335498046875,-1.3392208978146314,0.7214426352143287,3.789764622917771
1789485097645400000,4.983400146484375,-1.4271372278071939,0.9359691829919814,3.7935131617963314
1789485097655446000,4.993446044921875,-1.5709721366375684,0.9784662624597549,3.5349721157252785
1789485097665491200,5.0034912109375,-1.688878385093808,0.8115285643309355,3.170240393432975
1789485097675536100,5.0135361328125,-1.6699300851263106,0.495030419331789,2.736739670819044
1789485097685582000,5.02358203125,-1.5199468827992677,0.10536942296624183,2.2951947579592464
1789485097695627300,5.033627197265625,-1.218486732456088,-0.19772914223372934,1.8593927726656196
1789485097705672000,5.043671875,-0.874396816176176,-0.3570341535270214,1.4486784668773411
1789485097715717000,5.053717041015625,-0.5404477701604365,-0.37251112412214277,1.0987667125761509
1789485097725763000,5.06376318359375,-0.21332595808254554,-0.3091629798054695,0.8225637530863285
1789485097735808300,5.073808349609375,0.04018529539406299,-0.2533867320477962,0.5425690000981093
1789485097745853200,5.083853271484375,0.3890618614286184,-0.17841829256415367,0.30204934840798375
1789485097755899100,5.093899169921875,0.7747153757184744,-0.14645020589530466,0.01629354767501354
1789485097765944000,5.103944091796875,1.0724860238939522,-0.2100572934091091,-0.24058453361988066
1789485097775989000,5.113989013671875,1.3654226760417223,-0.29968787997365,-0.4591624026149511
1789485097786035000,5.124034912109375,1.5928507909685372,-0.4574947616636753,-0.6404477750480174
1789485097796080000,5.134080078125,1.76606742323637,-0.5929203001976013,-0.9237731337636709
1789485097806125000,5.144125,1.906927261778712,-0.6936877823263407,-1.1506307553261519
1789485097816171300,5.154171142578125,2.0219711065411565,-0.812885239636898,-1.3732044159591197
1789485097826216000,5.1642158203125,2.1900953841060398,-0.9219920955657959,-1.5489000055611133
1789485097836261000,5.17426123046875,2.3528555042892694,-1.0361989049822091,-1.7635656695485113
1789485097846306000,5.18430615234375,2.406266191959381,-1.1517238112598658,-1.9369968213498592
1789485097856352000,5.19435205078125,2.362037174132466,-1.2147580673217773,-2.062418267741799
1789485097866397200,5.204397216796875,2.3481962803065777,-1.26473527341187,-2.1160142488509415
1789485097876442000,5.214442138671875,2.2959739256381986,-1.3256029990896583,-2.1992548421174285
1789485097886488300,5.22448828125,2.319495086479187,-1.3483672040835022,-2.2437749518454075
1789485097896533000,5.234532958984375,2.3188369148313996,-1.3716548484295605,-2.285574112176895
1789485097906578200,5.244578125,2.250233918726444,-1.4370035189136863,-2.441960021153092
1789485097916624100,5.2546240234375,2.2248504711449146,-1.447351017665863,-2.599933491581678
1789485097926669000,5.2646689453125,2.206422834050655,-1.4283254146784543,-2.749347223457694
1789485097936714200,5.27471435546875,2.089200476205349,-1.4473644616693258,-2.878621253624558
1789485097946759000,5.284759033203125,1.916515174335241,-1.5250933057770133,-3.01209682713449
1789485097956804900,5.294804931640625,1.8163339676618575,-1.6647095739990472,-3.2275071720093487
1789485097966850000,5.30485009765625,1.6944085466921328,-1.8770844967007636,-3.3788977569162846
1789485097976895000,5.31489501953125,1.501454363775253,-2.099905117832124,-3.6064001061230897
1789485097986941200,5.324941162109375,1.2453601263344287,-2.3275825313448903,-3.8276527472853656
1789485097996986000,5.334986083984375,1.1265209809422492,-2.4460525511637328,-3.8310646015554664
1789485098007031300,5.34503125,1.0803110184311866,-2.597065242668986,-3.8029327320486304
1789485098017077200,5.3550771484375,0.9338590589702129,-2.839308649411797,-3.991713428673148
1789485098027122000,5.365121826171875,0.7989525758743286,-3.0255808703467246,-4.151955428555608
1789485098037167000,5.3751669921875,0.8762088340342045,-3.166252200579643,-4.195788725063204
1789485098047213000,5.385213134765625,0.8942232141524553,-3.3834701793983575,-4.201442805302142
1789485098057258200,5.39525830078125,0.8860469219595193,-3.6799338366284964,-4.062942681628465
1789485098067303200,5.40530322265625,0.9605243630558252,-3.9305098951697346,-3.806055832505226
1789485098077348000,5.41534814453125,0.9608481881827116,-4.162844779099524,-3.533399167320132
1789485098087394000,5.42539404296875,0.7743500495374203,-4.449471809709072,-3.322551015794277
1789485098097439000,5.43543896484375,0.5899983118036761,-4.750219135607779,-3.1340970669060946
1789485098107484200,5.445484130859375,0.576572428519465,-4.992670924404263,-3.059775108632445
1789485098117530000,5.455530029296875,0.6939490636110306,-5.278559996128082,-2.9491280375242233
1789485098127575000,5.465574951171875,0.8819564377754926,-5.481078710725903,-2.6069033305943012
1789485098137620200,5.4756201171875,1.0309703566789628,-5.592251851534843,-2.228233099320531
1789485098147666200,5.485666259765625,1.0939590200334788,-5.761872505137324,-1.8083733640462158
1789485098157711000,5.495711181640625,1.099113334056735,-5.79451746815443,-1.4941145224064587
1789485098167756000,5.505756103515625,1.0236948127180336,-5.545603497606516,-1.2610153761059044
1789485098177801200,5.51580126953125,1.0047878676742314,-5.036059399753809,-1.0603180317163468
1789485098187847200,5.52584716796875,1.1389952625900506,-4.479080181509256,-0.978598364406824
1789485098197892000,5.53589208984375,1.2397785268098116,-3.876763107413053,-0.8400240064531564
1789485098207937000,5.54593701171875,1.214889000225067,-3.1867069595873354,-0.5603799665987491
1789485098217983000,5.55598291015625,1.1585182937055825,-2.482456866714358,-0.08336509642899036
1789485098228028200,5.566028076171875,0.882298967602849,-1.7774878119170665,0.6705424690604209
1789485098238073000,5.576072998046875,0.5266617848595604,-0.9847364287704229,1.3806605771839617
1789485098248119000,5.586119140625,0.12415062273852527,-0.36924013962745666,2.212380281150341
1789485098258164200,5.596164306640625,-0.29989710227753963,0.1546978097587824,2.9666543418645857
1789485098268209200,5.606209228515625,-0.7777209872752427,0.5451432345002889,3.2132623735576864
1789485098278255000,5.616255126953125,-1.2596657150626183,0.806253254276514,3.1926515472054477
1789485098288300000,5.626300048828125,-1.601394747430086,0.963062941622734,2.912333553612232
1789485098298345200,5.63634521484375,-1.7091496042281389,0.9670651630014181,2.500243283295631
1789485098308390100,5.64639013671875,-1.6265063923329115,0.8505535837739705,2.0614140591353176
1789485098318436000,5.65643603515625,-1.389782041272521,0.8784609968751669,1.709361785674095
1789485098328481300,5.666481201171875,-1.141465452095866,1.0302157389193773,1.334993635508418
1789485098338526000,5.67652587890625,-0.9239829771220683,1.252135319557786,1.0873147597134112
1789485098348572000,5.686572021484375,-0.7623597520142793,1.515761121547222,0.9801602068960666
1789485098358617000,5.6966171875,-0.7277654084950685,1.7507991269558667,0.8449760759025812
1789485098368662000,5.706662109375,-0.7658464250862598,2.0848580630868674,0.7252747607231139
1789485098378708200,5.716708251953125,-0.8125514776378869,2.413352350828051,0.5724450829237699
1789485098388753200,5.726753173828125,-0.6624585313260555,2.6239579257696866,0.43196985978484154
1789485098398798000,5.736798095703125,-0.5151935019165277,2.643391525036096,0.19427111073434353
1789485098408844000,5.746843994140625,-0.4401544083494693,2.544252520892024,-0.09268529796004295
1789485098418889000,5.756888916015625,-0.48188978272974486,2.454537763175368,-0.33867549001574515
1789485098428934100,5.76693408203125,-0.498966078280285,2.42672679618597,-0.5716103856652974
1789485098438979000,5.77697900390625,-0.4245458472639322,2.386537993660569,-0.7451987738549709
1789485098449025300,5.787025390625,-0.23127828754894433,2.3449422469466925,-0.8007353676378727
1789485098459070200,5.7970703125,-0.00704056616127491,2.346695812615752,-0.7513058585584164
1789485098469115100,5.807115234375,0.19668631864991037,2.3997213003605604,-0.6621452275931835
1789485098479161000,5.8171611328125,0.3454833799323067,2.455874564737081,-0.45730888370275496
1789485098489206000,5.8272060546875,0.3526998506497592,2.4315531934291124,-0.12680500970482825
1789485098499251200,5.837251220703125,0.41148174649681896,2.4096517427444457,0.16826690090596674
1789485098509297200,5.847297119140625,0.43129415248036385,2.375706218522787,0.505183564555645
1789485098519342000,5.857342041015625,0.37846385851409287,2.269113391241431,0.827400671723485
1789485098529387000,5.867386962890625,0.3045581163585186,2.076282542443275,1.1845786176353692
1789485098539433000,5.877432861328125,0.17731646880209445,1.8790443985968828,1.5121365013092756
1789485098549478100,5.88747802734375,0.18196981103327126,1.7653221578270195,1.9039257418751716
1789485098559522000,5.89752197265625,0.2515401543330401,1.8221745103836058,2.3172125284999607
1789485098569567200,5.907567138671875,0.31282040633447467,1.970194157552719,2.8506963048666716
1789485098579613200,5.91761328125,0.41926352294683455,2.140512145769596,3.394429672569036
1789485098589658400,5.927658447265625,0.35046997270584107,2.2992647838771343,3.836035960227251
1789485098599703300,5.937703369140625,0.287025893734023,2.4582892246633765,4.276436379227042
1789485098609749200,5.947749267578125,0.12927691624369472,2.506836690211296,4.572172891226411
1789485098619794200,5.957794189453125,-0.09791972801480442,2.446971711835265,4.779830137756466
1789485098629839000,5.967839111328125,-0.2574310390025377,2.3667419908225535,4.969723764058947
1789485098639885300,5.97788525390625,-0.41604214974753556,2.179330244463682,5.051638661679625
1789485098649930200,5.98793017578125,-0.6410404802441597,1.8050661391943692,5.020607563599944
1789485098659975200,5.99797509765625,-0.8177484617590903,1.3670166672348976,5.005324654272198
1789485098670021400,6.008021484375,-0.8295522967994212,0.9086088823795319,5.034813199084997
1789485098680066000,6.018066162109375,-0.758223675122857,0.36459552869200706,5.0533168240249156
1789485098690111200,6.028111328125,-0.5947936928540468,-0.170142631649971,4.9774780314475295
1789485098700156200,6.03815625,-0.4307932537535205,-0.6230670166581869,4.940844875577092
1789485098710202000,6.0482021484375,-0.2970119387626648,-0.9712357266843319,4.931368022179603
1789485098720247300,6.058247314453125,-0.22835874684043228,-1.253571489840746,4.984976278248429
1789485098730292200,6.068292236328125,-0.13814064271152018,-1.4672259309589861,5.192248324853182
1789485098740338400,6.07833837890625,-0.0651372927557677,-1.627672513502836,5.467617756128311
1789485098750383000,6.088383056640625,0.14192834455668926,-1.5386954224109648,5.661081057611107
1789485098760428300,6.09842822265625,0.39107729290425775,-1.1228443382561206,5.792949780446291
1789485098770474200,6.10847412109375,0.5320926142692566,-0.34837037007808686,5.806013844680786
1789485098780519200,6.118519287109375,0.5306616681506857,0.6682207481145859,5.7524476741880175
1789485098790564400,6.128564453125,0.38617432329356666,1.624319695943594,5.678685687884688
1789485098800610300,6.1386103515625,0.18754965699221937,2.2490005775392055,5.388186492016911
1789485098810655200,6.1486552734375,-0.021520999999716878,2.3832523961186407,4.82077998778224
1789485098820700200,6.1587001953125,-0.10000818819403648,2.0214374380558726,4.01720384376049
1789485098830745300,6.168745361328125,0.08116901115681975,1.339357675936818,3.20997385340631
1789485098840791300,6.178791259765625,0.3861818855455145,0.5614999105393886,2.41846457927525
1789485098850836200,6.188836181640625,0.7391518949061632,-0.18812953923940656,1.6184136867702006
1789485098860881400,6.19888134765625,1.1129688409298657,-0.7793652473509312,0.933519451752305
1789485098870927400,6.20892724609375,1.454613117623329,-1.1651526171535254,0.3757587277412414
1789485098880972000,6.218971923828125,1.75765615324378,-1.4197159917652606,-0.1600917777568102
1789485098891017200,6.229017333984375,2.04948732836768,-1.5773738203734158,-0.671646630910039
1789485098901063200,6.239063232421875,2.2158464959561823,-1.6483113969057797,-1.186132861340046
1789485098911108400,6.2491083984375,2.258122626149654,-1.6676076335281134,-1.5601573126345871
1789485098921153300,6.2591533203125,2.209409156385064,-1.5910837812960148,-1.8798989695996045
1789485098931199200,6.26919921875,2.186021851056814,-1.3978642254412172,-2.0384400107830762
1789485098941244200,6.279244140625,1.988807088086009,-1.2568845599114895,-2.1461545355707408
1789485098951289000,6.2892890625,1.7827526005774736,-1.2016349663764239,-2.1883692909657952
1789485098961334300,6.299334228515625,1.6594442008167505,-1.17463648481369,-2.2125468698889015
1789485098971380200,6.309380126953125,1.5124778620928525,-1.2165513804793358,-2.27706055085361
1789485098981425400,6.31942529296875,1.3612842610627411,-1.2611422173559665,-2.3640187033385036
1789485098991470300,6.32947021484375,1.1681056948054582,-1.2966840708583593,-2.4444769724100825
1789485099001516300,6.339516357421875,0.9772101979840546,-1.2502747863829136,-2.600781048321724
1789485099011561200,6.349561279296875,0.8670657426357269,-1.094691718222201,-2.648181681922078
1789485099021606100,6.359606201171875,0.6858826615333556,-0.8890349978595972,-2.707446356317401
1789485099031652000,6.369652099609375,0.5232178184181452,-0.7834943099796772,-2.8639316340148446
1789485099041697300,6.379697265625,0.37157062840163707,-0.7863847707241773,-3.027045974463224
1789485099051742200,6.3897421875,0.2144189957499504,-0.8289438095122575,-3.2907518559515476
1789485099061788400,6.399788330078125,0.16367891552858055,-0.8919710513114929,-3.5928584875047203
1789485099071833000,6.4098330078125,0.19928630854785442,-1.0003396560937166,-3.890862359914183
1789485099081878300,6.419878173828125,0.33923780007362364,-1.1482622726291418,-4.104918367570638
1789485099091923200,6.429923095703125,0.5395276596408337,-1.310181558074057,-4.184437894487381
1789485099101969200,6.43996923828125,0.754578085162118,-1.5141586547866464,-4.276708766427636
1789485099112014300,6.450014404296875,1.0068839631706477,-1.8059657183825968,-4.337064158669114
1789485099122059000,6.46005908203125,1.209284604346752,-2.0411963237538933,-4.438444219738245
1789485099132105200,6.470105224609375,1.2586094840079545,-2.2195444736912844,-4.561721055316925
1789485099142150100,6.480150146484375,1.2725006467163562,-2.402664952597022,-4.686415940999985
1789485099152195300,6.4901953125,1.2897767756879328,-2.600963711412251,-4.853086512625217
1789485099162241300,6.5002412109375,1.1757961762428284,-2.7363360584542153,-4.956931502503156
1789485099172286200,6.5102861328125,1.133826993106678,-2.868315548187494,-4.89118214226365
1789485099182331400,6.520331298828125,1.0925609167385846,-3.157687785851955,-4.729816691309213
1789485099192377300,6.53037744140625,1.001846042068675,-3.4759526482626795,-4.581398984733224
1789485099202422000,6.540422119140625,0.9014232817243785,-3.711895201295614,-4.335438603293896
1789485099212467200,6.55046728515625,0.8243897994697094,-3.9051834384724495,-3.9182664996683596
1789485099222512000,6.56051220703125,0.8145656670045107,-4.0036452740073205,-3.307919848373532
1789485099232558300,6.570558349609375,0.7332710201740265,-4.064559761436283,-2.6692589567422864
1789485099242603300,6.580603271484375,0.5999386545270681,-4.292074970124662,-2.0047779796779155
1789485099252648200,6.590648193359375,0.5618622410457581,-4.638097023510933,-1.398868434047699
1789485099262694100,6.600694091796875,0.5384024184705689,-5.138534270322323,-0.8199222986668347
1789485099272739000,6.610739013671875,0.5717366058608516,-5.645417040011286,-0.4077010954469442
1789485099282784300,6.6207841796875,0.6432347754180431,-6.198996094423532,-0.1533756212443113
1789485099292830200,6.630830322265625,0.7661813561290503,-6.871629982805252,0.007564882296323776
1789485099302875400,6.64087548828125,0.965565864354372,-7.382309806689619,-0.005587444743514061
1789485099312920300,6.65092041015625,1.1566963389754295,-7.660761421889066,-0.23893735093474386
1789485099322966300,6.66096630859375,1.4520248546957968,-7.332684482777118,-0.4607528866767883
1789485099333011200,6.67101123046875,1.7042969034999609,-6.367350089091063,-0.632981092429161
1789485099343056100,6.68105615234375,1.8806635242313146,-4.943764562416076,-0.5733019920140504
1789485099353101300,6.691101318359375,2.130860520327091,-3.2627409824758766,0.011028759014606475
1789485099363147300,6.701147216796875,2.227214277666807,-1.5913409709274768,0.9021832332462072
1789485099373192200,6.711192138671875,2.0449907476007936,-0.24591303516626356,1.7096610608816145
1789485099383237000,6.721237060546875,0.9749041860640049,0.5258417371809482,1.9378104758203027
1789485099393283000,6.731282958984375,-0.6305535730212927,0.8963678249657153,1.8783412187635897
1789485099403328300,6.741328369140625,-2.333987722212076,1.2326543740183113,1.6833967388123272
1789485099413373200,6.751373291015625,-4.0121225949734445,1.4788094012469053,1.333221949660778
1789485099423419100,6.761419189453125,-4.879725513225794,1.5578566344767808,1.1954384498238564
1789485099433464300,6.77146435546875,-3.9604841776728628,1.7877526008218525,1.7293460045605897
1789485099443509200,6.78150927734375,-1.8400035970628261,2.0002122791975734,2.182273312178254
1789485099453555200,6.79155517578125,-0.0015630115330219267,1.8487603194922209,2.1030115594148633
1789485099463600000,6.80160009765625,1.315136842393875,1.589939871957898,1.4970581746429203
1789485099473645300,6.811645263671875,2.010624513749033,1.2306214068859815,0.7083809090673923
1789485099483691300,6.821691162109375,2.0417267773687837,0.7905740391075611,-0.10895137310624121
1789485099493736200,6.831736083984375,1.5200573574364185,0.6372399189174175,-0.7113684004455805
1789485099503781400,6.841781494140625,0.8677987330853939,0.7303408119410276,-0.8437935881197453
1789485099513826000,6.851825927734375,0.3819966722827404,1.1695762788146733,-0.5101864874094725
1789485099523872300,6.861872314453125,0.39344398550298065,1.9599258615165949,0.29724808560609817
1789485099533917200,6.871917236328125,0.7462322085559367,2.6979239102125168,1.090174240797758
1789485099543962400,6.88196240234375,0.740224492573738,2.8566438150942326,1.2749112149894237
1789485099554008300,6.89200830078125,0.061733694857358926,2.47187935859859,0.8997118746966123
1789485099564053200,6.90205322265625,-0.8466495620727539,2.2102327477276322,0.38055005367100236
1789485099574098200,6.91209814453125,-1.403068223825097,2.2566332643747327,0.002680617386102676
1789485099584144100,6.92214404296875,-1.6819845339268444,2.373546410140395,-0.09769114342331886
1789485099594189000,6.93218896484375,-1.80420689201653,2.424988428086042,-0.10154372719824313
1789485099604234200,6.942234130859375,-1.8400293160259722,2.3999632924228904,0.03917816417813301
1789485099614280200,6.9522802734375,-1.5440946511059999,2.543055420061946,0.3384177158623934
1789485099624325400,6.962325439453125,-0.9736053784251213,2.6883681463599203,0.7616203318238258
1789485099634370300,6.972370361328125,-0.44783086126148697,2.6597785962134597,1.2150403913944958
1789485099644415200,6.982415283203125,0.05624854144454002,2.60946002933979,1.588091613742709
1789485099654461200,6.992461181640625,0.47863633389174937,2.5922674869984386,1.908005704665184
1789485099664506000,7.002506103515625,0.7032435461789369,2.548684950381517,2.228712407270074
1789485099674551300,7.01255126953125,0.8039806331694126,2.472218381294608,2.5671178481727837
1789485099684597200,7.02259716796875,0.7850228347212076,2.382953120911121,2.8262252959549423
1789485099694642400,7.032642333984375,0.6810089180171489,2.3387667731821535,3.010365473297238
1789485099704687000,7.04268701171875,0.6812918266117572,2.397127192214131,3.2078415175527333
1789485099714733000,7.052733154296875,0.7013292369902133,2.4664754537284375,3.404318613898754
1789485099724778200,7.0627783203125,0.6736603088200092,2.4939403837591407,3.6190415610313416
1789485099734823200,7.0728232421875,0.5678022255539894,2.549653503152728,3.7567122481435535
1789485099744869000,7.082869140625,0.45918753705620763,2.6109184114545583,3.931559111961722
1789485099754914300,7.092914306640625,0.3872837458401918,2.6811574843287467,4.085734359151124
1789485099764959200,7.102959228515625,0.254603122100234,2.709651757407188,4.29035209185481
1789485099775004200,7.113004150390625,-0.061198857328295705,2.724150822880864,4.447321353676915
1789485099785050000,7.123050048828125,-0.3239320578595623,2.68523569355309,4.449260797306895
1789485099795095300,7.13309521484375,-0.4233668666124344,2.665470670375228,4.418617821761965
1789485099805140200,7.14314013671875,-0.5730956557869911,2.5012878239125014,4.368974377670884
1789485099815186200,7.153186279296875,-0.919686741232872,2.197161084708571,4.330713328337669
1789485099825231400,7.1632314453125,-1.2903016763448714,1.8233441386848688,4.355782303142547
1789485099835276000,7.173276123046875,-1.3931950645864009,1.2808797680050135,4.392238933402299
1789485099845322200,7.183322265625,-1.3864444212824105,0.6186328336030245,4.364290019246935
1789485099855367200,7.1933671875,-1.316295364779234,0.056170800033211704,4.400676506879925
1789485099865412400,7.203412353515625,-1.062529278025031,-0.38766134698092936,4.34673273524642
1789485099875458300,7.213458251953125,-0.7063514490664005,-0.7968079650610684,4.295197778320312
1789485099885503200,7.223503173828125,-0.5129863472610712,-1.124820606765151,4.353849873775244
1789485099895548400,7.23354833984375,-0.5375485781202093,-1.3827350453704594,4.545483037221431
1789485099905593000,7.243593017578125,-0.5865654147455468,-1.641241020128131,4.784017068052291
1789485099915639000,7.25363916015625,-0.5354425092190503,-1.8996563939929008,5.046096809643506
1789485099925684200,7.263684326171875,-0.4521178178656846,-2.052804636222124,5.279557190471888
1789485099935729200,7.273729248046875,-0.2887321861952543,-1.8541139554798602,5.488184158816933
1789485099945775400,7.283775390625,-0.10509354690061881,-1.25375035353899,5.56055264493525
1789485099955820300,7.2938203125,-0.019478022930026054,-0.450785034891963,5.513264824059605
1789485099965865200,7.303865234375,0.04137477917326614,0.2967512419998646,5.41194906039834
1789485099975911200,7.3139111328125,0.1108516537696123,0.8427256666272878,5.128386385795474
1789485099985956000,7.3239560546875,0.16492986543774604,1.0329033705681563,4.709021740561724
1789485099996001300,7.334001220703125,0.29554946499466894,0.7752016979306936,4.226460926702618
1789485100006047200,7.344047119140625,0.4183656973242759,0.2773053677737713,3.62174848190248
1789485100016092400,7.354092529296875,0.6359890420734882,-0.14281272617578505,3.033144291338324
1789485100026137000,7.36413720703125,0.7164110707879066,-0.4843342532724142,2.5360616156518456
1789485100036182300,7.374182373046875,0.7380664377570152,-0.8239052308231591,2.051471341791749
1789485100046228200,7.384228271484375,0.7769581862092018,-1.081604565373063,1.6282517746955156
1789485100056273200,7.394273193359375,0.7163678161680698,-1.149901272007823,1.2687217126995325
1789485100066318300,7.404318359375,0.6789958246290684,-1.0717156240433454,0.9906213951557874
1789485100076364300,7.4143642578125,0.6032032092809677,-0.9885925196766853,0.7150351062595843
1789485100086409200,7.4244091796875,0.4997720609009266,-0.9029466188341378,0.39936055260300635
1789485100096454100,7.4344541015625,0.45725276960134503,-0.8133212929666042,0.10713584811687468
1789485100106500000,7.4445,0.4223766865313053,-0.6992629521101713,-0.23006723125874995
1789485100116545300,7.454545166015625,0.37173721714019775,-0.6994453229397535,-0.5780740287214517
1789485100126590200,7.464590087890625,0.3868061549236998,-0.7325514737278223,-0.9294634543597697
1789485100136636200,7.47463623046875,0.569824671292305,-0.7815256402552128,-1.281207100263238
1789485100146681300,7.484681396484375,0.7172995440602302,-0.8695300869226456,-1.6343319713920355
1789485100156726000,7.49472607421875,0.887259804880619,-1.0274889443039894,-1.9833067371040582
1789485100166772200,7.504772216796875,1.0335013364613055,-1.2010188803046942,-2.3628479059934615
1789485100176817200,7.514817138671875,1.1565315038025379,-1.3321429222524166,-2.656049346557259
1789485100186862300,7.5248623046875,1.2407330510556698,-1.4663453487321734,-2.917534629386663
1789485100196907300,7.5349072265625,1.2247580678105354,-1.6274711457118392,-3.2502263688176867
1789485100206953200,7.544953125,1.2478525276720522,-1.8091025551036,-3.5113989324361086
1789485100216998400,7.554998291015625,1.3197756081104277,-1.9766703678295015,-3.754866328015923
1789485100227043000,7.56504296875,1.3529285206496715,-2.153888636954129,-4.023828230336308
1789485100237089300,7.57508935546875,1.4290379468619823,-2.2850737614393233,-4.305679424846172
1789485100247134200,7.58513427734375,1.4989794980943203,-2.4359058356806633,-4.582736955338716
1789485100257179100,7.59517919921875,1.6112147151768206,-2.619460029828548,-4.799958149027824
1789485100267225300,7.605225341796875,1.7891981234550476,-2.76747295499593,-4.987409642875194
1789485100277270300,7.615270263671875,1.90581257853508,-2.8402947378396988,-5.158330857682228
1789485100287315200,7.625315185546875,1.9496482131302355,-2.8960832605570554,-5.238402173262834
1789485100297360100,7.635360107421875,2.033611275452375,-2.9187203320398925,-5.257326653963327
1789485100307406000,7.645406005859375,2.1031717184126375,-2.977054447586834,-5.26258033670783
1789485100317451300,7.655451171875,2.0802689817309377,-3.0521313158810135,-5.25763703508675
1789485100327496200,7.66549609375,2.017536923485994,-3.087979458853602,-5.231837407919764
1789485100337542400,7.67554248046875,1.9468284795343875,-3.1047830018773674,-5.2022337122946976
1789485100347587000,7.685587158203125,1.8818986189842224,-3.1610508325442668,-5.161491367539763
1789485100357632300,7.69563232421875,1.807654986643791,-3.3270874901801344,-5.093638313019276
1789485100367678200,7.70567822265625,1.722469104528427,-3.5024893575325606,-5.024244458797574
1789485100377723100,7.71572314453125,1.6788216859817504,-3.6919817095577714,-4.868305124545097
1789485100387768300,7.725768310546875,1.6762497896671293,-3.914261647941172,-4.606738593173027
1789485100397814300,7.735814208984375,1.7001216636419296,-4.11910822096467,-4.329505121591687
1789485100407859200,7.745859130859375,1.8317723598122595,-4.203333149093389,-4.042397906249762
1789485100417904000,7.755904052734375,1.9401929870426653,-4.185146042756736,-3.789285899490118
1789485100427949300,7.76594921875,1.9708698648571967,-4.222437078014016,-3.5363954265266653
1789485100437995300,7.775995361328125,1.9391151286780832,-4.402259392157196,-3.1885826903313395
1789485100448040200,7.786040283203125,1.8421347638726233,-4.695848078472912,-2.8902976628929373
1789485100458085400,7.79608544921875,1.718988861197233,-5.04230501614511,-2.687002118703723
1789485100468131300,7.80613134765625,1.507985811370611,-5.282326655185222,-2.456775897490978
1789485100478176000,7.816176025390625,1.1237678828418254,-5.3390989282429215,-1.9634920295655727
1789485100488221200,7.82622119140625,0.6879437587816268,-5.153639484995603,-1.3689987809628248
1789485100498267100,7.83626708984375,0.26622633987665173,-4.87818295995891,-0.8135241220623254
1789485100508312300,7.846312255859375,-0.07589673330970108,-4.57476699937284,-0.46901218097805975
1789485100518357200,7.856357177734375,-0.1773088700175285,-4.555250690259039,-0.4858762220174074
1789485100528403200,7.8664033203125,-0.038379707276821134,-4.761145018769801,-0.442265628349781
1789485100538448400,7.876448486328125,0.4559820190131664,-4.915806880432367,-0.14774024570584296
1789485100548493000,7.8864931640625,1.0403484258770943,-4.928728321325779,0.1449590905547142
1789485100558538800,7.896538818359375,1.4143044881105422,-4.794429740995168,0.5083832373797893
1789485100568584700,7.906584716796875,1.6527134312570093,-4.31284507869184,0.925352511909604
1789485100578629400,7.91662939453125,1.8674679425716398,-3.602134265372157,1.5055430943936108
1789485100588674600,7.926674560546875,1.9588766447246073,-2.7736282627552744,2.2201246116667983
1789485100598720500,7.936720458984375,1.884131492602825,-1.9581641125410794,2.802896442815661
1789485100608765700,7.946765625,1.5660767658114432,-1.237217151889205,3.2379555007874963
1789485100618810600,7.956810546875,1.0627098952889442,-0.6513859331697225,3.386416461983323
1789485100628856600,7.966856689453125,0.3752596556453034,-0.1972907508164644,3.278883723503351
1789485100638901800,7.97690185546875,-0.25128128420114515,0.1775415097296238,3.1424270883560177
1789485100648946400,7.986946533203125,-0.861543179821968,0.5364169072091579,2.8943004687935114
1789485100658992600,7.99699267578125,-1.414260064446926,0.8891992485105991,2.5943255885720253
1789485100669037600,8.00703759765625,-1.8650445148169994,1.2232985166519879,2.3166870433211324
1789485100679082800,8.017082763671874,-2.2288193747758864,1.5064163700968025,2.046264420798421
1789485100689127700,8.027127685546875,-2.415696868127584,1.765067890805006,1.8048516196608542
1789485100699173600,8.037173583984375,-2.5168320145249363,2.022171597549319,1.572600614622235
1789485100709218600,8.047218505859375,-2.565860541588068,2.3206851730465887,1.3830197075307369
1789485100719263500,8.057263427734375,-2.564156075757742,2.597149413821101,1.206358487766981
1789485100729309400,8.067309326171875,-2.7962305551856756,2.9617595555603504,1.1283411821067333
1789485100739354600,8.077354736328125,-2.751094943907857,3.232357534649968,0.9713713357627392
1789485100749399600,8.087399658203125,-3.968095237198472,3.810608088982105,1.635524396046996
1789485100759445800,8.09744580078125,-3.0416110909104344,3.9688416716516017,1.2476362545728683
1789485100769490700,8.10749072265625,-1.8439497043401,3.479642442691326,0.4516992271274328
1789485100779535600,8.11753564453125,-1.8827707256436348,3.49278366381526,0.4060223485797643
1789485100789581600,8.12758154296875,-1.3950363085389137,3.5225749909669157,0.5626332984834909
1789485100799626500,8.13762646484375,-1.2857733852654696,3.5368472619473934,1.0043202501624822
1789485100809671700,8.147671630859374,-1.0574363388001917,3.7900083685457706,1.33416945964396
1789485100819716600,8.157716552734374,-0.9191647631853819,3.8168712410300967,1.382993404045701
1789485100829762800,8.1677626953125,-0.8301391567766666,3.556793486911058,1.1815028634518385
1789485100839807500,8.177807373046875,-0.7401566880345344,3.256047037795186,0.8092477599173784
1789485100849852700,8.187852783203125,-0.743400784522295,3.004789134469628,0.4539700946688652
1789485100859898600,8.197898681640625,-0.7114473109006881,2.840454312315583,0.3781961840212345
1789485100869943600,8.207943603515625,-0.5605611683845519,2.8028853368997573,0.460098806682229
1789485100879988700,8.21798876953125,-0.2374175757552497,2.922698880282044,0.6516770250707864
1789485100890034700,8.22803466796875,0.2695428988124244,3.088852150034904,0.8848772936582565
1789485100900079600,8.23807958984375,0.8021136702537536,3.1382465878009795,1.2046382398456335
1789485100910124500,8.24812451171875,1.2072270872950552,3.127644529765844,1.6239508626312016
1789485100920170500,8.25817041015625,1.583481489598751,3.1118940029263493,1.8227461727917194
1789485100930215700,8.268215576171874,1.8605191463470458,2.947304329228401,1.9051210891395807
1789485100940260600,8.278260498046874,1.9792787967622278,2.610091312980652,2.0766443614929915
1789485100950305800,8.288305908203125,1.8976421315610408,2.333873740443587,2.3241806139469143
1789485100960351700,8.298351806640625,1.7863421495020388,2.1845365809351205,2.492722240141034
1789485100970396400,8.308396484375,1.677259843492508,2.0248732577234505,2.528299164956808
1789485100980441600,8.318441650390625,1.5130372495412825,1.9571119731396436,2.7391619295299052
1789485100990487600,8.328487548828125,1.2290145562112331,1.9518921926647423,3.0235896965295073
1789485101000532700,8.33853271484375,0.8314636833786964,1.8867822993725538,3.2868852436512705
1789485101010577700,8.34857763671875,0.4745487723171711,1.7513871559768914,3.624665246132016
1789485101020623600,8.35862353515625,0.25333067274531346,1.4625667069762944,3.9747149475991725
1789485101030668500,8.36866845703125,0.13752627367284148,1.013744496589899,4.293574561032653
1789485101040713500,8.37871337890625,0.08046292698038741,0.5744891559720039,4.530122386482358
1789485101050759700,8.388759765625,0.08747486983537674,0.3036795799583196,4.694268992587924
1789485101060804600,8.3988046875,0.06191491490947082,0.09304770153164862,4.802797756367921
1789485101070849500,8.408849609375,-0.13745150966988876,-0.17327859158813952,4.960596454751491
1789485101080894700,8.418894775390624,-0.38082887061238285,-0.4989589909523725,5.300594717803597
1789485101090940700,8.428940673828125,-0.5817138465285301,-0.8703454949587583,5.7080292712688445
1789485101100985600,8.438985595703125,-0.6848772838830948,-1.045852283990383,6.117414374279975
1789485101111030500,8.449030517578125,-0.7479799290060997,-0.9289642726659775,6.449359094735979
1789485101121076500,8.459076416015625,-0.8887234476923942,-0.43686639965474605,6.692120387873053
1789485101131121700,8.46912158203125,-1.0847112992167471,0.33332536115944383,6.741506057810783
1789485101141166600,8.47916650390625,-1.204331365853548,1.0631576390564441,6.530501254418492
1789485101151212800,8.489212890625,-1.1352771188497544,1.5494611465752124,5.9270572221189735
1789485101161257500,8.499257568359376,-0.9633914429247379,1.6418044992297887,5.188075423082709
1789485101171302700,8.509302734375,-0.8193149804234504,1.3362626325309275,4.420217658174038
1789485101181348600,8.5193486328125,-0.49002691195607184,0.866063872116804,3.687636373829841
1789485101191393500,8.5293935546875,-0.029703073479468,0.41957390407025813,2.96282280087769
1789485101201438700,8.539438720703124,0.2559340784430504,-0.0034913492470979688,2.2977596400111913
1789485101211484700,8.549484619140625,0.3601297814548015,-0.3294710238188505,1.714865643787384
1789485101221529600,8.559529541015625,0.44988311761617655,-0.6280038885384798,1.2103554484486578
1789485101231574500,8.569574462890625,0.551385343760252,-0.763964264601469,0.8027940537333488
1789485101241619700,8.57961962890625,0.5502034404993057,-0.7675573206573725,0.40303368815779683
1789485101251665700,8.589665771484375,0.46969139541387556,-0.7635404862314462,0.09529811080694198
1789485101261710600,8.599710693359375,0.40974867562651635,-0.6793348473250865,-0.14414192895293235
1789485101271755800,8.609755859375,0.4409446088790893,-0.6579355009436607,-0.462829108428955
1789485101281801700,8.6198017578125,0.48385085366964337,-0.6859077959746122,-0.77593585742414
1789485101291846400,8.629846435546876,0.5165080916464329,-0.7486036138623953,-0.9886486337780952
1789485101301891600,8.6398916015625,0.5990402443826198,-0.8331412612020969,-1.1860510282754897
1789485101311937500,8.6499375,0.6647790832281112,-0.9016887277275323,-1.312915659213066
1789485101321982700,8.659982666015624,0.701964027762413,-0.982548563337326,-1.4385755905359983
1789485101332027600,8.670027587890624,0.6798422123253345,-1.0118015458285807,-1.594201621055603
1789485101342072600,8.680072509765624,0.6748959880948067,-1.03728816152364,-1.749049068418145
1789485101352118500,8.690118408203125,0.6041209086477756,-1.113382682427764,-1.862370911693573
1789485101362163500,8.70016357421875,0.5474456662237643,-1.1647320536538959,-1.9993962866395711
1789485101372208600,8.710208740234375,0.5466261665344238,-1.184562251022458,-2.154214507907629
1789485101382254600,8.720254638671875,0.5173427889049053,-1.2540379383087157,-2.3277017738103867
1789485101392299800,8.7302998046875,0.5668073692977428,-1.347013743647933,-2.471403557780385
1789485101402344700,8.7403447265625,0.6450584837138652,-1.508470964539051,-2.6279876196771856
1789485101412390700,8.750390625,0.700028091263771,-1.666518961508572,-2.779351316577196
1789485101422435600,8.760435546875,0.7590344069838524,-1.7695242856919764,-2.9232424856394528
1789485101432480500,8.77048046875,1.0469242971360684,-1.878158263412118,-2.9996956107228994
1789485101442526500,8.7805263671875,1.3450561798393725,-2.0436478085592387,-3.0202035612225533
1789485101452571600,8.790571533203124,1.5651029523432254,-2.20982767405808,-3.0246950274229047
1789485101462616600,8.800616455078124,1.7746867830216884,-2.3710183529675004,-3.094444270953536
1789485101472661500,8.81066162109375,1.9022960948467253,-2.548920804964006,-3.185757111516595
1789485101482707500,8.82070751953125,1.9513363123476504,-2.70577900762707,-3.2753853599935767
1789485101492752600,8.830752685546875,1.9436239844046532,-2.816395391336083,-3.3578467855811116
1789485101502797600,8.840797607421875,1.828745851597935,-2.8935782919988036,-3.3806992533802984
1789485101512843500,8.850843505859375,1.5300690483629702,-2.911037376321852,-3.3054443981707093
1789485101522888700,8.860888671875,1.0766193243063986,-2.9122692562043664,-3.3067104725837706
1789485101532933600,8.87093359375,0.6559166354019195,-2.9333979689508674,-3.3126901315152644
1789485101542979800,8.880979736328126,0.25787005147431047,-3.012152064453065,-3.2799428771674632
1789485101553024500,8.8910244140625,-0.0755073321333155,-3.112105599850416,-3.4021780947387215
1789485101563069400,8.9010693359375,-0.3535176333060488,-3.26479528465718,-3.6077427529037
1789485101573115100,8.911115234375,-0.5666612388253212,-3.4510739353328943,-3.79500719974637
1789485101583160000,8.92116015625,-0.6139233407378196,-3.7184003454059362,-3.9159050312340256
1789485101593205200,8.931205322265624,-0.474604886418581,-4.049122246068716,-3.961542746815085
1789485101603250200,8.941250244140624,-0.14761981593025847,-4.428407978892326,-3.798469322898984
1789485101613296400,8.95129638671875,0.3161374949932098,-4.845291036443412,-3.4789188045918937
1789485101623341300,8.96134130859375,0.8286497950017452,-5.303415035921335,-3.072382661271095
1789485101633386200,8.97138623046875,1.2244821734786033,-5.794838955193757,-2.7022411888897415
1789485101643432200,8.98143212890625,1.6577508409023285,-6.192744632813334,-2.3695208078861234
1789485101653477000,8.99147705078125,2.0047838248968124,-6.455332323926687,-2.1006939301222562
1789485101663522300,9.001522216796875,2.1323872915029525,-6.685665512645244,-1.7562065389573573
1789485101673568300,9.011568359375,2.240488769781589,-6.918467137303948,-1.397875915879011
1789485101683613200,9.02161328125,2.40815185957551,-7.045111403489113,-1.209006956449151
1789485101693658000,9.031658203125,2.591597040390968,-6.996873150020837,-1.0388204856574534
1789485101703704000,9.0417041015625,2.704517317128181,-6.81473145301938,-0.8163999697595834
1789485101713749200,9.051749267578124,2.6913503770411014,-6.270863060760497,-0.456243884819746
1789485101723794200,9.061794189453124,2.4335002358436584,-5.452250091126561,-0.03000876929461956
1789485101733839400,9.07183935546875,2.0497604462206365,-4.458066327314079,0.5204921928465366
1789485101743885300,9.08188525390625,1.7710779448747633,-3.441632153248787,1.140561196732521
1789485101753930200,9.09193017578125,1.4410790977895258,-2.4215005859702825,1.7537784350275993
1789485101763975200,9.10197509765625,1.0520878904443234,-1.3561311160832643,2.433836335930228
1789485101774021000,9.112021240234375,0.6982920612514019,-0.37889468767941,3.010919600048661
1789485101784066300,9.12206640625,0.3040951750218868,0.39965690520107744,3.2868741377353667
1789485101794111200,9.132111328125,-0.14433365213274954,0.9317588718205689,3.271997471120953
1789485101804157200,9.1421572265625,-0.5985760609369725,1.2798451642602682,2.996758972749114
1789485101814202400,9.152202392578126,-0.9527133970439433,1.4560235689431429,2.4287778834968803
1789485101824247000,9.1622470703125,-1.1548947694461793,1.4909931755155323,1.7637363499402998
1789485101834293200,9.172293212890626,-1.2614742257893086,1.515394041800499,1.1823965974211692
1789485101844338200,9.182338134765626,-1.3490531405210495,1.6598258936107158,0.8017413298100232
1789485101854383000,9.192383056640624,-1.5027987641215323,1.9100930323332548,0.5078378784567117
1789485101864428300,9.20242822265625,-1.640657082760334,2.123479177904129,0.2474497432142496
1789485101874474200,9.21247412109375,-1.727553275924921,2.25553845487535,0.06027063656747341
1789485101884519400,9.22251953125,-1.842258682513237,2.3100685019642113,-0.11824176402091979
1789485101894564000,9.232564208984375,-2.013568604376912,2.3219962556451557,-0.2796568993359804
1789485101904610000,9.242610107421875,-2.1187094792842864,2.351839020723104,-0.3833399766504764
1789485101914655200,9.2526552734375,-2.140612683534622,2.3801292956620452,-0.44101708959341046
1789485101924700200,9.2627001953125,-2.1081512603908776,2.3882769462823865,-0.4651987601697445
1789485101934746400,9.272746337890625,-1.9806956778228282,2.392304886624217,-0.4837888943493366
1789485101944791300,9.282791259765625,-1.8195061679571867,2.385923076632619,-0.4849520929098129
1789485101954836200,9.292836181640626,-1.6242834555864334,2.342956626087427,-0.45545127313733097
1789485101964881200,9.302881103515626,-1.282262746796012,2.3395763359993693,-0.385479911288619
1789485101974927000,9.312927001953126,-0.8985755641430616,2.2988684780359265,-0.3047989393770695
1789485101984972300,9.32297216796875,-0.573164592837356,2.188756244456768,-0.23743162254691122
1789485101995017200,9.333017333984374,-0.24285770271625368,2.079021027496457,-0.14414134443104265
1789485102005063200,9.343063232421875,0.032819150540232656,1.9783038142502307,0.07936462861597537
1789485102015108000,9.353108154296875,0.27732352448496966,1.851809185668826,0.3572212005317211
1789485102025153300,9.3631533203125,0.44823184327781196,1.7553911309212444,0.6948422130584716
1789485102035199200,9.37319921875,0.5809726727724075,1.7598562936365603,1.1861410446465015
1789485102045244200,9.383244140625,0.7496744579643011,1.8507827652305364,1.6387451116591691
1789485102055289300,9.393289306640625,0.8870990613609552,1.9225164605766534,2.0671528950482605
1789485102065335300,9.403335205078125,0.9399006772220134,1.9758575901418922,2.508776133841276
1789485102075380200,9.413380126953125,1.0334048903495072,2.056534470400214,2.9645453868865963
1789485102085425200,9.423425048828125,1.1270265923768281,2.1856454189598558,3.3711136789113283
1789485102095470000,9.433469970703126,0.9997919590830803,2.440382981094718,3.70311802060008
1789485102105516300,9.443516357421874,0.6829033534616231,2.7256512905716894,3.9150937148511407
1789485102115561200,9.453561279296874,0.2399374313553795,2.9422523065358397,4.016908660206198
1789485102125606400,9.4636064453125,-0.18912907167077064,3.0411621780991553,3.960067413565516
1789485102135652400,9.47365234375,-0.5730717999873682,2.8971500130057333,3.6866228128731247
1789485102145697000,9.483697021484375,-0.860866303473711,2.6093606606185435,3.3565175828039644
1789485102155742200,9.4937421875,-1.133231876757741,2.2579952003777026,3.0427322038948534
1789485102165788200,9.5037880859375,-1.403989430323243,1.8687801942139863,2.770776380455494
1789485102175833300,9.513833251953125,-1.6519921312451362,1.512816300266981,2.614310976502299
1789485102185878300,9.523878173828125,-1.8982324986696242,1.1376643062472342,2.597406603452563
1789485102195923500,9.53392333984375,-2.0753490609854457,0.7076911732375621,2.689453018987179
1789485102205969400,9.543969482421875,-2.162094447502494,0.23026363061368463,2.9482027393728494
1789485102216014000,9.55401416015625,-2.069622500032186,-0.24920506244897841,3.3208488880515095
1789485102226059300,9.564059326171876,-1.7036445770710706,-0.6601672055184841,3.6638270436972378
1789485102236105200,9.574105224609376,-1.4165917222648858,-1.008466848447919,4.035194258481264
1789485102246150100,9.584150146484374,-1.3256746030211448,-1.3150684533327817,4.41525097567737
1789485102256195300,9.5941953125,-1.3143436461895703,-1.6159055033415555,4.721819262814521
1789485102266241300,9.6042412109375,-1.2886527400940655,-1.9244874683886766,4.96639841902852
1789485102276286200,9.6142861328125,-1.1683622268497944,-2.0875024401158093,5.130006095951796
1789485102286331100,9.6243310546875,-1.096282567610219,-1.9974433990061282,5.334093667301535
1789485102296377000,9.634377197265625,-1.0743214956928044,-1.4736451503515242,5.477700174203514
1789485102306422300,9.64442236328125,-1.0479472104430199,-0.4527940366268158,5.594883369082212
1789485102316467200,9.65446728515625,-1.0976784058827906,0.8034282599836587,5.668657045823335
1789485102326512400,9.664512451171875,-1.2413263407737016,1.9227374098509549,5.596176916024088
1789485102336558300,9.674558349609375,-1.3912632197409867,2.7173832284420727,5.3693976203948255
1789485102346603300,9.684603271484375,-1.4402484921842813,3.068067136159539,5.048902514714002
1789485102356648200,9.694648193359376,-1.3810083677083254,2.848593195107579,4.617427744969725
1789485102366694100,9.704694091796876,-1.271697513639927,2.2753157530128956,4.045677658572793
1789485102376739300,9.7147392578125,-0.9066606709212064,1.5980425143927335,3.455289507201314
1789485102386784300,9.7247841796875,-0.47539979965593665,0.9478659570127725,2.9174317535340784
1789485102396830200,9.734830322265625,-0.20700550462305545,0.391515099799633,2.374568738925457
1789485102406875100,9.744875244140625,-0.057473114803433416,-0.055714872959256166,1.868351739668846
1789485102416920000,9.754920166015625,0.010561104970239103,-0.36148294962942595,1.4313713582456111
1789485102426966300,9.76496630859375,0.017251542519591746,-0.49451428650319573,1.0647791027784348
1789485102437011200,9.77501123046875,0.013519973042141645,-0.5195002591997385,0.7918897978812456
1789485102447056400,9.785056396484375,0.00788463403629139,-0.4776753799051046,0.546849453896284
1789485102457101000,9.79510107421875,-0.024174665446812287,-0.4569026409894228,0.3119026339024305
1789485102467147000,9.80514697265625,-0.053384973273542705,-0.4245025926440954,0.1148562132358551
1789485102477192200,9.815192138671875,-0.025374095231294632,-0.38245851764082905,-0.06040858373343944
1789485102487237000,9.825237060546876,0.02208792230063118,-0.3795376617580652,-0.13004618358314038
1789485102497283300,9.835283447265626,0.14550971017479897,-0.38990532651543613,-0.146762925106287
1789485102507328300,9.845328369140624,0.3069803750693798,-0.41895255730152126,-0.1516419293195009
1789485102517373400,9.85537353515625,0.46642044745180755,-0.4630974039763212,-0.16057926901280878
1789485102527419400,9.86541943359375,0.6264215877830982,-0.5565116007328033,-0.2257429383188486
1789485102537464000,9.875464111328125,0.824054210839793,-0.6388122828006744,-0.284614814004302
1789485102547509200,9.88550927734375,1.016245008168742,-0.7966752785921096,-0.42006490245759487
1789485102557555200,9.89555517578125,1.1781214043200015,-1.039537694016099,-0.6048702657103538
1789485102567600400,9.905600341796875,1.3451894508302211,-1.2902920317336917,-0.8713970498383045
1789485102577645600,9.9156455078125,1.5209446616649627,-1.4913441809102892,-1.1639625305861234
1789485102587690500,9.9256904296875,1.7658020502984522,-1.7070204832449554,-1.435288239428401
1789485102597736700,9.93573681640625,2.0047592749774457,-1.9426701908111572,-1.7194670001029968
1789485102607781400,9.945781494140626,2.24456741739735,-2.1749615278601646,-2.0249159278213975
1789485102617826600,9.95582666015625,2.5227906306684016,-2.351707503297925,-2.3398931468635795
1789485102627872500,9.96587255859375,2.7411785300493237,-2.54969646551162,-2.5854244892358778
1789485102637917400,9.97591748046875,2.92984933655858,-2.77434547111392,-2.8323019855201244
1789485102647962600,9.985962646484374,3.1124785248160363,-3.023933979922533,-3.1365462136238813
1789485102658008600,9.996008544921875,3.27218977882266,-3.212592511472106,-3.4133342795252797
1789485102668053500,10.006053466796875,3.354944049876928,-3.3756361247718334,-3.6741765882760284
1789485102678098400,10.016098388671875,3.366803999018669,-3.554314529576897,-3.915682912915945
1789485102688143600,10.0261435546875,3.2336744624674316,-3.7201828449085355,-4.139251429805159
1789485102698189600,10.036189453125,2.8953648831546306,-3.900139306825399,-4.293189945629239
1789485102708234500,10.046234375,2.447628129917383,-4.068351262673735,-4.371775406566262
1789485102718279700,10.05627978515625,2.0065853213608262,-4.134888850681484,-4.537624724936485
1789485102728325600,10.06632568359375,1.557188525956869,-4.1115795790255065,-4.69890015951991
1789485102738370300,10.076370361328125,1.1495698480963705,-4.133442743526399,-4.71247918753922
1789485102748415500,10.08641552734375,0.8513094436425716,-4.203174451400339,-4.759070258322358
1789485102758461400,10.09646142578125,0.7541700158178806,-4.222482378460467,-4.7799826979696745
1789485102768506600,10.106506591796874,0.7028209368526935,-4.165212677274644,-4.799597499021887
1789485102778551600,10.116551513671874,0.7482710209071636,-4.118728866258263,-4.742786062997579
1789485102788597500,10.126597412109374,0.9582137480258941,-4.192633183641732,-4.7037680578172205
1789485102798642700,10.136642578125,1.1828513554513453,-4.3579523406580085,-4.602459892940521
1789485102808687400,10.146687255859375,1.3554595004320145,-4.667408750452101,-4.425300076004863
1789485102818732500,10.156732666015625,1.5531331130862236,-5.11187013528049,-4.342915222784876
1789485102828778500,10.166778564453125,1.740745934975147,-5.74046906710267,-4.179264291241765
1789485102838823700,10.17682373046875,1.8734370801091194,-6.412798419579863,-3.854506267419457
1789485102848868600,10.18686865234375,1.9072002335011957,-6.933581119805574,-3.473236667302251
1789485102858914600,10.19691455078125,1.81713125551939,-7.262456515818834,-3.276048207816481
1789485102868959500,10.20695947265625,1.5655834293365478,-7.249920859372615,-3.005304098254442
1789485102879004400,10.21700439453125,1.1381950521230697,-6.97081399513483,-2.704570508620143
1789485102889050400,10.22705029296875,0.7934487177610396,-6.4011214257895945,-2.4363310753554104
1789485102899095600,10.237095458984374,0.6624246290564537,-5.57674097867012,-2.0362182430803775
1789485102909140500,10.247140380859374,0.7322586282610892,-4.578030092822015,-1.3648492600679396
1789485102919185400,10.257185302734374,0.7922609692811966,-3.5883316577300426,-0.5890542724192143
1789485102929231400,10.2672314453125,0.7209013679444789,-2.775235405690968,0.2197048271983862
1789485102939276500,10.277276611328125,0.5970458556950092,-2.1062997873052955,1.0325655169159174
1789485102949321500,10.287321533203125,0.4203460574865341,-1.4346435117840766,1.9167811317950485
1789485102959367400,10.297367431640625,0.18124737851023673,-0.8191986605674028,2.7593834643036126
1789485102969412600,10.30741259765625,-0.26718612481951715,-0.4441384364843368,3.299483443939686
1789485102979457500,10.31745751953125,-0.8310463347494602,-0.20191198087632656,3.394237364867329
1789485102989503700,10.327503662109375,-1.3441408185601234,-0.059598436394333834,3.295090761938691
1789485102999548400,10.33754833984375,-1.690146797594428,0.045837622067332266,3.155922529745102
1789485103009593600,10.347593505859376,-1.7147323727965353,0.16436346372663974,3.0448394053071737
1789485103019638500,10.357638427734376,-1.6117425384432076,0.24262860666811464,2.8787761519253254
1789485103029684500,10.3676845703125,-1.4952122545152902,0.28319325676858426,2.6594857507467267
1789485103039729700,10.377729736328124,-1.3837585431993007,0.48428339986801144,2.5563386800050734
1789485103049774300,10.3877744140625,-1.2427110731303692,0.8190759109705686,2.467209028699994
1789485103059820300,10.3978203125,-1.0676163720309735,1.17180155364871,2.401104279151559
1789485103069865500,10.407865478515625,-0.8854360965847968,1.5409429090768099,2.376597614404559
1789485103079910400,10.417910400390625,-0.7758154459148645,1.813826368755102,2.2801906655728814
1789485103089956600,10.42795654296875,-0.7407751121938229,2.1308938380748033,2.1514906359016894
1789485103100001500,10.43800146484375,-0.8088578838169574,2.520216396266222,1.97140470238626
1789485103110046700,10.448046630859375,-1.0150438887506723,2.850038717740774,1.7367659254282712
1789485103120091400,10.45809130859375,-1.264587973895669,3.0685265703648326,1.4357009118825197
1789485103130137300,10.468137451171875,-1.334881991827488,3.1608857051104304,1.165900805172324
1789485103140182500,10.4781826171875,-1.3108540505081414,3.1154280222713946,0.9154553872734308
1789485103150227500,10.4882275390625,-1.2933435282588004,3.022532880952954,0.5736380921006202
1789485103160273700,10.498273681640624,-1.2556108867138625,2.970719107085466,0.21063421651422976
1789485103170318600,10.508318603515624,-1.0996773976802825,2.8744208793252706,-0.03198912945687771
1789485103180363500,10.518363525390624,-0.8710779739517718,2.732571445223689,-0.16268997755646705
1789485103190409500,10.528409423828125,-0.6334118850618601,2.541174428620934,-0.23063655557930468
1789485103200454400,10.538454345703125,-0.36622057261057195,2.3190853366345165,-0.27349370053112504
1789485103210499600,10.54849951171875,-0.06865151142179965,2.1530869651824234,-0.19674889902472495
1789485103220544500,10.55854443359375,0.12957673944048584,2.0527029294133183,-0.10473521671593189
1789485103230590500,10.568590576171875,0.19235965108983216,2.000399910724163,0.06152326697707176
1789485103240635600,10.5786357421875,0.19855266051106155,1.9691063623160123,0.3513859185069799
1789485103250680300,10.588680419921875,0.19132796995453535,1.9242174192756414,0.5850567272156476
1789485103260726500,10.5987265625,0.09207914876043796,1.9372931739479302,0.8724363297581672
1789485103270771500,10.608771484375,-0.013186886896565556,2.0395342357605695,1.165837676808238
1789485103280816600,10.618816650390626,0.022730229659005997,2.031425748106837,1.4814239676594734
1789485103290862600,10.628862548828126,0.01495017024204135,2.0094892261087893,1.7145196068286894
1789485103300907500,10.638907470703124,-0.05679981865175068,1.9750112024456261,2.0120570307701824
1789485103310952400,10.648952392578124,-0.06264905613660812,1.9257038584411144,2.433517771500349
1789485103320997400,10.658997314453124,0.02344751108288765,1.8986387413829564,2.9436873077750203
1789485103331043600,10.669043701171875,0.037806802759692074,1.8438631951004265,3.460285415792465
1789485103341088500,10.679088623046875,-0.009616554129123687,1.8458809646636247,3.924505686318874
1789485103351133700,10.6891337890625,-0.1021031146466732,1.871224080234766,4.39143696936965
1789485103361179600,10.6991796875,-0.276097818614915,1.8996207381576298,4.80891770055294
1789485103371224300,10.709224365234375,-0.4961976364802569,1.890918376263976,5.17044799645543
1789485103381269500,10.71926953125,-0.702607586362958,1.82048816473186,5.47494882966876
1789485103391315500,10.7293154296875,-0.890849938327074,1.6167700112164018,5.7947547840416425
1789485103401360400,10.7393603515625,-1.0038783516138792,1.2504366989463567,6.080154026421904
1789485103411405600,10.749405517578126,-1.0284569856185466,0.8706196357250213,6.26030308830142
1789485103421451500,10.759451416015626,-1.0285556967526674,0.5705079773813486,6.323730143073201
1789485103431496700,10.76949658203125,-1.0477022227060049,0.3414543070793152,6.371387966305017
1789485103441541400,10.779541259765624,-1.0311713591437786,0.18714578889906405,6.449277261671424
1789485103451586600,10.789586669921874,-1.0430518396168946,-0.039462241816520686,6.430082147336006
1789485103461632500,10.799632568359375,-1.064170615491271,-0.3925573023289442,6.393453083118796
1789485103471677400,10.809677490234375,-0.9817717337459325,-0.8247077793776989,6.309480083924532
1789485103481722600,10.81972265625,-0.8686188903618604,-1.1487070937871933,6.210438694936037
1789485103491768600,10.8297685546875,-0.709886637455225,-1.1593553290516136,6.037754562109709
1789485103501813500,10.8398134765625,-0.5626110866516828,-0.6864023014932871,5.767190485289692
1789485103511858400,10.8498583984375,-0.6033896717637777,0.224444130679965,5.315798716676235
1789485103521904400,10.859904296875,-0.8101298765141517,1.1898884144812822,4.854854106819629
1789485103531949600,10.869949462890625,-1.0100258413929493,1.888816435548663,4.418269446715712
1789485103541994500,10.879994384765626,-1.141771741566062,2.216449722546339,3.9575814419686792
1789485103552039700,10.890039794921876,-1.142600082148984,2.089125072881579,3.4521798507481813
1789485103562086000,10.9000859375,-0.9970816041458398,1.5792022048443555,2.8476035995483397
1789485103572130600,10.910130615234374,-0.7692465889185667,0.8448603405684232,2.2626322125285863
1789485103582175700,10.92017578125,-0.5444114130944013,0.061301148658990855,1.6918161921113728
1789485103592221700,10.9302216796875,-0.3257201468527317,-0.6554758328318595,1.1179986517906189
1789485103602267000,10.940266845703125,-0.16135149549432098,-1.2583943799525499,0.5675193169593811
1789485103612311800,10.950311767578125,-0.06324760655164718,-1.6830395959377287,0.08679331731200218
1789485103622356700,10.960356689453125,0.07672200515270233,-1.8798516233265399,-0.21736264798641203
1789485103632402700,10.970402587890625,0.23152802452631294,-1.9116987139642236,-0.3761205467909574
1789485103642447600,10.980447509765625,0.34782260000221427,-1.8044167353749274,-0.5012736976355314
1789485103652492800,10.990492919921875,0.4463432530522346,-1.6290788731694221,-0.5517892483860254
1789485103662538800,11.000538818359376,0.5384101633856073,-1.4204513203024864,-0.5968348432928323
1789485103672584000,11.010583984375,0.6150374394595622,-1.2798966021865605,-0.6747288148343563
1789485103682628900,11.02062890625,0.6470277379602194,-1.1807008994191883,-0.8318067977279424
1789485103692674800,11.0306748046875,0.6783177792370318,-1.1759516590654848,-1.0741624326735735
1789485103702719700,11.0407197265625,0.664428954616189,-1.2251041047692297,-1.3248580259412526
1789485103712764700,11.0507646484375,0.7422323252648114,-1.2789169434994458,-1.5578233167290687
1789485103722809900,11.060809814453124,0.8687450740247964,-1.3040060843095183,-1.7879449085235595
1789485103732855800,11.070855712890625,0.9747861126422882,-1.330396663106978,-2.001304750609398
1789485103742900700,11.080900634765625,1.083501338905096,-1.3684551756054162,-2.1922686364918946
1789485103752945700,11.090945556640625,1.2654355306357146,-1.439780874672532,-2.376217090654373
1789485103762991600,11.10099169921875,1.4348434182703493,-1.5721724523380398,-2.6176819142401215
1789485103773036800,11.111036865234375,1.5255997939944266,-1.7123071914762258,-2.9271108515053985
1789485103783081700,11.121081787109375,1.629603189304471,-1.8557561697289346,-3.2783348574489355
1789485103793127700,11.131127685546875,1.7145441567480564,-1.9880828654646872,-3.6186423325806856
1789485103803172900,11.1411728515625,1.8530016103237865,-2.123828137472272,-3.947275152009725
1789485103813217800,11.1512177734375,2.0051789616942406,-2.2463459713771936,-4.197124942103028
1789485103823262700,11.1612626953125,2.1887901467263697,-2.3936346739232537,-4.401964793124795
1789485103833308700,11.17130859375,2.262927396082878,-2.581100780817866,-4.6062809125334025
1789485103843353900,11.181353759765624,2.337951365146041,-2.709948694527149,-4.782333060488105
1789485103853398800,11.191398681640624,2.3877064529180525,-2.8362141905277967,-4.903320323824882
1789485103863444700,11.20144482421875,2.3539345316976306,-2.9460034757629034,-4.902489718219638
1789485103873490000,11.211489990234375,2.256267353671789,-3.012575550562143,-4.900404728639126
1789485103883534600,11.22153466796875,2.003379803317785,-3.061210402132571,-4.904900871014595
1789485103893580800,11.231580810546875,1.6196370910853146,-3.1109166823267933,-4.889367786318063
1789485103903625700,11.241625732421875,1.2438818704754113,-3.156210991297662,-4.8822792893618345
1789485103913670700,11.251670654296875,0.8724953664690256,-3.167626411542296,-4.731836798959971
1789485103923715800,11.2617158203125,0.4297860860049724,-3.1958573575094342,-4.582630572354793
1789485103933761800,11.27176171875,0.1123631543111056,-3.2515719382077455,-4.387102155035734
1789485103943806700,11.281806640625,-0.08023680834062397,-3.31163565402627,-4.223080052092671
1789485103953851600,11.2918515625,-0.2653261761665344,-3.3830940395623443,-4.061282054939866
1789485103963897600,11.301897705078124,-0.36705344323813915,-3.41104909119755,-3.9062054749965665
1789485103973942800,11.31194287109375,-0.4417109170764684,-3.485366665557027,-3.7368811739921566
1789485103983987700,11.32198779296875,-0.39818339858241375,-3.6378435843959447,-3.5196307542085647
1789485103994034000,11.332033935546875,-0.27762743933498857,-3.985800697498023,-3.2072353683531283
1789485104004078800,11.342078857421875,-0.14474690910875795,-4.482425108022988,-2.838442387971282
1789485104014123800,11.352123779296875,-0.02293722347319126,-5.037422504800558,-2.4715356597274543
1789485104024168700,11.362168701171875,0.059022645800374446,-5.568550657951832,-2.082292596513033
1789485104034214700,11.372214599609375,0.1540249519985169,-5.988316869723796,-1.725356058141589
1789485104044259800,11.382259765625,0.2951794626384973,-6.255532220637798,-1.4974696780532597
1789485104054304800,11.3923046875,0.46024139349069443,-6.310691213279962,-1.2073434071511029
1789485104064350700,11.402350830078126,0.5652829362094401,-6.317541809827089,-0.8641606688439846
1789485104074395600,11.412395751953126,0.7432079653639346,-6.180580147767067,-0.824252436825633
1789485104084440800,11.42244091796875,1.0888514677613974,-5.743838251274823,-0.8239724508404731
1789485104094486800,11.43248681640625,1.4611638544410466,-5.0833022124439475,-0.7100865439414977
1789485104104531700,11.44253173828125,1.8270634514689443,-4.276355130684376,-0.3845750714033842
1789485104114577000,11.452576904296874,2.062189135161042,-3.5002667130470275,0.3035200054824352
1789485104124621800,11.462621826171874,2.1093150434732437,-2.6209417928189036,1.385318632122874
1789485104134667800,11.472667724609375,1.9709879382789133,-1.5763655201137066,2.375174888125062
1789485104144712700,11.482712646484375,1.6644968080312013,-0.6862976720750331,3.0546587885320187
1789485104154757600,11.492757568359375,1.12965284922719,-0.10357435624301432,3.289342573675513
1789485104164803800,11.502803955078125,0.4567541724294424,0.2349789686977863,3.302431187829375
1789485104174848800,11.512848876953125,-0.3534960425287485,0.40783436643779275,3.1125346389174458
1789485104184894000,11.52289404296875,-1.2008330023437739,0.43724107818603514,2.746204249256849
1789485104194940000,11.53293994140625,-1.8366694842040538,0.39742461610436436,2.2580998297959565
1789485104204984600,11.542984619140626,-2.2811013506770133,0.342946591463685,1.7679630277246237
1789485104215029800,11.55302978515625,-2.545349083957076,0.37544951566159723,1.420496913009882
1789485104225074700,11.56307470703125,-2.5133669687628744,0.5593365950256586,1.3641238684028387
1789485104235121000,11.573120849609374,-2.2864549866646526,0.8396522505313158,1.4837462731271982
1789485104245165800,11.583165771484374,-2.0151737014859914,1.0713117194175719,1.6944664143592119
1789485104255210800,11.593210693359374,-1.5229752907097338,1.3605956942766904,2.0414310092926025
1789485104265257000,11.603257080078125,-1.1000486421454698,1.9131945054799318,2.3141046256124973
1789485104275301600,11.613301513671875,-1.362668408897519,2.5969734727323055,2.6467852591276166
1789485104285346800,11.623346923828125,-1.2791916687875986,2.8727812954246996,2.5178216100841757
1789485104295392800,11.633392822265625,-1.470655905407667,3.1068945872038602,2.510637836059928
1789485104305437700,11.643437744140625,-1.831164310916513,3.343784357959032,2.3679899450570345
1789485104315483000,11.65348291015625,-1.053335771613568,2.722841493847966,1.259731181514263
1789485104325527600,11.663527587890625,-0.8587972421146929,2.6533342423796653,0.652289604011178
1789485104335573800,11.67357373046875,-0.8924791469641029,2.708410232913494,0.24927052890062332
1789485104345618700,11.68361865234375,-1.29293436293602,2.470056234824657,-0.11840075397491455
1789485104355664000,11.693663818359376,-1.563368529766053,2.3823610002368687,-0.4546954863339662
1789485104365709800,11.703709716796874,-1.4994938773572444,2.402396657049656,-0.5730237595945596
1789485104375754800,11.713754638671874,-1.3722048835277556,2.375689267387986,-0.5786836850523949
1789485104385800000,11.723800048828124,-1.1272395044751464,2.34474175593853,-0.4472855023384094
1789485104395845600,11.733845703125,-0.730375298732519,2.2926608555674552,-0.2858019779622555
1789485104405890800,11.743890869140625,-0.2532629595376551,2.2600544709950685,-0.11423194385766983
1789485104415935700,11.753935791015625,0.1393459268480539,2.2649019110262394,0.26416005499660966
1789485104425981000,11.76398095703125,0.3260929256878793,2.2573235847264526,0.6807914758741855
1789485104436027000,11.77402685546875,0.522111172350496,2.2452947087585926,1.0752946515738964
1789485104446071800,11.78407177734375,0.6955190894067287,2.173108008947968,1.473388545241952
1789485104456116700,11.79411669921875,0.8083814984768629,2.118804756352305,1.9083371285766362
1789485104466162700,11.80416259765625,1.0397660959444939,2.2395213860541583,2.3973171618282794
1789485104476207600,11.81420751953125,1.167241698387265,2.479613167721033,2.919638323667645
1789485104486252800,11.824252685546876,1.228873101913929,2.6292104394704103,3.314775705617666
1789485104496298800,11.834298828125,1.2230335821054874,2.5203829850047827,3.6383605940073727
1789485104506344000,11.844343994140624,1.3427256910651921,2.4502274987608192,3.9822418359726663
1789485104516388600,11.854388671875,1.4035470933832228,2.28349438329339,4.291404231256246
1789485104526433800,11.864433837890624,1.3637971206665038,2.1112550716251133,4.559745371329784
1789485104536479700,11.874479736328125,1.4421471654124558,1.999402131858468,4.829954058840871
1789485104546524700,11.884524658203125,1.490974616945535,1.9350638074606656,5.246826302736998
1789485104556569900,11.89456982421875,1.4676761589445173,1.8459107752799986,5.614779325163364
1789485104566615600,11.904615478515625,1.2691034054934978,1.5984493416279553,6.001885960870981
1789485104576660500,11.914660400390625,1.1119928355045616,1.3108318386763333,6.410328814595937
1789485104586705400,11.924705322265625,1.0309200877964495,1.0055670353531836,6.730972388836741
1789485104596751400,11.93475146484375,0.9930249491661787,0.6051099196851253,6.998246191939711
1789485104606796500,11.944796630859376,0.9813894564300775,0.20053543182611464,7.068755898448824
1789485104616841500,11.954841552734376,1.0568131654005497,-0.11657587663531303,6.9774991719871755
1789485104626887700,11.9648876953125,1.0462608647912741,-0.5273679238349199,6.839674755617976
1789485104636932400,11.974932373046874,0.9413416698105632,-0.981345617288351,6.681245358115434
1789485104646977500,11.9849775390625,0.8318629118293523,-1.434092892163992,6.508394052028656
1789485104657022500,11.9950224609375,0.7053624380290507,-1.781544978353381,6.388053269901872
1789485104667068400,12.005068359375,0.661730217051506,-1.8362971437603235,6.276520063608884
1789485104677113600,12.015113525390625,0.8006043616693467,-1.3379659293174744,6.141113229775429
1789485104687158500,12.025158447265625,0.9527426231384277,-0.3816448631703853,5.995747311985492
1789485104697204500,12.03520458984375,0.8938514582306146,0.6191892984420061,5.815665470123291
1789485104707249400,12.04524951171875,0.778813458687067,1.3665987340837715,5.47110618276596
1789485104717294300,12.05529443359375,0.5572895993679762,1.6920505853891372,4.944481770774722
1789485104727340500,12.065340576171875,0.3834510358095169,1.612360962602496,4.2280443965017795
1789485104737385500,12.075385498046876,0.2754769102375954,1.120275364550948,3.3757676421970126
1789485104747430700,12.0854306640625,0.3865834886163473,0.4188602028429508,2.6146219421476125
1789485104757475300,12.095475341796876,0.5060055484630167,-0.24427578935325145,1.9997195272445678
1789485104767521300,12.105521240234374,0.6025741906624287,-0.7643623240083456,1.3831786974847315
1789485104777566500,12.11556640625,0.6690409784562885,-1.1903484332084655,0.8262251982033252
1789485104787611400,12.125611328125,0.6867115135729313,-1.5789280640780925,0.2782055314838886
1789485104797657600,12.13565771484375,0.55543608045578,-1.8921528864949941,-0.35803660856783387
1789485104807702500,12.14570263671875,0.465175379294157,-1.9304530987948179,-0.9498878182291984
1789485104817747700,12.155747802734375,0.3670498630415648,-1.7650702288925646,-1.4143968425691127
1789485104827793400,12.16579345703125,0.2967136864684522,-1.5233195741027592,-1.7624422184765338
1789485104837838300,12.17583837890625,0.2758458166152239,-1.3580892644137144,-2.089081233739853
1789485104847883500,12.185883544921875,0.24510288782715797,-1.248970133525133,-2.395700958803296
1789485104857929500,12.195929443359375,0.2618536777503788,-1.1927338670402765,-2.6605677007645365
1789485104867974400,12.205974365234376,0.29564941823780533,-1.20236912586987,-2.947591329476237
1789485104878019600,12.21601953125,0.3570025893449783,-1.2901081995993853,-3.2841210396349427
1789485104888064500,12.226064453125,0.46975737332217393,-1.411705119267106,-3.6141473592489954
1789485104898110500,12.2361103515625,0.6024350744526833,-1.5154092393696308,-3.872690743407607
1789485104908155400,12.2461552734375,0.7030406440179795,-1.6849860538303851,-4.02990550442338
1789485104918200600,12.25620068359375,0.7870731913797557,-1.8749305335372686,-4.101878853744268
1789485104928246500,12.26624658203125,0.7514923210412263,-2.0613936008691787,-4.1994332190454005
1789485104938291500,12.27629150390625,0.6280367678947746,-2.14772222327888,-4.31241603962481
1789485104948336400,12.28633642578125,0.4875269118338823,-2.1390286292135716,-4.432004542079568
1789485104958382300,12.29638232421875,0.4154525863565504,-2.1286200479239223,-4.517925168210268
1789485104968427500,12.306427490234375,0.36373394342660903,-2.2191823623806237,-4.626965973165631
1789485104978472400,12.316472412109375,0.2554763978034258,-2.3675547685101628,-4.800739654794335
1789485104988517600,12.326517578125,0.2469914780527353,-2.480310502335429,-4.977817638665438
1789485104998563600,12.3365634765625,0.3210780201353133,-2.55791162841022,-5.094592252743244
1789485105008608500,12.3466083984375,0.5031639683615416,-2.640091314446926,-5.22399370868206
1789485105018653400,12.3566533203125,0.7374212717212736,-2.692408653922379,-5.250522234645485
1789485105028699400,12.366699462890624,0.9489164159137755,-2.7420088433936236,-5.221258146238327
1789485105038744600,12.37674462890625,1.1146616893876344,-2.8085674741894007,-5.289410475966334
1789485105048789500,12.38678955078125,1.1569388424944131,-2.8288962687298653,-5.287592028367519
1789485105058835500,12.39683544921875,1.2157050658483057,-2.8163950990751383,-5.206807596081495
1789485105068880600,12.406880615234375,1.0910375065635889,-2.8284093619957567,-5.1444648294150825
1789485105078925300,12.41692529296875,0.8129237450163811,-2.842582848776877,-4.950032975161076
1789485105088971300,12.42697119140625,0.459038995430991,-2.9061677244588733,-4.696598312318325
1789485105099016400,12.437016357421875,0.23056224823407828,-3.050668842113018,-4.477776697695255
1789485105109061400,12.447061279296875,0.08924816311821342,-3.2930648090690373,-4.163788489690423
1789485105119107600,12.457107666015625,0.013389058405160904,-3.6027892221495508,-3.9340433299928903
1789485105129152500,12.467152587890626,0.04292845662236214,-3.8563150704070925,-3.7542356288969514
1789485105139197700,12.47719775390625,0.11789506947509944,-4.01617859236598,-3.500648405840993
1789485105149242400,12.487242431640626,0.1638075834095478,-4.167733720184862,-3.189658795130253
1789485105159288300,12.497288330078124,0.11118658481240272,-4.441368582752347,-2.6931764234244824
1789485105169333500,12.50733349609375,0.026666473129391667,-4.804717618514597,-2.0852882711976766
1789485105179378400,12.51737841796875,0.09651223583705723,-5.236221906614303,-1.5991981141686438
1789485105189424600,12.527424560546875,0.13849486297667027,-5.825872391360998,-1.269655194157362
1789485105199469600,12.537469482421875,0.13730075782127676,-6.339381885713339,-1.0261065500348805
1789485105209514500,12.547514404296875,0.13597330860979853,-6.753652422678471,-0.701790424761176
1789485105219560400,12.557560546875,0.27047110130693763,-7.044442125925421,-0.35843992867171764
1789485105229605400,12.56760546875,0.4234211906155571,-7.276725279667973,0.013031331008672714
1789485105239650600,12.577650634765625,0.5084317526966333,-7.182409165635705,0.09298281960189342
1789485105249696500,12.587696533203125,0.9533078558057546,-6.669874653795361,0.3123778501987457
1789485105259741400,12.597741455078125,1.8503554797291755,-5.689938318783044,0.9705769705146551
1789485105269786400,12.607786376953126,2.8352795400261877,-4.598737073025107,1.9262959791153669
1789485105279831300,12.617831298828126,3.6178421221137045,-3.4367578252106905,2.8064170181572434
1789485105289877500,12.62787744140625,4.055988040184975,-2.3446289432138205,3.3638696991324424
1789485105299922400,12.63792236328125,4.2308384111344814,-1.4053367532789707,3.647940323257446
1789485105309967600,12.647967529296874,3.9344916582822798,-0.7063532026320696,3.7388521818041798
1789485105320013600,12.658013671875,3.117342915982008,-0.24204408477842806,3.5373820994764564
1789485105330058500,12.66805859375,1.787723959249258,0.00462064553797245,3.131533353897929
1789485105340103400,12.678103515625,0.2531488316386938,0.12204583247900008,2.5188357555627823
1789485105350149400,12.6881494140625,-1.0488912132948636,0.2507441085845232,1.9291233114957809
1789485105360194600,12.698194580078125,-1.898348234003782,0.48534196901023385,1.647383760666847
1789485105370239500,12.708239501953125,-2.5778718818992377,0.8061626533836126,1.593431221204996
1789485105380285400,12.718285400390625,-3.021147564074397,1.2987965329676865,1.569044383445382
1789485105390330600,12.72833056640625,-3.1641637038677928,1.84937757460773,1.5016308893859385
1789485105400375300,12.738375244140625,-3.156474318408966,2.2748984043836593,1.473511294838786
