time,seconds_elapsed,z,y,x
1789571998043221000,0.073220947265625,0.31660218989551064,0.012927578373253345,-0.044437838272005314
1789571998053267000,0.083266845703125,0.18530688303411005,0.0404378088504076,-0.015677826929464934
1789571998063313000,0.09331298828125,0.20723229911625385,0.08755261124670505,-0.029673363327793776
1789571998073358000,0.103358154296875,0.2910720273196697,0.06966273429095744,-0.02942903317790478
1789571998083404000,0.113404052734375,0.3371095558732748,0.06838613848388195,0.0019203005380928515
1789571998093450000,0.123449951171875,0.36638182758688925,0.08334814529418945,0.0016798063131049275
1789571998103496200,0.13349609375,0.32702830684185025,0.096765845271945,-0.018606135466322303
1789571998113542100,0.143542236328125,0.19143150339424608,0.12310966231822967,-0.01393025260977447
1789571998123588000,0.153588134765625,0.09780454066991806,0.15400369001477957,-0.010588687096908687
1789571998133633000,0.163633056640625,0.07747545386850833,0.20186025068908928,-0.012568572335131466
1789571998143679000,0.173678955078125,0.10481412717103958,0.2018339472040534,0.024228103533945975
1789571998153725000,0.183724853515625,0.10306640672087669,0.20035072290897368,0.06392543274797499
1789571998163771000,0.19377099609375,0.0784054281949997,0.20762860495746135,0.07188775339666753
1789571998173816800,0.20381689453125,0.06875204918682574,0.20408698682785034,0.05377312777433544
1789571998183863000,0.213863037109375,0.05405716888010501,0.15738661045134067,0.07614416873212904
1789571998193908000,0.223907958984375,0.08892799125313758,0.13420885622054338,0.06661876348517835
1789571998203954000,0.233953857421875,0.12154197461009025,0.129800684389472,0.030309177013300357
1789571998213999900,0.243999755859375,0.15862053616046903,0.12831307618021964,0.04146832094192505
1789571998224046000,0.254046142578125,0.0820388162612915,0.1291410514369607,0.039145686680637296
1789571998234092000,0.264092041015625,0.03469020510911942,0.1273717036768794,0.019906367877312002
1789571998244138000,0.274137939453125,-0.015337269863486288,0.10299334148466587,-0.00016476210765540599
1789571998254183200,0.28418310546875,-0.036577626290917396,0.08461948040425776,0.039515725569427014
1789571998264229000,0.29422900390625,-0.036972763088345524,0.08867343197017907,0.09642200027033686
1789571998274275000,0.304275146484375,-0.02376023029386997,0.11109832200706005,0.1208294789591804
1789571998284321000,0.314321044921875,-0.014784896677732466,0.07989391318708658,0.11235391155872493
1789571998294367000,0.324366943359375,-0.03643149581849575,0.05862286936044692,0.13783281887136398
1789571998304412200,0.334412109375,-0.11209551635086536,0.02269493914991617,0.1552482101831585
1789571998314458000,0.3444580078125,-0.14074877938330171,0.010550035586953162,0.09690872434135527
1789571998324503800,0.35450390625,-0.16623218020796776,0.01034019222855568,0.014042626943066716
1789571998334550000,0.364550048828125,-0.26258067685067654,0.017287819409370422,0.006140256320685148
1789571998344596000,0.374595947265625,-0.3217553348749876,0.0376449632614851,-0.002798654275201261
1789571998354642000,0.384641845703125,-0.291569455447793,0.0693985303968191,0.012392704311572014
1789571998364686800,0.394686767578125,-0.23199615349471567,0.07918342683017253,0.02624506937954575
1789571998374733000,0.404733154296875,-0.2321311780512333,0.058932373701035975,0.07450553467962891
1789571998384779000,0.414779052734375,-0.16604747129082678,0.10007073203623294,0.10366152306981384
1789571998394825000,0.424824951171875,-0.14489713123440742,0.11504705963283776,0.1741262944586575
1789571998404871000,0.434870849609375,-0.0722007283359766,0.11914660390615463,0.19939013424851
1789571998414916000,0.444916015625,-0.031031098079681393,0.09379501276761293,0.21730375740602612
1789571998424962000,0.454962158203125,0.08664426423013209,0.16196546267420053,0.18165446147378533
1789571998435008000,0.465008056640625,0.19896774411797521,0.18666180477440356,0.18865049437358974
1789571998445054000,0.475053955078125,0.2917459810584783,0.12605273003280162,0.2093639773827046
1789571998455100200,0.48510009765625,0.40514556574523447,0.10263386052250861,0.21631080084592103
1789571998465146000,0.49514599609375,0.5142985989034176,0.09812398188263177,0.223118142773211
1789571998475191000,0.50519091796875,0.573513588938117,0.07622866867780685,0.21562117461394517
1789571998485237200,0.5152373046875,0.5753244377523661,0.0338847339451313,0.14128200947716832
1789571998495283200,0.525283203125,0.46596448384523387,0.025116321077942847,0.06069649729672819
1789571998505329200,0.5353291015625,0.2804845823317766,0.04774667055904865,0.01676156704556197
1789571998515374800,0.545374755859375,0.12280921806693076,0.09154781836271285,0.0015103680303320288
1789571998525420800,0.5554208984375,0.03940378962755203,0.11449673227369785,0.020091770914196967
1789571998535466000,0.565466064453125,0.04773498012125492,0.13392244049459695,0.11866671143472193
1789571998545512000,0.575511962890625,0.18277064255475997,0.19416794262081383,0.22820815938860176
1789571998555558000,0.585557861328125,0.3348053705841303,0.22889351130425928,0.29309114858973767
1789571998565604000,0.59560400390625,0.4540905061781406,0.20744711091071366,0.3666548723746091
1789571998575650000,0.605650146484375,0.5817015715688467,0.16689502803087233,0.3767388248197734
1789571998585695000,0.615695068359375,0.6806266407012939,0.12573211977630852,0.3874126694494858
1789571998595741000,0.625740966796875,0.804375185444951,0.08227087145149707,0.4568137571295723
1789571998605787100,0.635787109375,0.9998404743999242,0.03358545873761177,0.5023449070636182
1789571998615833000,0.6458330078125,1.0085194554179906,-0.05399111790657043,0.49838323689103126
1789571998625879000,0.655879150390625,0.6478168425112962,-0.16215221741795538,0.32375220778062935
1789571998635925000,0.665925048828125,0.1464963831245899,-0.1886556089401245,0.12064867903217673
1789571998645970200,0.67597021484375,-0.24722470228672025,-0.15877660350501535,-0.13974800484292207
1789571998656016100,0.68601611328125,-0.5067161809504032,-0.17520926738977433,-0.3048867637909949
1789571998666062000,0.69606201171875,-0.6680939068645239,-0.25403701265007256,-0.4110743712723255
1789571998676108000,0.70610791015625,-0.7234019525885581,-0.3516714574500918,-0.467694960899651
1789571998686154200,0.716154296875,-0.7374211255908012,-0.49152708738595247,-0.4900722124025225
1789571998696200200,0.7262001953125,-0.6325941389381885,-0.7706275218829512,-0.6241401257824153
1789571998706244900,0.736244873046875,-0.45719840906560416,-1.0060209166005254,-0.8524971190571784
1789571998716291000,0.746291015625,-0.40988720731437206,-1.040449840424955,-0.9400549910008906
1789571998726336300,0.756336181640625,-0.5184644864112139,-0.9061474607020616,-0.8620412655372172
1789571998736382200,0.76638232421875,-0.569082328492403,-0.7109098430231213,-0.6561057282332331
1789571998746428200,0.77642822265625,-0.5438192924201488,-0.41582858006209134,-0.36776319894269105
1789571998756473300,0.786473388671875,-0.3259095319449901,-0.13013123151808975,-0.057349634554237125
1789571998766519300,0.796519287109375,-0.04142039014697075,0.06960252853631974,0.2897562685459852
1789571998776565200,0.806565185546875,0.15460720886588095,0.23361089521497486,0.6240187644250691
1789571998786611200,0.816611083984375,0.2883569231420755,0.3920253874093294,0.6518309004582464
1789571998796657400,0.826657470703125,0.20295827505886554,0.510776562257111,0.5863581652030349
1789571998806703400,0.836703369140625,-0.22364625830054283,0.511507799141109,0.5682594678021967
1789571998816748300,0.846748291015625,-0.5874345622628927,0.6484209458842873,0.2951877920754254
1789571998826794500,0.85679443359375,-0.813413062903285,0.7301686702445149,0.032051819429546595
1789571998836840400,0.86684033203125,-1.5080097767680882,0.4322571522936225,-0.06409136389940977
1789571998846886400,0.876886474609375,-1.8196949685275554,0.17425854253619907,-0.2351820900544524
1789571998856932400,0.886932373046875,-1.1578303114414215,0.2321197798743844,-0.4323788789771497
1789571998866978300,0.896978271484375,-0.4516290845006704,0.28223405634760856,0.032992022889107464
1789571998877023200,0.907023193359375,-0.10349369222223759,0.14507424136698246,0.4821085400469601
1789571998887069200,0.917069091796875,0.003921557357907295,0.17947423135787247,0.6125542443417012
1789571998897115100,0.927115234375,0.004678513205051422,0.34799598380774255,0.48383127218633887
1789571998907161300,0.937161376953125,-0.0988350527614355,0.41303456542938943,0.2892613246358931
1789571998917207300,0.947207275390625,-0.2362918048620224,0.33732173731923104,0.13163126081749796
1789571998927252200,0.957252197265625,-0.3277455152004957,0.2159475204914808,0.09531360063701867
1789571998937298200,0.967298095703125,-0.34740532443821426,0.2330783957734704,0.04575768869891762
1789571998947344400,0.977344482421875,-0.2817120783001184,0.2875724947661161,0.033308103100955486
1789571998957390300,0.987390380859375,-0.09196224438250064,0.30781887172013517,0.08067688025832176
1789571998967436300,0.997436279296875,0.1511813260704279,0.25489918243736026,0.20883359683305025
1789571998977482200,1.007482177734375,0.37491876978576183,0.1480064954265952,0.2971788197621703
1789571998987527400,1.01752734375,0.4846212535202503,0.054613633719086646,0.33337884491235015
1789571998997573400,1.027573486328125,0.48631636700034137,-0.008547755853831768,0.2922751194991171
1789571999007619300,1.037619384765625,0.45113107185065743,-0.06628010611534119,0.21161767459362743
1789571999017665300,1.047665283203125,0.44647360143363474,-0.1220472937837243,0.04458981396332383
1789571999027711500,1.05771142578125,0.4220347412258386,-0.11499299135804175,0.014448796591162681
1789571999037756200,1.067756103515625,0.4396867177724838,-0.0862500042155385,0.08109788214936851
1789571999047802000,1.077802001953125,0.4190256225377321,-0.09193769446313381,0.10258929072842002
1789571999057848300,1.087848388671875,0.37582711680233477,-0.1434367032930255,0.09847140708081424
1789571999067894300,1.097894287109375,0.30848376536965366,-0.10184387918859719,0.0999252591509372
1789571999077940200,1.107940185546875,0.286285962086916,-0.02016746649891138,0.159971804638952
1789571999087986200,1.117986083984375,0.2775479443579912,0.0033773674786090847,0.20802483773343264
1789571999098031400,1.12803125,0.24964696099758146,-0.03131955963224172,0.2005648771163076
1789571999108077300,1.138077392578125,0.15232874253988266,-0.11860036820024251,0.1726965539164841
1789571999118123300,1.148123291015625,0.025400398716330527,-0.12202157482057809,0.11831709427945315
1789571999128169200,1.158169189453125,-0.0760433752387762,0.020271219134330748,0.11653335266783833
1789571999138215400,1.16821533203125,-0.04395253897309303,0.11697042891085146,0.15909969797953963
1789571999148261400,1.178261474609375,-0.022674188622832298,0.1126952358096838,0.2031064513579011
1789571999158306300,1.188306396484375,-0.05966565641164779,0.00993102690577507,0.18337386914491652
1789571999168352300,1.198352294921875,-0.14761515802145003,-0.05842120930850506,0.11048128608725964
1789571999178398500,1.2083984375,-0.20500585523843765,0.00971972224265337,0.02987849397845566
1789571999188444400,1.2184443359375,-0.19789865358173847,0.10318448014259338,0.021284560895338655
1789571999198490400,1.228490478515625,-0.06823299374878405,0.128269529299438,0.04632708608470857
1789571999208535300,1.238535400390625,0.03146130619049072,0.08437515025436877,0.09442775771319865
1789571999218581200,1.248581298828125,0.08322188856601714,-0.004643441891670227,0.11423333209715783
1789571999228627200,1.258627197265625,0.10916764620542525,-0.013812836775183676,0.09069353962093592
1789571999238673200,1.268673095703125,0.10619009169936179,0.03910743702948093,0.029563728940859436
1789571999248719000,1.278718994140625,0.12634265289008617,0.024943302598595618,-0.005978416822478174
1789571999258765300,1.288765380859375,0.09050152418017386,-0.04558043243587017,-0.02096928440108895
1789571999268810200,1.298810302734375,-0.04128010489344597,-0.0996390626206994,-0.07638926606699824
1789571999278856200,1.308856201171875,-0.19339491242170334,-0.08460019118189811,-0.17014080501906573
1789571999288902400,1.31890234375,-0.35440438954532144,-0.02409399229288101,-0.24771898860968647
1789571999298948400,1.3289482421875,-0.46257133427560326,0.03548573940098285,-0.23848222757838666
1789571999308994300,1.338994384765625,-0.5441723436415196,0.11308598869293927,-0.1290858141183853
1789571999319039200,1.349039306640625,-0.4732832824259996,0.19498276613503693,-0.007896817664429545
1789571999329085400,1.35908544921875,-0.291235693448782,0.25309388658106324,0.06987688849829136
1789571999339131400,1.36913134765625,-0.017096096229553222,0.24656360802948474,0.10641235614791512
1789571999349177300,1.37917724609375,0.18894202466607093,0.15391162781715392,0.15226926743760705
1789571999359223300,1.389223388671875,0.3595435059994459,0.08395195640623569,0.20157865726873278
1789571999369269200,1.399269287109375,0.5006839150488376,0.05197919356226921,0.17763649453669786
1789571999379314400,1.409314453125,0.584263531011343,0.047374037854373455,0.1340072692338377
1789571999389360400,1.4193603515625,0.5802677393734454,0.025626900948584077,0.08264657289609313
1789571999399406000,1.429406005859375,0.5287526561915874,0.013672551521658896,0.03803067464344203
1789571999409452300,1.439452392578125,0.44467619662284846,-0.009648702833056449,0.010988865395635365
1789571999419498200,1.449498291015625,0.29117548769414425,0.030943419796228406,-0.006273015854880213
1789571999429543200,1.459543212890625,0.1718716473996639,0.09615034372210501,0.007527253699675202
1789571999439589400,1.46958935546875,0.060113984701037404,0.14447802903950213,0.048267187301814556
1789571999449635300,1.47963525390625,-0.04793313304185867,0.16782617140114306,0.08145224854499102
1789571999459681300,1.489681396484375,-0.11884674417674541,0.17467267629504202,0.08561587103046477
1789571999469727200,1.499727294921875,-0.11195289300978183,0.20377455987781284,0.09426781791113316
1789571999479773200,1.509773193359375,-0.029827567508816717,0.20827625521123408,0.10114544859565794
1789571999489818400,1.519818359375,0.06645254007279873,0.1658355821058154,0.06915032778941095
1789571999499864300,1.5298642578125,0.10857611005306243,0.0964323755338788,0.0048538697719573975
1789571999509910300,1.53991015625,0.11974573884308337,0.07237111646682023,-0.0761918437987566
1789571999519956200,1.549956298828125,0.12336685194969177,0.07100888820290566,-0.12222674200385808
1789571999530002400,1.56000244140625,0.11401917788982391,0.06555500671118497,-0.10096066661328076
1789571999540047400,1.57004736328125,0.11507657798826694,0.06494681168496608,-0.04900010468624532
1789571999550093300,1.58009326171875,0.12064824064075946,0.05742869113981723,-0.00485145861916244
1789571999560139500,1.590139404296875,0.1622474944859743,0.04355594087094068,0.012201675251498817
1789571999570185500,1.600185546875,0.2125532018780708,0.01820639555901289,0.02847476466037333
1789571999580231400,1.6102314453125,0.17624094852507113,-0.011416589288413524,0.052776262224093075
1789571999590277000,1.620277099609375,0.12378712318837642,-0.021971593311429023,0.057402314589545124
1789571999600322300,1.630322265625,0.09357026410102844,-0.03270253842324018,0.015448475152999162
1789571999610368300,1.6403681640625,0.07029460245370864,-0.04964461313486099,-0.005620324099808931
1789571999620414200,1.650414306640625,0.0544324319332838,-0.029112697237730023,-0.02661788474731147
1789571999630460200,1.660460205078125,0.02111585326492786,-0.01118278053253889,0.0019369594119489192
1789571999640506400,1.67050634765625,-0.02685585822165012,0.0336646614536643,0.06329400297664106
1789571999650552300,1.68055224609375,-0.05352759204804897,0.04685264432877302,0.10961933549568056
1789571999660597200,1.69059716796875,-0.08911503825783729,0.0638309593975544,0.1649861987348646
1789571999670643500,1.7006435546875,-0.1433767897993326,0.08145926280766726,0.17558474963866172
1789571999680689400,1.710689453125,-0.20346973171234128,0.06854863556921481,0.12626030836887656
1789571999690735400,1.7207353515625,-0.2586854229778051,0.044992403414845464,0.049535892063379286
1789571999700781300,1.73078125,-0.30833646585345265,0.01981850693076849,-0.0043438744232058525
1789571999710826500,1.740826416015625,-0.27960721497535707,-0.028218086485564706,-0.04093494471758604
1789571999720872400,1.75087255859375,-0.1767915681451559,-0.07962912477105856,-0.09816241419687867
1789571999730919000,1.7609189453125,-0.0745101743221283,-0.13551818525344134,-0.11901128708869219
1789571999740964600,1.770964599609375,0.003475567156076431,-0.1587882939428091,-0.1450058523058891
1789571999751010600,1.781010498046875,0.017273206362128257,-0.1581368442967534,-0.17890702592916785
1789571999761055700,1.7910556640625,-0.005900163954496383,-0.18336188644617796,-0.22831790337339042
1789571999771101700,1.801101806640625,-0.054659810948371884,-0.18550591273754835,-0.2850622655108571
1789571999781147600,1.811147705078125,-0.15191022486686706,-0.17890286121070384,-0.31546916727758945
1789571999791193600,1.821193603515625,-0.22540917631983756,-0.1838017391681671,-0.3298741247270256
1789571999801239800,1.83123974609375,-0.24349194549918174,-0.18525544510781763,-0.33695356159396467
1789571999811285800,1.84128564453125,-0.21170213800668716,-0.18889117126166818,-0.3539719894774258
1789571999821330700,1.85133056640625,-0.09328384837508201,-0.1615548360466957,-0.3085859105698764
1789571999831377000,1.861376953125,-0.0008785364001989365,-0.152089380826056,-0.3028828035574406
1789571999841422800,1.8714228515625,0.03547697157263756,-0.19592866868302225,-0.3153524090301245
1789571999851468800,1.88146875,0.08429623979926108,-0.21702800920456647,-0.2976116582214832
1789571999861514800,1.8915146484375,0.12792612268924713,-0.19686580340266227,-0.2923897588547319
1789571999871560000,1.901559814453125,0.1296568920046091,-0.11429346478655934,-0.28326478763483465
1789571999881606000,1.91160595703125,0.15229016409516333,-0.015042670831084251,-0.2534087246838957
1789571999891651800,1.92165185546875,0.16616320662498474,0.043174686468392606,-0.21517207913957534
1789571999901697800,1.93169775390625,0.17880758414268494,0.05223185314908623,-0.19360439045391975
1789571999911744000,1.941743896484375,0.17069208222627638,0.03673997724577784,-0.19598383293636143
1789571999921790000,1.9517900390625,0.14651274973750114,0.038180823703855275,-0.19476335123069582
1789571999931834600,1.961834716796875,0.09767126967906951,0.048143707052618265,-0.1884699501749128
1789571999941880600,1.971880615234375,0.058036009383201595,0.09577361936420202,-0.1230133623369038
1789571999951926800,1.9819267578125,0.07801438305079937,0.09606120413392781,-0.07356945940591395
1789571999961972700,1.99197265625,0.13474749314188955,0.052195612791925666,-0.08908040533587336
1789571999972018700,2.002018798828125,0.19949439834058283,0.0012856558963656424,-0.10059190636612474
1789571999982063900,2.01206396484375,0.23060265330970287,-0.05006561502590775,-0.062326034727320075
1789571999992109800,2.02210986328125,0.32072073113024235,-0.046338995718210936,-0.01531418124884367
1789572000002155800,2.03215576171875,0.4199667027801275,-0.04431318897902965,0.03757672033086419
1789572000012201700,2.04220166015625,0.4325643185466528,-0.07943608641698956,0.07522182972282171
1789572000022247700,2.05224755859375,0.4131833262503147,-0.10904226626008748,0.09348324340470135
1789572000032294000,2.0622939453125,0.34537235730588434,-0.10646583990082144,0.14346571019180118
1789572000042338800,2.0723388671875,0.2585153271079063,-0.06288564137145876,0.19501367272995412
1789572000052384800,2.082384765625,0.20834289070665835,-0.04048471673205495,0.22997224645167588
1789572000062431000,2.092430908203125,0.1697112544953823,-0.046722880469262595,0.2438010114483535
1789572000072477000,2.102476806640625,0.11272212381660937,-0.09508753679618238,0.2411402678065002
1789572000082523000,2.11252294921875,0.056741877919435496,-0.1133089837938547,0.2255220621097833
1789572000092567800,2.12256787109375,0.004103343665599822,-0.09398176751136779,0.2607671246226877
1789572000102613800,2.13261376953125,0.009828735575079918,-0.08123802127242088,0.23712467548958957
1789572000112659700,2.14265966796875,0.012173837396502494,-0.10878288467153906,0.19422471430934965
1789572000122705700,2.15270556640625,-0.06556757393181324,-0.11031798528432846,0.16190204204916953
1789572000132751600,2.162751708984375,-0.21350304994881153,-0.09106266519427299,0.14947328004352747
1789572000142796800,2.172796875,-0.289935716766119,-0.06163169578760862,0.14684753464981912
1789572000152842800,2.1828427734375,-0.30137890180051324,-0.053737727667391294,0.12625804334655402
1789572000162888700,2.192888671875,-0.27731764273345466,-0.07087941660434008,0.15438582120016217
1789572000172934700,2.2029345703125,-0.22781273033022878,-0.08901771536320448,0.1666490173805505
1789572000182980900,2.21298095703125,-0.14872750317752362,-0.09258534471690655,0.16760829086676238
1789572000193026800,2.22302685546875,-0.1126905596345663,-0.06695289081037044,0.18683672294989226
1789572000203071700,2.23307177734375,-0.10116086536049843,-0.08585194480866193,0.23015359436795113
1789572000213118000,2.243117919921875,-0.10176116934120655,-0.08351677985936402,0.289942292637378
1789572000223164000,2.253163818359375,-0.05654197143316268,-0.07086319612190127,0.2951016481619328
1789572000233209900,2.2632099609375,-0.0037929625421762466,-0.052711161098629236,0.30473595714345575
1789572000243255800,2.273255859375,0.023766075512766837,-0.037936785814911125,0.31594920587949454
1789572000253300700,2.28330078125,0.020173603978753087,-0.045534255206584925,0.3044056292105466
1789572000263346700,2.2933466796875,-0.030211598390340804,-0.040784430330991744,0.2640697463646531
1789572000273392600,2.303392578125,-0.08686462898254393,-0.026275866376608607,0.21019480218365788
1789572000283438600,2.3134384765625,-0.12313830389082431,-0.03376768343672156,0.15699841485135257
1789572000293484800,2.32348486328125,-0.15742986507117748,-0.02594561150893569,0.15315299146957695
1789572000303529700,2.33352978515625,-0.22839549865424633,0.015232640445232391,0.1864783379662782
1789572000313575700,2.34357568359375,-0.27331951300799845,0.08476429570242762,0.2501780721995979
1789572000323621600,2.35362158203125,-0.272093186083436,0.1702487223729491,0.3123459937557578
1789572000333667800,2.363667724609375,-0.26070611515045167,0.20652268954217431,0.35438546564914286
1789572000343713800,2.3737138671875,-0.24002748425900935,0.22397037568837402,0.37698695436194535
1789572000353759700,2.383759765625,-0.1664694960951805,0.22663301902636884,0.38017479061782355
1789572000363805000,2.393804931640625,-0.08608429225981235,0.1838259968265891,0.31056020631752906
1789572000373851000,2.403850830078125,-0.05505787035524845,0.12731120566129683,0.2621571176763624
1789572000383896800,2.413896728515625,-0.10682371342778205,0.08186886652186512,0.2442748395051807
1789572000393942800,2.42394287109375,-0.15707038410902022,0.03957417775839567,0.17515081520080567
1789572000403988700,2.43398876953125,-0.19558219333291052,0.03081321754530072,0.13342230895273385
1789572000414033700,2.44403369140625,-0.2495581136703491,0.033973289011418814,0.16094072273634374
1789572000424079600,2.45407958984375,-0.2385918984979391,0.03461509404629469,0.19444865925833582
1789572000434125600,2.46412548828125,-0.16639467729330062,0.03011529840901494,0.19323643392436204
1789572000444171800,2.474171875,-0.15088848060369492,0.03407806456014514,0.1719956391055137
1789572000454217700,2.4842177734375,-0.16796996378600595,0.06857903070747852,0.14729578987397252
1789572000464262700,2.4942626953125,-0.19369944832623004,0.13612535736635326,0.1377126996230334
1789572000474308600,2.50430859375,-0.24647008452713487,0.1783322217158973,0.1423667359739542
1789572000484354800,2.514354736328125,-0.46215398564636706,0.10102832502201199,0.14396628012508153
1789572000494400800,2.52440087890625,-0.8828875811457634,-0.25652532233446834,0.13173442893102763
1789572000504446700,2.53444677734375,-0.6319593481659889,0.29799817332103845,-0.27330950307063756
1789572000514492700,2.54449267578125,-0.6334376040250063,0.5231402231372893,-0.4214226006768644
1789572000524537900,2.554537841796875,-0.7433668822526931,0.27202012084722516,-0.21922464246600865
1789572000534583800,2.564583740234375,-0.7735352260231971,0.18263386443257332,-0.03623326983265578
1789572000544629800,2.574629638671875,-0.5191951387733221,0.34732129941657186,-0.02806450335904956
1789572000554675700,2.58467578125,-0.3363070073187351,0.428318205409497,0.05975370002128184
1789572000564722000,2.594721923828125,-0.3354255483090877,0.358724590831995,0.04775288110412657
1789572000574766800,2.604766845703125,-0.33193478358387946,0.3028929596252739,-0.10693345741257071
1789572000584812800,2.614812744140625,-0.42148996682465073,0.35546295868754385,-0.2576638979103416
1789572000594859000,2.62485888671875,-0.5461877751171589,0.4322350865922868,-0.3911991657182574
1789572000604904700,2.63490478515625,-0.6784907977163791,0.5233657024562358,-0.4865715838704258
1789572000614950700,2.64495068359375,-0.7793769377887249,0.6032042321942747,-0.6230836024668067
1789572000624995600,2.65499560546875,-0.798004481369257,0.6788904645584524,-0.6703453390531241
1789572000635041800,2.665041748046875,-0.6981254725128412,0.7087967963919043,-0.5833658149866386
1789572000645087700,2.675087646484375,-0.5797545291543007,0.7254349197208881,-0.37312542009558525
1789572000655133700,2.6851337890625,-0.3124684510916471,0.7620556545011699,-0.1393720842026174
1789572000665179600,2.6951796875,-0.12078794137239456,0.7642683621145785,0.029055596755631265
1789572000675225900,2.705225830078125,0.06504851849377155,0.808854961207509,0.039918461151421065
1789572000685270800,2.715270751953125,0.24950726026594638,0.8729116921849548,-0.007752532089222222
1789572000695316700,2.725316650390625,0.280213364174962,0.8971718348249792,-0.015595537207182496
1789572000705362700,2.73536279296875,0.30855799964964387,0.9589308102540671,0.05460249127056449
1789572000715409000,2.745408935546875,0.25725509791374207,1.0093103135347365,0.165801478906814
1789572000725454800,2.755454833984375,0.14084288740754128,1.021199196510017,0.2369057537755929
1789572000735499300,2.765499267578125,-0.0750064334064722,1.0165380728311837,0.24649379419628528
1789572000745545500,2.77554541015625,-0.18647534229159354,1.0153544160045682,0.14071299568386747
1789572000755591400,2.78559130859375,-0.16567571536898612,1.0057673802308738,0.005311523012118413
1789572000765637400,2.795637451171875,-0.14063129048347472,0.8990745997063815,-0.003902350333938375
1789572000775683300,2.805683349609375,-0.09791443078517913,0.8662975347422063,-0.18371632590703665
1789572000785728500,2.815728515625,-0.061168462190032004,0.8282455981150268,-0.11868115095202811
1789572000795774500,2.8257744140625,-0.14514029234051704,0.7947054398238659,-0.025310674606263635
1789572000805820400,2.8358203125,-0.12868541662395,0.7953902072176336,-0.030822149770427493
1789572000815866400,2.845866455078125,-0.16389759978055954,0.857164234085381,-0.06585808131098747
1789572000825912600,2.85591259765625,-0.23773849653899667,0.9216741156578063,-0.1598165775446221
1789572000835957200,2.865957275390625,-0.328712898927927,0.8820809409379958,-0.2041178568901494
1789572000846003200,2.876003173828125,-0.4515232860386371,0.8275240058422089,-0.2616633976089768
1789572000856049400,2.88604931640625,-0.5490507633328437,0.8106105727031826,-0.38595538331326096
1789572000866095400,2.896095458984375,-0.6051362231701612,0.822365015643835,-0.3992892774650827
1789572000876141300,2.906141357421875,-0.6485159306913614,0.8582366856224835,-0.3874547184929251
1789572000886187300,2.916187255859375,-0.719023299112916,0.8908834022052585,-0.31142000148463994
1789572000896232400,2.926232421875,-0.7475608268111944,0.974630483689159,-0.21383237323472276
1789572000906278400,2.9362783203125,-0.7585247038960456,1.072589484268427,-0.19267154831690714
1789572000916324400,2.946324462890625,-0.7554711615443229,1.131076598419994,-0.13514345192322508
1789572000926370300,2.956370361328125,-0.6176911688387393,1.1679404943063854,-0.08252564993016422
1789572000936416500,2.96641650390625,-0.40210196026563644,1.2405875051051378,-0.1204849855036009
1789572000946461400,2.97646142578125,-0.21329612919986246,1.2264008665814996,-0.10748921899865381
1789572000956507400,2.98650732421875,-0.02623158884346485,1.1573808141082524,-0.0817945865761023
1789572000966553300,2.99655322265625,0.11929682603180408,1.1197881655558943,-0.1514772311439272
1789572000976599600,3.006599609375,0.16565350353717803,1.0875069212846458,-0.29831516684833914
1789572000986645500,3.0166455078125,0.1613841556549072,1.0276645931318402,-0.30657577632386235
1789572000996691500,3.02669140625,0.14176117129623889,1.0475422829039394,-0.20306710572820155
1789572001006736400,3.036736328125,0.10055413163900374,1.1523809599943458,-0.10510004057348706
1789572001016782300,3.0467822265625,0.060228550991415976,1.2845473506018519,0.03145622815657407
1789572001026828300,3.056828369140625,0.02301788749396801,1.4268860295251011,0.14400765331508592
1789572001036874200,3.066874267578125,-0.10467618000507355,1.5764906077980994,0.20580124339982866
1789572001046920200,3.076920166015625,-0.25502573142647744,1.7217001659825444,0.2486940441869199
1789572001056965400,3.08696533203125,-0.349890126991272,1.784977437020093,0.24541737887011839
1789572001067011300,3.09701123046875,-0.24340426721572875,1.8239229614861308,0.1874080200318247
1789572001077057300,3.107057373046875,0.19944588302373886,1.756284426499158,0.09496692435750738
1789572001087103500,3.117103515625,0.6177601424217224,1.5454985265545547,0.013531499083153903
1789572001097149400,3.1271494140625,0.89600483687222,1.2014292146712542,0.040541159627027805
1789572001107194400,3.1371943359375,0.9230489111423492,0.9770053961269557,-0.24319210403608157
1789572001117240300,3.147240234375,0.4521335268914699,0.6936575333185494,-0.24367314728498457
1789572001127286500,3.15728662109375,-0.3030290070950985,0.7848571227654815,-0.23539186034761367
1789572001137332500,3.16733251953125,-1.2230758138120175,1.1751380045950413,-0.47749739298969507
1789572001147378400,3.17737841796875,-1.7787328435420988,1.6183023353502153,-0.7600259022392332
1789572001157424400,3.18742431640625,-2.1780980723202226,1.7450737350463865,-0.7426378373257816
1789572001167469600,3.197469482421875,-2.4654753367751834,1.8879224093183875,-0.7837012307286262
1789572001177515500,3.207515625,-2.2861089497059583,1.8439795149564742,-0.7946480836134403
1789572001187561200,3.217561279296875,-2.0352204642146825,1.504537424482405,-0.9142397278733551
1789572001197607200,3.227607177734375,-1.4596809224069118,1.3191273733347653,-1.1279570050947367
1789572001207653400,3.2376533203125,-0.8822703260302543,1.1650237300768493,-1.2563663812562822
1789572001217698300,3.2476982421875,-0.0742044693738222,1.5130913178160785,-1.0550860493469982
1789572001227744300,3.257744140625,0.32450960201919077,1.161796292462945,0.14543949448280036
1789572001237790500,3.26779052734375,0.4235959991931915,1.070789449109137,0.7050717114541679
1789572001247836400,3.27783642578125,0.3368780852049589,1.460215759935975,0.5895210862133652
1789572001257882400,3.28788232421875,-0.04497077610492706,1.535871597161889,0.6175428464092314
1789572001267927300,3.29792724609375,-0.45930970213115213,1.5033835782721638,0.7146062133230269
1789572001277973500,3.307973388671875,-0.6859177328467368,1.4605518600225447,0.8403758886307477
1789572001288019500,3.31801953125,-0.7475842076867818,1.4842869558751581,0.8569717071879654
1789572001298065400,3.3280654296875,-0.7284861239850521,1.3597007912635803,1.0322346775263547
1789572001308111400,3.338111328125,-0.5569558373689651,1.1861074346378444,0.9983362073168158
1789572001318156500,3.348156494140625,-0.40231121910214424,0.7486807707518339,1.0868553255081177
1789572001328202500,3.358202392578125,-0.05130348625779152,0.38194209255129097,0.948778687943518
1789572001338248400,3.36824853515625,0.20042145005762577,0.01229775603711605,0.8719539530687034
1789572001348294400,3.37829443359375,0.3162310184955597,-0.35109658017158507,0.8619333481833338
1789572001358340600,3.388340576171875,0.46043607581257817,-0.5167500837087631,0.779482005598396
1789572001368386600,3.398386474609375,0.5881295587897301,-0.587474894273281,0.5370213028430938
1789572001378431200,3.40843115234375,0.5657762726843357,-0.7107754029884934,0.4329717303037643
1789572001388477400,3.4184775390625,0.6448036321699618,-0.733844436147809,0.5187340971328318
1789572001398523400,3.4285234375,0.8775327761143445,-0.6900920959219337,0.7160346386909484
1789572001408569300,3.4385693359375,1.072455044233799,-0.7298480599880218,0.9513589136950671
1789572001418615300,3.448615234375,1.1867863568127155,-0.7617264225468039,1.2781952050961554
1789572001428660500,3.458660400390625,1.212882336577773,-0.7325792385175823,1.4744199341163038
1789572001438706400,3.46870654296875,1.0301911890000104,-0.7506710677862167,1.5566381985977291
1789572001448752400,3.47875244140625,0.7580641006469726,-0.8265934469938278,1.5349498061418532
1789572001458798300,3.48879833984375,0.39343525420725345,-0.9565110357612371,1.3354475167557596
1789572001468844300,3.49884423828125,-0.19849311234354972,-1.397282918421924,0.793596455668658
1789572001478889500,3.508889404296875,-0.7895318365782499,-1.4671151640608906,0.5267027379244565
1789572001488935400,3.518935302734375,-1.2757991037398575,-1.2608239451870322,0.4356260442048311
1789572001498981400,3.5289814453125,-1.5587416006177663,-1.0888871235966682,0.420225061455369
1789572001509027600,3.539027587890625,-1.6406407161474228,-1.0877750707015394,0.3429349010258913
1789572001519073500,3.549073486328125,-1.387978206720948,-1.0919695997819303,0.08773220559731125
1789572001529119500,3.559119384765625,-1.393179867017269,-0.952702875649929,0.23416385292261838
1789572001539164400,3.569164306640625,-1.5272306100666522,-1.0881833592414856,0.4537096901670098
1789572001549210400,3.57921044921875,-1.4472224228501318,-1.2180308053821325,0.5746566214933991
1789572001559256300,3.58925634765625,-0.9058522771477698,-0.8131903600633144,0.5163970324873924
1789572001569302300,3.59930224609375,-0.7740683099865913,-0.8278045763492584,0.5789180783301592
1789572001579348200,3.60934814453125,-0.8465688980519771,-1.1467793405950069,0.38763153636455533
1789572001589393400,3.619393310546875,-0.8760095120698214,-1.146613044117391,0.3307897052019834
1789572001599439400,3.629439453125,-1.1306997279316187,-1.1669532368347049,0.4874371877238154
1789572001609485300,3.6394853515625,-1.3118681959867478,-1.0972750127136706,0.38553251825869084
1789572001619531500,3.649531494140625,-0.997220647290349,-0.6327960912510753,0.30966683767437936
1789572001629577500,3.659577392578125,-0.5878314526259899,0.021634324181079863,0.19913374833464623
1789572001639622400,3.669622314453125,-0.06901274594962596,0.7003288277760148,-0.04685147528499364
1789572001649668400,3.67966845703125,0.4523275881588459,1.0788698797121643,-0.18463906677514313
1789572001659714600,3.689714599609375,0.9394617012828588,1.1581558901339768,-0.24275369435250757
1789572001669760500,3.699760498046875,1.0606371806681156,0.9281845204651356,-0.3441705803006887
1789572001679806500,3.709806396484375,0.8286877889245748,0.6346481488585471,-0.40231121910214424
1789572001689851400,3.719851318359375,0.46039223667085166,0.38300592239052056,-0.4413710175976157
1789572001699897300,3.7298974609375,0.07995148859322071,0.5646060598611832,-0.11186053855121135
1789572001709943300,3.739943359375,-0.0926613325625658,0.901532660382986,0.24051906716823576
1789572001719989200,3.7499892578125,-0.5463637162059545,0.6686059480398893,-0.6034224049896001
1789572001730036200,3.7600361328125,-1.0754133095175027,0.7361898302301764,-0.8749374989241361
1789572001740082200,3.770082275390625,-1.1684440599143504,1.02806586740911,-0.887093800663948
1789572001750127400,3.78012744140625,-1.0097177252918481,1.3584388085037469,-0.8827358977153896
1789572001760173300,3.79017333984375,-1.025057917764783,2.0531579797044395,-0.02521773562580347
1789572001770219300,3.80021923828125,-0.5748632499814034,2.139820364113152,-0.49473377447277306
1789572001780265200,3.81026513671875,-0.6312555838108063,1.8150474349826573,-1.3807584846004843
1789572001790311400,3.8203115234375,-0.696976886999607,1.6715493568912148,-1.1366773410364985
1789572001800356000,3.830356201171875,-0.6785147631138563,1.6349804984286427,-0.7507952786877751
1789572001810402000,3.840402099609375,-0.5846797105967998,1.4058940949007868,-0.35445436616688963
1789572001820448300,3.8504482421875,-0.33953765980303285,1.3940177791461348,-0.3062324793115258
1789572001830494200,3.860494140625,-0.056232759353518486,1.5843796074822545,-0.380533979319036
1789572001840540200,3.8705400390625,0.1687263351112604,1.6967592014715074,-0.3249190596029162
1789572001850585300,3.88058544921875,0.200350138387084,1.351769413742423,0.09117606244087219
1789572001860631300,3.89063134765625,0.42989013090133665,1.227058453707397,0.02013005709797144
1789572001870677200,3.90067724609375,0.5210778837800025,1.8967720707282423,-0.07072130343317985
1789572001880723200,3.91072314453125,0.8333750699579715,2.8521950189918277,0.15531185000389813
1789572001890769200,3.92076904296875,0.799461109918356,2.4837790552288292,-0.7268278353840112
1789572001900814300,3.930814453125,1.1270762767374516,1.9548627329081296,-0.8941878505781292
1789572001910860300,3.9408603515625,1.4523276370346545,1.846788434897363,-0.5989838380202651
1789572001920906200,3.95090625,1.6039228046029805,1.9579174443036316,-0.6068950495362282
1789572001930952200,3.9609521484375,1.684848106664419,1.7885355678930877,-0.8866562860295176
1789572001940998400,3.970998291015625,1.9726473959237336,2.244976436589658,-0.7816451749816536
1789572001951044400,3.98104443359375,2.7699486974596974,2.8441443990051747,-0.8943985707193612
1789572001961089300,3.99108935546875,2.8421938494592904,2.3174612425640224,-2.310337674294412
1789572001971135500,4.001135498046875,1.3418003929138183,1.169130873134732,-2.960456071746349
1789572001981181400,4.011181396484375,0.7243389411777258,1.4488973703250287,-2.407344634845853
1789572001991227100,4.02122705078125,-0.09733809220194815,1.9752254297181964,-1.8802493904724715
1789572002001273000,4.031273193359375,-0.890331467410922,1.9795187429979442,-1.0890408528536557
1789572002011318300,4.041318359375,-1.1616425632059573,2.0205317213878033,0.047502048148214814
1789572002021364200,4.0513642578125,-1.0691472348600626,2.0215423597350717,0.4936570851519704
1789572002031410200,4.06141015625,-1.111950019276142,1.928259388142824,0.11094167014062405
1789572002041456000,4.0714560546875,-1.4095336204469202,1.5290128173083066,-0.5074710909709335
1789572002051502300,4.08150244140625,-1.6277017395973206,1.2308528775542973,-1.3264827045336365
1789572002061547300,4.09154736328125,-1.5463549972534179,0.913828662854433,-1.8532950403124093
1789572002071593200,4.10159326171875,-0.7704793455839156,0.7302800216645002,-2.3110069518581033
1789572002081639200,4.11163916015625,0.18253157310187815,1.438734580489993,-3.218310012336075
1789572002091685400,4.121685302734375,-0.027597616499662397,1.1072457871079444,-2.619033621110022
1789572002101731300,4.1317314453125,0.6033914253294468,-0.011523556794226168,-1.3730968639314174
1789572002111776300,4.1417763671875,1.6389555395394562,-0.3268514889702201,-0.45690965525209903
1789572002121822500,4.151822509765625,3.5057179641902443,0.008442834174633025,0.14383593174368142
1789572002131868400,4.161868408203125,4.219808483076095,0.5764189549908042,0.07168693359494209
1789572002141914400,4.171914306640625,3.8796705192923544,0.5449865826338529,-0.23589111510664224
1789572002151960300,4.181960205078125,4.71768260140121,0.36187837868779893,-0.16101327651590108
1789572002162006300,4.19200634765625,5.1527445819824935,0.13448796542286873,0.046108547963202
1789572002172051200,4.20205126953125,4.905467272725701,-0.2000429721340537,0.16028554676324128
1789572002182097200,4.21209716796875,4.469660026735067,-0.33427287114262577,0.16751345219016073
1789572002192143000,4.22214306640625,3.8286324059724803,-0.36902620461583135,0.2954042113050818
1789572002202189300,4.232189208984375,3.2320617665737865,-0.358275093498826,0.5075435716852545
1789572002212235300,4.2422353515625,2.773097516879439,-0.333448110756278,0.7744815669625997
1789572002222280200,4.2522802734375,2.472225395557284,-0.42602264181822536,0.9142907274082303
1789572002232326100,4.262326171875,2.0559388425946232,-0.21610826401114464,1.0919979490935803
1789572002242372400,4.272372314453125,1.568002180916071,-0.16474018808454274,1.1426526160538195
1789572002252418300,4.282418212890625,1.026025301492214,-0.2594908941417932,0.9870110957041383
1789572002262464300,4.29246435546875,0.451596351274848,-0.3828711900949478,0.6654717416673899
1789572002272509400,4.302509521484375,-0.13979483965933323,-0.4773512625172734,0.30230975290983914
1789572002282555400,4.312555419921875,-0.7225719315052032,-0.6264683495342731,-0.08601385737210511
1789572002292601300,4.322601318359375,-1.2029594929784535,-0.770021664944291,-0.4172364010334015
1789572002302647300,4.332647216796875,-1.4566905084192752,-0.7911255355104804,-0.6152832309141755
1789572002312693200,4.342693359375,-1.4920692803144453,-0.7776771481335163,-0.6702277040228247
1789572002322739500,4.352739501953125,-1.461267314815521,-0.7357856333434581,-0.6757189949154854
1789572002332784000,4.3627841796875,-1.3675783927708864,-0.7482511471629142,-0.6593810235768556
1789572002342830000,4.372830078125,-1.0891022276520728,-0.697387221366167,-0.5175310049533843
1789572002352876300,4.382876220703125,-0.8350450489968061,-0.5680775353640317,-0.210822140301764
1789572002362922200,4.392922119140625,-0.6810095025390386,-0.5276207295522094,0.012700199358165264
1789572002372968200,4.40296826171875,-0.614394465380907,-0.5817571011483669,0.09773790517449378
1789572002383013400,4.413013427734375,-0.6712830582946538,-0.6133402801528572,0.09791004687100649
1789572002393059300,4.423059326171875,-0.7721107461780309,-0.49791561937928197,0.17161065837591885
1789572002403105300,4.433105224609375,-0.868182763966918,-0.49950990283340213,0.24692338125258684
1789572002413151200,4.443151123046875,-0.9259428790181875,-0.5613122790127992,0.2945037553340196
1789572002423197200,4.453197265625,-1.0243950699418782,-0.5546174575492739,0.3186506468579173
1789572002433242400,4.463242431640625,-1.0896411568343638,-0.5892760984763503,0.18623101214170454
1789572002443288300,4.473288330078125,-1.0094739796638488,-0.5735983446121216,0.14064327318221329
1789572002453334300,4.483334228515625,-0.8243336853682994,-0.6692018681064248,0.30950755545943975
1789572002463380200,4.493380126953125,-0.7394435713291168,-0.8155871920719743,0.43693478871583935
1789572002473426400,4.503426513671875,-0.6802174753785133,-0.8568313488692044,0.3875497032999992
1789572002483471000,4.51347119140625,-0.7417395733118057,-0.8777677539139985,0.2674871535927057
1789572002493517000,4.52351708984375,-0.9191858059734106,-0.9326043827340006,0.05318389317691326
1789572002503563300,4.533563232421875,-1.0250473963707685,-0.8995486469589173,-0.08452683368474244
1789572002513609200,4.543609130859375,-1.1670283478975296,-0.8482372696556151,-0.09037000675499439
1789572002523655200,4.5536552734375,-1.4259709605067967,-0.8423068566933274,-0.1282613459929824
1789572002533701000,4.563701171875,-1.7285872951477765,-0.7983258222781121,-0.24517156914919613
1789572002543746300,4.573746337890625,-1.9255875385850667,-0.7356748664453625,-0.386110318146646
1789572002553792300,4.583792236328125,-1.9837077191203831,-0.6746205321542919,-0.4118088230267167
1789572002563838200,4.593838134765625,-1.939966192549467,-0.6651743661560118,-0.30759850696772334
1789572002573884200,4.60388427734375,-1.856085547813773,-0.6989335740253328,-0.1665539595082402
1789572002583930400,4.613930419921875,-1.678259375923872,-0.7644999789133667,-0.01651011303514242
1789572002593975300,4.623975341796875,-1.5484277118742464,-0.8535587569393217,0.05373801992833614
1789572002604021200,4.634021240234375,-1.5118991854220627,-0.9177430598191917,0.1259574529647827
1789572002614067200,4.644067138671875,-1.4849562334388493,-0.9461939321473241,0.31366262931227684
1789572002624113400,4.654113525390625,-1.42167530913949,-0.8833218809098005,0.4865764792412519
1789572002634159400,4.664159423828125,-1.3148463350147008,-0.7473160582698881,0.5953811373531818
1789572002644204300,4.674204345703125,-1.157249296683073,-0.6733984430134295,0.6890194982543587
1789572002654250500,4.68425048828125,-0.9938082084983587,-0.7157403319194913,0.8103776407301425
1789572002664296200,4.694296142578125,-0.9192822520852089,-0.7376907363124191,0.7921458184689283
1789572002674342100,4.704342041015625,-0.9367594565868377,-0.727468909766525,0.5446037207961082
1789572002684388000,4.71438818359375,-0.8927578177750111,-0.5763337609253824,0.33242519744932647
1789572002694434000,4.72443408203125,-0.6121686060249805,-0.38688071799725293,0.38926118339300153
1789572002704479200,4.734479248046875,-0.20406477499604225,-0.2116173823326826,0.6723521488308906
1789572002714525200,4.744525146484375,0.3423410267859697,-0.16711656182706355,0.8715449338763952
1789572002724571100,4.754571044921875,1.1014140122145413,-0.17944325169771908,0.8680117913141846
1789572002734616600,4.764616455078125,2.121411139458418,-0.2299406822696328,0.8727069633930921
1789572002744662500,4.77466259765625,3.3194629866510628,-0.40863501529619095,1.1483423521280287
1789572002754707500,4.78470751953125,4.736975915414095,-0.7442622967224568,1.544297480201721
1789572002764753700,4.794753662109375,5.964990354672074,-1.0196307781495153,1.738433858640492
1789572002774799600,4.804799560546875,6.700359223908186,-1.213928996086493,1.8801988293290137
1789572002784845600,4.814845458984375,6.976610698714852,-1.2668208475142717,1.898589057022333
1789572002794891500,4.8248916015625,6.685106709718704,-1.1604931009098887,1.7577280494362115
1789572002804936400,4.8349365234375,5.781302012750506,-1.0633101992696523,1.509854527851939
1789572002814982400,4.844982421875,4.401112560209632,-1.0098967351205645,1.1362681757137179
1789572002825028400,4.8550283203125,2.845530884927511,-0.8387969488762319,0.7473685191094875
1789572002835074300,4.86507421875,1.412085643017292,-0.5723121772591024,0.5702773834958672
1789572002845120500,4.87512060546875,0.22251637748777864,-0.3500930291522294,0.6498059705018997
1789572002855166500,4.88516650390625,-0.5904062715500593,-0.1644827427247539,0.8068897986143827
1789572002865211400,4.89521142578125,-1.052491868135333,0.0607597169923596,0.9911644159913062
1789572002875257600,4.905257568359375,-1.0600129112899304,0.3055248059662059,1.2420410649143159
1789572002885303600,4.915303466796875,-0.8271084107786416,0.5468268402056768,1.563920318429917
1789572002895349500,4.925349609375,-0.5005915605902671,0.7418711638022214,1.8920649159505962
1789572002905395500,4.9353955078125,-0.18751286864578723,0.9223922007992863,2.242621105635166
1789572002915440600,4.945440673828125,-0.019637012884020803,0.982313585537672,2.2427822875462473
1789572002925486600,4.955486572265625,0.18267653453052043,1.016863651523739,1.400133485547453
1789572002935532500,4.965532470703125,-0.24555589229166505,0.9488345097839832,0.8688440043546259
1789572002945578500,4.97557861328125,-0.9845552269846201,0.4556714186940342,0.9082840343393385
1789572002955624700,4.985624755859375,-1.4674503873646259,0.23125234939008948,0.5475020725861192
1789572002965669600,4.995669677734375,-1.927934978494048,0.3083126465864479,0.0324150997839868
1789572002975715300,5.00571533203125,-2.326990410670638,0.4383898828949779,-0.4935768595226109
1789572002985761300,5.01576123046875,-2.5588842728346584,0.44702250402066857,-0.9299563524432479
1789572002995807500,5.025807373046875,-2.5839181763261556,0.31399558759368956,-1.2493785681955516
1789572003005853400,5.035853515625,-2.3958523499727247,0.10762394216107204,-1.6495131739109754
1789572003015899400,5.0458994140625,-2.0868846004784105,0.0716785128264688,-1.9913596951782702
1789572003025944600,5.055944580078125,-1.658706534191966,0.16177099954802543,-2.067421628987044
1789572003035990500,5.065990478515625,-1.124195752865076,0.354601775280945,-1.846988049122691
1789572003046036500,5.076036376953125,-0.669037325194478,0.6853436592858284,-1.6052547838591038
1789572003056082400,5.08608251953125,-0.5114361952096224,1.0329816965013743,-1.3454036781027912
1789572003066128400,5.09612841796875,-0.6385352194249629,1.2605479047246277,-1.1099204131446778
1789572003076173600,5.106173583984375,-0.8374532791823148,1.3810568830251693,-0.9695831371717154
1789572003086219500,5.116219482421875,-0.9924076940506696,1.4691799876362084,-0.9900925489760934
1789572003096265500,5.126265380859375,-1.170455399736762,1.5234072523862123,-1.1579517458640038
1789572003106311700,5.136311767578125,-1.366087277430296,1.5378136711403727,-1.2277581264093518
1789572003116357600,5.146357666015625,-1.5182926858514547,1.453650994592905,-1.2976742509394883
1789572003126402600,5.156402587890625,-1.5128449418395757,1.303408849068731,-1.5069050303965805
1789572003136448500,5.166448486328125,-1.090759931731224,1.0913884388931094,-1.7273747044876218
1789572003146494700,5.17649462890625,-0.9891086525052786,0.8661229818928986,-1.986766229908168
1789572003156540700,5.186540771484375,-1.1180220326662063,1.569771820937097,-2.0243727608554063
1789572003166586400,5.19658642578125,-0.2743295668333769,2.0043670607894657,-1.8739286630183458
1789572003176632300,5.20663232421875,0.7353162622660399,1.7398326195225118,-1.7155716000996528
1789572003186677500,5.216677490234375,1.7889894491404295,1.2923340589553116,-1.4821839922465383
1789572003196723500,5.226723388671875,2.008172882813215,0.8431629620660096,-1.638621046888083
1789572003206769400,5.236769287109375,1.7922820609450338,0.5924400789326056,-1.7661175459884106
1789572003216815400,5.2468154296875,1.4896803393512963,0.7387163530331105,-1.4889064323693513
1789572003226861600,5.256861572265625,1.1393442221581935,0.984956209000945,-1.0858052319332956
1789572003236906500,5.266906494140625,0.7235194414883852,1.090881220023334,-0.7175754383921623
1789572003246952400,5.276952392578125,0.4148591505080461,1.0216919484630227,-0.6969114205479622
1789572003256998700,5.28699853515625,0.3695464290976524,0.8200912254929542,-0.8279040912009775
1789572003267044600,5.297044677734375,0.5097311448574066,0.6872605257578194,-0.9468982079591601
1789572003277090600,5.307090576171875,0.7111655713498592,0.578561081586033,-0.9336753729663789
1789572003287135500,5.317135498046875,0.9379074575781822,0.46824579971544444,-0.7644026560187339
1789572003297181700,5.327181640625,1.1352747807621955,0.3761536088103428,-0.4559647025521844
1789572003307227600,5.3372275390625,1.2559393880158662,0.29566567525286225,0.04664652729742229
1789572003317273600,5.347273681640625,1.1259703613221645,0.2426208617530763,0.5006262665774673
1789572003327319600,5.357319580078125,0.9765922852814197,0.23561359507320448,0.6500279426895081
1789572003337365500,5.367365478515625,0.7446627672821283,0.3023023367883637,0.4747155802514404
1789572003347410400,5.377410400390625,0.5153068991631269,0.26392652023537083,0.1623196829393506
1789572003357456400,5.387456298828125,0.5115466698467731,-0.016854994649789293,-0.1078906120069325
1789572003367502300,5.39750244140625,0.38678164153695105,-0.2787018453671597,-0.11782952995821833
1789572003377548500,5.407548583984375,0.23223405390381813,-0.572055243355967,-0.33771395150721073
1789572003387594500,5.417594482421875,0.23478081577718257,-0.7619939874418079,-0.8948930762380362
1789572003397639400,5.427639404296875,0.4489169029325247,-1.1372267185475677,-0.8620799170471727
1789572003407685600,5.437685546875,0.7579892818450927,-1.2285938465811312,-0.5787058968842029
1789572003417731600,5.447731689453125,0.9017419192194938,-1.4158398809842765,-0.2820420409068465
1789572003427777500,5.457777587890625,0.959793710693717,-1.6903554719090461,0.030966362280398604
1789572003437823500,5.467823486328125,0.9952589918285608,-1.8397849858760833,0.3669106737665832
1789572003447868700,5.47786865234375,1.0826239715486765,-1.9772161651439963,0.57939665562734
1789572003457914600,5.48791455078125,0.9387181894391775,-2.001963945170492,0.696440734296292
1789572003467960600,5.497960693359375,0.43807694448828693,-2.272862660772353,0.684661449175328
1789572003478006500,5.508006591796875,-0.39322482632696626,-2.6613383928760883,0.8316245730288326
1789572003488052500,5.518052490234375,-0.6382078871667385,-2.0761890189409256,0.3564366990905255
1789572003498098700,5.5280986328125,-0.9011328474104404,-1.143659893400222,-0.2336670093163848
1789572003508143400,5.538143310546875,-1.2644383362919092,-0.9568652560263872,-0.24607977003529666
1789572003518189300,5.548189208984375,-1.596862949219346,-1.0929640176467597,0.09359861341267824
1789572003528235500,5.558235595703125,-1.674044388577342,-0.9040471274219453,0.2726763927988708
1789572003538281500,5.568281494140625,-1.6323381672263144,-0.5075292874315753,0.2885856173314154
1789572003548327400,5.578327392578125,-1.564042629635334,-0.2771404412693344,0.3161894443761557
1789572003558372600,5.58837255859375,-1.5478905362576245,-0.23725834833923726,0.5019108264952897
1789572003568418600,5.59841845703125,-1.5458739357382059,-0.230639094596263,0.6070624419923871
1789572003578464500,5.608464599609375,-1.4666688815981148,-0.24675734050329773,0.5713501272939145
1789572003588510500,5.618510498046875,-1.345416829845309,-0.302991067971196,0.4552825655069202
1789572003598556400,5.628556396484375,-1.0604168159157037,-0.33725042564868923,0.33362441717125474
1789572003608601600,5.6386015625,-0.7739946602284908,-0.38187395921852435,0.29800964456312357
1789572003618647600,5.6486474609375,-0.4964940621435642,-0.40988859555386004,0.30240517610833045
1789572003628693500,5.658693603515625,-0.2626484813898802,-0.45765934110824014,0.3624482875302434
1789572003638739700,5.66873974609375,-0.049798926913738245,-0.44486189192067827,0.38687954895347354
1789572003648785700,5.67878564453125,0.0335667540371418,-0.36806229148712005,0.4608731520555913
1789572003658831600,5.68883154296875,0.03277238878905773,-0.20818519766060634,0.4845131900358945
1789572003668876300,5.698876220703125,0.0031879823863506314,-0.09777077539763412,0.548747615667805
1789572003678922500,5.708922607421875,-0.22733166881501674,-0.03232065839960705,0.7085819115322083
1789572003688968400,5.718968505859375,-0.5181108506679535,0.08363771195844746,0.6880366246968508
1789572003699014400,5.729014404296875,-0.9226865075707436,0.29931263518678025,0.5231905650850385
1789572003709060400,5.739060302734375,-1.4241916758745907,0.5088248436674475,0.3968438205417245
1789572003719105500,5.74910546875,-1.7531290312081573,0.7061494236882776,0.3683690558813512
1789572003729151500,5.7591513671875,-1.73397074175179,0.7528423474106937,0.41848515898548067
1789572003739197700,5.76919775390625,-1.590027550241351,0.5734441769637167,0.37607758443206546
1789572003749243600,5.77924365234375,-1.6146972965955733,0.3370509575538337,0.18168715816698966
1789572003759289900,5.789289794921875,-1.730630199152231,0.3071558777667582,-0.10912468384653329
1789572003769334800,5.799334716796875,-1.8408692739814518,0.4324517250176519,-0.3591613017488271
1789572003779380700,5.809380615234375,-1.8841572115659713,0.4912918173253536,-0.2142063759125769
1789572003789426700,5.8194267578125,-1.9182880292266606,0.5538822020772844,0.04673537462465465
1789572003799473000,5.829472900390625,-1.6233184099465607,0.706736648991704,0.3468485673382878
1789572003809518800,5.839518798828125,-1.143235968899727,0.8735437795434147,0.622100801974535
1789572003819564800,5.849564697265625,-0.9187889156103134,0.9282385156746953,0.740661861077696
1789572003829610000,5.85960986328125,-0.8521189333945512,0.8918596998915076,0.799155843361467
1789572003839656000,5.869656005859375,-1.1418822162032127,0.7391509450580924,0.9140707279819995
1789572003849702000,5.879701904296875,-1.4690402869045733,0.719476961164549,0.5185346290379762
1789572003859747800,5.889747802734375,-1.6876462129503487,0.5905939030766487,0.255796715798974
1789572003869793500,5.89979345703125,-1.7078385216295717,0.31061551670134063,0.32932080169320105
1789572003879838700,5.909838623046875,-1.2814677970260382,0.12215353063717484,0.3225176975496113
1789572003889884700,5.919884765625,-0.9144131847441196,0.08201886945180595,0.5328871987130492
1789572003899930600,5.9299306640625,-0.49329263575375076,0.00670592737942934,0.7141894492156803
1789572003909976800,5.939976806640625,-0.13812310705482958,-0.16283968822546302,0.8936354773923754
1789572003920022800,5.950022705078125,-0.06681377460062503,-0.5282779513519257,1.1022230635751038
1789572003930068700,5.96006884765625,0.16252572690546513,-1.046408164307475,0.9710731565337628
1789572003940113700,5.97011376953125,0.10086743537187576,-1.4231015425503253,1.094771505460143
1789572003950160000,5.980159912109375,0.13370529061257838,-1.4518284553408622,1.2824677678488194
1789572003960205800,5.990205810546875,0.28752339492738244,-1.2330949573926626,1.344662212085724
1789572003970251800,6.000251708984375,0.3700742523640394,-1.0485923034135252,1.373365013348311
1789572003980297700,6.010297607421875,0.4936375036686659,-0.7867424981206655,1.6351929721355438
1789572003990343000,6.020343017578125,0.7813800943046808,-0.32249110180363055,1.9231094580337404
1789572004000388900,6.030388916015625,1.323159989851713,0.039615898008272046,1.9869357412561772
1789572004010434800,6.040434814453125,1.926804513159394,0.22289098295383153,2.0162972986884413
1789572004020480800,6.050480712890625,2.4848791254252194,0.03591784720793366,1.964967508945614
1789572004030527000,6.06052685546875,2.9950679509222504,-0.362037807033211,1.8156608907058833
1789572004040571600,6.070571533203125,3.2243893322497605,-0.8547067579306662,1.4134298972330988
1789572004050617600,6.08061767578125,3.195031135818362,-1.4550275436431168,0.9744199096783995
1789572004060663800,6.090663818359375,3.1624095536768433,-2.1581343116998672,0.8733127472665161
1789572004070709800,6.100709716796875,3.456906294748187,-2.060236101397127,0.630676030357182
1789572004080755700,6.110755615234375,3.4003806899279354,-1.8466180467665194,0.30595274905469266
1789572004090801700,6.1208017578125,3.1191882515877483,-2.025273070695996,0.2654997061025351
1789572004100846800,6.130846923828125,2.8433173005312677,-1.8156328336551784,0.3434868358202278
1789572004110892800,6.140892822265625,2.5276100136488675,-1.4022946091040969,0.27267513242354613
1789572004120938800,6.150938720703125,2.1647318102687594,-1.2849363499194384,0.2784150643150322
1789572004130984700,6.160984619140625,1.7628531373649834,-1.1152609704550356,0.44344855452403426
1789572004141031000,6.171031005859375,1.5058751028269528,-0.6683028003748506,1.032535267908126
1789572004151075800,6.181075927734375,1.437990484124422,-0.32205212586447596,0.8033827403414994
1789572004161121800,6.191121826171875,0.9721569331824779,-0.5224830744028092,0.4376366168422624
1789572004171167700,6.201167724609375,0.5303326188594103,-0.6340915378890931,0.06962843016255646
1789572004181214000,6.2112138671875,0.21024960111081598,-0.09830284558087586,0.30376247246880084
1789572004191260000,6.221260009765625,-0.09926759895980357,0.2744621071718633,0.5319715086402371
1789572004201304600,6.2313046875,-0.45955753941237926,0.46938291398659343,0.5079634775977582
1789572004211350800,6.241350830078125,-0.7902993138194083,0.6050896075494587,0.24344887354243544
1789572004221396700,6.251396728515625,-0.9654144731849431,0.7908166887570172,0.06409406731314957
1789572004231442700,6.261442626953125,-0.8831599683463572,0.8786318964626639,0.085659965900518
1789572004241488600,6.271488525390625,-0.868468010649085,0.7840259326383471,0.13072846675887703
1789572004251534600,6.28153466796875,-1.0296890846967697,0.6372742595784365,0.006500285272113979
1789572004261579800,6.291579833984375,-1.1762006653904915,0.5953564413033425,0.10498966640103607
1789572004271625700,6.301625732421875,-1.2474924621880055,0.7428929811306297,-0.30820893048364667
1789572004281671700,6.311671630859375,-1.5229296980023384,0.7774699351236224,-0.5454455419151112
1789572004291718000,6.3217177734375,-1.5282821649461984,0.6831991215378046,-0.9539704113677143
1789572004301763800,6.331763916015625,-1.6303350107103585,0.5151387029893696,-0.9280644012168049
1789572004311808800,6.341808837890625,-1.6516572002023457,0.2746070686005056,-0.9928728273443878
1789572004321854700,6.351854736328125,-1.540890302106738,0.07323416303694248,-1.2627851622574031
1789572004331901000,6.36190087890625,-1.5784113467276095,0.026260376546531915,-1.4969921236693857
1789572004341947000,6.37194677734375,-1.7380401831477879,0.09351955682709813,-1.5344709365837275
1789572004351992800,6.381992919921875,-2.045480576944351,0.20088439139425754,-1.5715870536655188
1789572004362037800,6.392037841796875,-2.3029794204860923,0.3615592297360301,-1.4771011360242963
1789572004372083700,6.402083740234375,-2.225317504134774,0.5246637794427573,-1.694065140081942
1789572004382129700,6.412129638671875,-2.020534936258197,0.7174588262751698,-1.9140151742130518
1789572004392175600,6.422175537109375,-1.7104092489004135,0.8205744789652526,-1.8380480790808795
1789572004402221600,6.4322216796875,-1.5288579190075398,0.9614398704655468,-1.861301090504974
1789572004412267800,6.442267822265625,-1.3135136251062154,1.0292410486683248,-1.8498693036474287
1789572004422312700,6.452312744140625,-0.9665917002707719,1.1351974777422844,-2.1209484903827307
1789572004432358700,6.462358642578125,-0.5981979483395815,1.14865258712098,-2.324504439073801
1789572004442404900,6.47240478515625,-0.21724515908658504,1.0048939583972096,-2.3522205673865972
1789572004452450800,6.482450927734375,0.27136370276510713,0.761028795671463,-2.586744631923735
1789572004462496800,6.492496826171875,0.7047048509031534,0.5732511386096477,-2.61042975115478
1789572004472541700,6.502541748046875,1.1753630455225705,0.5347358222544193,-2.2786650634407994
1789572004482588000,6.512587890625,1.189655774769187,0.7206688743628561,-2.093654240743816
1789572004492633900,6.5226337890625,0.9498872337073088,0.5474386519610881,-2.199292105387896
1789572004502679800,6.5326796875,0.8094149331778288,0.44536257145181296,-2.2125737578958273
1789572004512725800,6.542725830078125,0.20540508368909358,-0.17112521294653416,-2.3315438361912966
1789572004522771000,6.55277099609375,1.4817758498370646,0.19625161702707408,-2.501294253653288
1789572004532817000,6.56281689453125,2.3532149852514266,0.5171064959309994,-2.02753619332239
1789572004542862600,6.572862548828125,2.4756471866995096,0.6223980313554406,-1.3899230571784078
1789572004552908500,6.582908447265625,2.4218834478080273,0.9598875264570117,-0.8816182918623089
1789572004562954800,6.592954833984375,2.5711487111240623,1.2619476885199545,-0.7989686502262949
1789572004573000700,6.603000732421875,2.689185892483592,1.051639342959225,-1.3832982322111724
1789572004583045600,6.613045654296875,2.4412159247875214,0.19111922257468103,-2.0237024603784084
1789572004593091800,6.623091796875,2.8007740438342092,-0.48826779332906006,-2.4950863389238713
1789572004603137800,6.6331376953125,3.890294204637408,-0.871588188496232,-2.941566077837348
1789572004613183700,6.643183837890625,5.801677861303091,-1.695325661537051,-3.414806105643511
1789572004623229700,6.653229736328125,6.29264117732644,-1.75479827959463,-3.3294109646916388
1789572004633275000,6.66327490234375,6.593360738435387,-1.3602353365316986,-3.361816565994918
1789572004643320800,6.67332080078125,7.030669621160626,-1.9148922493085263,-3.2341134384065864
1789572004653366800,6.68336669921875,6.375718104463815,-1.9294898067206143,-2.886803098775446
1789572004663412700,6.693412841796875,5.231111431732773,-1.4371246610753237,-2.653295956195891
1789572004673458700,6.703458740234375,3.8193765018492933,-1.035306778448075,-2.4409993594273924
1789572004683505000,6.7135048828125,2.6387662033230064,-0.5144624111630022,-2.2125905629001554
1789572004693549800,6.7235498046875,1.8985048858702183,-0.2988701338499784,-2.134672479830682
1789572004703595800,6.733595703125,1.4569956288456916,-0.5456668199829757,-2.0098262029781937
1789572004713642000,6.74364208984375,1.5739847624570131,-1.1442097823679447,-1.9310130707651376
1789572004723687700,6.753687744140625,1.8297417307674884,-2.047329711942375,-1.514297917126864
1789572004733733600,6.763733642578125,1.905120504617691,-2.624169230432808,-1.34874904300794
1789572004743778600,6.773778564453125,1.823707126778364,-3.193632667197287,-1.613517146900296
1789572004753824500,6.783824462890625,1.8797183523356913,-2.766087638117373,-0.9824268366537987
1789572004763870500,6.793870361328125,2.092038914501667,-2.045437906846404,-0.06496021915581077
1789572004773916400,6.80391650390625,1.5286270328611136,-1.6570058677539228,0.7277236882451922
1789572004783962400,6.81396240234375,0.44117958667874335,-1.6658429619431494,1.2015062984954565
1789572004794008600,6.824008544921875,-0.6501426551103592,-1.8289716231778264,1.4586524561420082
1789572004804053500,6.834053466796875,-1.6468097601711749,-1.8088032798960805,1.059618797405809
1789572004814099500,6.844099365234375,-2.2650597319364545,-1.8058952834948896,0.8924845537915825
1789572004824145700,6.854145751953125,-2.683709506899118,-1.958854725153744,0.8452046239614486
1789572004834191600,6.864191650390625,-3.2584815714657305,-2.3212141653567553,0.8991359014395623
1789572004844237600,6.874237548828125,-3.649484045568108,-2.6009046747013924,0.6406377446621656
1789572004854282500,6.884282470703125,-3.7700615590602156,-2.73851895545125,0.6045785892874002
1789572004864328700,6.89432861328125,-3.67122650629878,-2.6709584541365503,0.7927439304925501
1789572004874374700,6.904374755859375,-3.476503560143709,-2.1084774236053225,1.2574041998714207
1789572004884420600,6.914420654296875,-3.4831723703831434,-1.4202499525114893,1.7802732048518954
1789572004894466600,6.924466552734375,-3.718738199058175,-1.072882037474215,1.862229165135324
1789572004904511500,6.934511474609375,-4.156211332434416,-1.31646107673496,1.904640904407203
1789572004914557400,6.944557373046875,-4.396550951382517,-1.5786337573066354,2.3240564030453563
1789572004924603400,6.954603271484375,-3.991160470965504,-1.2266504574283956,2.370079318551719
1789572004934649300,6.9646494140625,-3.6062767720043656,-0.7166857960760593,2.402877426303923
1789572004944695600,6.974695556640625,-3.811789407721162,-0.7377662857666611,2.5678040768712758
1789572004954741500,6.984741455078125,-4.089873358651995,-0.9702420394718646,2.205949955841899
1789572004964786400,6.994786376953125,-4.564372446608543,-1.256085226227343,2.0145918099448084
1789572004974832600,7.00483251953125,-4.2871518345087765,-1.2454872598454356,1.0199851445451378
1789572004984878600,7.014878662109375,-3.795824361348152,-1.1597925514250993,-0.055320064955390984
1789572004994924500,7.024924560546875,-3.2403970487207174,-1.0737263793438672,-0.41953715225644406
1789572005004970500,7.034970458984375,-2.3935931728690862,-0.34154549249410626,-0.5735537748180329
1789572005015015700,7.045015625,-1.977584852325916,0.33940672689974305,0.422281628658995
1789572005025061600,7.0550615234375,-1.9058079023599623,0.29143881480544803,1.9035899340495466
1789572005035107600,7.065107666015625,-1.5781594177931546,0.7557926485836506,2.4083275084033606
1789572005045153500,7.075153564453125,-1.2988380340218544,1.4613275205701588,2.4680177147343754
1789572005055199700,7.08519970703125,-1.1301251429140566,1.8411688414499163,2.169686510066688
1789572005065244700,7.09524462890625,-1.1623130098134278,1.6265782885253428,1.5187307850077747
1789572005075290400,7.105290283203125,-1.089600240302086,1.2788242967799306,0.8555236272715031
1789572005085336300,7.11533642578125,-0.6951882500171661,1.178937396878004,0.4393146695896983
1789572005095382500,7.125382568359375,0.10399638104736804,1.4161428094536066,1.2591732553705572
1789572005105428500,7.135428466796875,1.0722785186231136,1.954539200042188,3.9564772801190613
1789572005115474400,7.145474365234375,1.1605325561374424,2.4628762601926923,5.0928006931513545
1789572005125519600,7.15551953125,1.3978455207407474,3.4791061438575386,4.41062740752995
1789572005135565600,7.165565673828125,1.4753981314986944,3.416127709636092,3.7128532326728103
1789572005145611500,7.175611572265625,1.231914953827858,1.9728148614451289,3.1346146610394117
1789572005155657500,7.185657470703125,0.4644663542419672,0.7054758352756499,2.2612137240327894
1789572005165703400,7.195703369140625,-0.19377368260622024,0.3115887456476688,1.2219513398267328
1789572005175748600,7.20574853515625,-0.7167524315714836,0.11121902577728032,0.6062665058417246
1789572005185794600,7.215794677734375,-0.8932003008455037,0.1135579901188612,1.1775427276492119
1789572005195840500,7.225840576171875,-0.3717956693291664,0.27146862444430586,2.0903967002525925
1789572005205886700,7.23588671875,-0.023814590829610825,0.0901344444334507,2.2989291221819816
1789572005215932700,7.2459326171875,-0.3010281886667013,0.06132219144701957,2.0558299753926694
1789572005225977600,7.2559775390625,-0.3566746725648641,0.39635640235096214,1.9309600254036485
1789572005236023600,7.2660234375,-0.3590519230902195,0.11932692890912294,1.6065550528027117
1789572005246069800,7.27606982421875,-0.07653203553855419,-0.2994698533087969,0.8802765218645334
1789572005256115700,7.28611572265625,0.5166641589909792,-0.5671291485980152,0.04440699104259256
1789572005266161400,7.296161376953125,0.8669418239951133,-1.4136355028077958,-0.9468352257255465
1789572005276206600,7.30620654296875,0.5469809713214635,-3.557584345027804,-2.0542215172827243
1789572005286252500,7.31625244140625,2.1016922935098408,-2.861230266101658,-0.31544253499899055
1789572005296298500,7.326298583984375,3.8670764106571673,-0.32676234938204285,3.08099033061862
1789572005306344400,7.336344482421875,4.209655337852239,0.14055296455025673,4.980554954674839
1789572005316390400,7.346390380859375,3.5690123324930667,-0.7372694421604276,4.512521847862005
1789572005326436600,7.3564365234375,2.9375258625358343,-1.7600906869143247,2.6896023643299936
1789572005336481500,7.3664814453125,2.3754443527162072,-2.6366829673081633,1.0637306166388094
1789572005346527500,7.376527587890625,1.9227210432380437,-3.0775033652856942,0.17226276560910045
1789572005356573700,7.38657373046875,1.7892957386106252,-2.7944655913397667,-0.04740525497654453
1789572005366619600,7.39661962890625,1.5679355454206465,-2.353794246444106,0.1068470212381333
1789572005376665600,7.40666552734375,1.4481757780522106,-1.8982658164173363,0.34453137643709775
1789572005386710500,7.41671044921875,1.5146002610743046,-1.5394596847817301,0.9390339773900807
1789572005396756700,7.4267568359375,1.470480548840761,-0.8715139542162418,2.368740471163392
1789572005406802700,7.436802734375,1.1984013912826776,0.8650833366468548,4.175798953218758
1789572005416848600,7.4468486328125,0.7870207305401563,1.7161670817747712,3.6399051931008692
1789572005426894600,7.45689453125,-0.1168470947921276,-0.4161566429726779,0.9589110826402902
1789572005436940500,7.4669404296875,-1.0132698648154734,-2.366406329127401,-0.9590602087873965
1789572005446985500,7.4769853515625,-1.2110089439213276,-3.1980069367587562,-1.7062239260397851
1789572005457031400,7.487031494140625,0.6391062973111867,-1.516196005833149,-1.1053233676780014
1789572005467077400,7.497077392578125,1.2615613195508717,-0.5150846347145736,0.4233895899008959
1789572005477123600,7.50712353515625,0.6257049639463425,-1.2947478420987724,0.4037491429507732
1789572005487169500,7.51716943359375,0.040027474483847615,-1.436645791517198,-0.025667883696232456
1789572005497214500,7.52721435546875,-0.13290098849236964,-0.9333416109673678,-0.2092301949352026
1789572005507260700,7.5372607421875,-0.2092389627635479,-0.2886234651237726,0.30902956268414855
1789572005517306600,7.547306640625,-0.20862346121370792,0.4459481162548065,0.9228830530561506
1789572005527352600,7.5573525390625,-0.3046802814334631,1.2752701114296912,1.5068965548291802
1789572005537398500,7.5673984375,-0.5521551590889692,1.7664144831083715,1.9293086049348114
1789572005547443700,7.577443603515625,-0.8829968867391348,1.671960860301554,1.8403478804558515
1789572005557489700,7.58748974609375,-1.491609261587262,1.3528949106410144,1.1758394308626652
1789572005567535600,7.59753564453125,-1.9849621030956506,1.0336448365852235,0.4734545473396778
1789572005577581600,7.60758154296875,-2.34063899679482,0.6094385965391993,-0.04836235477197915
1789572005587627800,7.617627685546875,-2.768640537470579,-0.27545550212338565,-0.7752923718888313
1789572005597673700,7.627673828125,-3.344434930822253,-1.1299437949977815,-1.0885149292834102
1789572005607718400,7.637718505859375,-3.1213679337143896,-1.4680902927033603,-0.575423221951723
1789572005617764400,7.647764404296875,-1.8781974263787269,-0.5089513926565646,-2.709113412746787
1789572005627810600,7.657810546875,-1.8822709594279528,0.15733853352591395,-1.3810586365908384
1789572005637856500,7.6678564453125,-1.7468945207327604,0.02106763020902872,0.009826415753830224
1789572005647902500,7.67790234375,-1.877398969477415,0.23543957194685936,0.06328123482661321
1789572005657947600,7.68794775390625,-2.1882909650325773,-0.020866554678976534,-0.6322874110765755
1789572005667993600,7.69799365234375,-2.3547464326024055,-0.17329174333065747,-1.1752958255052566
1789572005678039600,7.70803955078125,-1.9740186842769383,0.013591302978992461,-1.539679757273197
1789572005688085500,7.71808544921875,-1.1321475886523722,0.05475888740867376,-1.8339602252453564
1789572005698131500,7.72813134765625,-0.28729660043418404,-0.20226693179383873,-2.0750058005057275
1789572005708176600,7.7381767578125,0.3689893797367811,-0.4616914827011525,-2.3340835838019847
1789572005718222600,7.74822265625,0.8019371446430683,-0.5037243056580424,-2.410805004432797
1789572005728268500,7.7582685546875,1.0746446632325648,-0.5138052624285221,-2.446521045458317
1789572005738315300,7.768315185546875,1.1924877833247185,-0.5197597869187593,-2.5983143659472465
1789572005748361500,7.778361572265625,1.2139198629319667,-0.6313233883500099,-2.6994588646948334
1789572005758407400,7.788407470703125,1.198268120291829,-0.687088822452724,-2.5528736342430114
1789572005768452000,7.7984521484375,1.084058972787857,-0.6008718437239527,-2.4038002402372656
1789572005778498000,7.808498046875,0.8393997370749712,-0.5444849167220294,-2.3752822940222917
1789572005788544300,7.818544189453125,0.654266457042098,-0.5740566097736358,-2.284509113293886
1789572005798590200,7.828590087890625,0.6220622235298157,-0.5986050678357482,-1.9782757571995258
1789572005808636200,7.83863623046875,0.7410802326202393,-0.5253874175421893,-1.7118853128023443
1789572005818681300,7.848681396484375,0.7845400196403265,-0.46631066693440076,-1.5174395761534571
1789572005828727300,7.858727294921875,0.7200678397297858,-0.3703989542737603,-1.3580558005355299
1789572005838773200,7.868773193359375,0.6093097094625234,-0.2898324025221169,-1.2662138215318322
1789572005848819200,7.878819091796875,0.5871592524528503,-0.17283011716827748,-1.3450984115459024
1789572005858865200,7.888865234375,0.7537398077070713,-0.09829802327528596,-1.1299258940149097
1789572005868910300,7.898910400390625,1.1613158154696226,-0.008225392031669616,-0.7699446541853249
1789572005878956300,7.908956298828125,1.670398141029477,-0.010810732349753379,-0.6476781646929681
1789572005889002200,7.919002197265625,2.173511913573742,-0.19233502810522912,-0.5280999644365162
1789572005899048400,7.92904833984375,2.649067232584953,-0.33110768510997296,-0.1588470383927226
1789572005909094400,7.939094482421875,3.079859280762076,-0.39983459985554215,0.028371450416371225
1789572005919140400,7.949140380859375,3.2767472959965467,-0.5908209898307919,-0.00448576711192727
1789572005929185300,7.959185302734375,3.4017975709885357,-0.8264348954312503,0.07005297571755945
1789572005939231200,7.969231201171875,3.5676509810119867,-0.9254609407201408,0.37489809232391413
1789572005949277200,7.979277099609375,3.6560575787395235,-0.9347975088641047,0.6081805593021213
1789572005959323100,7.9893232421875,3.5117344480007886,-1.071064905049652,0.5926830573756248
1789572005969369000,7.999369140625,3.138448832374811,-1.2755983204707502,0.4365975195854902
1789572005979414300,8.009414306640625,2.5260078391492367,-1.2555717237472535,0.3800391815394163
1789572005989460200,8.019460205078126,1.883212039670348,-1.0485279329404233,0.33291363855339584
1789572005999506200,8.029506103515626,1.3575702089756727,-0.9001666327267884,0.2855807364270091
1789572006009552100,8.03955224609375,0.8751157781004906,-0.9187466839037836,0.20238186341039835
1789572006019598300,8.049598388671875,0.3992804731041193,-0.9469682775206864,0.1632601055946201
1789572006029644300,8.059644287109375,-0.016265490624308584,-0.8893751895993948,0.04253580404296517
1789572006039689200,8.069689208984375,-0.24407646738886832,-0.8250570312067865,0.021726532509177922
1789572006049735400,8.0797353515625,-0.38431905081570145,-0.8694586291216313,-0.08393157120533287
1789572006059781400,8.089781494140626,-0.4772480944037437,-0.9539512682758271,-0.3890872881308198
1789572006069827300,8.099827392578124,-0.6510632770866155,-1.0143737344041466,-0.6298875103279948
1789572006079873300,8.109873291015624,-0.8388456103235483,-1.0074565023615956,-0.7648766302060336
1789572006089918500,8.11991845703125,-0.8631412626683711,-0.9473993624143302,-0.7337631145399064
1789572006099964400,8.12996435546875,-0.7845306672900915,-0.8340472701311111,-0.5880389578968286
1789572006110010400,8.14001025390625,-0.7197066052019596,-0.693063366817683,-0.3904701207913458
1789572006120056000,8.15005615234375,-0.7478121712237596,-0.6005393968991934,-0.24605806966014204
1789572006130102300,8.160102294921876,-0.7836416094958781,-0.5738631330281496,-0.14218421901389955
1789572006140147200,8.170147216796876,-0.7103647763609886,-0.5170115111239254,-0.07187178864255547
1789572006150193200,8.180193115234376,-0.6550275045424699,-0.5108278540529311,-0.02395378010459244
1789572006160239000,8.190239013671874,-0.5562351218789816,-0.5125144919656217,0.010491802593693136
1789572006170285300,8.200285400390625,-0.4283405633717775,-0.5045921745337546,0.11044752994813024
1789572006180331300,8.210331298828125,-0.41778526708781716,-0.48870866896435616,0.09715842478610574
1789572006190377200,8.220377197265625,-0.5134329219847917,-0.4788330255076289,0.020901406796649098
1789572006200422400,8.23042236328125,-0.625330869936943,-0.4793824760839343,-0.1467770997621119
1789572006210468400,8.24046826171875,-0.7622855177342891,-0.5158255162097514,-0.4639999788392335
1789572006220514300,8.250514404296876,-0.9189876530528068,-0.5131188875995576,-0.728068848421052
1789572006230560300,8.260560302734374,-1.1214555142462252,-0.40252003954723475,-0.7705326101411134
1789572006240606200,8.270606201171875,-1.2897528102904556,-0.17639219356402755,-0.6389649891443551
1789572006250651400,8.2806513671875,-1.3905898505240677,0.04120587061345577,-0.502535095873475
1789572006260697300,8.290697265625,-1.4342057048887014,0.23672771206125615,-0.2989079816423356
1789572006270743300,8.300743408203125,-1.30975631839931,0.3448730294816196,-0.07853150226008146
1789572006280789200,8.310789306640626,-1.1180167719691991,0.41051235347539183,0.045015784290432924
1789572006290835500,8.32083544921875,-0.9330518342405557,0.4103061633788049,0.13132186607476323
1789572006300880100,8.330880126953126,-0.6118178928911686,0.3766787651956081,0.22321221426483243
1789572006310926000,8.340926025390624,-0.4140554329097271,0.25155600948929785,0.14908855504225937
1789572006320972300,8.35097216796875,-0.4116249908924103,0.09195976016446948,-0.1472128060319461
1789572006331018200,8.361018310546875,-0.5078139130592346,0.0025622517034411428,-0.33862346756756306
1789572006341064200,8.371064208984375,-0.7060720476031302,-0.06564823795258999,-0.35555133109074083
1789572006351110100,8.381110107421875,-0.9089484895974397,-0.04290712157338857,-0.3051889981405809
1789572006361155300,8.3911552734375,-1.0580547629594803,0.04667889519706368,-0.21000379138989372
1789572006371201300,8.401201171875,-1.1460644703239202,0.1205851122766733,-0.05865240141560789
1789572006381247200,8.411247314453124,-1.1706038682967423,0.1367886435806751,0.10242292118556796
1789572006391293200,8.421293212890625,-1.0542547861546276,0.06175707573294639,0.18030262673972172
1789572006401339400,8.43133935546875,-0.8852695078462361,-0.07879720399156212,0.2609684558810666
1789572006411384300,8.44138427734375,-0.7199959435373544,-0.15242211991176008,0.2912311816704459
1789572006421430300,8.45143017578125,-0.435788541290164,-0.24557459699213505,0.3673873879002407
1789572006431476500,8.4614765625,-0.18591537032127378,-0.347057972305268,0.5262309191616251
1789572006441522400,8.4715224609375,-0.11600772135853767,-0.4081412404298782,0.6898175167642533
1789572006451568400,8.481568359375,-0.13081073821485042,-0.25992592455819247,0.9098131436027586
1789572006461614300,8.4916142578125,-0.20529811618328092,0.05731821650266647,1.248499447273463
1789572006471659300,8.5016591796875,-0.401483536106348,0.34543022497296333,1.6517174059569835
1789572006481705200,8.511705322265625,-0.7847697367429732,0.5240612835049628,2.0602819863654673
1789572006491751200,8.521751220703125,-1.0952958215951918,0.6651493778452277,2.336036179174483
1789572006501797000,8.531797119140625,-0.9755389768362045,0.746206635723263,2.439442485374212
1789572006511843300,8.54184326171875,-0.42507074792087074,0.6394215007402002,2.4401292985945937
1789572006521888300,8.55188818359375,0.41143911293148994,0.3705063601709902,2.3780454751253126
1789572006531934200,8.561934326171874,1.2299977220296858,0.12929112743213772,2.1768979027502238
1789572006541980200,8.571980224609375,1.8198925369262695,-0.03648687926754355,2.0208194522880016
1789572006552026400,8.5820263671875,2.057750275930762,-0.12542042347863316,2.0450322486549615
1789572006562072300,8.592072265625,1.8789649036198854,-0.09364069898873567,2.080231572329998
1789572006572117200,8.6021171875,1.4093617710113524,-0.04521759047284722,2.013133281699568
1789572006582163500,8.61216357421875,1.0189876579403876,-0.13466785203441978,1.8803081349223851
1789572006592209400,8.62220947265625,1.0036375285953283,-0.3214258106596768,1.6602337437592445
1789572006602255400,8.63225537109375,1.3924275873452425,-0.5717334275230765,1.346058634880185
1789572006612301300,8.64230126953125,2.043153010779619,-0.8804913336589932,1.0816672553457318
1789572006622347300,8.65234716796875,2.5975217542648315,-1.107397470538318,0.9490078935895114
1789572006632392200,8.66239208984375,2.853768551918864,-1.1479062987983226,0.9713825147438794
1789572006642438100,8.672438232421875,2.6458640526294706,-1.068220621534437,1.1356222790256143
1789572006652484000,8.682484130859375,2.0103297685861587,-0.8785409302435815,1.320862818825245
1789572006662530300,8.6925302734375,1.228063539096713,-0.6070344580069184,1.386833420599997
1789572006672576300,8.702576171875,0.5490069241911173,-0.27100188371539113,1.2818825153067708
1789572006682621200,8.71262109375,0.005249006569385528,-0.06543605650663376,1.0027315927315503
1789572006692667100,8.722667236328125,-0.3048983080983162,0.02663914673104882,0.6173448396191
1789572006702713300,8.73271337890625,-0.36204701325297356,0.08222703230977058,0.35611353155076503
1789572006712759300,8.74275927734375,-0.3106120095700025,0.13864201636239887,0.23290187016278505
1789572006722805200,8.75280517578125,-0.19891572166979313,0.1721579169951379,0.2890751544140279
1789572006732851200,8.762851318359376,-0.13855039255619048,0.3231090875715017,0.48071299403533335
1789572006742895600,8.7728955078125,-0.24663608874380588,0.48109746330827474,0.659652168668434
1789572006752941600,8.782941650390624,-0.5070417596429586,0.538096092467755,0.7323189801461994
1789572006762987500,8.792987548828124,-0.8440706514954567,0.5409370149821042,0.5947326833818107
1789572006773033700,8.80303369140625,-1.205056757518649,0.49764293991774317,0.3701875765454024
1789572006783079700,8.81307958984375,-1.6095669479697943,0.4250752779655158,0.1338457950618118
1789572006793124600,8.82312451171875,-2.0664725115686653,0.37337417069226503,-0.1991439044024795
1789572006803170600,8.833170654296875,-2.4526257920742034,0.3466227957583964,-0.5561454708341509
1789572006813216800,8.843216796875,-2.643931038740277,0.2596897777147591,-0.8290638556953519
1789572006823262700,8.8532626953125,-2.720408129221201,0.11965791442915796,-1.0144264875046909
1789572006833308700,8.86330859375,-2.7064234430104492,0.09142112324312329,-1.2898854967594147
1789572006843354600,8.873354736328125,-2.6254952183395623,0.07293430330753325,-1.568461761251837
1789572006853399800,8.88339990234375,-2.44457517208755,0.04729395835548639,-1.7743199955359101
1789572006863445800,8.89344580078125,-2.12123929002285,0.07417860428020358,-1.8533990852087736
1789572006873491700,8.90349169921875,-1.8634312344014643,0.136706810516119,-1.844987961346656
1789572006883537700,8.91353759765625,-1.6579367188632488,0.21703268537968395,-1.8221005683645606
1789572006893584000,8.923583984375,-1.4824983188927172,0.21904490198493,-1.8131575295828282
1789572006903628500,8.933628662109374,-1.3460153802603483,0.2014480166263878,-1.7973546880342066
1789572006913674500,8.943674560546874,-1.3524714245319365,0.21715689628124235,-1.791606938162446
1789572006923720700,8.953720703125,-1.5103198072761297,0.28807956750541924,-1.8425008207060396
1789572006933766700,8.9637666015625,-1.725413925808668,0.33439664365276695,-1.8773488467253743
1789572006943812600,8.9738125,-1.8413561807155607,0.401197266510874,-1.8500418837353587
1789572006953857500,8.983857421875,-1.879379329639673,0.45070334795787925,-1.8150360368058085
1789572006963903700,8.99390380859375,-1.8153098853111267,0.4847887190416455,-1.7139865228652953
1789572006973949700,9.00394970703125,-1.6597300320208073,0.45932723778784273,-1.5789220727287232
1789572006983995600,9.01399560546875,-1.3432389012843369,0.42017450031191106,-1.3873358171641825
1789572006994041600,9.02404150390625,-0.9843436300605535,0.3582401683159172,-1.1478473351527005
1789572007004087800,9.034087890625,-0.6216682557761669,0.33704306650832294,-0.9237865047018975
1789572007014132700,9.0441328125,-0.2082891146928072,0.2809961851157248,-0.8131233592417091
1789572007024178700,9.0541787109375,0.2055558903366327,0.17897329609841106,-0.8077910583030432
1789572007034224600,9.064224609375,0.5506143593877554,0.014126140508055687,-0.7887223468262702
1789572007044270800,9.074270751953126,0.7425339385598897,-0.1761490324579179,-0.8545994981639087
1789572007054316800,9.08431689453125,0.7295394324302673,-0.3425628528431058,-0.9812667068332434
1789572007064361500,9.094361572265624,0.6587468173265457,-0.3881241421870887,-0.9314620808310806
1789572007074407700,9.10440771484375,0.6039835460036993,-0.31819939595907926,-0.7319508774861693
1789572007084453600,9.11445361328125,0.4736801727890968,-0.3371178853102028,-0.5351949641987681
1789572007094499600,9.12449951171875,0.4411164583146572,-0.3305709478847682,-0.22135858575478196
1789572007104545500,9.134545654296875,0.6944166811227798,-0.19598551343679427,0.19823665336444973
1789572007114591500,9.144591552734376,1.170095334252715,0.02324775072708726,0.7179121230006218
1789572007124636700,9.15463671875,1.37318512673676,0.15773834649845958,0.9799085702225565
1789572007134682600,9.1646826171875,1.220463585487008,0.15869973887652158,0.7192078618995845
1789572007144728600,9.174728515625,0.9782856451958417,0.03899272460862994,0.10082140427306294
1789572007154774800,9.18477490234375,0.9710790748178958,-0.0869939544506371,-0.4450799551181495
1789572007164820700,9.19482080078125,1.2127800452470778,-0.26694179466962814,-0.7112699085071682
1789572007174865700,9.20486572265625,1.5607447571337223,-0.4115178772561252,-0.7977632199592888
1789572007184911600,9.21491162109375,1.9709376693964002,-0.4698744968958199,-0.7520432329222559
1789572007194957800,9.224957763671876,2.399471709513664,-0.48716889217644926,-0.5800412371411919
1789572007205003800,9.235003662109374,2.8145465485990044,-0.4710640720065683,-0.37032355094999075
1789572007215049700,9.2450498046875,3.0348259608149526,-0.4977917738039046,-0.18442776211202144
1789572007225095700,9.255095703125,3.074136226940155,-0.5091201002869755,0.04516600641608238
1789572007235140900,9.265140869140625,3.1400352247834205,-0.48720133314132685,0.2981644697986543
1789572007245186600,9.2751865234375,3.1183313424974677,-0.49867768979296084,0.44717166670039293
1789572007255232500,9.285232421875,2.9591759688079353,-0.5250889460522681,0.4598388405717909
1789572007265278500,9.295278564453126,2.706242825746536,-0.5522706021621823,0.3768840785093605
1789572007275324700,9.30532470703125,2.421017770889401,-0.5767858155418187,0.21469547460377214
1789572007285369600,9.31536962890625,2.2188263885498047,-0.6022906244806945,0.0414214130602777
1789572007295415600,9.32541552734375,2.135398163756728,-0.5793011593636125,-0.05813567036539316
1789572007305461800,9.335461669921875,2.0249813942730426,-0.5832995813500136,-0.13258490828052164
1789572007315507700,9.3455078125,1.9230314243614672,-0.5923170005422085,-0.23592910902947187
1789572007325553700,9.3555537109375,1.8243436711162329,-0.5916046875543892,-0.36283144162893294
1789572007335599600,9.365599609375,1.7719284242242574,-0.5957463174037635,-0.5638683932363987
1789572007345644800,9.375644775390626,1.7220991021722554,-0.661132397288829,-0.73288202085644
1789572007355690800,9.385690673828124,1.741251546409726,-0.6868124897293746,-0.7951167971037327
1789572007365736700,9.39573681640625,1.7835487193912267,-0.6661354662731289,-0.7250731006711721
1789572007375782700,9.40578271484375,1.726562511321902,-0.6149536336336284,-0.5644986539639533
1789572007385828600,9.41582861328125,1.5867495514839887,-0.5146104413315653,-0.327711320669949
1789572007395873800,9.425873779296875,1.3473375687748192,-0.35840829142443836,-0.13138240062296389
1789572007405919700,9.435919677734375,0.9927133989989757,-0.16698694409802556,0.019758447306603193
1789572007415965700,9.445965576171876,0.6720896985024213,0.0063605480078607795,0.135934657099843
1789572007426012000,9.456011962890624,0.3990612773954868,0.14050876008234917,0.24603315441459417
1789572007436057600,9.4660576171875,0.18308160820007324,0.21349866603463888,0.26632074016183616
1789572007446102500,9.4761025390625,-0.028888825353980064,0.2141989963237196,0.21811156665757298
1789572007456148700,9.486148681640625,-0.17981997605562208,0.2031841927692294,0.13182313012778757
1789572007466194700,9.496194580078125,-0.29271979452669616,0.21199308377727866,0.03385463106781244
1789572007476240600,9.50624072265625,-0.39630584120750423,0.23063684784024951,0.05845978775322437
1789572007486286600,9.51628662109375,-0.5800584805369376,0.2073806215457618,0.14408128480687737
1789572007496332500,9.52633251953125,-0.8653490018457174,0.1953990918509662,0.15210779326558113
1789572007506377700,9.536377685546874,-1.1573369749665259,0.1914944856278598,0.13692176844105125
1789572007516423700,9.546423583984375,-1.3887889385819434,0.14710545493364333,0.050268444121628994
1789572007526469600,9.5564697265625,-1.5270003084421158,0.06348185369893908,0.02723316710144281
1789572007536515800,9.566515869140625,-1.6112936256319284,-0.013842793522030114,0.07732698530852794
1789572007546561800,9.576561767578125,-1.651302395415306,-0.010710632976144552,0.10694865498170256
1789572007556607700,9.586607666015626,-1.7420131784319877,-0.02401785831674933,0.11107961730659008
1789572007566652700,9.596652587890626,-1.7963187691152094,-0.03412731052935123,0.11609291542395948
1789572007576699000,9.606698974609374,-1.7713824807792902,-0.060244479212909936,0.10835589143112301
1789572007586744800,9.616744873046875,-1.7810130634337662,-0.07156228430196643,0.079972385250777
1789572007596790800,9.626790771484375,-1.8533102378815411,-0.020107260744273662,0.027452947331964968
1789572007606836700,9.636836669921875,-1.9435925663530826,0.07944324681013822,0.076472706566751
1789572007616881700,9.646881591796875,-1.9875047733157871,0.13176014789417384,0.2747765799485147
1789572007626927600,9.656927734375,-1.9196826984554527,0.14966829115897415,0.5249889928091317
1789572007636973600,9.6669736328125,-1.7686615313827991,0.13428995863273738,0.7718566983517259
1789572007647019500,9.67701953125,-1.7319143937438726,0.03864873347654939,0.8175186715912074
1789572007657065700,9.687065673828124,-1.7971511282861232,-0.10079553917944431,0.6561612578127533
1789572007667111700,9.697111572265625,-1.8291589624434708,-0.19677929416298864,0.46275078249573703
1789572007677156600,9.707156494140625,-1.7916221357315778,-0.3755722652584314,0.27288499404825267
1789572007687202800,9.717202880859375,-1.7175170350790023,-0.5924617427751422,0.14474829734824596
1789572007697248800,9.727248779296875,-1.6356114898085594,-0.6929547918766736,0.1614522524550557
1789572007707294700,9.737294677734376,-1.5581816286474466,-0.7166092237085103,0.3532289160251617
1789572007717340700,9.747340576171876,-1.5271803411841391,-0.7619298361644148,0.5418135786209255
1789572007727385900,9.7573857421875,-1.5269582228660583,-0.8114633901402354,0.7450135534811765
1789572007737432000,9.76743212890625,-1.486695186060667,-0.8075145063839853,0.9718545892350375
1789572007747478000,9.77747802734375,-1.2773919258892534,-0.7888862321510911,1.152846093288064
1789572007757523700,9.787523681640625,-1.0041776268213987,-0.8094083573065698,1.3230020228110253
1789572007767569700,9.797569580078125,-0.7967600342661142,-0.9252503667093813,1.3828861442789435
1789572007777616000,9.807615966796876,-0.48473698885440825,-1.0681563241265712,1.3581389487743376
1789572007787660800,9.817660888671876,-0.2613093417406082,-1.1540369105078279,1.3103906707800923
1789572007797706800,9.827706787109374,-0.13644377566576002,-1.0561167806342244,0.925660628010705
1789572007807753000,9.8377529296875,0.08099369112253188,-0.7703145104110241,0.5199540673818439
1789572007817799000,9.847798828125,0.28901275670230386,-0.5588593329027295,0.3363880366656929
1789572007827844900,9.857844970703125,0.5096329451799393,-0.5062615690506994,0.3083056323237717
1789572007837889800,9.867889892578125,0.8792086003720759,-0.4827162966817617,0.5066446500841528
1789572007847936000,9.87793603515625,1.4324492166101932,-0.45746831204816696,0.870451439551264
1789572007857982000,9.88798193359375,2.0023031139969825,-0.45289048273861404,1.1101198812395334
1789572007868028000,9.89802783203125,2.556734401324391,-0.5636359727200121,1.1549839090343563
1789572007878073900,9.908073974609374,3.1151725862056017,-0.7446765035465359,0.9925771323334425
1789572007888119800,9.918119873046875,3.6299008086979385,-0.9944632383409887,0.703147246197611
1789572007898165000,9.9281650390625,3.9453836391746995,-1.1880223283484577,0.33096608468219635
1789572007908211000,9.9382109375,4.077699521255493,-1.1636048762548714,0.24628281832672655
1789572007918257000,9.9482568359375,3.8378029698997733,-0.970151365513727,0.5496541360534727
1789572007928303000,9.95830322265625,3.2777953437447547,-0.6432435432463884,0.9735539404988288
1789572007938349000,9.96834912109375,2.593544667327404,-0.23659670609273015,1.3362209853462874
1789572007948393700,9.978393798828124,1.9592080686360596,0.1318179424960166,1.611125721719116
1789572007958440000,9.98843994140625,1.3264923491448164,0.3473599509265274,1.6664900276750325
1789572007968486000,9.99848583984375,0.6951841583639383,0.4739676844935864,1.4810656557410955
1789572007978531800,10.00853173828125,0.21058979285061358,0.5810197267845273,1.2200680102981627
1789572007988577800,10.018577880859375,-0.06945289093255996,0.7079655331995338,0.9830755098208784
1789572007998623700,10.028623779296876,-0.1828390316158533,0.7695777936343103,0.9052145637661219
1789572008008669000,10.0386689453125,-0.238041863399744,0.8024637988656759,0.9493227316923439
1789572008018715000,10.04871484375,-0.2736924379736185,0.8324662845499813,0.984757617688924
1789572008028760800,10.0587607421875,-0.3803466400533914,0.7952182116515935,0.9242765532411634
1789572008038807000,10.06880712890625,-0.5323310992002487,0.7331964936330914,0.7351829912751913
1789572008048853000,10.07885302734375,-0.7026531790703535,0.6196170954000204,0.48294323730543254
1789572008058899000,10.08889892578125,-0.8796236109137534,0.4797171879310161,0.23593955735825
1789572008068944000,10.09894384765625,-1.0705220303446055,0.4294252168033272,0.09632296034265309
1789572008078990000,10.108989990234376,-1.269891925522685,0.4072614619206637,0.018239512377325445
1789572008089036000,10.1190361328125,-1.4491098440319299,0.394338267461583,-0.08816902611199766
1789572008099082000,10.12908203125,-1.5671248135596514,0.3537216679781675,-0.2761762176133692
1789572008109128000,10.1391279296875,-1.579199282234907,0.2844181954536587,-0.44779228281676764
1789572008119172900,10.1491728515625,-1.564249550384283,0.15062603027522564,-0.5655521816048771
1789572008129218800,10.15921875,-1.5629630177050828,0.03357274538651109,-0.6946472750082612
1789572008139264800,10.1692646484375,-1.5590022973805666,-0.0116844464443624,-0.7833882923219353
1789572008149310700,10.179310791015626,-1.4594295779943465,0.00903627002313733,-0.6877194485064596
1789572008159357000,10.18935693359375,-1.3128741581588983,0.02230959309414029,-0.5450011956810951
1789572008169403000,10.19940283203125,-1.1261030477911234,-0.008416969081014395,-0.4743836083507165
1789572008179447800,10.20944775390625,-1.040596847680211,-0.05692775588035583,-0.4421303115323186
1789572008189494000,10.219493896484375,-1.0437328076183796,-0.06122092302963137,-0.46107875763028855
1789572008199540000,10.2295400390625,-1.0870955640047788,-0.006745090346038341,-0.4857023632878437
1789572008209586000,10.2395859375,-1.1735410907924175,0.07524784094691277,-0.46504134111832823
1789572008219631900,10.2496318359375,-1.2630974430769681,0.17315116581618784,-0.5000795194149017
1789572008229677000,10.259677001953126,-1.3247925594896077,0.3003356763578951,-0.5320139595424757
1789572008239723000,10.269722900390626,-1.398552792227268,0.37149975512251254,-0.5592027029803023
1789572008249769000,10.27976904296875,-1.4412550388783216,0.4265820292666554,-0.6266296775758267
1789572008259815000,10.28981494140625,-1.4111965852230786,0.5075662219084799,-0.6877868877194822
1789572008269860900,10.29986083984375,-1.2030904258817434,0.6246449334993958,-0.6196423759717494
1789572008279907000,10.309906982421875,-0.9386877943009138,0.7230208443164825,-0.5568644692910835
1789572008289951700,10.31995166015625,-0.7300052963763475,0.7668186311192811,-0.5387586845623329
1789572008299997700,10.329997802734376,-0.4769973345130682,0.8493826402984559,-0.49186782711502164
1789572008310044000,10.3400439453125,-0.19935352856516836,0.8924033052489161,-0.35915505467113107
1789572008320089900,10.35008984375,-0.058518824464082714,0.8811270012140273,-0.30357476787697524
1789572008330135800,10.3601357421875,0.06009995617568493,0.9248685277849436,-0.3479145160693675
1789572008340181000,10.370180908203125,0.12436229272782802,0.9606558804810047,-0.2597879043269902
1789572008350227000,10.38022705078125,0.1373217275440693,0.986358769275248,-0.07740209637135267
1789572008360273000,10.39027294921875,0.16877075877487657,0.9253532425619662,0.1297480774194002
1789572008370318800,10.40031884765625,0.05702011033892631,0.8153194810464978,0.18585010479902847
1789572008380364800,10.41036474609375,-0.22982407015264034,0.6231089561037719,-0.041047684377059336
1789572008390411000,10.420410888671874,-0.6326379780799151,0.3772778270673007,-0.4695169886950403
1789572008400456000,10.4304560546875,-0.983565046903491,0.148690897494182,-0.9138743286270647
1789572008410502000,10.440501953125,-1.098043074476719,-0.04821962183304131,-1.1749782109234481
1789572008420547800,10.4505478515625,-0.8040408389240503,-0.1419927880950272,-1.2713139211498201
1789572008430594000,10.460593994140625,-0.09152619105279446,-0.23799999701939523,-1.2163272163346408
1789572008440640000,10.470639892578125,0.9097001847475766,-0.3916588191192597,-1.0449991012271493
1789572008450686000,10.48068603515625,2.09544667711854,-0.4955936792377382,-0.7871012484304607
1789572008460731000,10.49073095703125,3.3241502676844594,-0.6269528451155871,-0.4848987918199971
1789572008470776800,10.50077685546875,4.293104605433345,-0.7947551241844892,-0.2371770997965708
1789572008480822800,10.51082275390625,4.724323354589939,-0.9688178518876432,-0.1820188012741506
1789572008490868700,10.52086865234375,4.575089655455947,-1.0399996124394237,-0.22253584937322884
1789572008500914700,10.530914794921875,4.033122128382325,-0.9769610455285758,-0.42224297714903947
1789572008510959900,10.5409599609375,3.422916346862912,-0.9264721635892986,-0.629642595656216
1789572008521005800,10.551005859375,3.0236604236781597,-0.957785001219809,-0.7623574869919568
1789572008531051800,10.5610517578125,2.901201918745041,-1.0011951038792728,-0.6907206761490553
1789572008541098000,10.571097900390624,2.877458055064082,-1.010030663698539,-0.526084606026113
1789572008551144000,10.58114404296875,2.621822082784772,-1.026502782810852,-0.4720834781821817
1789572008561190000,10.59118994140625,2.134340763658285,-0.9640972531065344,-0.49999220645762976
1789572008571234800,10.60123486328125,1.5649199969917535,-0.8556727534186095,-0.4824049657102674
1789572008581281000,10.611281005859375,1.0576052656263113,-0.8018819073244929,-0.5137134194266051
1789572008591327000,10.621326904296875,0.6339858855575323,-0.7732540709942579,-0.7185976210467517
1789572008601373000,10.631373046875,0.4575982220381498,-0.7732515867762267,-0.9632212739896029
1789572008611419000,10.6414189453125,0.4680208318531513,-0.782176943770796,-1.0618351582810281
1789572008621465000,10.651465087890625,0.5956389115065336,-0.7865851156018674,-1.0961913821954279
1789572008631509800,10.661509765625,0.7998089004427195,-0.8050048616506159,-1.0555851579755544
1789572008641555700,10.6715556640625,0.9027204088628291,-0.8469018563333899,-0.9263738177813589
1789572008651601700,10.6816015625,0.842223562324047,-0.7606564552277326,-0.7050694464318454
1789572008661648000,10.69164794921875,0.598985883846879,-0.5822486840575933,-0.45330447036698457
1789572008671693800,10.70169384765625,0.18279577699601648,-0.48524296561516816,-0.31514614586830136
1789572008681738800,10.71173876953125,-0.26506781749129293,-0.3053016282021999,-0.15474895542412995
1789572008691785000,10.721784912109374,-0.5585878224849701,-0.14825710918679832,0.025990400498732923
1789572008701831000,10.731830810546874,-0.8385323065906762,-0.10456972395591438,0.10539879519119857
1789572008711876900,10.741876953125,-1.1023533388912676,-0.08900522120781243,-0.03157565328516066
1789572008721922800,10.7519228515625,-1.295737145397067,-0.044312458326667546,-0.1853515989586711
1789572008731968800,10.76196875,-1.4628694893151521,-0.025155045653134582,-0.23629896525517105
1789572008742013700,10.772013671875,-1.554771527943015,0.024417232897877693,-0.163754976439476
1789572008752059600,10.7820595703125,-1.6936784788519144,0.046948359788209194,-0.11167356461174785
1789572008762105600,10.792105712890624,-1.8649194271326064,0.05916457502171397,-0.14398403497748077
1789572008772151800,10.80215185546875,-2.062823341411352,0.09060805329456925,-0.1444805132575333
1789572008782197800,10.81219775390625,-2.1866648251354692,0.16548472284153104,-0.07688574434705078
1789572008792243700,10.82224365234375,-2.2238357411444185,0.1450434078373015,0.007446589678898453
1789572008802288600,10.83228857421875,-2.335612108543515,0.01136734331920743,-0.056313204178586596
1789572008812334600,10.84233447265625,-2.407687164673209,-0.08408756548464298,-0.2493960549764335
1789572008822380500,10.852380615234376,-2.423255905205011,-0.15500614505559204,-0.4222404563983902
1789572008832426500,10.862426513671876,-2.4269880774706603,-0.209369311144948,-0.5854558095358312
1789572008842472400,10.872472412109374,-2.4063117846667765,-0.2461496204011142,-0.7862145287238061
1789572008852518700,10.8825185546875,-2.311033547604084,-0.2844090622991323,-0.9436333609443157
1789572008862563600,10.8925634765625,-2.204597372189164,-0.3148044928237796,-0.944229207945615
1789572008872609500,10.902609619140625,-2.065924814558029,-0.262579800067842,-0.7964980223290622
1789572008882655700,10.91265576171875,-1.8301064724266527,-0.1456320213802159,-0.49313726252894846
1789572008892701700,10.92270166015625,-1.6541992859005927,-0.12520619620606302,-0.2805049310000613
1789572008902747600,10.93274755859375,-1.3646195429652928,-0.03787964880019426,-0.09270297974720597
1789572008912792600,10.94279248046875,-1.0418266817361115,-0.045065030259639025,0.052583771859295664
1789572008922838800,10.9528388671875,-0.8548790457576513,-0.2004506761521101,-0.019106924595311284
1789572008932884700,10.962884765625,-0.736761200377345,-0.35463191469088196,-0.20144052743967622
1789572008942930700,10.9729306640625,-0.7445423557728529,-0.4591153486028313,-0.32979159754272547
1789572008952976600,10.9829765625,-0.7818021191090345,-0.5227084075912833,-0.34620449728108943
1789572008963022600,10.993022705078126,-0.7177449497401714,-0.5354290652155875,-0.30777612855695186
1789572008973067800,11.00306787109375,-0.6059808573007583,-0.5975583352617919,-0.25186938628740607
1789572008983113500,11.013113525390626,-0.4665186105966568,-0.6462851028993726,-0.1839583179693669
1789572008993159400,11.023159423828124,-0.2509428460270166,-0.5703440189912915,-0.11474340051114558
1789572009003205600,11.03320556640625,0.05200198991596698,-0.5019415138944984,0.07334785254448652
1789572009013251600,11.04325146484375,0.2387052957445383,-0.500602228114754,0.2764875485848635
1789572009023297500,11.053297607421875,0.221372468149662,-0.5355564909875392,0.3738007986065
1789572009033342700,11.0633427734375,0.14179974974095821,-0.5357780247837305,0.4498104177061468
1789572009043388700,11.073388671875,0.24135142633914947,-0.3944593365579843,0.5778147932633757
1789572009053434600,11.0834345703125,0.5514145698547362,-0.3366071593090892,0.7629989267006516
1789572009063480600,11.09348046875,1.0013467873096467,-0.4124180409662425,0.875548835755512
1789572009073526500,11.103526611328125,1.6064187130719423,-0.5041620394881814,0.8015379161924123
1789572009083572700,11.11357275390625,2.283433008494973,-0.5868439759586006,0.7547522726852446
1789572009093617700,11.12361767578125,3.0166964298844334,-0.7454602012701332,0.8147408774409443
1789572009103663600,11.13366357421875,3.7267782976508137,-0.863414307456091,0.96660697090514
1789572009113709600,11.14370947265625,4.306479635313153,-0.9078663203839212,1.1445355071909724
1789572009123755800,11.153755859375,4.636768989777565,-0.9676968119684606,1.2338989672519265
1789572009133801700,11.1638017578125,4.709523844864965,-0.9990876102060079,1.3323556882202625
1789572009143846700,11.1738466796875,4.517220819333195,-1.0154601414013653,1.3715120789580046
1789572009153892900,11.183892822265625,4.033851027178764,-1.006751349766925,1.3621512531556188
1789572009163938800,11.193938720703125,3.4472686978310345,-0.942758697001636,1.3007837612621485
1789572009173984500,11.203984619140625,2.846357398879528,-0.8459839377708732,1.2446918716840445
1789572009184030500,11.214030517578125,2.457147068890929,-0.7658323965609073,1.3257723643071948
1789572009194076400,11.224076416015626,2.234120403793454,-0.6451406090393662,1.4842074608981608
1789572009204121600,11.23412158203125,2.006945971366763,-0.49592627219296986,1.5363149570152164
1789572009214167600,11.24416748046875,1.699499732351303,-0.327226459762454,1.5346768344193695
1789572009224213500,11.254213623046875,1.3486334538042544,-0.13920447255074977,1.5152316908456385
1789572009234259700,11.264259765625,0.9378466673016548,0.01436257961243391,1.4662500716641544
1789572009244305700,11.2743056640625,0.4830611645966768,0.13001980703286825,1.4540057993799447
1789572009254351600,11.2843515625,-0.0005558803170919418,0.2566740100901574,1.4686965880334377
1789572009264396500,11.294396484375,-0.4958493344992399,0.37884748753681774,1.398680656390637
1789572009274442800,11.30444287109375,-0.9458324053585528,0.4877445001073181,1.2656775226980448
1789572009284488700,11.31448876953125,-1.3834440704226494,0.5207170876435935,1.1454494071654975
1789572009294534700,11.32453466796875,-1.902915688049793,0.5283082734249532,0.9276886267069727
1789572009304580600,11.33458056640625,-2.3205162462204694,0.5861404307991266,0.7025191774271429
1789572009314626800,11.344626708984375,-2.5184721829473973,0.6029280456013977,0.5175706428440288
1789572009324671700,11.354671630859375,-2.6548393862456083,0.4903703185662627,0.31102997925374654
1789572009334717700,11.3647177734375,-2.690636675813794,0.3910411986775696,0.0568100477848202
1789572009344763600,11.374763671875,-2.6377386138409373,0.2647057061806321,-0.2068849469833076
1789572009354809900,11.384809814453124,-2.5422704071640965,0.11725801368057727,-0.4102309427181259
1789572009364855600,11.39485546875,-2.433823476448655,0.020832798539847135,-0.5678378083240241
1789572009374901500,11.404901611328125,-2.357264552903175,-0.04766249940693378,-0.7880597181990743
1789572009384946700,11.41494677734375,-2.170032839286327,-0.024322686482220888,-0.9664175127476453
1789572009394992600,11.42499267578125,-1.8879051659226416,0.017412322571873664,-1.0213532180279492
1789572009405038600,11.43503857421875,-1.6040502303749322,0.035802988656610246,-0.9278621566429733
1789572009415084500,11.44508447265625,-1.2645008801341056,0.10322349697872996,-0.7342670454740524
1789572009425130500,11.455130615234374,-1.0520324339300393,0.19751286913454533,-0.5178530034493655
1789572009435176700,11.4651767578125,-1.0442185453087092,0.22849632868021724,-0.418764633513987
1789572009445221600,11.4752216796875,-1.2055407416433095,0.25029139638096093,-0.5244955467363819
1789572009455267600,11.485267578125,-1.4064748173981905,0.3135363725841045,-0.6666133129179477
1789572009465313800,11.495313720703125,-1.5313088192909956,0.41712563413530584,-0.8141400620035827
1789572009475359700,11.50535986328125,-1.5941870080083607,0.5283696482233703,-0.9595045184887945
1789572009485405700,11.51540576171875,-1.5511018995195627,0.5853961883030832,-0.992489965506643
1789572009495451600,11.52545166015625,-1.43508482581079,0.6188166657373309,-0.9359268051549792
1789572009505496800,11.535496826171874,-1.2528373303472995,0.6950478186331689,-0.8370233633324503
1789572009515542800,11.545542724609374,-1.039869702449441,0.7171928688153624,-0.7036082878381014
1789572009525588700,11.555588623046875,-0.8475567400455475,0.7613312857493758,-0.48226292689107353
1789572009535634700,11.565634765625,-0.5277899486392736,0.8539765439599752,-0.21145594469327478
1789572009545680600,11.5756806640625,-0.1684381658196449,0.8840238916993141,0.17304379645157605
1789572009555726600,11.5857265625,0.09776011700630187,0.8601562555082142,0.506389287083596
1789572009565771500,11.595771484375,0.01298047760426998,0.704896720213443,0.4300773605691269
1789572009575817500,11.6058173828125,-0.22245208007991313,0.5615219762407243,0.06514441661629826
1789572009585863700,11.61586376953125,-0.4418436035454273,0.42264191333875056,-0.3368922233281657
1789572009595909600,11.62590966796875,-0.5549935973852873,0.2896244588598609,-0.5615683361331001
1789572009605955600,11.63595556640625,-0.5330459694713354,0.18928791549429297,-0.6415813091225921
1789572009616000800,11.646000732421875,-0.37909459416568275,0.11513605309054255,-0.5952258737262338
1789572009626046700,11.656046630859375,-0.11014321323931217,0.026451369073987006,-0.5508355643903836
1789572009636092700,11.6660927734375,0.1168430031388998,-0.1471045781508088,-0.5988256883164867
1789572009646138600,11.676138671875,0.2362771918147802,-0.2811009606644511,-0.6757236710906028
1789572009656184600,11.6861845703125,0.2589186472117901,-0.3194631322845816,-0.7310203186377883
1789572009666230800,11.696230712890625,0.35109658017158507,-0.3342338543064892,-0.7883785748898983
1789572009676275700,11.706275634765625,0.5441290890216827,-0.40331718127429483,-0.9564039221249521
1789572009686321700,11.71632177734375,0.8661831145823001,-0.43031785479411483,-1.1972338088080285
1789572009696367600,11.72636767578125,1.384964411857724,-0.3733987206116319,-1.3410985282547772
1789572009706413800,11.736413818359376,2.0546090552955865,-0.35381183047965165,-1.1595995861362665
1789572009716459800,11.746459716796876,2.7404823644787073,-0.35319070290662347,-0.8200034010790288
1789572009726505700,11.756505615234374,3.3168191941440104,-0.39522242988497014,-0.42284401178210973
1789572009736550700,11.766550537109374,3.6694524823635812,-0.4818515696112066,-0.10064206565078347
1789572009746596900,11.776596923828125,3.7376778773277994,-0.5399386515945196,0.03773921741619706
1789572009756642800,11.786642822265625,3.53689051656723,-0.592535173337534,-0.07395604757070541
1789572009766688800,11.796688720703125,3.0633816086918113,-0.711730073364824,-0.43208358582500367
1789572009776734700,11.806734619140625,2.3409604838341473,-0.8368782557733356,-0.8222628704436122
1789572009786781000,11.816781005859376,1.5762784263521432,-0.8129177536670118,-1.0151542172573507
1789572009796825900,11.826825927734374,1.0052005401283501,-0.6398597460269928,-0.9904675928335637
1789572009806871600,11.83687158203125,0.561187775850296,-0.47521907279416914,-0.8786902025211601
1789572009816917800,11.846917724609375,0.24730828891694545,-0.34791195878610015,-0.7810586803305893
1789572009826963700,11.856963623046875,0.10985095229446887,-0.30119726162329313,-0.8447570263244211
1789572009837009700,11.867009765625,0.21169395470023153,-0.38291334873624144,-1.0330757314603776
1789572009847055600,11.8770556640625,0.5814852984696627,-0.5779443379271775,-1.2686400257654487
1789572009857100800,11.887100830078126,1.0583961237430572,-0.860957123562321,-1.3855565325319765
1789572009867146800,11.897146728515626,1.4841367337495088,-1.1209223572175948,-1.4952049479916691
1789572009877192700,11.907192626953124,1.7174217580109834,-1.306446901590377,-1.5567700082838534
1789572009887238700,11.91723876953125,1.6033388672351836,-1.429485252238065,-1.558266384321451
1789572009897284900,11.927284912109375,1.1919757421493529,-1.3828146864779294,-1.524992768011987
1789572009907330800,11.937330810546875,0.6725923873275518,-1.1758550668232142,-1.2726453158840536
1789572009917375700,11.947375732421875,0.3185825500577688,-0.9200744253762065,-0.802110309252888
1789572009927421700,11.957421630859375,0.11980769816339015,-0.7494177067242562,-0.37978462225645776
1789572009937468000,11.967468017578126,-0.018153496327996253,-0.6672665161296725,-0.17488127754442392
1789572009947513900,11.977513916015624,-0.07501461671292782,-0.5928627247914672,-0.11393230332396924
1789572009957559800,11.987559814453125,-0.14005202929079533,-0.5535840228483081,-0.12673769835596904
1789572009967605800,11.997605712890625,-0.2752747387290001,-0.5663182706065476,-0.24852230434920639
1789572009977651000,12.00765087890625,-0.4572720588237047,-0.5647936913877726,-0.37235224376600234
1789572009987697000,12.01769677734375,-0.6801356423139572,-0.5444179889656603,-0.4081734621990472
1789572009997742600,12.02774267578125,-0.9086854547470807,-0.42713834797516465,-0.3619292686248198
1789572010007788500,12.03778857421875,-1.0301204618513584,-0.27849443142786623,-0.15302558396393431
1789572010017834800,12.047834716796874,-1.2024965516418218,-0.15101590637564657,0.16828578826952725
1789572010027880700,12.057880615234374,-1.4623872587561606,-0.028597733452916142,0.3724561790645122
1789572010037925600,12.067925537109375,-1.8139228148669004,0.08798544970601796,0.48720458454433824
1789572010047971800,12.077971923828125,-2.2217601039141415,0.21138474262058735,0.509805452202633
1789572010058017800,12.088017822265625,-2.6020260799467563,0.33999855531305073,0.4820645913073793
1789572010068063700,12.098063720703125,-2.8721681319624186,0.4264348758809268,0.4299100411782041
1789572010078109700,12.108109619140626,-3.0330373238325117,0.40852088739722964,0.35719237629603595
1789572010088155600,12.11815576171875,-3.1354227625519036,0.34718759003430605,0.19804102119449524
1789572010098200800,12.128200927734374,-3.2195664421379564,0.26259704346358775,0.001853226651251316
1789572010108246800,12.138246826171875,-3.17368030475378,0.1953606595367193,-0.1813499255692586
1789572010118292700,12.148292724609375,-3.022195611822605,0.127775316041708,-0.2990426774052903
1789572010128338700,12.158338623046875,-2.854231493255496,0.03433540032207966,-0.3377126363329589
1789572010138385000,12.168385009765625,-2.5835569417983293,0.018093290573358536,-0.2962895793048665
1789572010148429800,12.178429931640625,-2.2730518997341393,-0.023133915089070797,-0.20035214768107978
1789572010158475800,12.188475830078126,-1.9914877054721116,-0.1010486371576786,-0.10565768358940258
1789572010168522000,12.19852197265625,-1.7544886291235684,-0.16709785712659359,-0.062903049163986
1789572010178568000,12.20856787109375,-1.5589496904104947,-0.22425182297825813,0.029775015337672083
1789572010188613600,12.218613525390625,-1.3887141197800636,-0.27553572775274515,0.18875748014571145
1789572010198659600,12.22865966796875,-1.2092571318179368,-0.31897534876763817,0.28831167749455194
1789572010208705500,12.23870556640625,-1.1098393107324838,-0.4212272242352366,0.30217885653916743
1789572010218750700,12.248750732421875,-0.9714280343860388,-0.48601972214132544,0.3818206946613267
1789572010228796700,12.258796630859376,-0.7055272732019424,-0.5667424873679876,0.4958393976271152
1789572010238842600,12.268842529296874,-0.2966846065044403,-0.6239709797605871,0.5471945044742896
1789572010248888800,12.278888916015624,0.120977326464653,-0.669406450767815,0.6232204536542296
1789572010258934800,12.288934814453125,0.4445002555340528,-0.7512310397565365,0.7118530421573668
1789572010268980700,12.298980712890625,0.6157721834748983,-0.7731807134971023,0.8702567206967622
1789572010279026000,12.30902587890625,0.5512175859779119,-0.6924069487355649,1.0783826807171106
1789572010289071900,12.31907177734375,0.41743864560723304,-0.442923069345206,1.2176191558413207
1789572010299117800,12.329117919921876,0.4135597583472728,-0.23979732876494525,1.3145305470637976
1789572010309163800,12.339163818359374,0.552677721658349,-0.23972382513731716,1.2712806034021078
1789572010319209700,12.349209716796874,0.8392980302661657,-0.2919444262400269,1.056277816414833
1789572010329255000,12.3592548828125,1.330392863714695,-0.36528687195703385,0.884695872676745
1789572010339300900,12.36930078125,1.948418379074335,-0.4725931082047522,0.8789975879698991
1789572010349346800,12.379346923828125,2.698219678288698,-0.5990545651689172,0.9264140036612749
1789572010359392800,12.389392822265625,3.436350413453579,-0.7530107627801597,1.044026822128892
1789572010369439000,12.39943896484375,4.15743415222764,-0.9208978705883025,1.2639951225690542
1789572010379484700,12.409484619140626,4.7524295051336285,-1.0136159748394042,1.4757124581448733
1789572010389529600,12.419529541015624,5.025844295209646,-1.0645768582046031,1.5796166308641433
1789572010399575800,12.429575927734374,4.841023734387755,-1.077585758185759,1.5285786636747418
1789572010409621800,12.439621826171875,4.193804857769608,-0.9593861528061329,1.3822766340784727
1789572010419667700,12.449667724609375,3.3503011925071475,-0.6616428310289979,1.2805685100987554
1789572010429713700,12.459713623046875,2.657944951045513,-0.33598990419358016,1.2446553390659392
1789572010439759600,12.469759521484375,2.126488881114125,-0.0715883685912937,1.4211946860156952
1789572010449805800,12.479805908203126,1.6591911028385162,0.22576098543219267,1.6682564528256654
1789572010459850800,12.489850830078124,1.254389820486307,0.5120983854454011,1.809980799242854
1789572010469896700,12.499896728515624,0.7965893538743257,0.6972152988653629,1.8081667355582116
1789572010479943000,12.50994287109375,0.30183249078691005,0.8149611691281199,1.7253315082222223
1789572010489988900,12.51998876953125,-0.23717735552489755,0.8786514048807322,1.6215888096749782
1789572010500034800,12.530034912109375,-0.7363561267077923,0.957319575665146,1.5005902942918241
1789572010510080800,12.540080810546876,-1.1553788266360758,0.9990373413234949,1.3540508026778697
1789572010520126000,12.5501259765625,-1.5089935271084307,0.9305714156016707,1.156573150987178
