time,seconds_elapsed,z,y,x
1789483391009381600,0.047381591796875,0.36972295470833777,-0.2630835848715156,0.08853226993381977
1789483391019431700,0.057431640625,0.3361123615294695,-0.1057506773687899,0.13497165728658436
1789483391029480700,0.067480712890625,0.6773878049105405,0.02692074015140533,0.4367768216751516
1789483391039529500,0.077529541015625,1.2261919000059365,0.09704992291033267,0.7777809007689356
1789483391049578800,0.087578857421875,1.7158920642256736,0.08454802260324358,1.092519781010598
1789483391059628500,0.097628662109375,1.4878671524494886,0.01558583779707551,1.5133433928810058
1789483391069677600,0.107677490234375,0.9309282662153243,-0.06614581221118569,1.312492465364933
1789483391079726600,0.1177265625,0.3433779686182737,-0.17345745528638362,0.8215005077689885
1789483391089776600,0.127776611328125,-1.912405400928855,-0.10743073941022158,-0.07487623115554451
1789483391099825700,0.13782568359375,-2.4375632474988698,-0.231130184315145,-0.5682812412425875
1789483391109874400,0.14787451171875,-2.937798249736428,-0.6311690745711326,-0.789041130451858
1789483391119923700,0.157923828125,-2.857659714138508,-1.0711313944146037,-0.795218065521121
1789483391129973800,0.167973876953125,-2.832166376441717,-1.2377338692396878,-0.8650564486399293
1789483391140022500,0.1780224609375,-2.5857968296796083,-1.297503278286755,-0.7391358205541968
1789483391150071600,0.188071533203125,-4.679369529619812,-0.7819327597513794,-0.6223034849397838
1789483391160121600,0.19812158203125,-4.31439406169951,-0.4637091061338782,-0.3191017516262829
1789483391170170600,0.208170654296875,-2.937513587576151,-0.7801260025903582,0.011052578281611204
1789483391180219600,0.2182197265625,-2.418621231141686,-0.9749974173054099,-0.1452614345021546
1789483391190268400,0.228268310546875,-1.5513742867201565,-1.045017002210021,-0.3698340138673782
1789483391200318500,0.238318359375,-1.1635106951653957,-1.205562368953228,-0.45882250313609835
1789483391210367700,0.24836767578125,-1.2400491604447363,-1.2966142204925417,-0.4425806856483221
1789483391220416500,0.25841650390625,-1.8534236351281403,-1.1474886579081416,-0.4611726464588195
1789483391230465500,0.268465576171875,-1.9819220047473907,-0.8343101588509977,-1.1122672685317694
1789483391240515600,0.278515625,-0.7580769601285458,-0.54665188549757,-1.5882891821414231
1789483391250564600,0.288564697265625,-0.809423701006174,-0.36667291948795316,-1.6746562368653715
1789483391260613600,0.298613525390625,2.786801632583141,-0.02686637961566448,0.33775786371417343
1789483391270663400,0.308663330078125,3.3919431164503098,0.14694778015390036,0.8432454527176916
1789483391280712700,0.318712646484375,3.0754309429258107,0.21489859596043823,1.1164139398824422
1789483391290761500,0.328761474609375,2.4330969157397746,0.14941095539703964,1.0164541208747773
1789483391300810500,0.338810546875,1.4551958859473466,0.08315320724397897,0.6784799109961838
1789483391310860500,0.348860595703125,0.6694488286048174,0.15569398118928074,1.1897434530526398
1789483391320909600,0.35890966796875,0.3302466843664646,0.0445605878688395,2.11140996992588
1789483391330958600,0.36895849609375,-0.060703767287731164,-0.0441150360584259,2.2427887172870338
1789483391341008600,0.379008544921875,-0.3701099081993103,0.14117562649324536,1.6965866213835774
1789483391351057400,0.389057373046875,-0.35601883900463577,0.09130889504030347,1.593379198756814
1789483391361106700,0.399106689453125,-0.3778624220222235,0.4303536567598581,0.9515482257220893
1789483391371155500,0.409155517578125,-0.5743284124523401,0.3609631635390222,0.6986486196041107
1789483391381205500,0.41920556640625,-0.5925269169658423,-0.01574219740256667,0.6960030004661529
1789483391391254800,0.4292548828125,-0.9365437680095433,-0.3350938321366906,0.8230427687749267
1789483391401303600,0.439303466796875,-1.4186638523638249,-0.37924788503125306,0.7990586665973067
1789483391411352600,0.4493525390625,-1.5651830318421125,-0.07503259076103568,0.6352742448676377
1789483391421402600,0.459402587890625,-1.5874328575730323,0.2656291046358645,0.360334071855247
1789483391431451600,0.46945166015625,-1.7443261315494776,0.7536037602372467,0.32726591499000784
1789483391441500700,0.479500732421875,-1.9269319389313457,1.1228522293016314,0.20111330477930603
1789483391451550500,0.489550537109375,-1.9557430228739976,1.0777467209011315,-0.1511281345784664
1789483391461600300,0.499600341796875,-2.03789231377244,0.8334989885985851,-0.19688786910399794
1789483391471649500,0.5096494140625,-2.534712539130449,0.3999211090952158,-0.13690218695774672
1789483391481698300,0.5196982421875,-3.015235709682107,-0.1973547559633851,0.2328631455875933
1789483391491748400,0.529748291015625,-3.7163679627954957,-0.92503365521878,0.8264717203103006
1789483391501797400,0.53979736328125,-4.482566854581236,-1.8240718684375286,1.0190892186187208
1789483391511846400,0.549846435546875,-4.879463647419214,-2.714132409952581,0.815927091550827
1789483391521896400,0.559896484375,-5.3965089146822685,-2.942850564689934,0.28487580302804705
1789483391531945200,0.5699453125,-5.748369464963674,-2.9648350174829363,-0.4638771561771631
1789483391541994200,0.579994140625,-5.900432834565639,-2.942781591106951,-0.5918807280167937
1789483391552043500,0.59004345703125,-5.567846309074759,-2.064183523848653,0.13242723350077867
1789483391562093300,0.60009326171875,-4.648174765411019,-1.3350623168304563,0.9583341595351695
1789483391572142300,0.610142333984375,-3.7036347379505634,-1.3359864459380506,1.782720159612596
1789483391582191000,0.620191162109375,-2.8183669836699963,-1.3313880122318864,2.783351199868321
1789483391592240400,0.630240478515625,-1.9121885433077812,-1.0766878594979643,3.1190257545024154
1789483391602290400,0.64029052734375,-1.5902654506504534,-1.0640490349382161,2.7116724495798348
1789483391612339200,0.650339111328125,-0.06779401780962943,-0.7046227255776524,2.9322359394341704
1789483391622388500,0.660388427734375,0.1875233900398016,-1.1221896737396717,2.25040869077146
1789483391632438500,0.6704384765625,-0.7749754879593849,-2.4124776138201356,0.452340447640419
1789483391642487300,0.6804873046875,-2.283800088241696,-3.3954005634278057,-0.5452133771270513
1789483391652536300,0.690536376953125,-3.3681583362370726,-4.119544566555321,-0.5323457122474908
1789483391662585300,0.70058544921875,-3.6040304543823,-4.640879347705841,-0.45739597746431826
1789483391672635400,0.710635498046875,-3.341016062289476,-5.017797182354331,-0.7192921791821718
1789483391682684400,0.720684326171875,-2.723097514435649,-5.355790535324812,-0.5753834744632244
1789483391692733200,0.730733154296875,-1.800053279468417,-5.775476083076,-0.08795300874114036
1789483391702782500,0.740782470703125,-0.6617828240215778,-6.058506258237362,0.647664282298088
1789483391712832300,0.750832275390625,0.9432575864344834,-6.200850197857618,1.616324021014571
1789483391722881300,0.76088134765625,2.928720040267706,-6.468105296260118,2.2170137861698866
1789483391732930300,0.770930419921875,4.053457352663576,-6.708487000784277,2.4574410834014415
1789483391742980400,0.78098046875,3.765346805498004,-6.75911711782515,3.076780603969097
1789483391753029400,0.791029296875,3.5054140128076074,-6.724090812629461,3.4306232679784294
1789483391763078100,0.801078125,3.3564871876657008,-6.52388388210535,3.436457965481281
1789483391773127400,0.81112744140625,2.807050639885664,-6.098519704195857,3.842779004746675
1789483391783177500,0.821177490234375,2.297166350293159,-5.640815683695673,4.600713926056027
1789483391793226200,0.831226318359375,2.3647873496234415,-4.987573893526196,5.512108639761805
1789483391803275300,0.841275146484375,2.733386853259802,-3.776099962441623,6.48227644495368
1789483391813325300,0.8513251953125,2.547534611302614,-2.585760589322448,7.96883485289216
1789483391823374300,0.861374267578125,2.5243594874203206,-1.2091693074040115,9.6728155300498
1789483391833423400,0.87142333984375,2.9489129334688187,0.5918515019223094,10.952294199085236
1789483391843472100,0.88147216796875,2.8873031572520733,2.728649303343892,12.24314883313775
1789483391853522200,0.891522216796875,1.7898633093655107,4.499239172440767,13.237799337679148
1789483391863571500,0.901571533203125,0.4653939539482817,5.803839423251151,13.933783706510066
1789483391873620200,0.9116201171875,-0.6056214494038373,6.63231678429544,14.574515559196472
1789483391883669500,0.92166943359375,-1.7314070287436245,7.482775091001391,15.246898103165625
1789483391893719600,0.931719482421875,-3.4351386995762585,8.795394397616386,15.448885487365722
1789483391903768300,0.941768310546875,-5.399242139038443,10.166558832180499,14.418448214650153
1789483391913817300,0.9518173828125,-7.108333291077614,11.087691680568456,12.570578121995926
1789483391923867100,0.9618671875,-8.398608663937448,10.8259486235857,10.649905827981232
1789483391933916400,0.97191650390625,-8.86027106667459,9.734664960241318,8.672593362855912
1789483391943965400,0.98196533203125,-9.545624735897778,8.32344967031777,6.763998460125923
1789483391954014200,0.99201416015625,-9.978891065233945,7.001614791589975,5.211296139672398
1789483391964064300,1.002064208984375,-10.134003301012516,5.527928724706173,3.5000182912439106
1789483391974113300,1.01211328125,-10.185306787270306,3.9019630151212215,1.702444553631544
1789483391984162300,1.022162353515625,-11.487383072561025,0.9082154991477728,-0.9673919107377529
1789483391994212400,1.03221240234375,-11.179282753551005,-2.237546578849852,-3.5573341696590184
1789483392004261400,1.042261474609375,-8.410921033021808,-3.5814857373580335,-4.503089418128132
1789483392014310400,1.052310302734375,-5.9822945406943555,-2.1261796690344807,-4.365020087087154
1789483392024359200,1.062359130859375,-2.8625390106126662,-0.6216209095031022,-2.791561394330859
1789483392034409200,1.0724091796875,-1.8118566761173307,-0.53300943685323,-2.886621020206809
1789483392044458500,1.08245849609375,-1.289440967862308,-0.4467936271682381,-2.8236703507751226
1789483392054507300,1.09250732421875,-1.5838970846623182,-0.37891222333610053,-2.5688474484443664
1789483392064557300,1.102557373046875,-1.386845549429208,-1.4337816342577336,-4.16808355653584
1789483392074606300,1.1126064453125,-0.9187643656909465,-2.4064666829675434,-5.064429754191637
1789483392084655400,1.1226552734375,0.08070376826524735,-3.684453944401443,-5.686023191165924
1789483392094704400,1.132704345703125,0.06633505117297173,-4.602974272203445,-5.844217610868811
1789483392104754400,1.14275439453125,-0.9113760090053081,-5.079269595926999,-6.145481946378946
1789483392114803200,1.15280322265625,-0.8336702535122632,-5.11185026153624,-6.170933783021569
1789483392124852500,1.1628525390625,-0.8748945365652442,-3.602462182152271,-4.890080903023481
1789483392134901200,1.1729013671875,-1.4881928772725164,-2.6450381231993436,-4.125608688899875
1789483392144951300,1.182951416015625,-2.7475357901215554,-0.8983348872549831,-2.140922480136156
1789483392155000600,1.19300048828125,-3.6036528532415626,2.8263638276427985,1.1140677420824765
1789483392165049300,1.20304931640625,-2.4305806951351463,6.09165040294826,4.176015518578887
1789483392175099400,1.213099365234375,-2.2078327008485794,9.993284332245588,7.253535542738438
1789483392185148200,1.223148193359375,2.963918194898963,12.670116354590654,7.832127457854151
1789483392195197400,1.233197509765625,2.8264433226197956,10.371413880771398,5.50792229398787
1789483392205246500,1.24324658203125,-1.0387141026735305,6.918216961935162,4.204363076663017
1789483392215296300,1.253296142578125,-2.422819851875305,5.491102092090249,1.4015654180467128
1789483392225345300,1.26334521484375,-3.5728409508705137,2.5423288593530655,-3.5722932538598773
1789483392235394300,1.273394287109375,-2.748942149788141,-0.569329435121268,-6.013215748658776
1789483392245444400,1.2834443359375,0.38245040739960967,-2.635428583332896,-5.106154095721244
1789483392255493400,1.293493408203125,1.7278699406586586,-3.04169409301877,-4.763042669084668
1789483392265542100,1.303542236328125,1.5772795662187038,-1.9370333539679645,-4.983143802124261
1789483392275591400,1.31359130859375,1.0441010564088822,-1.333107967892289,-5.066248201790452
1789483392285641500,1.323641357421875,-2.4207553205609322,-1.5802359318062662,-4.158924683046341
1789483392295690200,1.333690185546875,-4.651427629727125,-2.036318196323514,-4.031913921636343
1789483392305739500,1.343739501953125,-3.5813249938383698,-3.3900469274401663,-3.673050799116492
1789483392315788300,1.353788330078125,-0.7872806966505944,-5.4152434257686135,-5.129951150894165
1789483392325838300,1.36383837890625,1.2775208129659295,-7.079839602521061,-6.996807683569193
1789483392335887400,1.373887451171875,2.476013681924343,-7.424708101958036,-5.398882073554397
1789483392345936400,1.383936279296875,2.844082147423923,-5.894923715755343,-1.286076167604327
1789483392355986400,1.393986328125,3.3423730298563834,-5.404200638228654,-0.7871165921300649
1789483392366035200,1.40403515625,3.5917353286936877,-5.19641128975153,-0.7017571070134639
1789483392376084200,1.414084228515625,-3.9059889096364375,-5.328267737627029,-3.433052540951967
1789483392386133500,1.424133544921875,7.71929661296606,0.5119311391197144,14.712497796475887
1789483392396183300,1.434183349609375,-1.4595453133285046,6.3337459256529804,19.963643715977668
1789483392406232300,1.444232421875,-2.6080209364473816,8.498227560552953,9.92518636305332
1789483392416281300,1.45428125,-3.844294085484743,7.770058831954002,8.615148889625072
1789483392426331400,1.464331298828125,-4.063696714866161,5.133737099173665,10.910470488834381
1789483392436380400,1.47438037109375,-1.714834079605341,3.890536781221628,10.266752898335456
1789483392446429200,1.48442919921875,-3.3909719333305954,3.836697346745431,9.582340309354663
1789483392456478500,1.494478515625,-4.7730990759357805,3.41514279025197,9.81379051940441
1789483392466527700,1.50452783203125,-3.920556364171207,3.1495220150530336,8.473662443616986
1789483392476576500,1.514576416015625,-2.3530104025900362,4.138604948595166,7.357646490076184
1789483392486625800,1.524625732421875,0.45612902626842255,6.551819352257251,6.940548036208749
1789483392496674600,1.534674560546875,1.1960276478886605,8.862114064192772,6.41686903001964
1789483392506724600,1.544724609375,0.011854103922843933,8.030275702282786,4.92592846147418
1789483392516773600,1.554773681640625,-2.4913503672659396,4.328214497259259,1.5270125834017991
1789483392526822700,1.56482275390625,-2.925899137628078,4.347326609486341,1.450239724844694
1789483392536872700,1.574872802734375,-3.045196548181772,-1.7968141514167189,-4.111826247262955
1789483392546921700,1.584921630859375,-3.4531787986576554,-1.7066406901471316,-4.134973314094543
1789483392556970500,1.594970458984375,-2.0746704310715196,-5.277616577798128,-9.859588978505133
1789483392567019800,1.605019775390625,-0.9134136523127555,-7.486956760600209,-13.848976594579218
1789483392577069600,1.615069580078125,0.17341244710087775,-8.460792440649866,-15.55674146645069
1789483392587118600,1.62511865234375,-0.2427572014838457,-7.951735249531269,-15.738636495214699
1789483392597167600,1.635167724609375,-1.9186299745321274,-6.003029285687208,-14.096508755379915
1789483392607217700,1.6452177734375,-3.3519279169261456,-3.368914707562327,-11.421648909890651
1789483392617266700,1.6552666015625,-3.3006846364229916,-0.9445055406689643,-9.566880289894343
1789483392627315500,1.6653154296875,-2.668883109167218,1.0019488448560236,-7.565251129636168
1789483392637364700,1.67536474609375,-2.121554347321391,2.3717045816659925,-5.295187305802107
1789483392647414800,1.685414794921875,-1.2949800434194505,2.6930197715580464,-2.7247096258074044
1789483392657463600,1.695463623046875,0.7733902645945548,2.6350533202797175,0.12485796729028224
1789483392667512600,1.7055126953125,1.9395237094789741,1.3774135580867528,2.7646844933211803
1789483392677562600,1.715562744140625,-0.7586129667013883,-0.5736211409658193,4.740086156389117
1789483392687611600,1.725611572265625,-0.7485077522724867,-1.9966110398352146,4.956939685809612
1789483392697660700,1.73566064453125,1.4030425048619508,-0.48785190600454803,4.368814218673109
1789483392707709400,1.74570947265625,3.1316455821007487,0.4085457295775413,3.3245348830878734
1789483392717759500,1.755759521484375,4.793974398443103,-0.3615080840706825,2.0664929698348042
1789483392727808800,1.765808837890625,5.85365647034347,0.5612514887362718,1.0382435625523327
1789483392737857500,1.775857421875,5.42539423290491,2.2070669771730898,0.004916413614153862
1789483392747906600,1.785906494140625,3.791756088995933,2.022087426397204,-0.46893911574184893
1789483392757956600,1.79595654296875,0.6221352887660264,1.090390513896942,-0.2891518729120493
1789483392768005600,1.806005615234375,-1.4449106387764215,1.1625263603031635,-0.4433326730594039
1789483392778054700,1.8160546875,-2.755337403783202,1.444362941765785,-0.6140533968582749
1789483392788104400,1.8261044921875,-3.6018887661784884,1.5491192012697457,0.19671236640661954
1789483392798153700,1.83615380859375,-3.292410729074478,1.1365917085796593,1.2184934544578194
1789483392808202500,1.846202392578125,-2.244829429334402,1.0772364332914353,1.5373267644062638
1789483392818251500,1.85625146484375,-2.119059023374319,2.0485142455518246,1.736896858331561
1789483392828301600,1.866301513671875,-2.981201922655105,3.676885847234726,1.0905106331452727
1789483392838350600,1.8763505859375,-2.8978233822226525,4.1026223655879495,1.1210445953577757
1789483392848399600,1.886399658203125,-1.9285890584886074,4.646352226158976,2.328078790429234
1789483392858449700,1.89644970703125,-0.3551648525238037,4.438588596644998,3.3251951005622744
1789483392868498700,1.906498779296875,2.5499860961079595,3.7575960452407595,3.539484624713659
1789483392878547700,1.916547607421875,2.3810838199079036,3.2048025882482527,3.6712887578800317
1789483392888596500,1.926596435546875,2.8602415473252534,3.1759792293459177,3.909987039361894
1789483392898646500,1.936646484375,4.054939407914877,2.8328292242646214,3.818401227076351
1789483392908695800,1.94669580078125,4.969723764058947,1.3190847032368183,3.2318735505253073
1789483392918744600,1.95674462890625,5.31004526771605,-1.9261814128249883,2.351241054829955
1789483392928794600,1.966794677734375,5.8600406184226275,-6.456741606202721,0.8219551196686923
1789483392938843600,1.97684375,5.006311911743879,-11.797018346053362,-1.7098313028819858
1789483392948892700,1.986892578125,6.381319577732682,-17.563856364643573,-6.107733522742986
1789483392958941700,1.996941650390625,0.972195438561961,-5.571405462861061,-1.6487005423538386
1789483392968991500,2.006991455078125,-0.6714731009740382,-5.540208945086598,-8.07303230946958
1789483392979040500,2.01704052734375,-5.917101645293831,-3.928724765318632,-11.228450396823883
1789483392989089800,2.02708984375,-6.080249888011813,-0.8020294991016388,-8.994610563537478
1789483392999138600,2.037138671875,-3.528701949414611,1.3058546347856521,-5.959806230032443
1789483393009188600,2.047188720703125,-1.7647458192437886,1.7289122893184423,-4.251162821760773
1789483393019237600,2.057237548828125,-1.7870646185576915,1.7182143696933985,-4.177885111843049
1789483393029286700,2.06728662109375,1.7652385711967944,1.070875081565976,-1.2050376144267618
1789483393039336700,2.077336669921875,2.4719243667840956,0.3200900320112705,-0.7895397276237607
1789483393049385500,2.087385498046875,2.9652444750666618,-0.1442968272536993,-0.8520905840829014
1789483393059434800,2.097434814453125,3.2256355329185724,-0.1303320147871971,-0.5850967669650912
1789483393069483500,2.1074833984375,2.5396096635222434,0.12402853072881698,-0.03475128764659166
1789483393079533600,2.117533447265625,1.5320786346197128,0.26035657106041904,0.48994347145631906
1789483393089582600,2.12758251953125,0.6409083782970905,0.27434301083683965,0.8382660568699241
1789483393099631600,2.137631591796875,-0.20206454108953475,0.2514572252899408,0.8805990318171679
1789483393109681700,2.147681640625,-0.7731476149450988,0.36268121950328347,0.6533440815001725
1789483393119730700,2.157730712890625,-0.8062386412292718,0.363224824860692,0.6345043564736843
1789483393129779500,2.167779541015625,-0.7305149994641542,0.5439350277543068,0.20094532780125737
1789483393139828700,2.177828857421875,-1.1663556362677365,0.5659288328975439,0.2723288945354521
1789483393149878800,2.187878662109375,-1.6013041465371847,0.34012978047728537,0.3541710191808641
1789483393159927600,2.197927490234375,-1.4320347905904054,-0.25528584366738793,0.2434640345789492
1789483393169976800,2.207976806640625,-1.1389840836089105,-0.8518325176686048,0.25710429126620293
1789483393180026600,2.218026611328125,-0.4893686672430485,-1.327214818200469,0.23647972864955663
1789483393190075600,2.22807568359375,-0.43092239655852316,-0.9839520003944635,0.6925207843735813
1789483393200124700,2.238124755859375,-0.4942880034666508,-0.42633448424637316,1.2320942559175192
1789483393210173700,2.248173583984375,-0.02504146574344486,0.05381751490533351,1.4753364644393323
1789483393220223700,2.2582236328125,0.6391769513946026,0.31468963427245616,1.549545609988272
1789483393230272500,2.2682724609375,1.2688947311788796,0.3288257116526365,1.7026397839426994
1789483393240321500,2.278321533203125,1.6493436625629663,0.1391027657419443,1.5793490659691392
1789483393250370600,2.28837060546875,1.6314409261256455,0.14121288976371288,1.5571049393266438
1789483393260420600,2.298420654296875,1.249966158825159,-0.12901976314485072,1.1981903788805006
1789483393270469600,2.3084697265625,0.7334055332738906,-0.2644961550831795,0.9903549993045627
1789483393280518700,2.3185185546875,0.157830335630849,-0.421312272170186,0.5848569668598472
1789483393290568700,2.328568603515625,-0.44252519260142,-0.5786667339175939,0.13152195522412657
1789483393300617700,2.33861767578125,-0.9187760561287402,-0.631179595965147,-0.1899477676425129
1789483393310666500,2.34866650390625,-1.152189748271182,-0.6763502785563469,-0.401631858535856
1789483393320715800,2.3587158203125,-1.2222013690650462,-0.7001391504228115,-0.4019436278987676
1789483393330765800,2.368765869140625,-1.0451093566685914,-0.6224836638122797,-0.2986671586237848
1789483393340814600,2.378814697265625,-0.9000561580896377,-0.43611938067972655,-0.1795431318756193
1789483393350863600,2.388863525390625,-0.8091039675325155,-0.21906126859784125,0.19001016535423695
1789483393360913400,2.398913330078125,-0.6729940269310027,-0.03777355807721615,0.49873592278622086
1789483393370962700,2.408962646484375,-0.47303895227611065,0.00538052399456501,0.6259548470541835
1789483393381011700,2.41901171875,-0.2556114954251796,-0.013463292685151099,0.5363019755925983
1789483393391060500,2.429060546875,-0.11826229535229503,0.058230070650577545,0.7102751253161579
1789483393401110500,2.439110595703125,-0.2834866867572069,-0.07411445300281047,0.6564402939498424
1789483393411159600,2.44915966796875,-0.38079438382089137,-0.029808862808346746,0.4255261635381728
1789483393421208600,2.45920849609375,-0.3673743457555771,0.12021978609561919,0.14799202850982546
1789483393431258600,2.469258544921875,-0.3942676864434033,0.28122809417545797,-0.10422405232340097
1789483393441307600,2.4793076171875,-0.41834063594825566,0.346165553510189,-0.20723244524672627
1789483393451356700,2.489356689453125,-0.4564706793129444,0.3264315099924803,-0.21656755208596587
1789483393461405400,2.499405517578125,-0.5736579658448696,0.18576573271751404,-0.4149379878979176
1789483393471456300,2.509456298828125,-0.5710912571620196,0.18714520437717436,-0.4289272772185504
1789483393481505300,2.51950537109375,-0.7904401835948228,0.09827274270355701,-0.4789301292065531
1789483393491554300,2.52955419921875,-0.98403324893713,0.15475860003530978,-0.3733468442939222
1789483393501603000,2.53960302734375,-1.1568974145054816,0.2394768646389246,-0.14741875866651535
1789483393511653000,2.549653076171875,-1.304150168955326,0.33346389284729955,0.15965075599104164
1789483393521702400,2.559702392578125,-1.4797446362704039,0.4241799365609884,0.42154776142649353
1789483393531751200,2.569751220703125,-1.733454024401307,0.4850198974490165,0.5832762004744261
1789483393541801200,2.57980126953125,-1.954254245620966,0.4762772035449743,0.6475121604762971
1789483393551850200,2.589850341796875,-1.8977882620334625,0.3734107033103704,0.5830589775271713
1789483393561899300,2.599899169921875,-1.7107962023913859,0.24456395864486694,0.5272127332732081
1789483393571948300,2.6099482421875,-1.689091151061654,0.25332535724937916,0.5539134009331464
1789483393581998000,2.619998046875,-1.6367559836685657,0.3703612526118755,0.610678513597697
1789483393592047000,2.630047119140625,-1.3695172518789767,0.4775596445709467,0.6184378224875777
1789483393602096400,2.640096435546875,-1.0052999088495969,0.547187307548523,0.6207637812171131
1789483393612146200,2.650146240234375,-0.877214796206355,0.501063854277134,0.5775195366438478
1789483393622195200,2.6601953125,-1.2935258990883827,0.3887129018604755,0.5793791930358857
1789483393632244200,2.670244140625,-2.0894284397423264,0.6258563551157713,0.7306877987477928
1789483393642293200,2.680293212890625,-2.1244331176280973,0.9656962127357721,0.8504800801463425
1789483393652343300,2.69034326171875,-1.3758826952576637,1.2024684945911168,0.7941380882646888
1789483393662392000,2.70039208984375,-0.5634416922569274,1.7044669993698596,0.6754922734875232
1789483393672441300,2.71044140625,0.044750995874404904,2.5279665720015765,0.6381091760326176
1789483393682490000,2.720489990234375,0.050141493273712694,3.4263527510523795,0.6368043039791286
1789483393692540200,2.7305400390625,-0.726115230135247,4.1022313204437495,0.43879999806582926
1789483393702589200,2.740589111328125,-1.4318682018518447,4.391926214191317,-0.2720741891220212
1789483393712638200,2.75063818359375,-0.9050913757778704,4.124864592534303,-1.3345948454491794
1789483393722688300,2.760688232421875,0.2594318574309349,3.7683617694050073,-1.771058363391459
1789483393732737300,2.7707373046875,0.9337012380599975,3.359408628070354,-1.8806296219617127
1789483393742786000,2.7807861328125,0.9095793348468839,2.76181273727715,-1.9553033162824809
1789483393752835300,2.79083544921875,0.8955554856695235,1.790993190178275,-1.9205895841673015
1789483393762885000,2.800885009765625,1.3645137445032596,0.6302671572953462,-1.6024284743919968
1789483393772934100,2.81093408203125,1.3861761257350445,-0.35947745502591133,-1.114752071084827
1789483393782983400,2.8209833984375,0.9346084160327911,-0.7855752079069614,-0.31610373885408044
1789483393793033200,2.831033203125,0.4472073225356638,-0.6899994492024183,0.6372466409191488
1789483393803082200,2.841082275390625,-0.5674257934570313,-0.21242869871556758,1.4391750177338718
1789483393813131000,2.851131103515625,-1.3138767593301832,0.21653964116573332,1.8582132074922322
1789483393823180300,2.86118017578125,-0.775942141034454,0.34407354966700077,2.192119729540497
1789483393833230300,2.871230224609375,0.09492986201643944,0.3031500031262636,2.716397724536061
1789483393843279000,2.881279052734375,0.1026911436676979,0.47801147999167437,3.3410841590896245
1789483393853328100,2.891328125,0.0031999650850892064,0.7300257546424865,3.707745388139784
1789483393863377200,2.901377197265625,0.045531624858081335,0.9577116437226534,3.5874528290688987
1789483393873427200,2.91142724609375,-0.6912579248309135,1.323266372835636,3.126609926021099
1789483393883476200,2.921476318359375,-1.6838810151979327,0.9047896163523197,2.3813610294140872
1789483393893525200,2.931525146484375,-1.7792253032341598,-0.4022077587276697,1.6945497087284922
1789483393903575300,2.9415751953125,-0.8400782208584249,-0.8019277922928333,2.009316499890387
1789483393913624300,2.951624267578125,-0.8174947792589664,-0.8086147227108478,2.0183323116473852
1789483393923673000,2.961673095703125,0.4707935114368796,-0.8856634755998849,2.1252426804453135
1789483393933722400,2.971722412109375,0.6431285385645925,-0.9841589211434125,1.8956896823190152
1789483393943772400,2.9817724609375,0.42793782778978345,-1.4602104992389677,1.436274620117247
1789483393953821200,2.9918212890625,-0.3548876430176198,-2.4490596240252254,0.6450294037498533
1789483393963870200,3.0018701171875,-1.405923320995271,-3.716311848694086,-0.06717837012931704
1789483393973920000,3.011919921875,-2.2451719591617585,-5.020021872666478,-0.2916378445088863
1789483393983969300,3.02196923828125,-2.4590020491078493,-7.024345094314217,-0.4611287342518568
1789483393994018300,3.032018310546875,-2.743803617855906,-9.064299601313472,-0.6530947829142213
1789483394004067000,3.042067138671875,-3.3851299293041226,-10.789514205157756,-1.2193943488202987
1789483394014117000,3.0521171875,-3.3036016929134724,-12.598717005765437,-2.549317403066158
1789483394024166100,3.062166259765625,-2.234077441434562,-12.922712813043594,-4.266987875141203
1789483394034215200,3.072215087890625,-1.9044395366162061,-9.365169384548068,-4.434859931510687
1789483394044264200,3.08226416015625,-1.5151915049657225,-4.946838563033938,-3.402801779595017
1789483394054314200,3.092314208984375,0.7068202356219291,-2.0829478455513715,-2.6138725850850344
1789483394064363300,3.10236328125,1.8216162919789551,-0.14375029928684233,-2.2213586835063994
1789483394074412000,3.112412109375,2.4123303143039343,1.508455766969919,-1.564725058941543
1789483394084462000,3.122462158203125,2.6099977894783017,2.74735926451087,-0.6240677181333303
1789483394094511400,3.132511474609375,2.602013804987073,3.2995360509097575,-0.019919336956739423
1789483394104560000,3.14256005859375,2.897348165926337,3.38824952262938,0.24715923583507537
1789483394114609200,3.152609130859375,3.111529261267185,2.981158083513379,0.3689062314979732
1789483394124659200,3.1626591796875,3.1877760501235723,2.9348505058467387,0.3643851008117199
1789483394134708200,3.172708251953125,2.49056593888998,1.2355284681499004,0.5974892155483364
1789483394144757200,3.18275732421875,2.03457222943902,0.4041647380143404,0.5559112967520952
1789483394154806000,3.192805908203125,1.7868506835460662,-0.1679851613551378,0.7023848835229873
1789483394164856300,3.202856201171875,1.909594435161352,-0.2758405559182167,0.9537311957843602
1789483394174905300,3.2129052734375,2.3250772705256937,0.05958733047842979,1.2535994007609783
1789483394184954000,3.2229541015625,2.785046897870302,0.7165618774354457,1.3466235752865672
1789483394195004200,3.233004150390625,3.2603871128261086,1.51757372392714,1.4030406051658093
1789483394205053200,3.24305322265625,3.635321664702892,2.3919155950456856,1.6047008032381533
1789483394215102200,3.253102294921875,3.8234512039422985,2.794471144297719,1.505491510336846
1789483394225151200,3.263151123046875,3.7123686640262603,2.5938433580130336,1.2020406245678663
1789483394235201000,3.273200927734375,3.5743741517871617,2.1450772617280482,0.8603206522896886
1789483394245250300,3.283250244140625,3.416663131687045,1.7615619285106658,0.5654444103814661
1789483394255299000,3.293299072265625,3.14372881860435,1.5580243922591208,0.2649190566703677
1789483394265349000,3.30334912109375,2.773458166885376,1.505181275343895,-0.2360049507446587
1789483394275398100,3.313398193359375,2.2942545544996857,1.571215297743678,-0.8663480958856642
1789483394285447200,3.323447265625,1.7708759925618767,1.7576742734223603,-1.4561018948763609
1789483394295496200,3.33349609375,1.335133336240053,1.9855548082917927,-1.7138227106057107
1789483394305546200,3.343546142578125,1.0272633188545703,2.1427625550448894,-1.8132677119590341
1789483394315595300,3.35359521484375,0.7350923903822898,2.161055167582631,-1.966649762944132
1789483394325644300,3.363644287109375,0.4411778331130743,2.353079960694909,-1.9321414902731775
1789483394335693000,3.373693115234375,0.38476796362698074,2.6508798349648712,-1.5231164527460932
1789483394345743000,3.3837431640625,0.7547904858037829,2.879091209223866,-1.0611089628983288
1789483394355792400,3.39379248046875,0.5546215492025017,2.960513939413428,-1.0963609666086733
1789483394365841200,3.403841064453125,1.7627496769905089,2.104588599473238,-0.26568266145400704
1789483394375891200,3.41389111328125,1.8259481837034224,1.8066309042930602,0.2807768432766199
1789483394385940200,3.423940185546875,1.5868977277830243,1.3902508278280497,0.9943702262952924
1789483394395989200,3.4339892578125,1.4092811069905757,1.4400667058765888,1.011364250389859
1789483394406038300,3.444038330078125,0.891969005484879,0.9436498006224632,1.7371207302153109
1789483394416088000,3.454088134765625,0.372111603410542,0.939856838080287,1.7157007794372736
1789483394426137000,3.46413720703125,-0.07832476417422295,1.0627508118212223,0.8807253616105765
1789483394436186400,3.474186279296875,-1.0501815453663468,1.4059095847308636,0.18745960408858953
1789483394446235100,3.484235107421875,-2.3675135597169397,1.5290841289788484,0.12781484433449805
1789483394456285200,3.49428515625,-3.369704396635294,1.455333248591423,0.24207703719995916
1789483394466334500,3.50433447265625,-3.8369945761263367,1.3302934949934482,0.576859026908502
1789483394476383500,3.514383544921875,-3.4063106644988057,0.9677081370800733,0.7490675050470977
1789483394486433500,3.52443359375,-2.3871020572841166,0.5423047962039709,0.46054267799220977
1789483394496482300,3.534482421875,-1.4134427567146717,0.3549731293439865,-0.09756766317412256
1789483394506531600,3.544531494140625,-0.8401435411795973,0.47695934059023853,-0.5082547886945307
1789483394516580400,3.554580322265625,-0.6156207923054695,0.9251146115005016,-0.8442381900820881
1789483394526630400,3.56463037109375,-0.6375206355549394,1.3750591039150952,-1.2592600568711756
1789483394536679400,3.574679443359375,-0.8340987080574035,1.6153952157318592,-1.5887468627810477
1789483394546728400,3.584728515625,-1.250703679319471,1.7536749746531246,-1.6485754546694456
1789483394556777500,3.594777587890625,-1.5024116645000873,1.7547814745903014,-1.363245770394057
1789483394566827500,3.60482763671875,-1.583918565841764,1.5772481481671332,-1.0067955542348324
1789483394576876300,3.614876220703125,-1.7273874178387223,1.076587613993883,-0.5867943646632134
1789483394586925600,3.624925537109375,-1.7354677023112772,0.4346779496997595,-0.0966908803395927
1789483394596975600,3.6349755859375,-1.7835855442702768,-0.14896832619607447,0.4171425852701068
1789483394607024400,3.6450244140625,-1.9283551036022601,-0.46231823629736896,0.871926115213707
1789483394617073400,3.655073486328125,-1.888864950865507,-0.5325181462049484,1.1525085318967698
1789483394627122400,3.665122314453125,-1.8641538495875893,-0.5582330176979303,1.3582241428397595
1789483394637172500,3.67517236328125,-1.5329028104841709,-1.0133049361288546,1.3465486103542148
1789483394647221500,3.685221435546875,-0.38771205425485966,-2.022796451449394,0.9143249950040131
1789483394657270500,3.6952705078125,0.679653850146383,-3.385782255733013,0.3034259705234319
1789483394667320600,3.705320556640625,1.3016881627559662,-4.704797400864958,-0.13137180616371333
1789483394677369300,3.715369384765625,1.5359000926040112,-5.753950479966401,-0.3909283859528601
1789483394687418400,3.72541845703125,1.1845581593692303,-6.545455662444233,-0.937895255683735
1789483394697467600,3.735467529296875,0.37393838044628497,-7.0286781550824635,-2.0579649415947494
1789483394707517400,3.745517333984375,-0.6759772074602544,-6.954396528819203,-3.352592810575664
1789483394717566500,3.75556640625,-1.5817220787107944,-6.007136721006035,-3.7108743338152763
1789483394727615200,3.765615234375,-1.472606016562134,-4.977826406493783,-2.617935304479301
1789483394737664500,3.77566455078125,-0.6423521473646163,-4.521507118350267,-1.3125845275625585
1789483394747714600,3.785714599609375,0.02576104872226715,-4.908997200417518,-0.5075259629633277
1789483394757763300,3.795763427734375,0.48040465873852367,-5.5232490424573415,0.11261406033225357
1789483394767812600,3.8058125,1.1416728112362324,-5.435183805513382,0.2551581256344914
1789483394777862700,3.815862548828125,1.1986498130857943,-4.049052687963843,0.5558859431151301
1789483394787911400,3.825911376953125,1.3992461813189088,-1.8431109154284,1.1537516638256609
1789483394797960400,3.83596044921875,1.809250877533108,-0.020973229923844337,1.5817919290766118
1789483394808009500,3.846009521484375,1.9579753119707106,1.316720312193036,2.1489763149932024
1789483394818059500,3.8560595703125,2.134725525192171,1.9231927524030208,2.574023389777541
1789483394828108500,3.866108642578125,2.3010708103857933,2.3895640634834767,2.0930667962446807
1789483394838157300,3.8761572265625,2.2293676563084124,2.621263864380121,1.5934820746093987
1789483394848206600,3.88620654296875,2.1522985912837087,2.702208455663919,1.0414411895498632
1789483394858256400,3.89625634765625,1.9655353719614446,2.3044436478197574,0.3550590175291523
1789483394868305400,3.906305419921875,1.7779248881600795,1.3477145853936672,-0.48078200415093447
1789483394878354400,3.9163544921875,1.6308721863269804,0.1132224745541811,-1.3059146944098174
1789483394888404500,3.926404541015625,1.2922633318066596,-0.8039391321152448,-1.917690355594456
1789483394898453500,3.93645361328125,0.6007739363074303,-1.1645616655230522,-2.2263205436974762
1789483394908502300,3.946502197265625,-0.3846948983907699,-1.1847288397610187,-2.3429987116634843
1789483394918551600,3.956551513671875,-1.4139794939398764,-0.8583405843883752,-2.0621255684055386
1789483394928601600,3.9666015625,-1.5165126705668865,-0.8477320966124534,-2.05576845446378
1789483394938650400,3.976650390625,-2.185236253637075,0.14134090005755423,-1.2555813683584331
1789483394948699400,3.986699462890625,-1.7711562708079813,0.4448369401425123,-0.9032328884296119
1789483394958748400,3.99674853515625,-1.22704354839921,0.5941618246912956,-0.4063987441441044
1789483394968798500,4.006798583984375,-0.7666004583239555,0.5291244121134281,0.1103156106641516
1789483394978847500,4.016847412109375,-0.2778138287525624,0.4392886583656072,0.5991598521742969
1789483394988896300,4.026896240234375,-0.004033274104073644,0.40612230182290077,0.9668322310283779
1789483394998946300,4.0369462890625,-0.11965053484030068,0.451655972507596,1.1746816391296684
1789483395008995600,4.04699560546875,-0.3452607866901904,0.4934259067445993,1.2693310767695307
1789483395019044400,4.05704443359375,-0.7375836957413703,0.38977380909025666,1.2431377741098404
1789483395029093400,4.06709326171875,-1.4933131428956985,0.10599719947576522,1.0549458371587097
1789483395039143700,4.077143798828125,-2.2669231877207756,-0.42255321214199065,0.7404395235639065
1789483395049192400,4.0871923828125,-3.1955168735086916,-0.4572884254366159,0.613345394719392
1789483395059241500,4.097241455078125,-3.8758243652582167,-0.2855459573745727,0.47629115900509056
1789483395069290500,4.10729052734375,-3.651049979710579,0.07599836705327033,0.20956388386897742
1789483395079340500,4.117340576171875,-2.9867314997315404,0.5124351431190968,-0.24488332679234442
1789483395089389600,4.1273896484375,-2.2034861960768697,0.5561223091542721,-0.7969879978030919
1789483395099438300,4.137438232421875,-1.4990180765390395,0.6857032133132219,-1.0141928979445247
1789483395109488400,4.14748828125,-1.1421510962724686,1.076408750295639,-0.8859278256244957
1789483395119537400,4.157537353515625,-0.9267044379752128,1.3740285918235777,-0.7484110869649797
1789483395129586400,4.16758642578125,-0.41077151586823163,1.735526154500246,-0.4807833558578044
1789483395139635500,4.177635498046875,-0.36588841804675754,1.7286001546293497,-0.4428341489527374
1789483395149685500,4.187685546875,0.21508651974797247,2.507250531709194,0.46113260670937595
1789483395159734500,4.197734619140625,0.3083049016714096,2.896169185274839,0.9486224744684993
1789483395169783300,4.207783203125,-0.5198739878829568,3.3418022442311046,1.272682871415466
1789483395179832600,4.21783251953125,-2.171339976362139,3.765099552738666,1.453089853578806
1789483395189882600,4.227882568359375,-3.1087083586275575,4.130945373752713,1.4789523168489336
1789483395199931400,4.237931396484375,-1.5811143220759927,4.254835957315564,1.2206794201947748
1789483395209980400,4.24798046875,1.2054654844500123,4.0726726330041885,0.8395482787001878
1789483395220030500,4.258030517578125,1.980913266096264,3.7988311419486998,0.7485692001361399
1789483395230079500,4.26807958984375,1.4145057097710667,3.43032399277091,0.7283207042902707
1789483395240128500,4.27812841796875,0.2811630661152303,2.9178292284190652,0.527741214126721
1789483395250177300,4.28817724609375,0.3579740647256374,2.9054040466099975,0.5250654921114445
1789483395260227300,4.298227294921875,-1.069265892803669,1.3675550118952988,0.1242075405575335
1789483395270276600,4.308276611328125,-1.294334877383709,0.5614695154011249,-0.029801848545670508
1789483395280325400,4.318325439453125,-0.7482990779578685,-0.615804332178831,-0.4075669476732611
1789483395290374400,4.32837451171875,0.24300810750499366,-1.521680574724078,-0.4263336074635386
1789483395300424400,4.338424560546875,0.9341675403974949,-0.9630009823024273,0.47204394988939163
1789483395310473500,4.348473388671875,1.5262302008524535,0.5646235955178738,1.4071269976966083
1789483395320522500,4.3585224609375,1.6880641461014747,1.6937527131319046,1.9743534691892564
1789483395330572300,4.368572265625,1.7239067361161111,1.6811363926649092,2.0082617301404473
1789483395340621600,4.37862158203125,1.279431615023315,2.0734756683290003,2.435299832611531
1789483395350670300,4.38867041015625,0.6264055134311318,2.034139098718762,2.924693268969655
1789483395360719400,4.39871923828125,0.37904257171750066,1.3125737139075995,3.379956326058507
1789483395370769400,4.408769287109375,0.18149872292280195,-0.09736790281832218,3.7997456264451146
1789483395380818400,4.418818359375,-0.8387421499490737,-1.9290981770545244,3.983669238427281
1789483395390867500,4.428867431640625,-1.724068210288137,-3.714765788295865,3.583466389781236
1789483395400917500,4.43891748046875,-1.229578765965253,-5.720164530220628,2.453456689940393
1789483395410966300,4.44896630859375,-0.1416315535672009,-6.621606589710712,1.514172098790109
1789483395421015600,4.459015625,0.441153137063235,-7.368623226642608,0.8468236034654081
1789483395431064300,4.469064208984375,1.0140684678472578,-8.20214734968245,-0.457412197946757
1789483395441114400,4.4791142578125,1.031011419341713,-8.522437872701882,-2.2895304485872385
1789483395451163600,4.48916357421875,-0.3112497229516506,-7.77084618293941,-3.6362077998876567
1789483395461212400,4.49921240234375,-1.8041770814001559,-6.919612215685844,-4.175933393253386
1789483395471261000,4.509260986328125,-1.960852036450803,-6.662351272553205,-4.572395594066381
1789483395481311000,4.51931103515625,-1.635973893380165,-6.5510939605921505,-5.097309110486507
1789483395491360300,4.5293603515625,-1.7766580830946563,-6.031315468972921,-5.357026799121499
1789483395501409000,4.539408935546875,-1.6991346984311937,-5.423378801429271,-5.188666374713182
1789483395511459000,4.549458984375,-0.795579884570837,-4.474231572434306,-4.422939192092419
1789483395521508000,4.559508056640625,-0.06829144593775271,-3.373205098232627,-3.242286515729129
1789483395531557000,4.56955712890625,0.2516208914190531,-2.309166000166535,-1.8866154183730481
1789483395541606100,4.579606201171875,1.0671236200779677,-1.6351584853440522,-0.7407378489233553
1789483395551656000,4.589656005859375,1.8897291664794087,-1.1038099674403667,-0.15000044572278856
1789483395561705200,4.599705322265625,2.1749223648935554,-0.514713609445095,0.16069427369460462
1789483395571754000,4.60975390625,2.171096084603667,0.125848731893301,0.39583603173866866
1789483395581803000,4.619802978515625,2.0797809059530494,0.577064559417963,0.7416422504171729
1789483395591853000,4.62985302734375,2.0829384932011363,0.6120797586977481,0.9236299259006977
1789483395601902000,4.639902099609375,2.1254905177265404,0.5779214685082436,1.0494893253184854
1789483395611951000,4.649951171875,2.3534692522734404,0.6631938598632812,1.3225288523413241
1789483395622001200,4.660001220703125,2.6275398759096857,1.0039116693615913,1.6291314801394938
1789483395632050000,4.6700498046875,2.8898224465966225,1.346603409281373,1.693760165785998
1789483395642099200,4.68009912109375,2.949585718163848,1.8266922800689935,1.5731997495591639
1789483395652148000,4.69014794921875,2.9097885453045365,2.4523387918263673,1.3289794897854328
1789483395662198000,4.700197998046875,2.8338626589655873,2.9743028107911345,1.1658816620804369
1789483395672247300,4.710247314453125,2.7431407700330017,3.339984965676069,1.0324737469792364
1789483395682296000,4.720296142578125,2.582581959286332,3.4357284821629523,0.7113312833055854
1789483395692345000,4.730344970703125,2.3472061002254483,3.1654496520251034,0.26676088514477014
1789483395702395000,4.740394775390625,2.0933231090933084,2.6877900542110202,-0.15957842140719294
1789483395712444200,4.750444091796875,1.89499541644454,2.2640917636871336,-0.3998687943860888
1789483395722493200,4.7604931640625,1.745996110588312,1.9378595756590364,-0.5142106283590198
1789483395732543000,4.77054296875,1.5773095229655503,1.7481623487114906,-0.4566133026540279
1789483395742592000,4.780592041015625,1.4407178632616995,1.5465402906924486,-0.4285039372399449
1789483395752641000,4.79064111328125,1.3081950604319572,1.3725889144092798,-0.5096361600503325
1789483395762690000,4.80068994140625,1.2407131773114204,1.0292641372829676,-0.8535641637668013
1789483395772740000,4.810739990234375,1.1291057367384434,0.9340700713723897,-1.0460099587701261
1789483395782788900,4.820788818359375,0.9638321724295615,0.8518336867123841,-0.9659292908392846
1789483395792838100,4.830838134765625,0.7906830524399876,0.5860282025963067,-0.9147633133560419
1789483395802887000,4.840886962890625,0.4967758016943931,0.35905250761210916,-0.9096095838546753
1789483395812937000,4.85093701171875,0.08972644815444945,0.409260599848628,-0.6802788501769303
1789483395822986200,4.860986328125,-0.23928046528398988,0.7123626721799373,-0.4745801903687417
1789483395833035000,4.871034912109375,-0.4306961865872144,1.2068389647603035,-0.17580445680394768
1789483395843085000,4.8810849609375,-0.3056897507369518,1.7207091091185807,0.16423662247657775
1789483395853134000,4.891134033203125,0.008557984986901282,2.0956851620495316,0.4221918314836919
1789483395863183000,4.90118310546875,0.3896457987964153,2.368262332257628,0.6166941206254065
1789483395873232100,4.911232177734375,0.87228201597929,2.449012277752161,0.8107441359549761
1789483395883282200,4.9212822265625,1.3081696337297557,2.4684739340692756,1.070319493509829
1789483395893331000,4.9313310546875,1.6068392765715718,2.503893622496724,1.2921670318253338
1789483395903380200,4.941380126953125,1.4493322546109557,2.563309103539586,1.2707010499484837
1789483395913429000,4.951428955078125,1.5165592861875892,2.610194773355126,1.4341623041383922
1789483395923479000,4.96147900390625,1.507517901597917,2.3440654641121625,1.4791424325935543
1789483395933528000,4.971528076171875,1.2116425656497478,2.2953134159028528,1.3669151065565646
1789483395943577000,4.9815771484375,0.7107754029884934,2.115503961241245,1.2418930347457526
1789483395953626000,4.991626220703125,0.5907122687593103,2.1529513561040163,1.2025395140007138
1789483395963676000,5.001676025390625,0.318319222946465,2.0464555594563483,0.9299316563934087
1789483395973725200,5.01172509765625,-0.7638558357909321,1.9708166733652352,0.49068793314807113
1789483395983774200,5.021774169921875,-3.287799143625796,1.8004682900100946,-0.04215082331337035
1789483395993824000,5.031823974609375,-4.414986771783233,1.6139011777818202,0.048445612608641386
1789483396003873000,5.041873046875,-5.132375747692585,1.3536147493481636,0.3614952245891094
1789483396013922000,5.051922119140625,-5.172537077689171,1.3591998560041187,0.38798042286746204
1789483396023971000,5.06197119140625,-5.116591318583488,1.1709446445584297,0.7204821196191012
1789483396034021000,5.072021240234375,-3.060612728500366,1.2256330970793963,0.6028345220990479
1789483396044070000,5.08206982421875,-2.19397368684411,1.4309487489193677,0.4905095078412443
1789483396054119200,5.092119140625,-2.2115248333647846,1.438999368906021,0.4555228770688176
1789483396064168000,5.10216796875,-1.471292157484591,1.4855886861234902,0.3986528427250683
1789483396074218000,5.112218017578125,-0.8052581057593226,1.4288491462916135,0.31283655375167724
1789483396084267300,5.122267333984375,0.17788418568745254,1.2749182292521,0.24202289585992692
1789483396094316000,5.13231591796875,0.2268319025993347,1.1809212641716003,0.05310929357074201
1789483396104366000,5.142365966796875,0.17667042598351834,1.1964800678312777,-0.010152633767202495
1789483396114415000,5.1524150390625,-0.2363572713136673,0.8865998796671628,-0.45276948670744893
1789483396124464000,5.162464111328125,-0.7386262635968626,0.49922027223706245,-1.1745914766281842
1789483396134513200,5.17251318359375,-1.4097056160129606,-1.89370829924345,-2.5922493668198583
1789483396144563200,5.182563232421875,-0.8905657145582139,-3.8302106150746345,-2.5299133221551773
1789483396154612000,5.192612060546875,-0.9440307627640664,-3.824457750636339,-2.49487386521697
1789483396164661200,5.2026611328125,0.15431144078969955,-5.802341293647885,-1.9195627253375946
1789483396174710000,5.2127099609375,1.489583893239498,-7.302507955700158,-1.4394810149431227
1789483396184760000,5.222760009765625,2.3857483045876027,-8.14772777723074,-1.2867802242204547
1789483396194809000,5.23280908203125,2.4231097747325894,-7.525122532865405,-1.2408248209923505
1789483396204858000,5.242858154296875,2.4133541043937203,-7.5214821305364366,-1.265013213570416
1789483396214908200,5.252908203125,1.4027506823085247,-5.8519888293921944,-0.7586953842878341
1789483396224957000,5.26295703125,-0.5908524078823626,-4.287501378598809,1.7791145363360643
1789483396235006200,5.273006103515625,-0.6199357328951358,-4.369864019986987,2.735055370993912
1789483396245055200,5.28305517578125,-0.21319018460735678,-5.174879256901145,2.7170488819211718
1789483396255105000,5.29310498046875,-0.21397695107087492,-5.174093074959516,2.709151991191506
1789483396265154000,5.303154052734375,0.4130383648216724,-5.602797795468568,2.2874190093912183
1789483396275203000,5.313203125,0.4348224727369845,-4.973885559913516,1.3325214001759886
1789483396285252000,5.323252197265625,0.4224935909092426,-3.2951509676933286,0.23410408555939793
1789483396295302100,5.33330224609375,1.4473217915713785,-0.27496318856179713,-0.6506671173758805
1789483396305351000,5.343350830078125,1.4478420160531997,-0.2720774039924145,-0.6894572320844977
1789483396315400200,5.353400146484375,2.26363232948184,0.457027144151926,-0.8234707118634134
1789483396325450200,5.3634501953125,2.834986110037565,1.0924345869451761,-0.9138375768132507
1789483396335499000,5.3734990234375,2.609811034734547,1.6678215685397386,-0.7586798213925212
1789483396345548000,5.383548095703125,2.229593135627359,2.297169272902608,-0.5682157382583245
1789483396355597000,5.39359716796875,1.8161610953129828,2.9921640461742878,-0.5839939568223431
1789483396365647000,5.403647216796875,1.378659174233675,3.3880338340520857,-0.7915789783664047
1789483396375696100,5.413696044921875,1.0655740525484085,3.2738732018649577,-1.2986302364900708
1789483396385745200,5.4237451171875,1.2900561771512031,2.700681684488058,-1.9261247142016886
1789483396395794200,5.433794189453125,1.847402475142479,1.857337009179592,-2.3072343014515937
1789483396405844000,5.443843994140625,1.9561786378122865,1.0239005644232033,-2.44054723174572
1789483396415893000,5.45389306640625,1.2786731978714465,0.16286007342636585,-2.2026307482913134
1789483396425942300,5.4639423828125,0.5299381396491081,-0.590507393836975,-1.5003713908441363
1789483396435991000,5.473990966796875,0.10011932041831315,-1.0216063160061835,-0.6553028874177486
1789483396446041000,5.484041015625,-0.45118769740872083,-1.3125678686887026,0.015905644335970283
1789483396456089900,5.49408984375,-1.1922913109045474,-1.3905284757256506,0.6085696682175621
1789483396466139100,5.50413916015625,-1.906019499284029,-1.3674667490899561,1.045007649859786
1789483396476189000,5.51418896484375,-2.3644833982408047,-1.3252888185739515,1.333063544228673
1789483396486237700,5.52423779296875,-2.314921787214279,-1.064200426107645,1.6117863775849341
1789483396496287000,5.534286865234375,-1.7708488122940063,-0.6652051996856927,1.7548865423999727
1789483396506336000,5.5443359375,-1.1883563826084136,-0.16934417474865912,1.7630995133414864
1789483396516385800,5.5543857421875,-0.8158183704793452,0.32594401873648166,1.7018182384267448
1789483396526434800,5.564434814453125,-0.7894319564003497,0.644385699018836,1.5223402076765895
1789483396536483800,5.57448388671875,-0.7618670000612735,0.7260293784826993,1.2221107681721448
1789483396546532900,5.584532958984375,-0.6397078434009105,0.5940367370069026,0.9434563238769769
1789483396556583000,5.5945830078125,-0.4260895695745945,0.4623737658768892,0.6800312320914119
1789483396566631700,5.604631591796875,-0.10092698353938757,0.48136546659469603,0.3889117854334414
1789483396576681000,5.614680908203125,0.03909041282944381,0.515180057913065,0.09418452354185283
1789483396586731000,5.62473095703125,-0.0876501533370465,0.5898918922871351,-0.1119115380860865
1789483396596779800,5.63477978515625,-0.3973696710467338,0.6568839460641145,-0.20633293912373482
1789483396606828800,5.644828857421875,-0.7295278150577098,0.7244885787814855,-0.19127119826599953
1789483396616877800,5.6548779296875,-1.1114847398519516,0.7606336588740349,-0.20047690657190978
1789483396626927900,5.664927978515625,-1.5282371567606925,0.754279321411252,-0.22562333052717148
1789483396636977000,5.674976806640625,-1.950749452370405,0.8435878364145756,-0.2545368519309908
1789483396647026000,5.68502587890625,-2.687185074055195,1.0736813711583613,-0.24408874234855174
1789483396657075000,5.695074951171875,-2.951991025739908,1.5865648425668477,-0.16423669554181397
1789483396667125000,5.705125,-2.3917336626075207,2.37131762817502,-0.12067753980048
1789483396677173800,5.715173828125,-2.054503256833553,3.0002526600837705,-0.20110870166942477
1789483396687223000,5.72522314453125,-1.7708429670751094,3.2814421758145094,-0.20444851361662147
1789483396697272800,5.73527294921875,-0.7637152582764625,3.4926340262115,-0.2598407304927707
1789483396707321900,5.74532177734375,0.4758345743440091,3.6470045037120578,-0.4501072817608714
1789483396717371000,5.755370849609375,1.3235880060054361,3.731591250890493,-0.4898823158536106
1789483396727420000,5.765419921875,1.6593255428731442,3.155892719128728,-0.7953879421953112
1789483396737470000,5.775469970703125,1.7427927845023572,3.1394407660216093,-0.7863266838613897
1789483396747518700,5.785518798828125,1.834883331439644,2.2518688264518976,-1.1134876771721989
1789483396757568000,5.795568115234375,1.3000094158887863,1.2960574633926152,-1.2026448010060935
1789483396767617000,5.805616943359375,0.8730011240340769,0.024282792863249778,-0.02066533301845193
1789483396777666800,5.815666748046875,0.9404021970033645,-0.6695411830633878,0.27965638787932695
1789483396787715800,5.8257158203125,0.9312775180444121,-0.6766857941210269,0.34943580735251306
1789483396797764900,5.835764892578125,0.3487085159912705,-1.3767664923548697,0.7199497663080692
1789483396807815000,5.84581494140625,-0.8145777227684855,-1.4909411530673502,1.7495384593702852
1789483396817864000,5.855864013671875,-1.421634392607212,0.20437047994434832,3.699142102706432
1789483396827912700,5.86591259765625,-0.42948797984123227,1.0261661712676287,4.047533515572548
1789483396837962000,5.8759619140625,0.06012158348560333,1.3352742060154676,3.9155157396554943
1789483396848012000,5.886011962890625,0.36841245663166045,1.5829659412920474,3.338966728544235
1789483396858060800,5.896060791015625,0.4188093494385481,1.6868875035375355,2.651774153456092
1789483396868109800,5.90610986328125,-0.01210778642296791,1.5471674826800823,2.1169864548839628
1789483396878158800,5.916158935546875,-0.6169537944748997,1.2599626521825789,1.893221392509341
1789483396888209000,5.926208984375,-1.3861387163341043,0.6667337244272231,1.660066862759739
1789483396898258000,5.9362578125,-1.795172813950479,-0.20814123065471649,1.2885286753229797
1789483396908307000,5.946306884765625,-1.0502423356428743,-1.148767299541831,1.0263481037057935
1789483396918356000,5.95635595703125,-0.013438158243894577,-1.8546359335273503,1.2089514268696306
1789483396928405800,5.96640576171875,0.6607508506253361,-2.4356875167548657,1.6317556911632418
1789483396938454800,5.976454833984375,0.9415665646076202,-3.1293484110742806,1.7908755551479756
1789483396948504000,5.986504150390625,0.9640078212574124,-3.1321792505860326,1.7728733038589357
1789483396958553900,5.996553955078125,1.0888459148034453,-4.192599573633075,1.8256202669233084
1789483396968603000,6.006602783203125,1.2020860711447894,-4.743821251264214,1.6103281416006385
1789483396978651600,6.016651611328125,1.200766220717877,-4.739591650870442,1.5853811857402325
1789483396988701000,6.026700927734375,-0.30619828478097916,-6.628792701822519,-0.07716010430902243
1789483396998751000,6.0367509765625,-1.9637582792863248,-7.291237789145112,-1.5907115869827568
1789483397008799700,6.0467998046875,-2.6504090025827285,-7.300293202260137,-3.158657507666945
1789483397018849000,6.05684912109375,-2.2429966609492897,-6.704665981191396,-4.221470278808474
1789483397028899000,6.066899169921875,-1.8948150914415716,-5.84147795677185,-4.776337619465589
1789483397038947800,6.07694775390625,-1.7222665676936506,-4.797622399556636,-4.800296587201952
1789483397048996900,6.086996826171875,-1.6845035310104488,-3.980909710586071,-4.7372646692276
1789483397059046000,6.0970458984375,-1.579365578712523,-3.4542011274427176,-4.615650213903188
1789483397069096000,6.107095947265625,-1.0677022967487573,-2.908574493339658,-3.1758307607859373
1789483397079145000,6.11714501953125,-0.6439136975929141,-2.4416145687162873,-1.714661499517411
1789483397089193700,6.12719384765625,0.22302374248802662,-2.072582518881559,-0.8158278689600527
1789483397099243000,6.137242919921875,0.9403405299440025,-1.3792045331567524,0.14264599130675196
1789483397109293000,6.14729296875,1.34028648121953,-0.4859405194252729,0.8108966961681843
1789483397119341800,6.157341796875,1.7678610286548733,0.42835166928768154,1.044746660836041
1789483397129390800,6.167390869140625,2.108241569022834,1.3403268132299184,1.001358039356023
1789483397139441000,6.17744091796875,2.2879990012362597,2.094640621432662,0.9890748963661491
1789483397149490000,6.187489990234375,2.407523498544097,2.4140391640484333,0.9441241401359438
1789483397159539000,6.1975390625,2.4900427917987105,2.363497309812903,0.9701227970063686
1789483397169588000,6.207587890625,2.5198481474757193,2.5898639329880475,0.7847770432665944
1789483397179638000,6.217637939453125,2.585951727980375,2.542329443874955,0.8342540447495878
1789483397189686800,6.227686767578125,2.5459797830760476,2.278753910768032,0.8879742367602884
1789483397199735800,6.23773583984375,2.5928677909791467,2.238805346739292,0.9471239064738154
1789483397209785000,6.24778515625,2.494111648672819,2.0771879668503996,0.9622295595385134
1789483397219835000,6.2578349609375,2.455377721130848,1.8986399104267357,0.7939353322342038
1789483397229884000,6.2678837890625,2.411653730216622,1.8409651355713605,0.5560485132656992
1789483397239932700,6.2779326171875,2.3189105645895003,1.8888281259864568,0.32035672012344
1789483397249982700,6.287982666015625,2.243832819512486,1.895709702193737,0.11009192144349217
1789483397260032000,6.298031982421875,2.1656740595549344,1.8296201502144336,-0.07439663094505668
1789483397270080800,6.308080810546875,2.068625305688381,1.7427502605348824,-0.2119406229376793
1789483397280129800,6.3181298828125,1.959267105346918,1.6616086853742598,-0.2588527423687279
1789483397290179800,6.328179931640625,1.8187234931468963,1.5818839912742375,-0.20631576879322527
1789483397300228900,6.338228759765625,1.6588009344771504,1.492389013788104,-0.14637231835350392
1789483397310278000,6.34827783203125,1.5003113312199712,1.4115215793937443,-0.19099793428257106
1789483397320327700,6.35832763671875,1.3474337226256727,1.4004671014159917,-0.26969562342241404
1789483397330377000,6.368376953125,1.1304062979429959,1.3958230750024319,-0.4765019522115588
1789483397340426000,6.378426025390625,0.9277537278324365,1.3999831172913313,-0.7137371754035353
1789483397350474800,6.388474853515625,0.893779854299128,1.4496189625978468,-0.9703770640283822
1789483397360524800,6.39852490234375,0.9101438368618487,1.5352064112514257,-1.222652912224829
1789483397370573800,6.40857373046875,0.9588900398522615,1.6592185753673314,-1.3973840407088398
1789483397380622800,6.418622802734375,1.101478309622407,1.8346300873309374,-1.4208783135429024
1789483397390673000,6.4286728515625,1.264654901652038,2.054330238354206,-1.19678372695297
1789483397400721700,6.4387216796875,1.3362868901893497,2.1957027025938034,-0.8227309263467788
1789483397410771000,6.44877099609375,1.3009782609209417,2.311270278969407,-0.39936186777725813
1789483397420819700,6.45881982421875,1.1730021616101265,2.2107050414144993,0.024376608626544474
1789483397430869800,6.468869873046875,0.9365715327993035,1.8762468768328426,0.5692552008412778
1789483397440919000,6.4789189453125,0.5259302922472358,1.1355763940572738,1.1115944838367402
1789483397450967800,6.4889677734375,0.04308861562013626,0.5354419246971607,1.8183578747048974
1789483397461016800,6.499016845703125,-0.40581250522136686,0.6371697762906551,2.267416816456616
1789483397471067400,6.5090673828125,-0.6622203386560082,1.2954904771596192,2.0449860714256762
1789483397481116400,6.519116455078125,-0.6945221873238683,1.8907324983030556,1.5234250803038476
1789483397491165400,6.52916552734375,-0.721781657910347,2.181204806163907,1.3358935069575906
1789483397501215500,6.539215576171875,-0.8918401184082031,2.169668097627163,1.31131377697438
1789483397511264300,6.54926416015625,-1.1301527615733444,2.1231629515618087,1.2902324105009435
1789483397521313500,6.5593134765625,-1.4535320443883537,1.9952783299267292,1.141005141107738
1789483397531362300,6.5693623046875,-1.8981106258556246,1.847234132838249,0.7439124603714794
1789483397541412400,6.579412353515625,-2.416425620793551,1.6498089419871567,0.18215338743925094
1789483397551461400,6.58946142578125,-2.7974934147283435,1.2958394367277621,-0.407602603508532
1789483397561510400,6.599510498046875,-3.0766037860974667,1.1272364357352256,-0.7377223735596984
1789483397571560400,6.609560546875,-3.2342718438386915,1.1399743367552757,-0.6214018599249422
1789483397581609500,6.619609375,-3.1073557749748226,1.1150023925840853,-0.31471403806135057
1789483397591658200,6.629658203125,-2.6428525958538054,1.2150111653000115,0.09089359223768115
1789483397601707500,6.63970751953125,-2.1179671364843844,1.4158610699027776,0.5827349332045764
1789483397611757300,6.64975732421875,-1.5369395186543464,1.6162918723106383,1.0611278867945075
1789483397621806300,6.659806396484375,-0.8504970312811434,1.8237416135698556,1.4216699023120105
1789483397631855400,6.66985546875,-0.12549670358523726,1.8677865070015192,1.4241776473492382
1789483397641905400,6.679905517578125,0.5888181255757808,1.7216320691823959,0.9566988134182989
1789483397651954400,6.689954345703125,1.2932852222003042,0.6097481008797884,-0.33316235261745747
1789483397662003200,6.700003173828125,1.3379694364488124,-0.39950668307542797,-1.1171382355690003
1789483397672052500,6.710052490234375,1.3072493040144442,-0.39122108528912064,-1.1472686584819107
1789483397682102500,6.7201025390625,1.1802926108792424,-1.7219611550062894,-2.077570244166255
1789483397692151300,6.7301513671875,0.9198283416606485,-3.350361982783675,-2.92574716193676
1789483397702200300,6.740200439453125,0.6356570336401463,-6.87088705548346,-3.608278467215597
1789483397712250400,6.75025048828125,0.8626280524492264,-8.379151099273562,-3.707290922370553
1789483397722299400,6.76029931640625,0.8276023317754269,-8.372753507190943,-3.7163665014907714
1789483397732348400,6.770348388671875,0.6109399410128593,-9.569626958253979,-3.75145067435354
1789483397742397200,6.780397216796875,-1.6035773521661758,-5.737296282285452,-0.3950672393232584
1789483397752447500,6.790447509765625,-2.141548064688593,-4.023472841027379,1.221732071052864
1789483397762496500,6.80049658203125,-1.9974014595605432,-4.926604168778658,1.5642289459876715
1789483397772545300,6.810545166015625,-2.0035681654967368,-4.9254140822112555,1.5608362348094582
1789483397782595300,6.82059521484375,-1.5463444758594036,-7.232288756570219,0.956324573278427
1789483397792644400,6.830644287109375,-1.9329389242611825,-6.022836978963017,1.097252216359973
1789483397802693400,6.840693359375,-1.7243078642629086,-2.986715717640519,0.5779805782843381
1789483397812742400,6.850742431640625,-1.6736752630040048,-2.993305032902956,0.5515590928919613
1789483397822792200,6.860792236328125,-0.7851846011541783,-0.8670540521979332,-0.04426646376047283
1789483397832841500,6.870841552734375,0.34986119315773245,0.8494085053920746,-0.36443873069509863
1789483397842890200,6.88089013671875,2.0966110447227955,2.8043799593716856,-0.5308343213038519
1789483397852940300,6.890940185546875,2.715944720071554,2.652656196987629,-0.4215296412479132
1789483397862989300,6.9009892578125,2.722077523738146,2.6524346631914377,-0.4383661732258275
1789483397873038300,6.911038330078125,3.1033447857677934,2.171404127639532,0.08057097219843416
1789483397883087400,6.92108740234375,3.0942344275951386,1.7610609932512045,0.57493832451161
1789483397893137400,6.931137451171875,2.6026483034983277,0.21723229960501192,0.2504401206692681
1789483397903186400,6.9411865234375,1.8572798721648751,-0.8483516898155212,-0.07265464611593633
1789483397913235500,6.9512353515625,1.7683273309923708,-0.8334639172852039,-0.08995791882276534
1789483397923285500,6.961285400390625,0.7483297653570771,-0.9690233113318681,-0.06684311029296368
1789483397933334300,6.971334228515625,0.11544205029979347,-0.19609481903016565,-0.35954810910932716
1789483397943383600,6.981383544921875,-0.39257878350839015,0.8148749521493911,-0.9347489204820245
1789483397953432300,6.991432373046875,-0.4381201991081238,0.8210720532238482,-0.9456277496319263
1789483397963482400,7.001482421875,-0.278823955643177,0.9243354438215493,-0.8154914766125381
1789483397973531400,7.011531494140625,-0.23244097465276717,0.7299567810595036,-0.8481962069928646
1789483397983580400,7.021580322265625,-0.5372503623586148,-0.03509352521300316,-1.3296286013439298
1789483397993630500,7.03163037109375,-0.713740901730582,-0.3492512445658445,-1.330071961197257
1789483398003679200,7.04167919921875,-0.5755741747297346,-0.657062225240469,-1.205022051531449
1789483398013728300,7.051728271484375,-0.6041255848228931,-0.6545505346804857,-1.192263034658134
1789483398023778600,7.061778564453125,-0.41556459536366164,-0.7508090149521828,-0.8226449285637587
1789483398033827300,7.071827392578125,0.757433839919418,-0.3473842816501856,-0.42049755825381724
1789483398043876400,7.08187646484375,1.2282723595418035,0.10138473724424839,-0.27654125153347847
1789483398053925400,7.09192529296875,1.332968267160654,0.48508361033499237,-0.2048097481444478
1789483398063975400,7.101975341796875,1.3378385035455227,0.4839847091823816,-0.19205825699046253
1789483398074024400,7.1120244140625,1.3005273022830486,0.8369277940034866,-0.1358427410326898
1789483398084073200,7.1220732421875,0.9027893824458122,1.1221312215507029,-0.056056087612360715
1789483398094123300,7.132123291015625,0.6219266875166446,0.8778945951640605,-0.07585344215724617
1789483398104172500,7.142172607421875,0.2786567823827267,0.32943887511491776,-0.31180965838935226
1789483398114221300,7.15222119140625,0.2221089657306671,0.3337976548463106,-0.2949642855178565
1789483398124270300,7.162270263671875,-0.21657814654521643,-0.23113106109797954,-0.799102797999978
1789483398134320400,7.1723203125,-0.7449801626682281,-0.5103074834406376,-1.3195771629288793
1789483398144369400,7.182369384765625,-1.4156898049890994,-0.4829740708351135,-1.6019547194004058
1789483398154418400,7.19241845703125,-2.0181986022651195,-0.15594927112460136,-1.54444887137115
1789483398164468200,7.20246826171875,-2.2827029406547545,0.42240825071334837,-1.113291204752028
1789483398174517500,7.212517578125,-2.228990055167675,0.9263859466105699,-0.53988195297122
1789483398184566300,7.222566162109375,-1.9019301841437815,1.2603513592392206,-0.014403861470893025
1789483398194616300,7.2326162109375,-1.364061324560642,1.5378987190753222,0.4115188271041959
1789483398204665300,7.242665283203125,-0.8680558496516197,1.8021388535708187,0.7119361173309385
1789483398214714400,7.25271435546875,-0.4908860860686749,1.9255612351000309,0.7603877212889492
1789483398224763400,7.262763427734375,-0.3812251764535904,1.9344711022645233,0.6641483110439032
1789483398234813400,7.2728134765625,-0.5413689766585826,1.9855740975141525,0.6220423497855663
1789483398244862200,7.2828623046875,-0.8825999963760376,2.122645649689436,0.7278356241870672
1789483398254911500,7.292911376953125,-1.4616308874309063,2.2982442086577413,0.9636467328600585
1789483398264961500,7.30296142578125,-2.039655377922207,2.4858488472402094,1.2506921350121498
1789483398275010300,7.31301025390625,-2.2280711867570875,2.632226572421193,1.4518652802199123
1789483398285059300,7.323059326171875,-1.9843547848522662,2.861156324082613,1.3650633412100375
1789483398295109400,7.333109375,-1.4295114095926285,3.099589817148447,1.2221015619523823
1789483398305158400,7.343158447265625,-0.9488707501411437,3.2507144445955753,1.0322804163642227
1789483398315207400,7.35320751953125,-0.3523508180163801,3.2687820162057877,0.8601387198515236
1789483398325256400,7.36325634765625,0.1557376742005348,3.151557904794812,1.0162152706176042
1789483398335306500,7.373306396484375,0.6196374806009233,2.662458044555783,1.1190661348916588
1789483398345355300,7.383355224609375,1.083432365322113,2.0667226869374513,1.0891377373568714
1789483398355404300,7.393404296875,1.1822855382621287,1.473318987137079,1.0793959494128822
1789483398365454300,7.403454345703125,0.5851344686269759,0.8751911814242601,1.1473720457911492
1789483398375503400,7.41350341796875,-0.3326407398961484,0.3870721489161253,1.530433205500245
1789483398385552400,7.423552490234375,-0.5775273546241223,0.11869243039786814,1.9812115183904766
1789483398395602400,7.4336025390625,-0.002028290957212448,0.09385434173941612,2.310773581493646
1789483398405651500,7.4436513671875,0.9367653018057346,0.2819640072345733,2.6968232554942366
1789483398415700500,7.453700439453125,1.4194855440102516,0.6523959869951009,3.0265660819917914
1789483398425749200,7.463749267578125,1.1913621402956545,1.1965081248819827,3.314883842167258
1789483398435799300,7.47379931640625,0.16274141548275947,1.5842513049274682,3.6953818733900783
1789483398445848600,7.4838486328125,-1.6381075444079936,1.6505775882720946,3.619391105121374
1789483398455897300,7.4938974609375,-2.7888451211094853,1.3059440666347741,2.1612559508517384
1789483398465947400,7.503947509765625,-2.7407448148071762,0.5851596030682324,0.9208286047443747
1789483398475996000,7.513995849609375,-2.3465232325278222,-0.5867553478270768,0.257189923723042
1789483398486044700,7.524044677734375,-1.5513573355853556,-1.998952634525299,-0.393815997153148
1789483398496094700,7.5340947265625,-0.5118646497547626,-3.27405498817265,-0.8129583048731088
1789483398506143700,7.544143798828125,0.0375815426364541,-4.440667741006613,-1.0406404676262289
1789483398516192800,7.55419287109375,0.07006926926523446,-5.433422641059756,-1.2592264468625187
1789483398526242800,7.564242919921875,-0.059138709928095334,-6.131901749315857,-1.3365626383908091
1789483398536291600,7.57429150390625,-0.5583329709410667,-6.73582392052114,-1.3239607848405837
1789483398546340600,7.584340576171875,-1.5054640378080308,-7.329414667326212,-1.3438085178658365
1789483398556390000,7.594389892578125,-2.114784122534096,-7.727848168212175,-1.3847308953627944
1789483398566439700,7.604439697265625,-2.586121239328384,-7.63932583515048,-2.2175817953161894
1789483398576488700,7.61448876953125,-1.9876774995341895,-7.086692537155747,-2.5420640709370375
1789483398586537500,7.624537353515625,-1.092785300078988,-5.699240400135516,-3.0059508717253802
1789483398596587800,7.634587890625,-0.536767328082025,-4.077167021813988,-3.517845039835572
1789483398606636800,7.64463671875,-0.5748001216173172,-2.5997300779640673,-3.5817923190891743
1789483398616685600,7.654685546875,-0.6497954491078853,-1.8278724297642708,-3.7708635230928658
1789483398626735600,7.664735595703125,-0.39827392641007897,-1.371255035457015,-3.6397055788755415
1789483398636785000,7.674784912109375,0.26144875021129843,-0.8393582360208034,-2.7593188746348023
1789483398646833700,7.684833740234375,0.36348318353593345,-0.8847095358759164,-2.754178881397843
1789483398656883700,7.6948837890625,1.7822195166140793,-0.03052490212321281,-0.6742720840428024
1789483398666932700,7.7049326171875,2.1681141461834312,0.3058335431218147,-0.0075848291058093304
1789483398676981800,7.714981689453125,2.446032969680428,0.6175245801001786,0.5271230822283774
1789483398687030800,7.72503076171875,2.4364500255599615,0.8644827404052019,0.8058529298473149
1789483398697080600,7.73508056640625,1.8657824737027286,1.0329740977168083,0.9537835835587233
1789483398707129600,7.745129638671875,1.3048407815679908,0.8961971445739269,1.0843920771997422
1789483398717179000,7.755178955078125,1.1059116158947349,0.4967372232496738,1.2625761956818402
1789483398727228700,7.765228759765625,1.2129092245846986,0.43126667995154855,1.3134221474304795
1789483398737277700,7.775277587890625,2.2860469903856515,0.5216249962687493,1.4283340363763273
1789483398747326700,7.78532666015625,2.3690198726266622,0.46709494917988775,1.472869782064855
1789483398757376800,7.795376708984375,2.9711393783241506,1.943106828662753,0.44087651207894085
1789483398767425800,7.80542578125,2.8972505507707593,2.8713194061785936,-0.061879898395016786
1789483398777474600,7.815474609375,2.754332026132941,3.6043361593306065,-0.6103626525815576
1789483398787524600,7.825524658203125,2.448704819238186,4.123597349077463,-1.0398528974451124
1789483398797574000,7.835573974609375,1.9428601604253053,4.1928444883048535,-1.2472867104828358
1789483398807622700,7.84562255859375,1.5845447349160908,3.702146545219421,-1.193179711111635
1789483398817672700,7.855672607421875,1.651302395415306,2.927348751914501,-0.8380063830204307
1789483398827721500,7.865721435546875,1.627607631573081,2.9418858113110065,-0.8352562075294554
1789483398837770800,7.875770751953125,1.8304805664360522,2.0561679751753807,0.1919838765799999
1789483398847819800,7.88581982421875,1.7746826913684606,2.0934061112016438,0.17361542232707142
1789483398857869600,7.89586962890625,1.9417489843130111,1.8917308616906403,0.14578662742003798
1789483398867918800,7.9059189453125,2.0776643521904945,2.02957398276031,0.03359020797796547
1789483398877967600,7.915967529296875,2.0702444313228128,2.2099375641733405,-0.11028751708082854
1789483398888017700,7.926017578125,1.9065514142036437,2.365298221755028,-0.2938627540167421
1789483398898066700,7.936066650390625,1.8069605746388435,2.423466917607188,-0.31891024764217435
1789483398908115700,7.94611572265625,1.451474527336657,2.6097394308030606,-0.47650991632230577
1789483398918165800,7.956165771484375,1.2141492877736686,2.686166252401471,-0.4714870466589927
1789483398928214800,7.96621484375,0.8895666205182671,2.7486311841428277,-0.3894546601384878
1789483398938263600,7.976263671875,0.5270221791371703,2.8215795159757135,-0.16233648794367908
1789483398948313600,7.986313720703125,0.3174637751609087,2.878940402576327,0.0997747447643429
1789483398958363000,7.99636279296875,0.17589315800070762,2.943617749670148,0.08718465471714734
1789483398968411600,8.00641162109375,-0.08669804024398327,2.9687878467619417,0.9603883155860006
1789483398978461700,8.016461669921876,-0.3351780032888055,2.9168986695706844,1.648527085483074
1789483398988510700,8.0265107421875,-0.5374316372096538,2.751678296753764,2.258454926843941
1789483398998559700,8.036559814453126,-0.7554130016162991,2.479410338625312,2.638742237925529
1789483399008609800,8.04660986328125,-1.0399579652547837,2.1185428905457258,2.791934903818369
1789483399018658600,8.056658447265624,-1.2734458186119795,1.7987392742604016,2.8742212650999424
1789483399028707800,8.066707763671875,-1.3481839564710856,1.2774854493916035,2.8176632193148134
1789483399038756600,8.076756591796874,-1.5081363257572054,0.4344394647687673,2.528250357379019
1789483399048806700,8.086806640625,-1.634638553123176,-0.31970775469541546,2.1574527591764925
1789483399058855700,8.096855712890624,-2.0245473867699504,-0.6661679072380066,1.5992792165808378
1789483399068904700,8.10690478515625,-2.1192180133283136,-0.634954438328743,1.5298745487041772
1789483399078954800,8.116954833984375,-2.65669202837497,-0.7538555430412293,1.1091244404613971
1789483399089003800,8.127003662109376,-3.3524259295761585,-0.6334001946240663,0.735878133932501
1789483399099052500,8.137052490234375,-4.304621440225839,-0.06635200230777263,0.4298520639132708
1789483399109102800,8.147102783203126,-5.055778830224275,0.6516887155085802,0.2838836501855403
1789483399119151600,8.157151611328125,-5.146433499139547,1.361564247047901,0.31698026596028356
1789483399129200600,8.16720068359375,-4.411244078123569,1.6888924136191605,0.3260361905319616
1789483399139250700,8.177250732421875,-3.587257014235854,1.5767442902982234,0.2304720126673579
1789483399149299700,8.1872998046875,-3.1023768175184725,1.2865268339812754,0.3946841217571869
1789483399159348700,8.1973486328125,-2.7864994347661733,0.8528431560158729,0.46263965027146037
1789483399169398800,8.207398681640624,-2.7856653220295904,0.32564825066030023,0.41558856076113876
1789483399179447600,8.217447509765625,-2.894601789827645,-0.30856852104365823,0.02664996038600802
1789483399189496800,8.227496826171874,-3.3643189042046666,-1.2291840675592423,-0.6340843774959445
1789483399199547000,8.237546875,-3.440887472361326,-2.780882763928175,-1.3363501646839082
1789483399209595600,8.247595703125,-2.1436557044923306,-4.70897147167921,-1.4615793033741413
1789483399219644700,8.257644775390625,-0.08523688165023922,-6.483363655668497,-1.2341346757039426
1789483399229694700,8.26769482421875,1.896000794094801,-7.669684148535132,-1.045105776472017
1789483399239743700,8.27774365234375,3.2624107276082035,-8.97114493227601,-1.827576953949034
1789483399249792800,8.287792724609375,3.7572143524467942,-9.915887788832187,-3.2229215977847576
1789483399259841800,8.297841796875,3.380211469863355,-9.383265013208986,-4.40119030162096
1789483399269891800,8.307891845703125,2.452540451878309,-7.051880751493573,-5.0632344069272275
1789483399279940600,8.317940673828126,1.2716275171436369,-4.194240911099315,-5.006281516605616
1789483399289989600,8.32798974609375,0.13297493051141498,-2.060354320949316,-4.199076368431747
1789483399300039700,8.338039794921874,0.06723141549080609,-1.0401005885958672,-3.374463281600177
1789483399310088700,8.348088623046875,1.0198119799353182,-1.3593746280491352,-2.9566113790169357
1789483399320137700,8.3581376953125,1.124314995330572,-2.2186749973803757,-2.9169655973270534
1789483399330187800,8.368187744140625,0.9641454761624335,-2.6111621570825574,-3.2381098145663736
1789483399340236500,8.378236572265624,1.181103781131655,-2.4582319415181875,-3.602999065507948
1789483399350285800,8.388285888671875,1.369354462532699,-1.856093146598339,-3.318555808678269
1789483399360335600,8.398335693359375,1.7152270244456826,-1.082677163040638,-2.4597905691370365
1789483399370384600,8.408384521484376,2.4738337075367567,-0.4219061464101076,-1.4616465233914553
1789483399380434000,8.418433837890625,3.2134254551649093,0.262154560393095,-0.48215566712431607
1789483399390483700,8.428483642578126,3.7734894876822827,1.008677276328206,0.32667160235866904
1789483399400532700,8.43853271484375,4.244236237367987,1.8420324725419281,0.9316779886040836
1789483399410581500,8.44858154296875,4.421985544629394,2.4681442637234925,1.3407690040394662
1789483399420631600,8.458631591796875,4.502995310103893,2.780809698691964,1.4494085347175598
1789483399430680800,8.468680908203124,4.611418275421857,2.781895155841112,1.4624039176300168
1789483399440729600,8.4787294921875,4.481287336164713,2.449059039503336,1.2656539956919848
1789483399450779600,8.488779541015624,4.032162927961349,1.7903864564567804,0.8148599007107317
1789483399460828700,8.49882861328125,3.4697067396104333,0.8930646917670965,0.11865410768147558
1789483399470877700,8.508877685546874,2.1956408894039687,0.10883096159696579,-0.6672228231184184
1789483399480928000,8.518927978515626,0.4480969648517668,-0.5806038394600153,-1.6308409144058822
1789483399490977000,8.52897705078125,-0.4589969098549336,-0.9399427627980709,-2.103039470335096
1789483399501025800,8.53902587890625,-1.4157517643094062,-0.7564999200701713,-1.6210187547020614
1789483399511076000,8.549076171875,-1.805562398278713,-0.40585049914419646,-0.9584205226443707
1789483399521125000,8.559125,-1.8616390902876854,-0.40252281602621076,-0.9544104102201759
1789483399531174000,8.569173828125,-1.686623884165287,-0.15540391220152378,-0.2597046830229461
1789483399541224000,8.579223876953124,-1.0934347038984298,-0.2548994746983051,0.3401907899495214
1789483399551273200,8.589273193359375,-0.1852046647686511,-0.3258019799172878,1.055756569019705
1789483399561322000,8.599322021484374,0.21962946040723472,-0.32033260859549045,1.0064335159894078
1789483399571371000,8.60937109375,0.18976035531163216,-0.318677242603898,1.0050786673143506
1789483399581420800,8.6194208984375,0.3791021929502487,-0.39886896969377994,0.6946722633190453
1789483399591470000,8.629469970703125,0.44704230469968165,-0.45832419822514053,0.39681017400044943
1789483399601519000,8.63951904296875,0.6471393816411495,-0.230205178424716,0.19067840173831208
1789483399611569000,8.64956884765625,0.7936603146851062,-0.1785901419997215,0.05219550319407135
1789483399621618000,8.659617919921875,0.765959822332859,-0.17769874611794947,0.061333881884813306
1789483399631667000,8.6696669921875,0.922741452628374,-0.302751943719387,0.00018226123172789812
1789483399641717000,8.679717041015625,0.9939069926977157,-0.4462234260648489,-0.014605777251161634
1789483399651766000,8.68976611328125,0.6113105278909206,-0.3906166896551847,0.1546850598750636
1789483399661815000,8.69981494140625,0.06182841480295174,-0.1412900466531515,0.2762216459239833
1789483399671865000,8.709864990234376,-0.024763849811884574,-0.14092939664721488,0.29360160059621554
1789483399681914000,8.7199140625,-0.5077081145972013,0.1419084708124399,0.31061456685326994
1789483399691963000,8.729962890625,-0.9233592922657727,0.26140871046185493,0.22973211755286901
1789483399702013000,8.740012939453125,-1.8688059131771324,0.3730453771293163,0.13501403512358665
1789483399712062000,8.75006201171875,-2.0676807183146475,0.4066717523992061,0.1479194016650319
1789483399722111000,8.760111083984375,-2.1072803227752446,0.40443011095225806,0.17861655508261173
1789483399732161000,8.7701611328125,-2.037308376404643,0.40919688696265216,0.20296313389707354
1789483399742209800,8.780209716796875,-1.6721470305234192,0.3184568778514862,0.15844707928970456
1789483399752259000,8.790259033203125,-0.5731517333557828,0.18965923302471638,0.19699794188234954
1789483399762309000,8.80030908203125,-0.22384612825419753,0.10659867250025272,0.24525146598499267
1789483399772358000,8.81035791015625,-0.2448743397682905,0.10342121150791644,0.2876635705830529
1789483399782407200,8.8204072265625,-0.20619009658694265,0.08776070103943348,0.3747887136653065
1789483399792457200,8.830457275390625,-0.578845597615838,0.1995049197345972,0.5896706507518887
1789483399802506000,8.840506103515626,-0.7239893970876932,0.19107728312909603,0.8885447301246225
1789483399812555000,8.850554931640625,-0.8365981236577034,0.09564005611240864,1.3032554120726882
1789483399822604800,8.860604736328124,-0.8721640156228094,0.08948679417967796,1.3561907373160123
1789483399832654000,8.870654052734375,-1.0108820928961038,-0.21887246802747248,1.804509528224915
1789483399842703000,8.880703125,-1.2720903123497962,-0.9203086725234985,2.7611902214646338
1789483399852753000,8.8907529296875,-1.491340966039896,-1.0118003767848014,3.215730809497833
1789483399862802000,8.900802001953124,-1.5886322964906692,-0.8470248251259327,3.5908386721149084
1789483399872851000,8.910850830078125,-1.626205363559723,-0.8518640818506479,3.6113965992361305
1789483399882901000,8.92090087890625,-1.8280331732839346,-0.5229027611196041,3.914330621524155
1789483399892950000,8.930949951171876,-2.1246377002894876,0.21981880896687506,3.3414871869325635
1789483399902999000,8.9409990234375,-2.227061132931709,0.24475100564956664,2.1280239817269146
1789483399913049000,8.951049072265626,-2.258071188223362,0.24244915844798087,2.123825214862823
1789483399923098000,8.96109814453125,-2.3963456864476202,0.2672089211732149,0.8673688903007656
1789483399933147000,8.97114697265625,-2.4913591350942847,0.010488660788536072,-0.1319650958817452
1789483399943197000,8.981197021484375,-2.64899884352386,-2.8587562772035597,-1.5886775969371199
1789483399953246000,8.991245849609374,-1.5867051278203725,-4.324450760811567,-1.7103607335835693
1789483399963295000,9.001294921875,-1.5182517693191766,-4.319317489576339,-1.7040462897397577
1789483399973345000,9.011344970703124,-0.17365495061986147,-5.181883582705259,-1.6637337147042155
1789483399983393800,9.021393798828125,0.7266893036961555,-4.946265731582045,-1.608767322024703
1789483399993443000,9.031443115234374,0.693687197804451,-2.9447464614391325,-1.7605664877325296
1789483400003493000,9.0414931640625,0.7318500474601983,-2.938582093590498,-1.8002863575719297
1789483400013542000,9.0515419921875,0.09189436677806079,-1.8321721727848053,-1.9307555888727306
1789483400023591200,9.061591064453125,-0.5212129448691383,-1.0469354030519724,-2.2785352995812893
1789483400033641200,9.07164111328125,-0.9001280542820691,-0.6007680910885334,-2.9163182393342253
1789483400043690000,9.08168994140625,-0.9766741183459758,-0.39714638368487354,-3.5699902376145123
1789483400053739000,9.091739013671875,-1.0259645112156868,-0.22529811716079712,-3.9353494441553947
1789483400063788800,9.101788818359376,-0.8675748612016438,-0.023913375028967856,-4.084744179069996
1789483400073838000,9.111838134765625,-0.327118323212862,0.11418635115027427,-4.006896969279647
1789483400083887000,9.12188720703125,0.36356213052365927,0.33587621468603607,-3.639867491438985
1789483400093937000,9.13193701171875,0.7917372376680374,0.8250514782488345,-3.0322184086650608
1789483400103986000,9.14198583984375,1.743023232257366,1.6412527105659245,-2.277076186814159
1789483400114035000,9.152034912109375,2.4541268442869186,2.302149983924627,-1.5368068321853876
1789483400124085000,9.1620849609375,1.997919199824333,2.3357611616253853,-1.3146692248821257
1789483400134134000,9.172134033203125,1.4182092404641211,1.9783599283516407,-1.616952966567874
1789483400144183000,9.18218310546875,1.1881073762834071,1.5191998638242483,-1.7623581934548913
1789483400154233000,9.192233154296876,1.0497042832434176,0.6973749464064836,-1.9444614581421016
1789483400164282000,9.2022822265625,1.290991558305174,-0.3558522502660751,-2.308588930930942
1789483400174331000,9.212330810546876,1.995599963096529,-0.9211006996840237,-2.2791876260101795
1789483400184381000,9.222380859375,2.498090196914971,-1.2029495561063288,-1.842118689520657
1789483400194430200,9.23243017578125,1.7772578025534749,-1.39978028819561,-0.9541057281851768
1789483400204479000,9.24247900390625,1.251003100657463,-1.1355530131816864,-0.0664618193577975
1789483400214529000,9.252529052734374,1.0948270350396632,-0.7394909176021814,0.2971720977604389
1789483400224577800,9.262577880859375,0.985802888958156,-0.9980699575960635,0.9145314773615449
1789483400234627000,9.272626953125,0.40983986104130743,-1.3199872050344943,1.4057218070738016
1789483400244676000,9.282676025390625,0.1745598635703325,-1.421705119755864,1.2334788421437144
1789483400254726000,9.292725830078124,0.022507307623326776,-1.3534078285992144,1.2549044920101762
1789483400264775000,9.30277490234375,-0.09411153137087822,-1.2417507036656141,0.9370203725453465
1789483400274824000,9.312823974609374,0.25276392397433517,-0.7304179688304663,0.7255325348764657
1789483400284874000,9.3228740234375,0.8216881392955779,-0.0162561382740736,0.3870764597650617
1789483400294923000,9.332923095703125,1.3074647003307938,0.6557008737593889,-0.23107450860515236
1789483400304972800,9.342972900390626,1.6070578877583146,1.3726725010395049,-0.7014131889466196
1789483400315022000,9.35302197265625,1.9177660511791705,2.0856781472980974,-0.9744447518587112
1789483400325071000,9.363071044921876,2.2520602573707698,2.607939103382826,-1.254213002614677
1789483400335121000,9.373120849609375,2.337586915747821,3.022338819685578,-1.5301730932593345
1789483400345170000,9.383169921875,2.0820228396609424,3.3083184923022984,-1.7563550075173378
1789483400355219000,9.393218994140625,1.5916113123014568,3.416381392136216,-1.8127181152522562
1789483400365269000,9.40326904296875,1.1862059265762568,3.2692870431184766,-1.5365350295066833
1789483400375318000,9.413318115234375,0.9885305603563785,2.9584055689573288,-1.039527684078738
1789483400385367000,9.423366943359374,0.9152177791252731,2.729052623447776,-0.385702760259062
1789483400395417000,9.4334169921875,1.00475338088274,2.6126152785003183,0.3191712366659194
1789483400405466000,9.443466064453125,1.0742015956401825,2.4943629930853843,0.9431786029141396
1789483400415515000,9.453514892578125,0.9273273191139102,2.280132213383913,1.1532209910150617
1789483400425565000,9.46356494140625,0.5340867106959224,2.021861216425896,1.0398812467567622
1789483400435614200,9.4736142578125,-0.00168225399851799,1.702860733217001,0.7050293336171657
1789483400445663000,9.4836630859375,-0.23158406556248665,1.693513059157133,0.6572411620039492
1789483400455713000,9.493713134765626,-0.5402969635128975,1.7290256865650415,0.5414790129043161
1789483400465761800,9.50376171875,-0.9519912202492355,1.774465249225497,0.26655520650483666
1789483400475810300,9.513810302734376,-1.4221090243816374,1.8063444885671138,-0.07469605228304863
1789483400485860400,9.5238603515625,-1.9564742597579954,1.788663870447874,-0.3644561202213168
1789483400495909000,9.5339091796875,-2.518917588627338,1.6881576696038245,-0.4662246691513806
1789483400505958400,9.54395849609375,-2.6133555754736064,1.7156085711091755,-0.46858445708528157
1789483400516008400,9.554008544921874,-3.433959718924761,1.036174939584732,0.15690379537045954
1789483400526057200,9.56405712890625,-3.838455880850553,0.44512335586845875,1.228624972371757
1789483400536106200,9.574106201171874,-4.184658551500737,-0.3041092035472393,2.7393103980898856
1789483400546156300,9.58415625,-4.262361676645279,-0.2832306661695242,2.72268542650342
1789483400556205300,9.594205322265625,-4.614974506598711,-2.1356565224319697,5.7238744906544685
1789483400566254300,9.60425439453125,-4.553782371272146,-2.626125917458534,6.224349146866798
1789483400576304400,9.614304443359375,-4.641444872634112,-2.2155156565666196,5.731054757547378
1789483400586353400,9.624353515625,-5.099471841478348,-1.0156757569134234,4.915647305956482
1789483400596402400,9.63440234375,-5.084430924212932,-1.0157371317118407,4.871200261464715
1789483400606452200,9.6444521484375,-4.649752682252228,0.2609954534858465,2.4567662528797984
1789483400616501200,9.654501220703125,-3.6900007648736235,-0.8855237748682498,1.0086666088037193
1789483400626550500,9.664550537109376,-2.2212049542494117,-3.0026269879996774,-0.20666465529613195
1789483400636600300,9.674600341796875,0.0036903789505362506,-5.4908823118597265,-2.207576095739007
1789483400646649300,9.6846494140625,1.2796537333413958,-7.287519060882926,-5.5158758833408355
1789483400656698000,9.694697998046875,1.1207666551992297,-7.975576143845915,-8.47298381370306
1789483400666748200,9.704748046875,1.3038241518713534,-6.237703718480468,-8.620770236638188
1789483400676797400,9.71479736328125,1.795239741706848,-1.5483558156818151,-7.410152337861061
1789483400686846200,9.72484619140625,1.6675252159416674,2.704566416966915,-7.269189623466134
1789483400696896300,9.734896240234375,1.4988085254415868,4.673645306754112,-6.937788508367538
1789483400706945500,9.744945556640625,1.627083315438032,5.810583636814355,-5.8111704967916005
1789483400716994300,9.754994384765626,2.061814456629753,5.74335952784717,-4.578481635981798
1789483400727044400,9.76504443359375,2.882989677967131,4.642417224797606,-2.922425031776726
1789483400737093400,9.77509326171875,3.8736213022559878,2.5142396599441765,-1.3780278905928134
1789483400747142400,9.785142333984375,3.7843104491651056,2.5282161628484725,-1.3005647116839885
1789483400757192400,9.7951923828125,5.188367099505663,-2.821422279587388,1.3461010127171873
1789483400767241200,9.8052412109375,4.275822338981926,-3.9817473304539917,2.4201146845698354
1789483400777290200,9.815290283203124,3.2923405864477155,-4.053901297038793,1.897669896350801
1789483400787340300,9.82534033203125,2.697655030143261,-3.333563992717862,0.5940908783469349
1789483400797389300,9.835389404296874,1.5746332894936204,-1.775479979225993,0.28906521754190323
1789483400807438300,9.845438232421875,0.6161926008440554,-0.32608313494622704,0.6068019644252955
1789483400817488400,9.85548828125,0.2102840879023075,0.7464467280894518,0.9801256470393389
1789483400827537400,9.865537353515625,0.19807810180187224,1.3565163160085678,1.287823595793545
1789483400837586400,9.87558642578125,0.30069910284280776,1.4443424834996461,0.9355377327721566
1789483400847636200,9.88563623046875,0.40073900134935975,1.2299614816725253,0.4867821578811854
1789483400857685200,9.895685302734375,0.29786563298255203,0.9440817622989416,0.23980419689714907
1789483400867734500,9.905734619140626,0.22691242048963903,0.4348930537551641,-0.11505977298393845
1789483400877784300,9.915784423828125,0.4033236110150814,-0.1273825173318386,-0.22161825960427523
1789483400887833300,9.925833251953126,0.8192506830155849,-0.5409124650627374,-0.25742775106690824
1789483400897882000,9.935882080078125,1.2737002317644655,-0.7824649669319391,-0.13318513919599353
1789483400907932200,9.94593212890625,1.8636850630320607,-0.7904723322987556,0.5187002679284661
1789483400917981400,9.9559814453125,0.9821676011957228,-0.7277455347508192,0.27733685889057813
1789483400928030200,9.9660302734375,0.16085107169151305,-0.48156712664663787,-0.003779445473477244
1789483400938080300,9.976080322265625,-0.023013795840740203,-0.21274200244843958,-0.09555785772167145
1789483400948129500,9.986129638671875,-0.06793094206228852,-0.2048766759008169,-0.1250642304521054
1789483400958178300,9.99617822265625,-0.24447978749275207,-0.05882745202183723,-0.46747350016869604
1789483400968228400,10.006228271484375,-0.23220599685311316,0.19786708939969538,-0.9014181671578436
1789483400978277400,10.01627734375,0.13689970273971558,0.5389554857760668,-1.3732532235369086
1789483400988326400,10.026326416015625,0.4761760812580585,0.8275047166198491,-1.1197007795333862
1789483400998376400,10.03637646484375,0.44100189202427864,0.8316735267370938,-1.1285857314523309
1789483401008425200,10.04642529296875,0.4060111695986241,0.8354974689394236,-1.1349816430345177
1789483401018474200,10.05647412109375,0.6419101757507771,0.7878554277986287,-0.8602831698235124
1789483401028524300,10.066524169921875,0.8393675883710384,0.7734843726187944,-0.48621144532114263
1789483401038573300,10.0765732421875,0.9278501008789986,0.7238339142650365,-0.18429405272975563
1789483401048622300,10.086622314453125,0.7190729834735393,0.5231476757913828,0.19780147681757806
1789483401058672400,10.09667236328125,0.4735048162221908,0.33788755450844765,0.6679158468838781
1789483401068721400,10.106721435546875,0.023092121773958203,0.22221768680214882,1.068930815630406
1789483401078770400,10.1167705078125,-0.5570048641424625,0.17045009016394613,1.1887257273774594
1789483401088820200,10.1268203125,-1.4738345354437827,0.11157646091282367,1.1520915485937149
1789483401098869200,10.136869140625,-2.5300679281949994,-0.017608721926808357,1.116246839687228
1789483401108918500,10.14691845703125,-3.39438524890542,-0.13086042257547378,1.0844598086737096
1789483401118968300,10.15696826171875,-3.675874624365568,-0.2932885343253612,0.9575442512664943
1789483401129017300,10.167017333984376,-3.7800983844280243,-0.10071370611488818,0.8873493097949773
1789483401139067400,10.1770673828125,-3.864738323098421,0.41929800973832604,0.8722245867036282
1789483401149116200,10.1871162109375,-3.846567875635624,0.8137398106396198,0.6346691185813397
1789483401159165400,10.19716552734375,-3.207690126383304,1.0696341415941715,0.01971643479578197
1789483401169215500,10.207215576171874,-2.2004373299002644,1.2788918090581893,-0.7668551637373864
1789483401179264300,10.21726416015625,-1.479837575250864,2.0292343755424023,-0.942977746579796
1789483401189313500,10.2273134765625,-0.1775578032772988,2.7760324012875555,-1.0619751512736082
1789483401199363300,10.23736328125,0.19305954298749564,2.995138093549013,-1.1918342147868126
1789483401209412400,10.247412353515625,-0.08464439564980566,3.188479229956865,-1.0332001615576445
1789483401219461400,10.25746142578125,-1.0124410127758978,3.5964521280825137,-0.657273968295008
1789483401229511200,10.26751123046875,-1.4830338870741426,3.8189509699136015,-0.4496354264654219
1789483401239560400,10.277560546875,-0.47487128226980563,3.869246155911684,-0.25874562873244283
1789483401249609200,10.287609130859375,0.4103707530476153,4.120258560043573,-0.02932977405451238
1789483401259659300,10.2976591796875,0.576377307806164,4.555845441281795,0.032364465575292704
1789483401269708300,10.307708251953125,1.1873976205788552,4.7211464781194925,-0.30756971926465626
1789483401279757300,10.31775732421875,1.565128525175899,4.181780073454976,-0.6789570269886404
1789483401289807400,10.327807373046875,2.004802675727755,3.265504601970315,-0.4062009930822998
1789483401299856400,10.3378564453125,2.100898074392229,2.371651974695921,0.2462878598280251
1789483401309905400,10.347905517578125,1.6432500218629835,1.582963018682599,0.6148821027673781
1789483401319955500,10.35795556640625,0.0887127410672605,0.6207528944969177,0.634301892704144
1789483401330004200,10.368004150390625,-1.610589276754856,-0.7300222475111484,0.8703142961028962
1789483401340053200,10.37805322265625,-1.8523826016426086,-1.8548019377440212,1.174281168569997
1789483401350103300,10.388103271484376,-0.714794429371506,-2.062579595783353,1.6981836813166737
1789483401360152300,10.39815234375,0.1172223578453064,-1.2744640557438134,2.4045681558698413
1789483401370201300,10.408201416015626,-0.5098819515049458,0.8377852876156568,4.008934612587094
1789483401380251400,10.41825146484375,-0.6489161820553243,1.2743915750294923,3.6386405799925323
1789483401390300200,10.428300048828126,-0.7270271573483944,1.9315180976778268,2.897707062366605
1789483401400349400,10.438349365234375,-0.2916553801655769,2.446349196022749,2.0968189883850514
1789483401410399500,10.4483994140625,0.4939408705294132,2.461391866853833,0.9919469446711242
1789483401420448300,10.4584482421875,0.22156784459128975,1.8181395557790994,-0.45830403221994637
1789483401430497300,10.468497314453124,-0.4571121920868754,0.7153279517263174,-1.6739488192483782
1789483401440547300,10.47854736328125,-1.0013666610538958,-0.521030537506938,-2.311774136838317
1789483401450596400,10.488596435546874,-1.0566741222560405,-1.6009446655750275,-2.1670409639939665
1789483401460645400,10.498645263671875,-1.2909012496732175,-2.7202351107418536,-1.5083853320822118
1789483401470696200,10.5086962890625,-1.6268004068434236,-4.26060635741055,-0.7554051105707883
1789483401480745200,10.5187451171875,-1.3926391842693089,-6.213913677570224,-0.18098887370452285
1789483401490794200,10.528794189453125,-1.0358537448063492,-8.093091931679844,0.26258418398201466
1789483401500844300,10.53884423828125,-0.8615078162476419,-9.44636882737577,0.8281940871234983
1789483401510893300,10.548893310546875,-1.44839175889045,-10.373635063952207,0.9998165820676833
1789483401520942300,10.5589423828125,-2.671466111397743,-11.344375116074085,0.17409553399421274
1789483401530992400,10.568992431640625,-3.478260340683162,-12.443787140816449,-1.672235001067817
1789483401541041200,10.579041259765624,-2.9001535787358876,-13.213895899522305,-4.538644715633988
1789483401551090200,10.589090087890625,-2.2314710583284496,-12.039351769167185,-6.968422716084122
1789483401561140200,10.59914013671875,-1.9256430681645869,-7.511892464414238,-6.509770601078867
1789483401571189200,10.609189208984375,-1.1707570130318403,-2.98613528740406,-4.904376554879546
1789483401581238300,10.61923828125,0.7724950693204998,-0.8058551948696374,-4.2804637350469825
1789483401591288300,10.629288330078126,1.5487801785737274,0.7310702952593564,-3.309815452861786
1789483401601337000,10.639337158203125,1.8702353614583611,2.148269920289516,-1.8466791293039917
1789483401611386400,10.649386474609376,2.206505836158991,3.102040132910013,-0.6929158481057733
1789483401621436400,10.6594365234375,2.758114467281103,3.677743340846896,-0.07129968784302472
1789483401631485200,10.669485107421876,3.299965674498677,3.83943203240633,0.286511587536335
1789483401641534200,10.6795341796875,3.162623196427524,3.670892744299769,0.5565065592315047
1789483401651584300,10.689584228515624,2.932924506220221,2.9893969195485113,0.8065155584745108
1789483401661633300,10.69963330078125,2.5596435667693616,1.9799708706796169,1.0460187996637076
1789483401671682300,10.709682373046874,2.019991330900788,1.1532651954829691,1.1863071219284087
1789483401681732000,10.719732177734375,1.7060633286505937,0.8522562960386276,1.1956312689822166
1789483401691781400,10.729781494140624,1.8603683396995065,0.984318495619297,1.1262871721863745
1789483401701830100,10.739830078125,2.1931880894243716,1.382647951608896,0.9178327839292585
1789483401711880200,10.749880126953125,2.6053169381856915,2.0033616831392047,0.6335828577145933
1789483401721929200,10.75992919921875,3.1284312962293623,2.680643689587712,0.4940128397870809
1789483401731979000,10.76997900390625,3.497385604652762,3.1473101842224596,0.43936713042929765
1789483401742028300,10.7800283203125,3.706294897070527,3.458627127191424,0.3766881175458431
1789483401752077300,10.790077392578125,3.6877047628909345,3.4706858137756584,0.27866818055957554
1789483401762127000,10.800127197265626,3.294566445803642,3.113008686169982,0.07072656413018703
1789483401772176400,10.81017626953125,2.891320576199889,2.690903217795491,-0.06479191338419914
1789483401782225200,10.82022509765625,2.5369839911937713,2.2894693660497665,-0.19065496606379748
1789483401792275200,10.830275146484375,2.1350760921955105,1.9116805937856434,-0.36279096348807216
1789483401802324200,10.84032421875,1.68966778190583,1.536612186396122,-0.527950546028465
1789483401812373200,10.850373291015625,1.2339432447850704,1.2136088972866534,-0.7197752865239977
1789483401822423300,10.86042333984375,0.8580886554539203,1.0132102435827255,-1.0274909901306033
1789483401832472300,10.870472412109375,0.5618003547906876,0.8953343902647495,-1.4528310565121472
1789483401842521000,10.88052099609375,0.36622049954533575,0.8682283566743135,-1.7610041484974324
1789483401852571100,10.890571044921876,0.1999263600170612,0.8807026383221149,-1.7740129754133522
1789483401862620400,10.900620361328125,0.12604220863878726,0.9101216250300407,-1.4536723296418785
1789483401872669200,10.910669189453126,-0.05408142653852701,0.9877133987545966,-1.4649880889043212
1789483401882719200,10.92071923828125,-0.03185995011925697,0.9265250628203153,-0.9542961361907422
1789483401892768300,10.930768310546876,0.019081424827873707,0.8294751399099827,-0.39150340936183925
1789483401902817300,10.9408173828125,-0.02590834823846817,0.571163810941577,0.23364976592063902
1789483401912867300,10.950867431640624,-0.48582682991772885,-0.34318156926333904,0.6600745587989687
1789483401922916000,10.960916015625,-0.48859921724051236,-1.001948260334134,1.3317702895477412
1789483401932965400,10.97096533203125,-0.09902531463652849,-0.6778653592944145,2.2412429491497576
1789483401943015400,10.981015380859375,-1.2129638773813842,-0.29482582689523695,2.51606044563055
1789483401953064200,10.991064208984374,-1.7676932708725333,0.32983985713124275,2.5130446049407125
1789483401963113200,11.00111328125,-1.9249330201990902,1.059157755765319,2.6060055049717423
1789483401973163000,11.0111630859375,-1.9726139320455491,1.601404099780321,2.69584710393846
1789483401983212300,11.02121240234375,-1.7850091473326086,1.967239983922243,2.5250007079333066
1789483401993261300,11.03126123046875,-1.0518506476223468,1.7962363515287636,1.5828256560385225
1789483402003311000,11.04131103515625,-1.1041615573570132,1.8131079913526773,1.546243061311543
1789483402013360400,11.0513603515625,-1.0299589876793325,1.6650690549612044,1.1990857202850282
1789483402023409200,11.0614091796875,-1.1659640796668826,1.534718919995427,0.7882029991272836
1789483402033459200,11.071459228515625,-1.4250969541512428,1.4875842438548803,0.39764907251000403
1789483402043508200,11.08150830078125,-1.7794070895418523,1.4357669628560543,0.03642068216353655
1789483402053557200,11.09155712890625,-1.8732246064022182,1.4950778144806622,-0.09018047553226351
1789483402063607300,11.101607177734374,-1.6643129758968949,1.7272767970710992,-0.15980923448838294
1789483402073656300,11.11165625,-1.3584639429450034,2.160164940744638,-0.32244755492284893
1789483402083705000,11.121705078125,-0.8515808809950948,2.7934447238594293,-0.42821576794832944
1789483402093755100,11.131755126953125,-0.29592355900406836,3.3705992996484038,-0.41309119098745284
1789483402103804400,11.141804443359375,0.02553907653465867,3.633156595623493,-0.04196516454815864
1789483402113853200,11.151853271484375,0.0906853563144803,3.643440673750639,0.602675166818872
1789483402123903200,11.1619033203125,-0.18867869755476713,3.25559227976501,1.3622875928863882
1789483402133952300,11.1719521484375,-0.4376303697645664,2.7083026808857915,2.013352623538673
1789483402144001300,11.182001220703125,-0.48028877727389335,2.0601468156784772,2.5542250488519667
1789483402154051300,11.19205126953125,-0.5149135159313678,1.289174133619666,2.955131077331304
1789483402164100000,11.20210009765625,-0.7321252111397684,0.651243309828639,3.177992614994943
1789483402174149400,11.2121494140625,-1.0830839902758598,0.20892332094311714,3.0103254335477945
1789483402184199400,11.222199462890625,-1.0566016415417194,-0.1176578266531229,2.098368994306028
1789483402194248200,11.232248291015624,-0.7373172268249094,-0.7271668580800295,0.7281525811817496
1789483402204297200,11.242297119140625,-0.6308135391317308,-2.0432494568914175,-0.6459423538763076
1789483402214347300,11.25234716796875,-0.6762040019534528,-3.5154590214818713,-1.598782957496494
1789483402224396300,11.262396240234375,-0.1451474527336657,-5.286252888718247,-2.6793402057737112
1789483402234445300,11.2724453125,0.4071697650492191,-7.065260457548499,-3.865070039270818
1789483402244495000,11.2824951171875,0.6759294227957725,-8.001976659515499,-4.822345337402821
1789483402254544400,11.29254443359375,0.2607119603693485,-7.885770200714468,-5.646493729332089
1789483402264593400,11.302593505859376,-0.5956618539907038,-7.080518232434987,-6.416753879207373
1789483402274643200,11.312643310546875,-1.2316123176194727,-5.94795271063149,-6.8726873829036945
1789483402284692200,11.322692138671876,-1.863157678157091,-4.691818676826357,-6.004048691862821
1789483402294741200,11.3327412109375,-1.0596538687191903,-3.41680283241868,-1.9771844548314808
1789483402304791300,11.342791259765624,-0.11221066716313362,-3.489038047546148,-0.24450477580353616
1789483402314840300,11.35284033203125,1.0479308438301085,-4.360355602407455,0.6182230837583541
1789483402324889000,11.36288916015625,2.16148596021533,-5.157379256045818,1.113230560605973
1789483402334939100,11.372939208984375,2.5984128578856587,-4.7316216949045655,1.82658706612885
1789483402344988400,11.382988525390624,2.492140640860796,-3.1740467999786137,2.4699521899282932
1789483402355037200,11.393037109375,2.46898772881031,-1.5174030435353516,2.5641180818349123
1789483402365087200,11.403087158203125,2.2986291163221,0.019270517659187317,2.7887773165702816
1789483402375136300,11.41313623046875,2.514445996171236,1.3633318412423132,3.1127123335719107
1789483402385185300,11.423185302734375,2.9561832167327404,2.6254274138003586,3.0168887375861404
1789483402395235300,11.4332353515625,2.7840719153583047,3.4201240857958792,2.954384642878175
1789483402405284000,11.4432841796875,1.8195019301734863,3.421308911666274,2.662192087095976
1789483402415333400,11.45333349609375,1.0580138464272022,2.6227660856366155,1.9052436926059424
1789483402425383400,11.463383544921875,0.602998480489105,1.1739759750783443,0.7100479654967784
1789483402435432200,11.47343212890625,0.287207168585062,-0.21654373281896114,-0.38585959478858856
1789483402445481200,11.483481201171875,0.15138181707859039,-1.1822387765109539,-1.4889961564794183
1789483402455530200,11.4935302734375,0.11690700828582047,-1.6268366472005844,-2.4389760369062423
1789483402465580300,11.503580322265625,0.016233195789903402,-1.4772107338786125,-3.076189652338624
1789483402475629600,11.513629638671874,-0.3641491000987589,-0.8149462638199328,-3.1763878101468084
1789483402485678600,11.5236787109375,-0.7306196288824081,-0.13788053047060966,-2.669111072704196
1789483402495728400,11.533728271484375,-0.8556207309704273,0.3046083852410316,-2.0633950038194655
1789483402505777700,11.543777587890625,-0.8204768638096749,0.47972822078168387,-1.494699628818035
1789483402515826400,11.553826416015625,-0.7919909201681613,0.5431406625062227,-0.922869316791743
1789483402525876500,11.56387646484375,-0.40985973478555676,0.4132207356512546,-0.5923467015607282
1789483402535925500,11.573925537109375,0.0041347617171704765,0.10523439840972423,-0.5471094200067221
1789483402545974500,11.583974609375,-0.14556246327534317,-0.005433715486526489,-0.26960568011663855
1789483402556024600,11.594024658203125,-0.32575163796953854,0.03417407228052616,0.01404481890015304
1789483402566073600,11.604073486328126,-0.3139279291849583,0.11174246512949466,0.13508713689241558
1789483402576122600,11.61412255859375,-0.26782434965781865,0.30658640731573106,0.34049649489782746
1789483402586172700,11.624172607421874,-0.27992643699236214,0.6432248385459184,0.6672375092308968
1789483402596221700,11.6342216796875,-0.3908418036479503,0.9263421074688434,0.829630549667403
1789483402606270500,11.6442705078125,-0.46657472469806666,1.0362444976896048,0.6933359732139855
1789483402616320500,11.654320556640625,-0.8404863632678985,1.0217290656030178,0.5223049778895452
1789483402626369500,11.66436962890625,-1.5102701229155062,0.8429308338105678,0.3494049007575959
1789483402636418600,11.67441845703125,-2.186157460135221,0.4953302790611982,0.1874026132043451
1789483402646468600,11.684468505859375,-2.4079881934463976,0.211639009642601,0.14286854801625012
1789483402656517600,11.694517578125,-2.084233209186792,0.10552665935456752,0.22008111316487192
1789483402666566700,11.704566650390625,-1.6115221736907959,0.20049393077194688,0.3332750922769308
1789483402676616700,11.71461669921875,-1.0769020867705346,0.44029462053775786,0.48547334030494094
1789483402686665500,11.72466552734375,-0.6110941817265003,0.7968746005564927,0.64972844828628
1789483402696714800,11.73471484375,-0.5651251152992248,0.789162418743968,0.6945276672165841
1789483402706764800,11.744764892578125,-0.07525602425336837,1.5199398685365915,0.8201863564305008
1789483402716813600,11.7548134765625,-0.4063245463967323,1.900409258186817,0.822165036092326
1789483402726862600,11.764862548828125,-1.2752139973282812,2.3066285906434056,0.868649285500124
1789483402736912400,11.774912353515624,-2.1581052317358553,2.852426489660144,0.9383807011131197
1789483402746961700,11.784961669921875,-2.0852632828868924,2.8406846139401196,0.9691888040918857
1789483402757010700,11.7950107421875,-2.6518998256623743,3.6246348509937523,0.14750278368815778
1789483402767060500,11.805060546875,-1.4823508732460438,3.747358144342899,-0.48807804291062057
1789483402777109500,11.815109619140625,-0.23705504431948066,3.5585230871826408,-1.0861310298215596
1789483402787158500,11.825158447265625,-0.14698022111877798,3.176784115988016,-1.2652531598061323
1789483402797208600,11.83520849609375,-0.31093159691318867,2.5677672519922257,-1.13321010331735
1789483402807257600,11.845257568359376,-0.2265840653181076,2.548627667236328,-1.1004790694519877
1789483402817306600,11.855306640625,-0.3636312137044966,1.673650420823693,-0.7772102612741291
1789483402827356700,11.865356689453124,-0.43949879398494957,0.7465688931643962,-0.17248422634005545
1789483402837405700,11.87540576171875,-0.5423407443001866,-0.08169570191204548,0.5605113378934562
1789483402847454500,11.885454345703126,-0.07646350034698844,-0.47359366354942317,1.2476372774861753
1789483402857504500,11.89550439453125,0.8839315372407436,-0.1886778207719326,1.9138630523912608
1789483402867553500,11.905553466796874,1.0781924188420176,0.35318156975209714,2.426198534528166
1789483402877602600,11.9156025390625,0.18552344839423893,0.8034411194652319,2.7004806089580056
1789483402887652600,11.925652587890625,-1.4586404734432696,0.8375129004150629,2.818029714539647
1789483402897701400,11.935701416015625,-1.6418261265397072,0.6971493209570646,3.001035334894061
1789483402907750700,11.945750732421875,-0.6321579394780099,0.6001163491815328,3.2720699518352747
1789483402917800700,11.95580078125,0.006479132886230945,0.658548664405942,3.876375569400191
1789483402927849500,11.965849365234375,0.4577192180693149,0.9769517662435769,4.166895515795052
1789483402937898800,11.975898681640626,0.5311809062518179,1.2401380077719688,3.77958342064321
1789483402947948800,11.98594873046875,-0.2618155376970768,1.4488573305755852,3.2380712361216544
1789483402957997600,11.99599755859375,-1.055974157293141,1.2529413752436638,2.6841975826770064
1789483402968046600,12.006046630859375,-0.9268976955249905,0.44834991669952867,2.2667773495092987
1789483402978095600,12.016095703125,0.2296180261865258,-0.6333125163406134,1.8208815479636191
1789483402988145700,12.026145751953125,1.5166326436847448,-1.5473223809808492,1.4204225325994193
1789483402998194700,12.036194580078124,2.4382535678505897,-2.20253517896235,0.9718927292883396
1789483403008243500,12.046243408203125,2.355525015759468,-2.8539170204788444,0.2804899891592562
1789483403018293500,12.05629345703125,1.125285009406507,-3.6996693414509294,-0.6727789959408342
1789483403028342500,12.066342529296875,-0.8648997967734933,-4.721506543603539,-1.6951608263641595
1789483403038391600,12.0763916015625,-2.7423578029617666,-5.823943469125032,-2.736311216273904
1789483403048441600,12.086441650390626,-2.859434907117486,-6.825210761457681,-3.7183325408667325
1789483403058490600,12.09649072265625,-2.0850196833893655,-7.69827720581293,-4.462709476944804
1789483403068539600,12.10653955078125,-2.072784763455391,-7.833762365579605,-4.558533657452464
1789483403078589700,12.116589599609375,-2.871038543410599,-7.277452424898743,-4.719792140901088
1789483403088638500,12.126638427734376,-2.8914225752696394,-6.648731328001618,-4.555495897191762
1789483403098687700,12.136687744140625,-2.0880916381806136,-6.255011996155977,-3.627224282965064
1789483403108737500,12.146737548828124,-1.317061672976613,-5.593337308683991,-3.295180193787813
1789483403118786600,12.15678662109375,-1.1084469795912504,-4.930940152156353,-2.6093840414941307
1789483403128835600,12.166835693359374,-0.9373723277881741,-4.3090725744158025,-1.7754503147400915
1789483403138885400,12.176885498046875,-0.15265870514661073,-3.6034710669338703,-1.298466424230486
1789483403148934700,12.1869345703125,0.6231219617158175,-2.7159002964079377,-0.8490342652522027
1789483403158983400,12.1969833984375,1.1487360276207328,-1.7000637959748506,-0.37502822150960563
1789483403169033500,12.207033447265625,1.6558356549307702,-0.5731850876361131,0.3527610062524676
1789483403179082800,12.217082763671876,2.2358909205973148,0.31033786880373954,0.6826441180035472
1789483403189131500,12.227131591796875,2.129763957262039,0.9930892465740442,0.7025463576950133
1789483403199181600,12.237181640625,2.0689093833267687,1.44946406429708,0.9542229248240589
1789483403209230600,12.247230712890625,2.2732143968194722,1.7353642419368027,1.1761870752565562
1789483403219279600,12.257279541015626,2.5069085864037275,1.9652327357530592,1.2416527962490915
1789483403229329700,12.26732958984375,2.5986744314312933,2.2890789054274556,1.1309035799406468
1789483403239378700,12.277378662109374,2.7200159150332213,3.4904677880883215,0.9511360647246241
1789483403249427500,12.287427490234375,2.7414064935863016,3.470835451379418,0.9771164552859961
1789483403259476700,12.297476806640624,3.334617885684967,3.7695559476256366,0.2293992688693106
1789483403269526500,12.307526611328125,3.4897312905073163,3.1507530181527135,-0.35549203865155576
1789483403279575600,12.317575439453124,2.6204461182564494,2.9406776045650243,-0.4503633023485541
1789483403289624600,12.32762451171875,2.4764976660490037,2.592176886105537,-0.5982261515207589
1789483403299674600,12.337674560546875,2.8045892182081937,2.1809113761752843,-0.7187297229938209
1789483403309723600,12.3477236328125,2.9249375991195437,1.9938065038084982,-0.7470471782006323
1789483403319772400,12.3577724609375,2.8695436286777256,1.9283663556486368,-0.9996808999240397
1789483403329822500,12.367822509765626,2.3339999971717593,2.049337836894393,-0.6828741273671388
1789483403339871700,12.377871826171875,2.079056098809838,1.7910037115722894,-0.6614524230234324
1789483403349920500,12.38792041015625,1.713698061312735,1.827849633410573,-0.3976429350301623
1789483403359970600,12.397970458984375,1.770160830029845,1.9615122539252041,-0.06870163417384029
1789483403370019600,12.40801953125,1.7651497238695621,2.103954393222928,-0.05046572025939822
1789483403380068600,12.418068603515625,1.7339508680075406,2.1882015331834554,-0.18062369365394115
1789483403390118700,12.42811865234375,1.6576847899287939,2.209054936119914,-0.29387729399874807
1789483403400167400,12.43816748046875,1.4696429289728403,2.3497996238499876,-0.38444194654300806
1789483403410216400,12.448216552734374,1.247793490961194,2.5370360136419534,-0.3966245517678559
1789483403420266800,12.458266845703125,1.0362918439626694,2.572609431326389,-0.4798242285020649
1789483403430315500,12.4683154296875,0.794511086295545,2.442830958768725,-0.4896066407173872
1789483403440364500,12.478364501953125,0.5359986817970872,2.1907804437607528,-0.462472111684829
1789483403450414600,12.48841455078125,0.3938023339539766,1.7989198915243148,-0.3689920100852847
1789483403460463600,12.498463623046876,0.19303046302348373,1.4355132803559303,-0.011418050593137741
1789483403470512600,12.5085126953125,-0.16946780112832785,1.1786176634043455,0.584802460193634
1789483403480562000,12.51856201171875,-0.45747167304903263,0.8514654379218817,1.1346345831625162
1789483403490611200,12.528611083984375,-0.7386284555539488,0.3904793270111084,1.51578333337903
1789483403500660200,12.53866015625,-1.0427017110049723,-0.61604866232872,1.6761974749580024
1789483403510709000,12.548708984375,-1.560728390520811,-1.2406740143448114,1.7198609678566454
1789483403520759000,12.558759033203126,-2.0902716125681997,-0.7552619027078151,1.5370071770630775
1789483403530808000,12.56880810546875,-2.558680274695158,0.06533318065404892,1.354328158314526
1789483403540857000,12.578857177734376,-2.756732073011994,0.6222656371474266,1.2707505881786345
1789483403550907100,12.5889072265625,-2.9405682989716526,1.0444809956371783,1.1297788136944173
1789483403560956000,12.598955810546874,-3.0744857710301874,1.3969593855559825,1.005547673065588
1789483403571005200,12.609005126953125,-2.248990056145191,1.9297434892207384,0.9362829251162708
1789483403581055200,12.61905517578125,-2.329761628949642,1.9466040231287478,0.9195441909570247
1789483403591104000,12.62910400390625,-2.396764204120636,1.960117584696412,0.9048487261284143
1789483403601153000,12.639153076171874,-1.4657261939205228,2.371079143244028,0.8900457092721015
1789483403611203000,12.649203125,0.6624852732025086,3.0298464188367125,0.8884936575245111
1789483403621252000,12.659252197265625,1.255380000567436,3.3677339733451603,1.0124106176376342
1789483403631301000,12.669301025390626,1.2587234657764435,3.3709283854722973,0.973950100209564
1789483403641351000,12.679350830078125,1.3486032047964631,3.5699019748091696,0.8667484933800995
1789483403651400200,12.689400146484376,-0.3373473101519048,2.96828691150248,0.17694843920730052
1789483403661449200,12.69944921875,-1.5629694474458693,2.5798668551087376,0.048805605027452105
