time,seconds_elapsed,z,y,x
1789923305277597700,0.11259765625,-0.07784896335601806,0.7504512875556946,0.054950035199755796
1789923305287601700,0.1226015625,-0.22219021427333355,0.9640727031871675,0.15154251493248155
1789923305297605600,0.132605712890625,-0.2117524068892002,1.0625041435837745,0.20875055819209665
1789923305307609900,0.14260986328125,-0.039680268481373786,1.0455980169683694,0.2545185125567019
1789923305317612500,0.152612548828125,0.18502455896139144,0.9242623785853386,0.23501446013627572
1789923305327616800,0.16261669921875,0.32166590302586556,0.7722381719499826,0.11221839381186291
1789923305337620700,0.172620849609375,0.4444318664729595,0.6432832907348871,-0.03799402329432778
1789923305347623700,0.182623779296875,0.6034522156059742,0.5643640677988528,-0.17389855011738836
1789923305357627600,0.192627685546875,0.8795727575093507,0.4859592241257429,-0.25490981342922897
1789923305367631600,0.202631591796875,1.1368600041270256,0.37841596425175666,-0.259117896110937
1789923305377635800,0.2126357421875,1.2506938885778187,0.33317630807757376,-0.41950639179199933
1789923305387638800,0.222638671875,1.1864917577803133,0.4901987613916397,-0.5757714143348858
1789923305397642500,0.232642578125,1.0732967557549475,0.8263724977195263,-0.6496871664278209
1789923305407646700,0.242646728515625,1.1227870551109314,1.0695645834892988,-0.6787436034336686
1789923305417649700,0.252649658203125,1.289065997070074,1.03781978418231,-0.6804121211677789
1789923305427654000,0.26265380859375,1.4543214412003755,0.9052169018536805,-0.7408375099055469
1789923305437657600,0.27265771484375,1.470242063909769,0.8612298760890961,-0.8125633872713893
1789923305447661600,0.28266162109375,1.3661919068485497,0.7946984255611896,-0.8183768227905035
1789923305457664800,0.292664794921875,1.3669529543489216,0.5778711996257305,-0.717172629744932
1789923305467668700,0.302668701171875,1.3042343401074408,0.31361820564866066,-0.6384360698994249
1789923305477673000,0.3126728515625,1.1609452285915614,0.02891688240468502,-0.529575297686085
1789923305487676000,0.322676025390625,1.0269640436470509,-0.2741115401685238,-0.48516179013773797
1789923305497680000,0.332679931640625,0.8860591969192028,-0.5438882660031318,-0.5867219570141285
1789923305507684000,0.34268408203125,0.7509563144683837,-0.6949760685712099,-0.6605752017974853
1789923305517688000,0.35268798828125,0.6541314324855804,-0.7821130847543477,-0.6384028252169489
1789923305527691000,0.36269091796875,0.6842208658009767,-0.7526233708977699,-0.5042791630618274
1789923305537695000,0.372695068359375,0.8011953863650559,-0.7036129640132188,-0.3561144813988358
1789923305547699000,0.382698974609375,0.8916086477398872,-0.8056506122082472,-0.22305771782286463
1789923305557702100,0.3927021484375,0.7409796948552131,-1.1117197176516056,-0.20290150337032972
1789923305567705900,0.402705810546875,0.3934007674157619,-1.3483236572027206,-0.3069744933178648
1789923305577709800,0.412709716796875,-0.00020750527083873748,-1.3841910893976688,-0.4080784773919731
1789923305587714000,0.422714111328125,-0.5909376019477844,-1.3631582382410763,-0.30781963890511543
1789923305597717000,0.432717041015625,-1.1038514684945344,-1.2062708094835282,-0.10262778697474859
1789923305607721000,0.442720947265625,-1.4177373851686714,-0.9119330583661794,-0.006779878531629219
1789923305617725000,0.452724853515625,-1.5823311505198479,-0.7529770066410303,-0.013074202036019413
1789923305627729000,0.46272900390625,-1.5054764588981866,-0.7885124304026365,0.014543114677956328
1789923305637732000,0.472732177734375,-1.5727005678653716,-0.8912281239897012,0.02787595851700753
1789923305647735800,0.48273583984375,-1.7439754184156655,-1.1421721390604973,-0.07428264004341326
1789923305657739800,0.49273974609375,-1.7536515937775372,-1.2101321610867977,-0.193818654259108
1789923305667743000,0.502742919921875,-1.6790584173470735,-1.1467729108542204,-0.32250914891697463
1789923305677747000,0.512746826171875,-1.6736837385714054,-1.1453250501334666,-0.1841648003268987
1789923305687751200,0.522751220703125,-1.6477818200737238,-1.0956722536921502,0.16956830236073583
1789923305697755000,0.5327548828125,-1.7929338028520345,-1.0499112039923668,0.3895089110763743
1789923305707757800,0.5427578125,-1.9649650247275827,-0.9256991333901882,0.471714133413136
1789923305717762000,0.552761962890625,-2.159315045917034,-0.8798317007064819,0.24274755687266586
1789923305727766000,0.56276611328125,-2.213963750949502,-0.7524398310244083,-0.07131336930850521
1789923305737769000,0.57276904296875,-1.9902397512376306,-0.5985001461565495,-0.4295725893847644
1789923305747773000,0.58277294921875,-1.5800889245510101,-0.511435026165843,-0.5683315831903368
1789923305757777000,0.59277685546875,-0.9657423899650573,-0.5067933378398418,-0.3435639196444303
1789923305767781000,0.602781005859375,-0.1807745003014803,-0.5830483100026845,0.11354503930574282
1789923305777783800,0.61278369140625,0.1238753859937191,-0.7086790152311324,0.45673524853326375
1789923305787788000,0.6227880859375,-0.10682780508100986,-0.854450591212511,0.3984961177933961
1789923305797792000,0.6327919921875,-0.43438744232058524,-0.9301286402702331,0.08064034764021634
1789923305807796000,0.6427958984375,-0.9117103555262088,-0.8685136033564805,-0.1972345271172002
1789923305817799000,0.652798828125,-1.3417384335935114,-0.5714969884186982,-0.32655773018803447
1789923305827803000,0.662802978515625,-1.6088526622205972,-0.28211247579455373,-0.23755798887293783
1789923305837806800,0.672806884765625,-1.7019290053248404,-0.08479016079604625,0.053339905722532416
1789923305847810000,0.68281005859375,-1.9775164632648228,0.06434416961669921,0.408714729468897
1789923305857813800,0.692813720703125,-2.163065338361263,0.07914426386356353,0.5829574899140745
1789923305867818000,0.70281787109375,-2.056111861073971,0.11173720443248748,0.24479760300396008
1789923305877822000,0.712822021484375,-1.3418261118769645,0.288840907266736,-0.19768477336904033
1789923305887825000,0.722824951171875,-0.39653614283204075,0.3535907350748777,-0.5603272865634411
1789923305897829000,0.7328291015625,-0.004084638965129852,0.24724165342152118,-0.40106249768268315
1789923305907832800,0.742832763671875,-0.6245353356450796,0.263680162525177,0.26275566809140144
1789923305917836000,0.7528359375,-1.5808961492806672,0.5775567268490791,0.54176663420666
1789923305927840000,0.762840087890625,-1.7274965773016213,1.3266250356137752,-0.1502937661135569
1789923305937844000,0.772843994140625,-1.3819927025705576,1.830443741557002,-0.5961233705552295
1789923305947848000,0.782847900390625,-0.5596300250142813,1.9278291800320146,-0.7196105974815785
1789923305957851000,0.792850830078125,0.6547352435976267,1.780508036521077,-1.056485760077089
1789923305967855000,0.802855224609375,1.5069406862318515,1.3468898250073194,-1.0465009571574628
1789923305977859000,0.812859130859375,1.9804384881913661,0.8300807045876979,-0.4592853714074939
1789923305987861800,0.82286181640625,2.501340430882573,0.7770020253509282,0.2207483266356401
1789923305997866000,0.832865966796875,3.0297727690786123,0.9979133057296276,0.9801976162970065
1789923306007870000,0.842869873046875,3.054484601008892,0.9456891974955797,1.6739444353342054
1789923306017874000,0.8528740234375,3.0564994479626417,0.6925742681264877,2.096352686047554
1789923306027876900,0.862876953125,3.4148540364384647,0.1701291876465082,2.623352945613861
1789923306037880800,0.872880859375,3.370404653859138,-0.7299883452415465,3.2870535859555003
1789923306047885000,0.882885009765625,2.3193320048719643,-1.3913146576672792,3.1106068857252596
1789923306057888000,0.892887939453125,-0.7420961316645145,-0.26087621102035047,-2.9707033249944446
1789923306067891700,0.9028916015625,-2.6494185302406548,0.7282108141750097,-6.326942090857028
1789923306077896000,0.91289599609375,-2.5567928535133597,-1.553059463328123,1.7492631495602429
1789923306087900000,0.92289990234375,-1.213840952476859,-0.676267860969901,1.7564117061406372
1789923306097903000,0.932903076171875,0.6199889243870973,-0.036650691527128215,1.7956094518020749
1789923306107907000,0.942906982421875,1.7203385222405194,-0.5031535200327635,2.182378379987925
1789923306117910800,0.952910888671875,1.9884002608507871,-0.8651794904977083,1.7802102226182817
1789923306127915000,0.9629150390625,1.5068623602986335,-1.1500193454295395,1.71372129605785
1789923306137918000,0.97291796875,0.48880584572851654,-1.1035440099805593,1.5128472799271344
1789923306147922000,0.982921875,-0.7908271370857953,-0.8397107027202844,1.1709537046477199
1789923306157926000,0.99292578125,-1.7284154457122087,-0.6331786608278751,0.7417350432671607
1789923306167928800,1.0029287109375,-2.03750068410635,-0.6742097593963146,0.45101022194996476
1789923306177933000,1.01293310546875,-2.0364006139099597,-0.6681020901709794,0.5741910498082637
1789923306187937000,1.02293701171875,-2.02265499715209,-0.6749380736708641,0.6400068994127214
1789923306197941000,1.03294091796875,-1.7314251489222048,-1.0492834274828433,0.535915825819224
1789923306207944000,1.04294384765625,-1.259975511664152,-1.569380191271007,0.40759588150680065
1789923306217948000,1.052947998046875,-1.0558382559537887,-1.785403699608147,0.16702537641227244
1789923306227952000,1.0629521484375,-0.9632377136677504,-1.8735300190895794,-0.10777852993458509
1789923306237954800,1.072954833984375,-1.285972122707963,-1.8442416730239986,-0.4491739464335143
1789923306247958800,1.082958740234375,-2.5625585774332285,-1.4079048502013087,-0.8518313486248255
1789923306257963000,1.092962890625,-3.865226398876309,-0.7493561857953667,-1.0837301792249083
1789923306267967000,1.102967041015625,-3.413843398091197,-0.23336042758524417,-0.5353484011948109
1789923306277970000,1.112969970703125,-1.7963450726002455,-0.16661153491437433,0.06613280659914016
1789923306287974000,1.122973876953125,0.561805030965805,0.17040917363166808,0.46643765431493517
1789923306297977900,1.132977783203125,2.163421896713972,1.4157935576245189,0.6243605636000633
1789923306307981000,1.14298095703125,3.121227063938975,1.63442578715533,0.7438803847327828
1789923306317985000,1.152985107421875,3.6814123847484588,0.9116893127381801,0.5259159714609384
1789923306327988700,1.16298876953125,3.503772090819478,0.4465118876174092,0.2946142299711704
1789923306337993000,1.172992919921875,2.7351047630935907,0.5436927434310317,-0.07153408112078904
1789923306347996000,1.182995849609375,2.1197294699817895,0.9184735660508274,-0.40915421686470504
1789923306358000000,1.193000244140625,1.6303665748924017,1.1231368914619086,-0.7625941452920436
1789923306368003800,1.20300390625,1.1000474000364542,1.3333929223135113,-1.4470833066403865
1789923306378007000,1.213007080078125,0.4865338091433048,1.5410542604967952,-2.3575889625519513
1789923306388011000,1.223010986328125,0.0012935469418764113,1.3333666188284754,-1.7032330736607313
1789923306398015000,1.233014892578125,-0.5616098006546497,0.9345981868997215,-1.209691139321029
1789923306408019000,1.24301904296875,-0.8691016323775053,0.499359096185863,-1.3439207460686564
1789923306418022000,1.25302197265625,-0.8501414958417415,0.4781964811697602,-1.2318150005847215
1789923306428025900,1.26302587890625,-0.3681359777778387,0.3723505267329514,-1.0661617893084883
1789923306438030000,1.273030029296875,0.7432604992687701,0.6620351913474499,-0.7849553224429487
1789923306448032800,1.28303271484375,1.6649994968563318,1.5739045368276536,-0.670056585239619
1789923306458037000,1.293037109375,1.6604454868137835,1.7762674763418733,-0.6654942457601427
1789923306468041000,1.303041015625,1.190935293185711,1.5881564956724643,-0.26604966813549397
1789923306478045200,1.313045166015625,0.5289958172976971,1.120038633185625,0.15359379403963686
1789923306488048000,1.323048095703125,-0.6790881790876389,0.7449978444553911,0.5051910172097385
1789923306498052000,1.333052001953125,-1.684048480719328,0.8968632072672247,0.6390837932184338
1789923306508056000,1.34305615234375,-2.338569789305329,1.0359347010880708,0.6027510815992951
1789923306518059300,1.353059326171875,-2.5434669234722853,0.9600970775544643,0.7204948329702019
1789923306528063000,1.36306298828125,-2.1674095050454136,0.7664835539460182,0.9344155238091945
1789923306538067200,1.373067138671875,-1.6178203970521687,0.5624859989672899,1.1402844256177544
1789923306548071200,1.3830712890625,-1.214838731342554,0.5605734433442354,1.2578411299839616
1789923306558074000,1.39307421875,-1.0213193157583476,0.7278089553758501,1.219911504562199
1789923306568078000,1.403078125,-0.9993015452176331,0.8843202442973852,1.215972703808546
1789923306578082000,1.41308203125,-0.932806919568777,0.8796598512709141,1.3395935305193065
1789923306588085200,1.423085205078125,-0.6915373262941837,0.8769263346537947,1.5702262867063284
1789923306598089200,1.433089111328125,0.21674422382712363,0.9293369053706526,1.3798612434998154
1789923306608093200,1.44309326171875,1.2121721424818037,1.042957731592655,1.001858828485012
1789923306618097200,1.45309716796875,1.8766215553641319,0.9641317398980259,0.8985651888795196
1789923306628100000,1.46310009765625,2.5126824936300514,0.656467181956768,0.9438985146865249
1789923306638104300,1.473104248046875,3.3245553413540123,0.21240297975242137,1.0612615961767733
1789923306648108300,1.4831083984375,3.8735266097098586,-0.28821050040870905,1.0204115532636642
1789923306658111000,1.493111083984375,3.930737274184823,-0.5333946367785334,0.9818635036826133
1789923306668115200,1.503115234375,3.4711429098933935,-0.5864376601800322,0.9878267960011958
1789923306678119200,1.513119140625,2.6810446716040373,-0.5073261295422912,0.8859452151507139
1789923306688123100,1.523123046875,1.8411206183940172,-0.3819043908894062,0.8812653867714106
1789923306698126000,1.5331259765625,1.028703580790758,-0.30382074199467896,0.8310992339804768
1789923306708130000,1.543130126953125,0.016214052698016165,-0.3291036518111825,0.64574909632653
1789923306718134300,1.55313427734375,-1.1652718596190212,-0.4481649155214429,0.4869982117846608
1789923306728137200,1.56313720703125,-2.0618582957714793,-0.5539733144268393,0.5441064387984573
1789923306738141200,1.57314111328125,-2.327629877617955,-0.40856589558273554,0.5874015367761254
1789923306748145200,1.583145263671875,-2.4256465997338292,-0.29272739331126213,0.6469022118844091
1789923306758149000,1.593149169921875,-2.987455722352862,-0.5703817206531763,0.6506009202718734
1789923306768152300,1.60315234375,-3.5877316460102793,-1.1230369382187724,0.5008290226079524
1789923306778156000,1.613156005859375,-4.141420006015896,-1.8033172497004268,-0.27973756335675715
1789923306788160000,1.623159912109375,-4.534460707947612,-2.104256591039896,-1.0924499306447804
1789923306798163200,1.6331630859375,-4.653311543777585,-1.9680264581248164,-0.9631966510049998
1789923306808167200,1.643167236328125,-4.475235781040787,-1.7634776990041137,-0.6314248028978705
1789923306818171100,1.653171142578125,-3.9663592071861027,-1.6798378772869704,-0.08945099221393465
1789923306828175000,1.663175048828125,-3.7456940105229615,-1.470006063196808,0.1641734941124916
1789923306838178000,1.673177978515625,-4.455598183634877,-1.4971516981452702,0.12617314154207707
1789923306848182300,1.683182373046875,-6.190206054246425,-1.754341914129257,-0.18384528604894876
1789923306858186200,1.693186279296875,-8.143841291186213,-1.7498539550602434,-0.6942942237868904
1789923306868189200,1.703189208984375,-8.560819333544373,-1.6934945005871354,-2.183403777512908
1789923306878193200,1.713193115234375,-9.162650085428357,-1.8780999573536217,-2.225098892948031
1789923306888197000,1.723197021484375,-8.889591269183159,-2.2659856146097184,-1.971956783311069
1789923306898201300,1.733201416015625,-8.110639863330125,-2.704057882922888,-1.8708163762167096
1789923306908204000,1.7432041015625,-6.972078315982222,-3.0545506519824266,-1.6298761610269545
1789923306918208000,1.7532080078125,-5.803424412709474,-3.341965325838327,-1.0972902102828026
1789923306928212200,1.763212158203125,-4.468973798036575,-3.315786636225879,-0.29097499668598176
1789923306938215200,1.773215087890625,-3.452494908046722,-3.0149975170120595,0.052529228660464285
1789923306948219100,1.78321923828125,-3.1676392710238694,-3.1556226700156924,-0.2277782435387373
1789923306958223000,1.79322314453125,-3.633900691989064,-3.470776122407615,-0.7277192312657833
1789923306968227000,1.80322705078125,-4.485702229997515,-3.8348394439190625,-0.9691343704909086
1789923306978230300,1.813230224609375,-5.28046612201035,-4.031765453076362,-0.25606442682445046
1789923306988234000,1.82323388671875,-4.8177854821413755,-4.002729328206181,0.913878931736946
1789923306998238200,1.83323828125,-2.512810503923893,-3.7421924321427937,1.6557026762008666
1789923307008241200,1.8432412109375,0.10247019439339637,-4.181019610476493,1.9755963088572024
1789923307018245000,1.8532451171875,1.136452592369914,-5.042067700257897,2.661563141542673
1789923307028249300,1.863249267578125,3.642639878761768,-4.080173217892646,3.7307489548474546
1789923307038252000,1.873251953125,5.27270659392476,-3.4265184630081054,4.572870810362696
1789923307048256300,1.88325634765625,5.336551581847667,-3.7069498538479206,5.2367181656986475
1789923307058260200,1.89326025390625,4.822386546196043,-3.629745325875282,5.612558726504445
1789923307068264200,1.90326416015625,4.128557601833343,-3.62831266272366,5.271466238474845
1789923307078267100,1.91326708984375,3.178072402232885,-4.162126986218989,4.540449719229341
1789923307088271000,1.92327099609375,2.331879936277866,-4.420851864424348,4.075353834912181
1789923307098275000,1.933275146484375,2.648623580470681,-4.0532866722717875,4.377974261206388
1789923307108278000,1.943278076171875,3.183637635144591,-3.5019773163571952,4.58963080650568
1789923307118282000,1.953281982421875,3.670335110417008,-3.3494884148195383,4.643066044095158
1789923307128286200,1.9632861328125,4.30974945076406,-3.490558096720278,4.690604040339589
1789923307138290200,1.973290283203125,4.735582415229082,-3.8956589465409515,4.604852925556898
1789923307148293400,1.98329345703125,4.884371585465967,-4.513601459792256,4.524792715892195
1789923307158297000,1.993297119140625,4.746249062933027,-4.862525372099876,4.167779605153203
1789923307168301000,2.003301025390625,4.417417506061494,-4.854036652956903,3.9505268472820516
1789923307178304300,2.01330419921875,4.0806206693992015,-4.644097725230455,3.954384691753983
1789923307188308200,2.02330810546875,3.532725798103213,-4.158694381421804,4.0134202335685485
1789923307198312000,2.03331201171875,2.9515660783261057,-3.525685816463828,3.7815088357478377
1789923307208315100,2.043315185546875,2.8250053987711667,-2.6308850946843623,3.3839223070800304
1789923307218319000,2.053319091796875,3.6476001315176485,-1.6197516573756932,3.5923107904940843
1789923307228323300,2.0633232421875,4.929387077495456,-0.767405344966054,3.767950265994668
1789923307238327300,2.073327392578125,5.514660077810287,-0.1409977857083082,3.1739836716145273
1789923307248330200,2.083330322265625,5.4575224785715335,0.15142857882976532,2.3469781366884708
1789923307258334200,2.093334228515625,5.214115873268247,0.41193420297205446,1.6263719522982836
1789923307268338200,2.103338134765625,4.391960700982809,0.20638649594187736,0.8983271423399448
1789923307278341000,2.113341064453125,3.4797084936648606,0.06757365305721759,0.38418285721540446
1789923307288345000,2.123344970703125,2.8557682013034817,1.4866718051850796,1.0011135630756616
1789923307298349000,2.13334912109375,3.083684976530075,2.200845326179266,1.469762755960226
1789923307308353300,2.143353271484375,3.05935600643754,1.5779887374013661,1.408782509818673
1789923307318356000,2.15335595703125,2.977469165867567,0.527457355684042,0.9109083914935588
1789923307328360200,2.163360107421875,3.3607162035375833,1.741633823725581,1.7689122912734745
1789923307338364200,2.1733642578125,3.538852756550908,2.285674649941921,1.5904606809616089
1789923307348367000,2.1833671875,3.2284868306964634,1.4503934541016816,1.6220955901533365
1789923307358371300,2.193371337890625,3.821929108941555,0.3642980070501566,1.1029641642659902
1789923307368375000,2.203375,3.8235540797948837,0.18053017015159128,-0.10838321782946586
1789923307378378200,2.213378173828125,3.550135198065638,0.7363228089600801,-0.3712333592712879
1789923307388382200,2.22338232421875,3.292403130289912,1.4179834688842297,-0.1329424895465374
1789923307398386200,2.23338623046875,2.91198342500031,2.0798165617883204,-0.27502105622887607
1789923307408390100,2.24339013671875,2.358883678537607,2.6198347083598374,-0.4276186788380146
1789923307418393000,2.25339306640625,1.8454355589836835,3.0984196043252945,-0.4393061940222978
1789923307428397000,2.26339697265625,1.2988865493386983,3.447802950838208,-0.47131753531098364
1789923307438401300,2.2734013671875,0.8131004167575389,3.652340604043007,-0.40282442932128903
1789923307448404000,2.283404052734375,0.5006763893295079,3.8537282687842844,-0.2769149071514606
1789923307458408200,2.293408203125,0.43415472954325374,3.983229093444347,-0.12048866616487502
1789923307468412200,2.303412109375,0.5643587340366095,3.990120022001862,0.017340426379442213
1789923307478416400,2.31341650390625,0.8523748809169978,3.9450422783911225,0.04408288735449314
1789923307488419600,2.323419677734375,1.1348474952608347,3.7491134635776278,0.02617372117638588
1789923307498423300,2.33342333984375,1.334290455675125,3.5006285320967434,-0.1111392385393381
1789923307508427300,2.34342724609375,1.474621301907301,3.2703111254692074,-0.34078678308129307
1789923307518430500,2.353430419921875,1.4077356311142444,2.973474543273449,-0.5569616825878619
1789923307528434400,2.363434326171875,1.241542029350996,2.7353789038598535,-0.5866401970148086
1789923307538438700,2.373438720703125,1.1836076537113636,2.6209868010044097,-0.4228022184669971
1789923307548441300,2.38344140625,1.1815011098861694,2.56218214533627,-0.20158640218377114
1789923307558445600,2.393445556640625,1.2680126876473425,2.450875149014592,-0.025842297264933586
1789923307568449500,2.403449462890625,1.340986153921485,2.2842074999988076,0.16776479660272597
1789923307578453500,2.41345361328125,1.267269760325551,2.0317308685332534,0.5414151538878679
1789923307588456400,2.42345654296875,1.2293037484161555,1.692768962791562,1.039587962898612
1789923307598460400,2.43346044921875,1.2848767286866902,1.379102826347947,1.3340402803063391
1789923307608464400,2.44346435546875,1.2917184112749993,1.1276245582699775,1.469396845257282
1789923307618467300,2.45346728515625,1.3047393670201302,0.9361796108722686,1.7366349925249813
1789923307628471300,2.46347119140625,1.434783650907129,0.5969616845428943,2.1583827335029837
1789923307638475500,2.4734755859375,1.67440211597383,0.21283552595078944,2.429940497535467
1789923307648479500,2.4834794921875,1.9333790692441164,0.041885669571161264,2.486532737851143
1789923307658482400,2.493482421875,2.1635480073116717,0.10325111563801764,2.5049796641677617
1789923307668486400,2.503486328125,2.3599574452489613,0.12962474330067633,2.842235350513458
1789923307678490400,2.513490478515625,2.505978612077236,-0.03293020969927311,3.3766783273011445
1789923307688493600,2.52349365234375,2.552631642180681,-0.46196635411977766,3.7960318666189905
1789923307698497500,2.53349755859375,2.5328596047401426,-1.2158914552658795,4.08863475676775
1789923307708501200,2.543501220703125,2.4005191727399824,-1.7885715159893034,4.319936498257517
1789923307718505500,2.55350537109375,2.2262468939393756,-1.96638775100708,4.409765237742662
1789923307728508400,2.56350830078125,1.9544559056729076,-2.079601457732916,4.458009920951723
1789923307738512600,2.5735126953125,1.6811422378838061,-2.0625188055068255,4.479866947972774
1789923307748516600,2.5835166015625,1.618564931809157,-1.7846470360219477,4.327213211262226
1789923307758519300,2.593519287109375,1.6569554527409374,-1.4903694906592369,4.193250146496296
1789923307768523500,2.6035234375,1.8264643165320158,-1.3919476948738096,4.118292812928557
1789923307778527500,2.613527587890625,2.072025907912105,-1.3403086930513382,3.906318872243166
1789923307788530400,2.623530517578125,2.2315531836539506,-1.1901631397694348,3.4856934132933612
1789923307798534400,2.633534423828125,2.338538078992814,-1.1037725580394266,2.980995001906156
1789923307808538400,2.643538330078125,2.1980102488838136,-1.2748784817636012,2.551354461851716
1789923307818542600,2.65354248046875,1.8873384719505906,-1.543314898905158,2.0415666183710095
1789923307828545300,2.663545166015625,1.5606113400124013,-1.6955559631615875,1.514670403701067
1789923307838549200,2.67354931640625,1.1957340717695653,-1.7945365618735551,0.9697007722020149
1789923307848553500,2.683553466796875,0.828157627570629,-1.8593465954363344,0.43325171628892417
1789923307858556400,2.693556396484375,0.484666553966701,-1.7822692009747028,-0.16033318529725074
1789923307868560600,2.703560546875,0.13279109837710856,-1.5966379082918165,-0.6637398033082484
1789923307878564400,2.713564453125,-0.21539397826194762,-1.410377085533738,-1.169772678169608
1789923307888568300,2.723568359375,-0.522587703821063,-1.2885001798808573,-1.4552245275199411
1789923307898571500,2.733571533203125,-0.6730892309337854,-1.197273848557472,-1.495897314170003
1789923307908575500,2.743575439453125,-0.6348492243885994,-1.0318149908095597,-1.631619205302
1789923307918579500,2.753579345703125,-0.4289358989164233,-0.851026461982727,-1.7613292887985705
1789923307928582400,2.76358251953125,-0.24258681335300206,-0.7904886989116668,-1.7669617417275905
1789923307938586400,2.77358642578125,-0.1290384678453207,-0.7077882038712501,-1.903535281252861
1789923307948590600,2.783590576171875,-0.10983721603006123,-0.48130876797139643,-2.1728391288787123
1789923307958593300,2.79359326171875,-0.18325301924422382,-0.19856910018920898,-2.4448148260623217
1789923307968597500,2.803597412109375,-0.3949959276527166,-0.025360651227831838,-2.520352005344629
1789923307978601500,2.8136015625,-0.6343330915600061,-0.024564532414078712,-2.345603341203928
1789923307988605400,2.82360546875,-0.804931796414405,-0.08686579802632331,-2.243874320566654
1789923307998608400,2.8336083984375,-0.7182388707369566,0.08720160585194825,-2.3351526743382216
1789923308008612400,2.8436123046875,-0.7089014258101582,0.1603895916596055,-2.332700605010986
1789923308018616300,2.8536162109375,-0.9256585091188549,-0.06560819820314645,-2.1514029576182363
1789923308028619500,2.86361962890625,-1.0443924405708909,-0.24335984355211257,-2.1581559390097853
1789923308038623200,2.873623291015625,-1.1146277140527963,-0.27983459399044514,-2.466257427063584
1789923308048627500,2.88362744140625,-1.2364452907338739,-0.30771979525983334,-2.812236518090963
1789923308058631400,2.89363134765625,-1.341966981652379,-0.3625248598977923,-3.087401951226592
1789923308068634600,2.903634521484375,-1.3367054078623652,-0.4810796353906393,-3.0873037515491246
1789923308078638600,2.913638671875,-1.2734826434910296,-0.6264654269248247,-3.0819758345246315
1789923308088642300,2.923642333984375,-1.216118249759078,-0.8863613947361707,-3.123070061457157
1789923308098645500,2.9336455078125,-1.191662730677426,-1.1326213436439632,-3.0472979043751955
1789923308108649500,2.9436494140625,-1.1961182487815618,-1.3023548099711537,-2.9732085858136412
1789923308118653400,2.9536533203125,-1.2629270549461244,-1.4646303615078329,-2.9246453381747006
1789923308128657400,2.963657470703125,-1.3763196253702044,-1.6209192398503423,-2.8258038556724787
1789923308138660400,2.973660400390625,-1.4543626499935984,-1.741070636884868,-2.753341846051812
1789923308148664600,2.98366455078125,-1.4262965391993523,-1.8000301908537744,-2.722906960299611
1789923308158668500,2.99366845703125,-1.4101505833014845,-1.9100114915296433,-2.6618974880635737
1789923308168671500,3.00367138671875,-1.4687524098739027,-2.1437091882452366,-2.5145155542761084
1789923308178675500,3.013675537109375,-1.5189470581069588,-2.397183306315541,-2.2865631232142447
1789923308188679400,3.023679443359375,-1.57331899202466,-2.67993028062135,-2.060229233264923
1789923308198683400,3.033683349609375,-1.567004109789431,-3.0057714235052466,-1.8804554344385862
1789923308208686300,3.043686279296875,-1.5275027050063013,-3.357836848708987,-1.6437328369438646
1789923308218690300,3.053690185546875,-1.4834548889651893,-3.6654166509762405,-1.3310580496251583
1789923308228694500,3.063694580078125,-1.3749705488488078,-3.918551161828637,-1.0255950933814049
1789923308238697500,3.073697509765625,-1.2657660777643323,-4.094946424132585,-0.8143331003576517
1789923308248701400,3.083701416015625,-1.1545163645878433,-4.172162350282073,-0.619715368142724
1789923308258705400,3.093705322265625,-1.0945799284107982,-4.336037738230824,-0.29015491247475145
1789923308268708400,3.103708251953125,-1.124676814380288,-4.642822298467159,0.05683949307501316
1789923308278712600,3.113712646484375,-1.1303177428767084,-4.810143150694668,0.17417992434203625
1789923308288716500,3.123716552734375,-1.0943676008343697,-4.70753588591814,0.30609248631894587
1789923308298720300,3.13372021484375,-0.9539543370157479,-4.510533596654236,0.4998270059585571
1789923308308723500,3.143723388671875,-0.8193675873935222,-4.3691699002429845,0.7809048780083656
1789923308318727400,3.1537275390625,-0.6972334921091795,-4.154096239976584,0.8830331270962953
1789923308328731600,3.163731689453125,-0.6079521573737263,-3.6998873681157827,0.8740916957497596
1789923308338734300,3.173734375,-0.46914106805473565,-3.1661110385432836,0.8798696946293115
1789923308348738300,3.18373828125,-0.24856413419693707,-2.5737223610043523,0.8664888195306062
1789923308358742500,3.193742431640625,0.052678720133751626,-2.0381261225283143,0.8439274436324834
1789923308368746500,3.20374658203125,0.2417844109289348,-1.6493927624017,0.7264642627686262
1789923308378749400,3.21374951171875,0.2620896784633398,-1.2452747861385345,0.5908306344419717
1789923308388753400,3.22375341796875,0.3198300659008324,-0.8763631478130817,0.5768833576321601
1789923308398757400,3.23375732421875,0.4050250081054866,-0.5806091001570225,0.7253203534305095
1789923308408760600,3.243760498046875,0.45649464471042156,-0.2550666479587555,0.8783855935513972
1789923308418764300,3.253764404296875,0.5028086521178484,0.02941781766414642,1.0926830087482928
1789923308428768500,3.2637685546875,0.6005741759516299,0.23895079493820665,1.2986486489295959
1789923308438771500,3.273771484375,0.720478904748708,0.3591173895418644,1.4144880279839038
1789923308448775400,3.283775390625,0.8375188917644322,0.4274427377492189,1.4154191713541746
1789923308458779400,3.293779296875,0.8780087230630218,0.4303875590294599,1.3717068708777427
1789923308468783400,3.303783447265625,0.863663825237751,0.40301439893543717,1.3332657888025046
1789923308478786800,3.313786865234375,0.8719726577691733,0.4009580509275198,1.1352250964015722
1789923308488790800,3.323790771484375,0.9497970712058246,0.5446253481060266,0.8393290099263191
1789923308498794500,3.33379443359375,0.9674572310589253,0.7141337735056876,0.6056178692072629
1789923308508797700,3.343797607421875,0.8968049012087285,0.899359992519021,0.38380993224978444
1789923308518801700,3.3538017578125,0.7645287666164338,1.1434843907028436,0.09174246415197848
1789923308528805600,3.3638056640625,0.5422860915035009,1.4527204357445238,-0.15297931540310383
1789923308538809600,3.3738095703125,0.22140943915918468,1.7596417741030455,-0.33505320786535736
1789923308548812500,3.3838125,-0.06702770961225032,1.9825024349838494,-0.4443237299233675
1789923308558816800,3.393816650390625,-0.2689334068782627,2.1930092257261276,-0.4617851523339748
1789923308568820700,3.40382080078125,-0.4278051413208246,2.3533605312019583,-0.4502531199723482
1789923308578823700,3.41382373046875,-0.5766659154891968,2.445293549489975,-0.39931554441750045
1789923308588827600,3.42382763671875,-0.6985739469327032,2.54373755710721,-0.3720306471288204
1789923308598831600,3.43383154296875,-0.7540683090090751,2.6691157488793134,-0.5231687185794115
1789923308608835600,3.443835693359375,-0.8007681008636951,2.715599852156639,-0.6930266880691051
1789923308618838500,3.453838623046875,-0.8094014891743659,2.645166133493185,-0.7917343150585889
1789923308628842500,3.463842529296875,-0.7326788994997739,2.498079967781901,-0.9571166004389524
1789923308638846700,3.4738466796875,-0.5940665476232767,2.407036591809988,-1.1277134055972098
1789923308648849700,3.483849609375,-0.28261618753299117,2.312060552564263,-0.9052876290023326
1789923308658854000,3.49385400390625,0.17217632943466304,2.2679373331993817,-0.5690858356237412
1789923308668857600,3.503857666015625,0.5720300723820925,2.3369646921962497,-0.5148778600960969
1789923308678861600,3.513861572265625,0.794025494735688,2.4421271944135428,-0.4715636190265417
1789923308688864800,3.52386474609375,0.8514706986188888,2.542971248909831,-0.34330607242584227
1789923308698868700,3.53386865234375,0.8507073130309581,2.579618433305621,-0.1622469099640846
1789923308708872400,3.54387255859375,0.8192938645701855,2.540160283142328,-0.009700140759348868
1789923308718875600,3.553875732421875,0.759127857420966,2.333247132977843,0.2694230900913477
1789923308728879600,3.563879638671875,0.7026303096514195,1.9339806883990764,0.695283527085185
1789923308738883800,3.5738837890625,0.7793563333921134,1.5716910985618828,1.1116285322368145
1789923308748886500,3.583886474609375,0.9621223728369921,1.2117530402868986,1.504526610827446
1789923308758890800,3.593890869140625,1.2201303349446504,0.8236568090200423,1.9590496632039547
1789923308768894700,3.603894775390625,1.5372335331648588,0.4758241990804672,2.3407535630851983
1789923308778898700,3.613898681640625,1.8658410720221696,0.16786591888964175,2.5589070691883564
1789923308788901600,3.623901611328125,2.1111212161123754,-0.03175590522289276,2.7935785793721672
1789923308798905600,3.633905517578125,2.4028911625683307,-0.08053074978590011,3.057727528452873
1789923308808909600,3.64390966796875,2.6401404142856597,-0.10631108773052692,3.5152941863089797
1789923308818912800,3.653912841796875,2.7866484878480433,-0.15493512564599513,4.255217065587639
1789923308828916500,3.66391650390625,2.8548493328928948,-0.31099194879829883,4.802645780676603
1789923308838920700,3.673920654296875,2.8636037172347306,-0.6551385637015104,5.129488794079423
1789923308848923600,3.683923583984375,2.9861230124443767,-1.053860818400979,5.202504930451512
1789923308858927600,3.693927734375,3.1401112126290798,-1.2388707643151282,5.057394448727369
1789923308868931800,3.703931884765625,3.2243928393810988,-1.1823007358312607,4.986830966204405
1789923308878935600,3.713935546875,3.308789032423496,-1.0077180759072304,5.0247284429222345
1789923308888938800,3.723938720703125,3.347507762396335,-0.6524257976114749,4.939111768174171
1789923308898942700,3.733942626953125,3.248824100804329,-0.24762626882493494,4.773775660023093
1789923308908946700,3.74394677734375,3.0886119115382433,0.06787643539607524,4.648596790215373
1789923308918949600,3.75394970703125,3.015466595828533,0.30423721384108066,4.434883896908164
1789923308928953600,3.76395361328125,2.943814733546972,0.5191097985774278,4.014946420222521
1789923308938957600,3.77395751953125,2.769078928887844,0.7561234879732132,3.4747985097914933
1789923308948961800,3.7839619140625,2.4824726488053797,0.960325041091442,2.958447654533386
1789923308958964500,3.793964599609375,2.204531905737519,1.0727771157950163,2.604150817015767
1789923308968968700,3.80396875,1.9117314471900462,1.0996797357678412,2.1929361604899165
1789923308978972700,3.81397265625,1.5974375342369078,1.0455904181838036,1.6865198392689227
1789923308988975900,3.823975830078125,1.29198276129961,0.9159335261791944,1.172549741667509
1789923308998979600,3.8339794921875,1.1529073950212447,0.8487316290438175,0.6837234376728535
1789923309008983600,3.843983642578125,1.1814192768216132,0.8553180216968059,0.28032091620266436
1789923309018986800,3.85398681640625,1.2297436011381446,0.8262608540385961,-0.07999825034439563
1789923309028990700,3.86399072265625,1.2104863813519477,0.7600362775027751,-0.4745341592699289
1789923309038994400,3.873994384765625,1.1236192681513726,0.6587877338588237,-0.8369891688019037
1789923309048998700,3.88399853515625,1.0898375561892986,0.4907750999748707,-1.0976479376792907
1789923309059001600,3.894001708984375,1.078913426592946,0.28948446586728094,-1.327684773799777
1789923309069005800,3.904005859375,1.0758908639013767,0.011668810483813285,-1.4521037651509046
1789923309079009800,3.914009765625,0.9593038813501595,-0.15813246038258075,-1.4509791450351477
1789923309089012700,3.9240126953125,0.8263239824026822,-0.12877484847307205,-1.513232479852438
1789923309099016700,3.9340166015625,0.7118221355624497,-0.09970131420195102,-1.660659421825409
1789923309109020700,3.944020751953125,0.5580084882270544,-0.13754150777459143,-1.7534762372106312
1789923309119023600,3.954023681640625,0.4045931925594806,-0.07787175970971584,-1.84352124979496
1789923309129027600,3.964027587890625,0.28209201752841473,0.09505261161327362,-1.9204191960364578
1789923309139031600,3.974031494140625,0.16529051544368267,0.16192425388097761,-2.09781515981555
1789923309149035800,3.984035888671875,0.10758125379681586,0.2107370923668146,-2.0854466766297817
1789923309159038500,3.99403857421875,0.08831599683463573,0.3344540729284286,-1.963368110924959
1789923309169042700,4.004042724609375,0.02735080213174224,0.4675158049404621,-1.7402151890993118
1789923309179045600,4.014045654296875,-0.1031312886506319,0.4566220704823732,-1.50030402469635
1789923309189048800,4.024048828125,-0.19079919684007762,0.4277607176572084,-1.3559411464691162
1789923309199052500,4.034052490234375,-0.2990272241078317,0.41539398803710936,-1.2654092271506785
1789923309209056500,4.044056396484375,-0.46569604216739535,0.33058395349681374,-1.0268114834338427
1789923309219060700,4.054060791015625,-0.6219289525389671,0.10642448497712612,-0.8542518537700176
1789923309229063700,4.064063720703125,-0.736357441882044,-0.1561041694253683,-0.8542425014197826
1789923309239067600,4.074067626953125,-0.8734325011886656,-0.40293139682710166,-0.9951502707570791
1789923309249071600,4.084071533203125,-1.0418699363559485,-0.5816013260647654,-1.1685656404674052
1789923309259074600,4.094074462890625,-1.1016076350905,-0.8065542830497026,-1.4377660277187823
1789923309269078800,4.104078857421875,-1.0991543967194854,-0.864488001102209,-1.7507102796286345
1789923309279082500,4.11408251953125,-1.1892227901794015,-0.8750725234806537,-1.9368904383659362
1789923309289085700,4.124085693359375,-1.3269921153604984,-0.9209159907668828,-2.0454367378026244
1789923309299089700,4.134089599609375,-1.455213421604037,-0.9934414210125804,-2.080921892681718
1789923309309093600,4.14409375,-1.549234352082014,-1.112449785491824,-2.1322470062494276
1789923309319097900,4.154097900390625,-1.559833487507701,-1.232616087834537,-2.1393810959130524
1789923309329100500,4.1641005859375,-1.5775446468956769,-1.5093948013857006,-2.068781373032927
1789923309339104800,4.174104736328125,-1.521501711025834,-1.9348478266224265,-1.9598212320983408
1789923309349108700,4.184108642578125,-1.4228076741702853,-2.4286036959737536,-1.8587825318127869
1789923309359111400,4.194111328125,-1.3534705185718834,-2.997161416070163,-1.7097493236869572
1789923309369115600,4.20411572265625,-1.2845339065983892,-3.5838138880446553,-1.4973931056857108
1789923309379119600,4.21411962890625,-1.2990911320000886,-4.087806196989119,-1.3732570229291916
1789923309389122800,4.224122802734375,-1.2664514296799898,-4.2801288040041925,-1.2540665798813104
1789923309399126800,4.234126708984375,-1.1838090945675968,-4.163614009906351,-1.1983160510867834
1789923309409130500,4.244130615234375,-1.1066576119564473,-4.0153284052774305,-1.2094523621290922
1789923309419134700,4.254134765625,-0.997466731005907,-3.8752705307677386,-1.1651824277698992
1789923309429137700,4.2641376953125,-0.8505109136760234,-3.989756449386477,-0.9355331296622753
1789923309439141600,4.2741416015625,-0.7188087795794009,-4.33037489016354,-0.514693151178956
1789923309449145600,4.2841455078125,-0.6542535975605249,-4.5451656418353314,-0.1726788721293211
1789923309459148500,4.2941484375,-0.6135667823851109,-4.463510564194619,-0.11867664830684661
1789923309469152800,4.30415283203125,-0.4644911964222789,-4.208600860363244,-0.15806991654038427
1789923309479156000,4.314156005859375,-0.23247882244512438,-4.065015980771184,-0.20333996785283087
1789923309489159000,4.324158935546875,-0.09162804399207233,-4.132814967016875,-0.25564707819521426
1789923309499163000,4.334162841796875,0.012156301739811897,-4.092819348976016,-0.3205430364757776
1789923309509166800,4.344166748046875,0.07385185654386878,-3.7751439768910404,-0.4745195462226867
1789923309519171000,4.354171142578125,0.052989831909537315,-3.373318495479226,-0.6550029546231031
1789923309529173800,4.364173828125,0.10568097313344478,-2.989077186074853,-0.7973667679876089
1789923309539178000,4.374177978515625,0.2033152718029916,-2.705772870147228,-0.8805752125501632
1789923309549182000,4.384181884765625,0.34581995494291184,-2.4120938751995564,-0.9138765936493873
1789923309559187000,4.39418701171875,0.5048953952640295,-2.111923180145025,-0.9691448918849229
1789923309569190100,4.404190185546875,0.5772637352518737,-1.8813053292661903,-0.9518418749064207
1789923309579193900,4.41419384765625,0.5310188475579023,-1.7946043664127587,-0.752861855828762
1789923309589197800,4.42419775390625,0.28984628491699693,-1.7739415176123379,-0.5352461098641157
1789923309599201800,4.434201904296875,-0.06506488510668278,-1.5845289528250692,-0.3818564600944519
1789923309609205000,4.444205078125,-0.2826934905529022,-1.2626245648682117,-0.26318916413784027
1789923309619209000,4.454208984375,-0.4477203866243362,-0.8800883058160542,-0.018287351840734482
1789923309629213000,4.464212890625,-0.5449234542697667,-0.5542775580704212,0.20652093597650525
1789923309639215900,4.4742158203125,-0.5147223772734403,-0.20888883415162562,0.36826866424679755
1789923309649220000,4.48422021484375,-0.4465380449719727,0.10554244144558905,0.46993104938864705
1789923309659224000,4.49422412109375,-0.262200299230963,0.45181145533025263,0.532953615012765
1789923309669227000,4.50422705078125,-0.12981719713285564,0.7659007856220007,0.5117863238215447
1789923309679231000,4.51423095703125,-0.05118775092363357,0.9980658659428358,0.3505547283798456
1789923309689235000,4.52423486328125,-0.07166808276399969,1.1426245590031145,0.08920739271640778
1789923309699239000,4.534239013671875,-0.21046353612244129,1.1885311546534298,-0.17206161701381206
1789923309709241900,4.544241943359375,-0.32976328476369376,1.2619494420856237,-0.36386253824234005
1789923309719245800,4.554245849609375,-0.4098128269039094,1.3466063318908215,-0.44769992835819716
1789923309729250000,4.56425,-0.45101241390705105,1.4373217910826206,-0.5440981093615294
1789923309739253000,4.5742529296875,-0.45297465389072894,1.5651929687142372,-0.5869049854308367
1789923309749257000,4.584257080078125,-0.4069301110744476,1.725313388043642,-0.6264449686586856
1789923309759261000,4.594260986328125,-0.39415246256589886,1.8141332427471875,-0.7022562887072563
1789923309769263900,4.604263916015625,-0.3759352533519268,1.8178315127432345,-0.6455962438523769
1789923309779268000,4.61426806640625,-0.2588182555772364,1.8621943860828876,-0.4617085799664259
1789923309789271800,4.624271728515625,-0.07450330618992447,2.042140034344792,-0.15095043992400167
1789923309799275800,4.63427587890625,0.13915113492831588,2.169725965294242,0.15454291145801544
1789923309809279000,4.644279052734375,0.3754764036685228,2.239451243427396,0.4984422736018896
1789923309819283000,4.654282958984375,0.6820031897515058,2.3137188411653042,0.9075503132373094
1789923309829287200,4.664287109375,0.8416728696387261,2.41242237650156,1.0966355457663535
1789923309839289900,4.674289794921875,0.8680699512422084,2.516570148718357,1.1147001947671173
1789923309849293800,4.6842939453125,0.8089771262824534,2.534173609948158,1.026974565041065
1789923309859298000,4.694298095703125,0.7429197230070829,2.5473282750755546,0.9820254162460565
1789923309869300700,4.70430078125,0.731203566250205,2.5060189440876246,1.0098884056836366
1789923309879305000,4.714304931640625,0.7794353899776935,2.5349001706570387,1.0269231271147727
1789923309889309000,4.724308837890625,0.8781844449561089,2.6135101815134285,1.1358172170758247
1789923309899313000,4.73431298828125,1.0358674080055206,2.6589935833156106,1.420265442341566
1789923309909316000,4.744316162109375,1.1084054785370827,2.608437116032839,1.7015917361944912
1789923309919319800,4.75431982421875,1.1675064868032932,2.503402624109387,1.9877467653781173
1789923309929324000,4.764323974609375,1.2081482937932013,2.2676526710391043,2.280336796045303
1789923309939327000,4.774326904296875,1.260751756733656,1.9218951138079166,2.568232531416416
1789923309949331000,4.7843310546875,1.3125731293857097,1.5434914245158433,2.802050055119395
1789923309959335000,4.7943349609375,1.4650456643104552,1.191544949516654,3.041716304850578
1789923309969339000,4.8043388671875,1.708757974562049,0.9157979171007871,3.2823914393633604
1789923309979342000,4.814342041015625,2.0059516996324063,0.7958598705559968,3.455671199995279
1789923309989346000,4.824345947265625,2.276642033180594,0.7615905212074517,3.664136255776882
1789923309999349800,4.834349853515625,2.4595412705510853,0.5997065993368625,4.055525098848342
1789923310009353000,4.84435302734375,2.556734985846281,-0.01433598386645317,4.643630692240595
1789923310019357000,4.85435693359375,2.8136241730570792,-0.7895680769354104,5.261326537254452
1789923310029361000,4.86436083984375,3.3525545243918895,-1.2287749022364616,5.467422525817155
1789923310039363800,4.87436376953125,3.790340961501002,-1.2771622087866068,5.308450692000985
1789923310049367800,4.884367919921875,3.9204187092661855,-1.1311550704836846,5.114862302833795
1789923310059372000,4.8943720703125,3.9187762027561663,-0.9526368246763944,4.773186461958288
1789923310069375000,4.904375,3.873951557123661,-0.70506550090909,4.358991912838817
1789923310079379000,4.91437890625,3.8740690460234877,-0.3790244515389204,3.935077349215746
1789923310089383000,4.9243828125,3.776020175203681,-0.09758943661451339,3.5650516121685505
1789923310099387000,4.934386962890625,3.5923049452751874,0.1272165131151676,3.303499693843722
1789923310109390000,4.94439013671875,3.4441742389470336,0.28170506403744217,3.11269538243711
1789923310119394000,4.95439404296875,3.2423645494014024,0.331814372074604,2.9937790801554915
1789923310129397800,4.964397705078125,3.032258740675449,0.22416005304157732,2.8993618438363074
1789923310139401000,4.97440087890625,2.810430345451832,0.13900865771770476,2.6977240037262438
1789923310149405000,4.984405029296875,2.3756752388626334,0.18240882350504398,2.188549323707819
1789923310159409200,4.9944091796875,1.813764993956685,0.31289515207111834,1.559590910923481
1789923310169412900,5.004412841796875,1.4707365694284438,0.3403741106271744,0.969795464748144
1789923310179416000,5.014416015625,1.367442783692479,0.2942541644871235,0.546935378614068
1789923310189420000,5.024419921875,1.4387176293551922,0.33676702604591846,0.2007072812616825
1789923310199424000,5.034424072265625,1.5126812757104635,0.42882747010588645,-0.0872802240461111
1789923310209427000,5.044427001953125,1.567711089015007,0.5332850389242172,-0.3600993863165378
1789923310219431000,5.054430908203125,1.638027318778634,0.6509621547996998,-0.557327008768916
1789923310229435000,5.064434814453125,1.7725222984641789,0.7368360191792249,-0.6841969004034996
1789923310239438000,5.07443798828125,1.8209961142539977,0.8791454720079899,-0.7762672813355922
1789923310249441800,5.08444189453125,1.7540876471072435,1.068467435902357,-0.8316758648246526
1789923310259446000,5.094446044921875,1.6200123541384934,1.1176321565657854,-0.9200538209795951
1789923310269450000,5.104449951171875,1.3697510606348513,1.0715537114799023,-1.1389303806602955
1789923310279453000,5.114452880859375,1.0313152245938777,0.8030150030076503,-1.42393214815557
1789923310289457000,5.124456787109375,0.8644102596908807,0.561726705032587,-1.754845771998167
1789923310299460900,5.1344609375,0.9325888929039239,0.4465373143196106,-2.040562409764528
1789923310309464000,5.144464111328125,0.986119992083311,0.38088206210434433,-2.2811796766102312
1789923310319468000,5.154468017578125,0.9513222349464893,0.43055707037746904,-2.677213715139031
1789923310329472000,5.164471923828125,0.8068921367019415,0.4443061942666769,-2.8698452419728038
1789923310339475000,5.174474853515625,0.8900807075202465,0.3577092763096094,-2.590127552360296
1789923310349479000,5.18447900390625,1.1037930163055658,0.41785833232402797,-2.486030049026012
1789923310359483000,5.19448291015625,1.1380910072267054,0.39308629463911055,-2.466774144414067
1789923310369487000,5.204487060546875,0.9691752870231867,0.20936989566683767,-1.9969483089655637
1789923310379489800,5.21448974609375,0.8001186970442533,0.19738076718747616,-1.4681126506656408
1789923310389494000,5.224493896484375,0.45840307214763015,0.38748774397969243,-1.0649322475135325
1789923310399498000,5.234498046875,0.030219708631560205,0.5883177748382091,-0.831402893102169
1789923310409501000,5.2445009765625,-0.35027481545992195,0.5967436578780412,-0.7229951253533363
1789923310419505000,5.2545048828125,-0.691058091409877,0.4398807790398597,-0.6932032136797904
1789923310429508900,5.2645087890625,-0.9408715680807829,0.21312369524240493,-0.7522288186222315
1789923310439512000,5.274511962890625,-1.13504272557199,-0.05082184022068977,-0.8275000404447317
1789923310449516000,5.28451611328125,-1.2146386787258088,-0.2969026331692934,-1.006221115347743
1789923310459519700,5.294519775390625,-1.263975979477167,-0.4803694412946701,-1.2996604563206433
1789923310469524000,5.30452392578125,-1.326747639080137,-0.7159826162427664,-1.5874141528725623
1789923310479526700,5.314526611328125,-1.2746031719535589,-0.9938993939131497,-1.7890075693190097
1789923310489530600,5.324530517578125,-1.143923951163888,-1.3746703968584537,-1.9492881476461885
1789923310499534600,5.33453466796875,-1.1098492476046085,-1.8345351025238632,-1.9487743529051542
1789923310509537800,5.344537841796875,-1.1269950281947851,-2.3661264892727134,-1.7455863607436417
1789923310519541800,5.354541748046875,-1.0656284130841494,-3.005513064830005,-1.3714578645527362
1789923310529545500,5.36454541015625,-0.9766875623494387,-3.590291559626162,-0.8882909014940261
1789923310539548700,5.374548583984375,-0.9261856017328798,-4.022286261591315,-0.5213444257616996
1789923310549552600,5.384552734375,-0.9490404076196253,-4.305507575410604,-0.20307985561192035
1789923310559556600,5.394556640625,-1.0679754146017133,-4.4371167705267665,-0.16121172169744968
1789923310569559600,5.4045595703125,-1.2225778011620043,-4.473155759896338,-0.37507132999897
1789923310579563500,5.4145634765625,-1.3666506104014813,-4.673698790507018,-0.6177993053883314
1789923310589567700,5.424567626953125,-1.4649299289762974,-5.21006221396327,-0.7006850938677788
1789923310599571700,5.43457177734375,-1.5113636172406375,-5.877267063033581,-0.685542469793558
1789923310609574700,5.44457470703125,-1.416410520479083,-6.26660598783791,-0.9344114321559667
1789923310619578600,5.45457861328125,-1.215804946026206,-6.31772651874423,-1.2532640313267707
1789923310629582600,5.46458251953125,-0.9229939660847186,-6.140873575800657,-1.668148900797963
1789923310639585800,5.474585693359375,-0.6015547114215791,-5.898122804057598,-1.9409616333276032
1789923310649589500,5.484589599609375,-0.3018143706083298,-5.674757116264105,-2.0864614066302773
1789923310659593500,5.494593505859375,0.013424129718542099,-5.232189290097356,-2.281879933834076
1789923310669596700,5.5045966796875,0.299863967192918,-4.736625786802172,-2.3759996485114097
1789923310679600600,5.5146005859375,0.590160772356391,-4.331149966189265,-2.2491998995035885
1789923310689604900,5.52460498046875,0.8188922980319708,-3.9803023923426863,-2.178094565188885
1789923310699608600,5.534608642578125,0.8980044131916016,-3.5996582306474445,-2.1280898865699767
1789923310709611800,5.54461181640625,0.8387187690734863,-2.9851141276627775,-1.9729028319895265
1789923310719615700,5.55461572265625,0.6460708756268024,-2.329712529110908,-1.6883891402721405
1789923310729619700,5.56461962890625,0.3373351082574576,-1.9041998826414346,-1.2342173855513334
1789923310739622700,5.57462255859375,0.09231237299442291,-1.6805466100782156,-0.6599298896312713
1789923310749626600,5.584626708984375,-0.15136786161847413,-1.434602010729909,-0.07613806778490544
1789923310759630600,5.594630615234375,-0.3979197061449289,-1.0503484263658522,0.3316507059454918
1789923310769633800,5.6046337890625,-0.5760052596233785,-0.636345600426197,0.4920446815192699
1789923310779637500,5.614637451171875,-0.7509399478554725,-0.24296353771090506,0.5398883827120066
1789923310789641700,5.624641845703125,-0.8935966066867113,0.09930910001397132,0.4957990656167268
1789923310799645700,5.634645751953125,-0.950746480885148,0.43298809691667556,0.3763350663244724
1789923310809648600,5.644648681640625,-0.9009072219610214,0.6535720450371504,0.2365910800695419
1789923310819652600,5.654652587890625,-0.7153998479187488,0.8046610166490078,0.029802433067560193
1789923310829656600,5.664656494140625,-0.5327209753006696,0.9677443774372338,-0.19280045365989207
1789923310839659800,5.67465966796875,-0.41734680260531604,1.1040788475096226,-0.35874855622947216
1789923310849663700,5.684663818359375,-0.2988092705082148,1.1708166342645883,-0.514519548177719
1789923310859667500,5.69466748046875,-0.2139227366656065,1.2682996878951787,-0.6340045902580023
1789923310869670700,5.704670654296875,-0.18008249944932758,1.3908902947753667,-0.7101765603125095
1789923310879674600,5.714674560546875,-0.24784962925203144,1.5063164168536662,-0.7665460977882146
1789923310889678600,5.7246787109375,-0.3071452833075076,1.6023896036863325,-0.8664356280386447
1789923310899682800,5.734682861328125,-0.284833498256281,1.6609522672921417,-0.9354448668569326
1789923310909685500,5.744685546875,-0.275480563499406,1.733920472869277,-0.9416524893254041
1789923310919689700,5.754689697265625,-0.24508250262625514,1.8734739049881695,-0.8537211078941822
1789923310929693700,5.764693603515625,-0.2478420304674655,2.0091835211604834,-0.7309504682719707
1789923310939696600,5.774696533203125,-0.28013459985032674,2.1161165401816366,-0.7044137590020895
1789923310949700600,5.78470068359375,-0.35095402989573776,2.070704450049996,-0.5702578020125627
1789923310959704600,5.79470458984375,-0.2230249845970422,1.9694646742343902,-0.4880021281301975
1789923310969707800,5.804707763671875,-0.006407602019980549,1.992419433364272,-0.4980675950706005
1789923310979711700,5.814711669921875,0.27840536490492523,2.1090894180238244,-0.22771336160898206
1789923310989715500,5.824715576171875,0.6267862563770265,2.263158282229304,0.1289122111171484
1789923310999719700,5.8347197265625,0.8883272149164229,2.4254332492440938,0.5238222140520811
1789923311009722600,5.84472265625,1.1656816094636917,2.5602935551106927,1.0903922674626112
1789923311019726800,5.854726806640625,1.634804265078902,2.765992653310299,1.873868457263708
1789923311029730600,5.86473046875,1.9448679931163786,3.0140877086907625,2.5453531756103036
1789923311039733800,5.874733642578125,1.9979016641676424,3.0349060403138397,2.8632115030467507
1789923311049737700,5.88473779296875,1.9046774370253086,2.775563030210137,2.937904632720351
1789923311059741700,5.89474169921875,1.8119681736677884,2.344527236405015,2.893925790262222
1789923311069744600,5.90474462890625,1.7845500053882597,1.8778478822886944,2.8682939208775755
1789923311079748600,5.91474853515625,1.8270389015495776,1.4983599048912524,2.8969109435528515
1789923311089752600,5.924752685546875,1.8544775280952452,1.2168863115221262,2.8395471343427894
1789923311099756800,5.9347568359375,1.917869511553645,0.9646972648262977,2.7609032212167977
1789923311109759500,5.944759521484375,2.133712402626872,0.7814706951975822,2.8131705840706824
1789923311119763700,5.954763671875,2.4331617976695297,0.6555337004989386,2.9635698198527094
1789923311129767700,5.964767578125,2.644856336891651,0.48067982241809365,3.253457605823874
1789923311139770600,5.9747705078125,2.8215187256991863,0.20538053376972673,3.502085745167732
1789923311149774600,5.984774658203125,2.866519896942377,-0.3206348064124584,3.8498651636153456
1789923311159778600,5.994778564453125,2.895269021564722,-0.9216460586071014,4.325366122090816
1789923311169781800,6.00478173828125,3.0982699667215345,-1.385164318343997,4.643985497027636
1789923311179785700,6.01478564453125,3.35128494284749,-1.5648860947221517,4.903780927073956
1789923311189789700,6.024789794921875,3.723070090782642,-1.3564327293783425,5.157993588551879
1789923311199793700,6.034793701171875,3.9893420233666896,-0.8809154042899608,5.491020843547583
1789923311209796600,6.044796630859375,4.137632888692617,-0.3853501474291086,5.755163947409391
1789923311219800800,6.05480078125,4.342293876016139,-0.006806172883510589,5.903987896698713
1789923311229804800,6.0648046875,4.585643198174238,0.35028643283247946,5.792686161074042
1789923311239807500,6.074807373046875,4.785151040518284,0.8218670029938221,5.487307375982404
1789923311249811700,6.084811767578125,4.990064541298151,1.301142219310999,5.105108970582485
1789923311259815700,6.094815673828125,5.044810861486196,1.6897855630666017,4.689005372971296
1789923311269818600,6.104818603515625,4.895880529212952,1.9092524898558854,4.1682419619679445
1789923311279822600,6.114822509765625,4.368828831720352,2.0162363622814414,3.5809319028675555
1789923311289826600,6.12482666015625,3.6993934471189975,2.014718943455815,3.0305536903232335
1789923311299830800,6.134830810546875,3.223377524858713,1.9737252542883157,2.651523978087306
1789923311309833700,6.144833740234375,2.8896055889755488,1.9217197572410105,2.2668898699730633
1789923311319837700,6.154837646484375,2.5774381666570902,1.8365467346072195,1.9849521662235259
1789923311329841700,6.164841552734375,2.3204186310648915,1.6663099949330091,1.7890671905517577
1789923311339844600,6.1748447265625,2.056096078982949,1.428344703900814,1.5886241131842136
1789923311349848800,6.184848876953125,1.8682137925028799,1.1720113970071078,1.455426187571883
1789923311359852500,6.1948525390625,1.6691116083502768,0.9586977321505546,1.2055080084174872
1789923311369855700,6.204855712890625,1.489203369489312,0.821749514093995,0.8808949460238218
1789923311379859700,6.214859619140625,1.3755606236964464,0.6838210528284311,0.6414297718226909
1789923311389863700,6.22486376953125,1.3268985918581484,0.4642711239308119,0.47702480704188344
1789923311399867600,6.23486767578125,1.289507895618677,0.23248247570693492,0.37043548689186573
1789923311409870600,6.24487060546875,1.2406938880890608,0.11564940944015979,0.14183423653244973
1789923311419874600,6.25487451171875,1.0988736800819634,-0.04864858783483505,-0.3351379635393619
1789923311429878800,6.264878662109375,0.8812100033223629,-0.2613578570574522,-0.8564140002399683
1789923311439881500,6.274881591796875,0.7439636060368269,-0.4300713326871395,-0.9957336236029862
1789923311449885700,6.2848857421875,0.5744862333625554,-0.4544043944329023,-0.805206960093975
1789923311459889700,6.2948896484375,0.5564829591602086,-0.4213894290596246,-0.4380950646668672
1789923311469892900,6.304892822265625,0.6389040527373552,-0.49751931353807444,-0.12944471055865286
1789923311479897000,6.31489697265625,0.5667470174126327,-0.6668465371519327,-0.02106149272918701
1789923311489900800,6.32490087890625,0.4871715225249529,-0.8495990595281123,-0.012139350605010986
1789923311499904800,6.33490478515625,0.4020199810706079,-1.0006664038300515,-0.2320914305627346
1789923311509908000,6.344907958984375,0.1309558457739651,-1.13245037099123,-0.6271896495461463
1789923311519912000,6.354911865234375,-0.2574422910489142,-1.2976041083127259,-1.1061141527295113
1789923311529916000,6.364916015625,-0.6493753239996731,-1.614401236258447,-1.5188047270268201
1789923311539918800,6.3749189453125,-0.9347507471129297,-1.989539786274731,-1.8506079931855202
1789923311549922800,6.3849228515625,-1.114818852710724,-2.272974158322811,-2.134389863497019
1789923311559927000,6.394927001953125,-1.2293956644833086,-2.5129402677834034,-2.405157938456535
1789923311569929700,6.4049296875,-1.3056687568247318,-2.7524250234678385,-2.7140111216604708
1789923311579934000,6.414933837890625,-1.3875076665997503,-2.9962665130570527,-3.067622899523377
1789923311589938000,6.42493798828125,-1.4735489965006707,-3.207732504220307,-3.364966846719384
1789923311599942000,6.43494189453125,-1.5232313112974165,-3.3563638535469766,-3.5255846941769122
1789923311609944800,6.44494482421875,-1.5889726343609392,-3.6092262694597244,-3.511882332038879
1789923311619948800,6.45494873046875,-1.665118154799938,-3.9251542133554813,-3.400802714732289
1789923311629953000,6.464953125,-1.788125671917945,-4.25602808970958,-3.292326557922363
1789923311639956000,6.4749560546875,-1.9220700319834052,-4.661920966690778,-3.250326322060823
1789923311649959700,6.484959716796875,-2.0656448285728692,-5.159046312475204,-3.1752053223639725
1789923311659964000,6.4949638671875,-2.079798733870685,-5.59677254382968,-3.161418789073825
1789923311669966800,6.504966796875,-2.1026400957539675,-5.979311725491285,-3.1711861498504876
1789923311679971000,6.51497119140625,-2.0321336041152476,-6.3073974324315785,-3.22616218714118
1789923311689975000,6.52497509765625,-1.9333955819875002,-6.51950113697648,-3.317078721863031
1789923311699978800,6.534978759765625,-1.8272336934693156,-6.565525806048512,-3.401742625930905
1789923311709982000,6.54498193359375,-1.8013360127553342,-6.464411117917299,-3.2843642007410523
1789923311719986000,6.55498583984375,-1.874509677776694,-6.469903285592794,-3.012788316529989
1789923311729990000,6.564989990234375,-1.9390826877132057,-6.582179419207573,-2.743744581145048
1789923311739992800,6.574992919921875,-1.963861593530327,-6.6667363557696335,-2.5936644943147895
1789923311749996800,6.584996826171875,-1.9384131178885697,-6.789868229919672,-2.493986560988426
1789923311760001000,6.5950009765625,-1.9721943914592266,-6.876750394558906,-2.2859908762842416
1789923311770003700,6.605003662109375,-1.9625442273214457,-6.871501387989521,-1.9877724843412636
1789923311780008000,6.615008056640625,-1.838141456452757,-6.6102241949528455,-1.9259271458029745
1789923311790012000,6.625011962890625,-1.5876565833263099,-6.161157654416561,-2.014426682510972
1789923311800016000,6.635015869140625,-1.2852432239115237,-5.698690949559212,-1.998756819692254
1789923311810019000,6.64501904296875,-1.0360058666281402,-5.214156205278635,-1.8900860170930622
1789923311820022800,6.655022705078125,-0.7909710756011307,-4.647188676983117,-1.73825996337831
1789923311830026800,6.66502685546875,-0.6088200262494385,-4.0109330929279325,-1.607269776943326
1789923311840030000,6.675030029296875,-0.4087351146697998,-3.4323718652114272,-1.2465168951541186
1789923311850034000,6.685033935546875,-0.30623686322569843,-2.7836174495890735,-0.7137550033211708
1789923311860038000,6.695037841796875,-0.3772605106063187,-2.091169730451703,-0.2949719573676586
1789923311870040800,6.705040771484375,-0.5492888098724186,-1.7573165460258722,0.0018219547301530836
1789923311880045000,6.715045166015625,-0.6910838834382593,-1.6017553974360226,0.12357143461108207
1789923311890049000,6.725049072265625,-0.7669464952826499,-1.3208014440268276,0.18453122248649595
1789923311900051700,6.7350517578125,-0.8296275539927184,-1.0026111081570386,0.38546997441649433
1789923311910056000,6.745055908203125,-0.784578013563156,-0.7416670925974845,0.645187663051486
1789923311920060000,6.755059814453125,-0.6448241635013371,-0.5062216754317284,0.7385469147503375
1789923311930064000,6.76506396484375,-0.3648329907096922,-0.24148937350511548,0.6588871025800704
1789923311940066800,6.77506689453125,0.09294124548248946,-0.02155599824786186,0.7877204032421111
1789923311950070800,6.78507080078125,0.5427356619019061,0.1539385158240795,0.9329185632497071
1789923311960075000,6.795074951171875,0.8422744887936859,0.39123862094581124,0.9125859693169593
1789923311970078000,6.805077880859375,1.1162456706434487,0.7827899611026048,0.7749567832589149
1789923311980082000,6.81508203125,1.1951771685391663,1.098083991008997,0.7588806777268647
1789923311990086000,6.8250859375,1.169957387086749,1.35632576187253,0.706887455639243
1789923312000089900,6.83508984375,0.9343518109232186,1.6478127997338772,0.6110305419057608
1789923312010093000,6.845093017578125,0.6474801579028368,1.8803151491850614,0.6444353833794594
1789923312020097000,6.855096923828125,0.5464882193684578,1.9331331316590308,0.7753957591980696
1789923312030100700,6.865100830078125,0.49039516074657435,1.9607389314651489,0.7838871086895466
1789923312040104000,6.87510400390625,0.3976297102224082,1.998176973977685,0.8466314418941736
1789923312050108000,6.88510791015625,0.3121469640523195,2.0535235981464384,1.0330740509599448
1789923312060112000,6.89511181640625,0.35730825776066627,2.021720346650481,0.9768190797746181
1789923312070114800,6.90511474609375,0.7273176647275685,2.0017653538584708,1.0331196436673402
1789923312080118800,6.915118896484375,1.2089572720885275,2.1369138290166854,1.3156126432120798
1789923312090123000,6.925123046875,1.4377671967625618,2.1945067708075046,1.428916950830817
1789923312100127000,6.935126953125,1.4774030415803192,2.122840880000591,1.3533254110127686
1789923312110130000,6.9451298828125,1.614287546750903,2.087583104136586,1.2002794601142406
1789923312120134000,6.9551337890625,1.7912538869410752,2.0954098522394893,1.114566923776269
1789923312130137900,6.965137939453125,2.0464619891971347,2.2020020949989556,1.1607681184589862
1789923312140141000,6.97514111328125,2.32663209875226,2.423735213154554,1.342358611318469
1789923312150144800,6.985144775390625,2.5163246495246887,2.680191269645095,1.626809174671769
1789923312160148700,6.995148681640625,2.694118672710657,2.8383336668998003,1.8250953662663698
1789923312170152000,7.00515185546875,2.9123978510200974,2.9221155274361372,2.2566408631592987
1789923312180156000,7.015156005859375,3.1021161207556722,3.0115181504637003,2.7402058856248854
1789923312190160000,7.025159912109375,3.24785145637989,3.002164046663046,3.2231589136719703
1789923312200163800,7.035163818359375,3.2074984032034872,2.6829852842777964,3.7153333590507507
1789923312210167000,7.0451669921875,3.1319033562541008,2.321194291612506,4.139255521458387
1789923312220171000,7.0551708984375,2.994052051877975,2.065551305070519,4.2888212290257215
1789923312230175000,7.065175048828125,2.8103894289195535,1.7092682621717452,4.3062773907393215
1789923312240178000,7.075177978515625,2.7697125506162643,1.3216747197300196,4.42970561748743
1789923312250182000,7.085181884765625,2.9756536408782,0.9515268176078796,4.592720004692674
1789923312260185900,7.095185791015625,3.2600539353489872,0.6434288366854191,4.6311879747748375
1789923312270188800,7.105188720703125,3.6328503061532973,0.47755496839582917,4.630391855961084
1789923312280192800,7.11519287109375,3.9022260499715804,0.24778292069137095,4.7402796331346035
1789923312290197000,7.125197021484375,3.849959271639585,-0.040005847173929215,4.884792733487487
1789923312300201000,7.135200927734375,3.834561796021461,-0.2733955008536577,4.863519059312344
1789923312310204000,7.145203857421875,3.714555944937467,-0.5026753811269998,4.769018820884823
1789923312320208000,7.155207763671875,3.483157757335901,-0.6477993068546056,4.78825426723063
1789923312330211800,7.1652119140625,3.2895524170339105,-0.7423030524134635,4.872305007836222
1789923312340215000,7.175215087890625,3.018827596694231,-0.723590753158927,4.875911507895589
1789923312350219000,7.185218994140625,2.8171558543145654,-0.4830675943374633,4.837337739351391
1789923312360222700,7.19522265625,2.6038848595559596,-0.018564999738335607,4.711809909975528
1789923312370226000,7.205225830078125,2.45403098269701,0.5760913304716349,4.52946655292213
1789923312380230000,7.21522998046875,2.4447791702270507,1.145261337247491,4.376809309080243
1789923312390234000,7.225234130859375,2.5373896493852137,1.5530179622739553,4.269282415819168
1789923312400237800,7.23523779296875,2.697384396508336,1.716446775498986,4.137659776699543
1789923312410240800,7.24524072265625,2.699284092649817,1.607943146160245,3.8473289231359957
1789923312420245000,7.255244873046875,2.5286674137473106,1.3394728267490863,3.402060021317005
1789923312430249000,7.2652490234375,2.4288123702883717,1.0801648879587649,2.898812977781892
1789923312440252000,7.275251953125,2.341947156783938,0.9023059828430414,2.2672762389421464
1789923312450256000,7.285255859375,2.231450307801366,0.7750801173776388,1.6281898153752088
1789923312460259800,7.295259765625,2.1295710650384425,0.5522065970152616,1.138390282434225
1789923312470263000,7.305262939453125,2.07646023709774,0.20301964985728263,0.6856950300067662
1789923312480266500,7.3152666015625,2.074772137880325,-0.00765139153599739,0.3495031735002994
1789923312490270700,7.325270751953125,2.1579583706110714,-0.20186346555948256,0.2964776857554912
1789923312500274700,7.335274658203125,2.2676339663386345,-0.385959219238162,0.30632103437781333
1789923312510277600,7.345277587890625,2.230183648866415,-0.43956396817564963,0.18757248987853525
1789923312520281600,7.355281494140625,2.0184218896269797,-0.5444751259803772,-0.14013970757424832
1789923312530285600,7.36528564453125,1.7033312733381987,-0.5775964743375778,-0.6200023683905601
1789923312540288800,7.375288818359375,1.2917565513283014,-0.5494646048307419,-1.125356028816104
1789923312550292700,7.385292724609375,0.8897550557624548,-0.4904974520772695,-1.601855350679159
1789923312560296400,7.39529638671875,0.39834392290636894,-0.42247021003365515,-1.9550509489566086
1789923312570299600,7.405299560546875,0.04493687383532524,-0.5517050772339105,-2.0249632740944623
1789923312580303600,7.4153037109375,-0.1683760603688657,-0.6213268949925899,-2.0676807183146475
1789923312590307800,7.425307861328125,-0.3086972619898617,-0.6267220320343971,-2.2349843271464107
1789923312600311800,7.435311767578125,-0.6538093609243631,-0.7451882524609565,-2.0762346116483212
1789923312610314500,7.445314453125,-0.9850982478201389,-0.8761971435964107,-1.9549428124070167
1789923312620318700,7.455318603515625,-1.161532234699279,-0.8512246149033308,-2.181417572131753
1789923312630322700,7.46532275390625,-1.401331609290838,-0.83708912204504,-2.2003537432700395
1789923312640325600,7.47532568359375,-1.6476934111379087,-0.8491641752421856,-2.2448341055095193
1789923312650329600,7.48532958984375,-1.8242296893477439,-0.7439280232667923,-2.451695233225822
1789923312660333600,7.49533349609375,-2.087730695913732,-0.6997019280493258,-2.549043846821785
1789923312670336800,7.505336669921875,-2.1934704134970904,-0.6481187480673194,-2.4902011972308156
1789923312680340700,7.5153408203125,-2.1224698547311127,-0.6551695433616638,-2.389962122890353
1789923312690344400,7.525344482421875,-2.001796918040514,-0.8789134168177842,-2.3293676611959935
1789923312700348700,7.5353486328125,-1.8858762904435395,-1.1850947504639624,-2.460340311974287
1789923312710351600,7.5453515625,-1.798214373603463,-1.4369330840259789,-2.7301830887824297
1789923312720355800,7.55535595703125,-1.7725620459526776,-1.6523232628956437,-3.041249856382608
1789923312730359600,7.565359619140625,-1.7888035711795092,-1.9284017192229628,-3.2069249872297045
1789923312740362800,7.57536279296875,-1.7724767057567834,-2.20167710082829,-3.2160487894058227
1789923312750366700,7.58536669921875,-1.7268451276555656,-2.4362922046497464,-3.111639151382446
1789923312760370700,7.59537060546875,-1.7222279892489314,-2.7899954601883885,-2.886476058778167
1789923312770373600,7.60537353515625,-1.7115169178813694,-3.2898359101504084,-2.517671972480416
1789923312780377600,7.615377685546875,-1.6946429399698972,-3.850232243362069,-2.0410937401622533
1789923312790381600,7.625381591796875,-1.6160516338139772,-4.375593503549695,-1.5702689568042754
1789923312800385800,7.6353857421875,-1.634407374715805,-4.644907580308616,-1.4202134198933838
1789923312810388500,7.645388427734375,-1.6763170096844433,-4.676935288210213,-1.5306190834611653
1789923312820392700,7.655392822265625,-1.5998951565220951,-4.3985242972820995,-1.7112065367579459
1789923312830396700,7.665396728515625,-1.3327987558126448,-4.119735120691359,-1.94831550322175
1789923312840399600,7.675399658203125,-1.0209446372270583,-4.090427485403418,-2.0011486832648515
1789923312850403600,7.685403564453125,-0.8116485374487936,-4.307754185293614,-1.9257605570644138
1789923312860407600,7.695407470703125,-0.6510938183553516,-4.728361524064838,-1.6764572949379681
1789923312870410800,7.70541064453125,-0.45165012728869913,-5.0923231387674806,-1.370085407155752
1789923312880414700,7.715414794921875,-0.381380659276247,-5.249328056424856,-1.1817173829853533
1789923312890418700,7.725418701171875,-0.458091120121628,-5.399990911579132,-0.7034685871064662
1789923312900421600,7.735421630859375,-0.5786959600120782,-5.580267399230599,-0.27124621386528014
1789923312910425600,7.745425537109375,-0.5969540857583284,-5.630577782797813,-0.22124971855282782
1789923312920429800,7.755429931640625,-0.5128169820435345,-5.18462265228033,-0.568358690392971
1789923312930433800,7.765433837890625,-0.21863938992395995,-4.478464095437526,-0.9426064290493726
1789923312940436500,7.7754365234375,0.26773572152629493,-3.973196944251656,-1.1429244187325238
1789923312950440700,7.785440673828125,0.8579185595840215,-3.6252205419272183,-1.0495072993665933
1789923312960444700,7.795444580078125,1.4200181895822286,-3.2389567867845295,-0.7413233937263488
1789923312970447600,7.805447509765625,1.896145755523443,-2.7253005774378773,-0.444906498247385
1789923312980451600,7.81545166015625,2.1916946359962224,-2.298888351780176,-0.0983820482969284
1789923312990455600,7.82545556640625,2.2746059973083437,-2.0389444531738756,0.2948527149021625
1789923313000458800,7.835458740234375,2.093885419151187,-1.7292349454015492,0.6690706429421901
1789923313010462700,7.845462646484375,1.8214672388970852,-1.3178028467327356,0.9734639241278171
1789923313020466700,7.855466796875,1.3812877691715955,-0.9599602994322777,1.1626941180855035
1789923313030470700,7.865470703125,0.7753009205214679,-0.7787123364001513,1.314167120578885
1789923313040473600,7.8754736328125,0.11580138513147831,-0.594313800382614,1.287564944857359
1789923313050477800,7.885477783203125,-0.362363239595294,-0.3834977975606918,1.0905424895882605
1789923313060481500,7.8954814453125,-0.6209710672922432,-0.17836685463786126,0.8285667928934097
1789923313070484700,7.905484619140625,-0.7693933769781142,0.05299743069410324,0.398949049192667
1789923313080488700,7.91548876953125,-0.8366448854088783,0.29645956557691094,-0.14352701192498207
1789923313090492700,7.92549267578125,-0.8590296626310795,0.5632639976024627,-0.6970242332726717
1789923313100495600,7.93549560546875,-0.805345564847067,0.7855524115532636,-1.0984335350990295
1789923313110499600,7.94549951171875,-0.8126186976552009,0.9698024790108203,-1.3325754684507847
1789923313120503600,7.955503662109375,-0.7250585606891662,1.1359300298005341,-1.3831769439190624
1789923313130507800,7.9655078125,-0.6925602396011352,1.2515893761128187,-1.332020757177472
1789923313140510500,7.975510498046875,-0.7655577443379908,1.452058172443509,-1.2125585114508866
1789923313150514700,7.9855146484375,-0.8362211070388555,1.7622113323301076,-1.0875170042872428
1789923313160518700,7.9955185546875,-0.9046114833064377,2.0755326008588075,-1.0006582205235957
1789923313170521900,8.00552197265625,-1.0215424569897353,2.2679694819033145,-0.9382856432408094
1789923313180524500,8.015524658203125,-1.0573305403381585,2.3372265580028295,-0.8198089014202355
1789923313190527700,8.02552783203125,-1.0201946225773542,2.261280797919631,-0.6854612212508916
1789923313200531700,8.03553173828125,-0.8087075886260717,2.042491332000494,-0.6328209334313869
1789923313210535700,8.04553564453125,-0.5362064793288708,1.8681418963104486,-0.7990998753905296
1789923313220538600,8.05553857421875,-0.33172267520315946,1.7535329358339309,-0.9595733459413051
1789923313230542600,8.06554248046875,-0.2873241460282355,1.5845914966672658,-0.7523463075220584
1789923313240546800,8.075546875,-0.0931196707893163,1.5131354492187499,-0.3294762845158577
1789923313250550800,8.08555078125,0.4430594090759754,1.683151239618659,0.02197919209599495
1789923313260553500,8.095553466796876,1.0218933893192559,1.887730978399515,0.3540226967513561
1789923313270557700,8.1055576171875,1.3618144224166868,2.075811417800188,0.6941939782828093
1789923313280561700,8.115561767578125,1.6293927614241837,2.153497884070873,1.138403141915798
1789923313290564600,8.125564697265625,1.9382897837698458,2.078353503498435,1.6385750157892702
1789923313300568600,8.135568603515624,2.0662498087286947,1.9201853872805832,2.143537631070614
1789923313310572500,8.145572509765625,1.964194624876976,1.6788509120762347,2.463054831629991
1789923313320575700,8.15557568359375,1.6594535531669854,1.4314017533838748,2.629234989389777
1789923313330579700,8.165579833984374,1.3694471092522142,1.1034621769160031,2.7510546118974686
1789923313340583700,8.175583740234375,1.2185410929918288,0.739517805609107,2.8617729946762323
1789923313350587600,8.185587646484375,1.27969260404706,0.5890040035367011,3.0226439401119944
1789923313360590600,8.195590576171876,1.4810989734888076,0.4863987845867872,3.302856719765067
1789923313370594800,8.2055947265625,1.7172388026595116,0.41058688001632687,3.6094641698688266
1789923313380598500,8.2155986328125,2.015788033992052,0.46408290788233275,3.9033424867808817
1789923313390601700,8.225601806640626,2.387128945291042,0.6139186645627022,4.154302868464589
1789923313400605700,8.235605712890624,2.61589444630146,0.6399532695293426,4.465144595137239
1789923313410609700,8.245609619140625,2.865745989960432,0.44731531295478344,4.949535547032952
1789923313420612600,8.255612548828125,3.296987535470724,0.13452069864869118,5.387994768837094
1789923313430616600,8.265616455078124,3.5096120490193363,-0.1515776319116354,5.3937721831947565
1789923313440620500,8.27562060546875,3.5863644493103024,-0.3982295027464628,5.410113077142834
1789923313450624800,8.285624755859375,3.724735978168249,-0.5027133750498295,5.6730941514879465
1789923313460627500,8.29562744140625,4.0054982083976265,-0.26254443649351594,5.943868071666359
1789923313470631700,8.305631591796875,4.27953609880805,0.20705343541800975,6.229266729524731
1789923313480635600,8.3156357421875,4.352504304385185,0.7585480847716332,6.43216304526329
1789923313490638800,8.325638916015626,4.422307908451557,1.2849316737443208,6.561656271138787
1789923313500643000,8.33564306640625,4.5539024905204775,1.6861942605763673,6.616075259068608
1789923313510647000,8.34564697265625,4.617726435655356,1.8386399074941873,6.5798746493965385
1789923313520650200,8.355650146484376,4.578084161096811,1.8122890761852264,6.282911810472608
1789923313530654000,8.365654052734374,4.284032241183519,1.512223595070839,5.664539673632383
1789923313540658000,8.375657958984375,3.8619267728090283,1.1668611746370792,5.0453515442341565
1789923313550662100,8.385662109375,3.5667315280795093,0.9951999551177024,4.396909847822785
1789923313560666000,8.395666015625,3.272513603949547,0.9156646461099386,3.6255887907177207
1789923313570670000,8.405670166015625,2.9132161816656588,0.8021276987791061,3.0090035372942685
1789923313580674000,8.415674072265626,2.6667116103470323,0.7705991725713014,2.5132991642236706
1789923313590677000,8.425677001953124,2.367367429244518,0.8196995958268642,2.088544058123231
1789923313600681000,8.435680908203125,2.0607471196591853,0.9212374778062105,1.7503344320535659
1789923313610685200,8.445685302734375,1.8813906694620846,0.9462474159002303,1.5991671345084906
1789923313620688000,8.45568798828125,1.7978887949109077,0.8364788811922073,1.4270844747066498
1789923313630692000,8.465692138671875,1.7129402286827564,0.6701017395555973,1.1951286532223224
1789923313640696000,8.475696044921875,1.6810861237823962,0.4678168337136507,0.8628840730369091
1789923313650700000,8.485699951171876,1.5816969442695379,0.14726152227818964,0.5377274052858352
1789923313660703000,8.495702880859374,1.3080951071888207,-0.046024669072031975,-0.004683773902058601
1789923313670707000,8.50570703125,1.0247546239692717,-0.20822598632872102,-0.5380979921638965
1789923313680711000,8.5157109375,0.760906119139865,-0.42493455432057375,-1.0321136814951897
1789923313690714000,8.525714111328124,0.29291619388163087,-0.6308388197034597,-1.5267799436897038
1789923313700717800,8.5357177734375,-0.1342325293570757,-0.6348702671766281,-1.7619436213046311
1789923313710722000,8.54572216796875,-0.4902783294338733,-0.6208949333161116,-1.9549650242388248
1789923313720725000,8.55572509765625,-0.42569034112393855,-0.7219482466489077,-2.0919775397032496
1789923313730729200,8.565729248046875,-0.45503399757333096,-0.674533584523201,-2.3256313972771165
1789923313740733200,8.575733154296875,-0.8688146321296691,-0.4886468557745218,-2.3916759410709143
1789923313750737000,8.58573681640625,-1.1399135464787482,-0.3320581177026033,-1.7446411888480184
1789923313760740000,8.595739990234375,-0.9570439735941588,-0.2276210071504116,-1.3214607847183941
1789923313770744000,8.605744140625,-0.6734767689466477,-0.2668336581200361,-1.3948095140457153
1789923313780748000,8.615748046875,-0.8024151374183595,-0.4280699297368526,-1.4067425284236668
1789923313790751000,8.6257509765625,-0.9249246418863535,-0.48725394011139866,-1.3462258081406353
1789923313800755000,8.6357548828125,-0.9194671071328222,-0.5948994913160801,-1.253627019420266
1789923313810759200,8.64575927734375,-0.8283768232792615,-0.9368336908668279,-1.0975590903520585
1789923313820761900,8.655761962890624,-0.6195049402624369,-1.281488547553122,-1.3588456357389687
1789923313830766000,8.66576611328125,-0.5842815050594509,-1.6275225836381315,-2.074103444838524
1789923313840770000,8.67577001953125,-0.7598200044035911,-2.1234391381546853,-2.6767081037044522
1789923313850774000,8.68577392578125,-0.8499355980060994,-2.540442314954102,-3.0871599591642616
1789923313860777200,8.695777099609375,-0.7988852097265422,-2.8832883686527606,-3.309077786237001
1789923313870781000,8.705781005859375,-0.7503532340086996,-3.303761559650302,-3.245391788268089
1789923313880785000,8.715784912109376,-0.6380309231646358,-3.814397544392943,-3.0166292098671197
1789923313890788000,8.7257880859375,-0.4797239829979837,-4.4017192939311265,-2.6888340103060004
1789923313900792000,8.7357919921875,-0.4452629104696214,-4.970563722014427,-2.322637476158142
1789923313910796000,8.745796142578126,-0.5576205848880111,-5.467854487493634,-2.0355098025500773
1789923313920799000,8.755799072265624,-0.6490178888641297,-5.875431079778075,-1.8739765938133
1789923313930803000,8.765802978515625,-0.86004738830626,-6.091124917769432,-1.9606787257105112
1789923313940807200,8.77580712890625,-1.1408721623778342,-6.148828918719292,-2.183644016009569
1789923313950811100,8.78581103515625,-1.3148029342643917,-6.108937053313851,-2.4137539173662663
1789923313960814000,8.79581396484375,-1.225076047718525,-6.02146919774115,-2.475017656624317
1789923313970818000,8.805818115234375,-1.0743396889366208,-5.953750583255291,-2.5230507429093123
1789923313980822000,8.815822021484376,-0.9159928551509976,-5.918474687212705,-2.506422264191508
1789923313990825000,8.825824951171874,-0.8514239368677139,-6.090611707550287,-2.434060207813978
1789923314000829000,8.835828857421875,-0.9080290366649627,-6.2821981092453,-2.415533201998472
1789923314010833200,8.845833251953126,-0.9420080247648059,-6.280797594797611,-2.4277333428800105
1789923314020836000,8.855836181640624,-1.0915754858978093,-6.323551279374957,-2.4012632691055535
1789923314030839800,8.86583984375,-1.2593296149760485,-6.388053269901872,-2.4012556703209875
1789923314040844000,8.875843994140626,-1.5203988643504678,-6.281159998369216,-2.650941794285178
1789923314050848000,8.885847900390624,-1.7896107959091663,-5.89606645604968,-3.0271757383227347
1789923314060851200,8.895851318359375,-1.8383271882832048,-5.308244355773925,-3.2794495406925677
1789923314070855200,8.905855224609375,-1.4862312218107283,-4.564376246000826,-3.378191654473543
1789923314080859000,8.91585888671875,-1.1036123990416526,-3.9452877775847908,-3.2923212972253557
1789923314090862000,8.925862060546875,-0.8090484379529953,-3.554516774150729,-3.009162527248263
1789923314100866000,8.935865966796875,-0.6434691686958074,-3.1925331815227866,-2.7805536781042814
1789923314110870000,8.9458701171875,-0.574364068287611,-2.8828578682810067,-2.431115386533737
1789923314120873000,8.955873046875,-0.5391526157833636,-2.7753140238851306,-1.9534774160295725
1789923314130877000,8.965876953125,-0.6192044960111379,-2.7817057707488537,-1.5722066468685865
1789923314140881200,8.975881103515626,-0.8163988007158041,-2.6560429168164728,-1.2478823382884263
1789923314150885000,8.985885009765624,-1.012685342925787,-2.4531162059396503,-0.8969482552021741
1789923314160888000,8.99588818359375,-1.1386140081875025,-2.2437135770469903,-0.5971645136386156
1789923314170892000,9.00589208984375,-1.1862645248956978,-1.9935089821666478,-0.18966332467794417
1789923314180896000,9.01589599609375,-1.1279355239152908,-1.692800526973605,0.19428397021591662
1789923314190899200,9.025899169921875,-0.9295569778621197,-1.3919383425235747,0.43528000724613664
1789923314200903000,9.03590283203125,-0.5939486203320324,-1.103884201720357,0.5592378108263015
1789923314210907000,9.045906982421876,-0.25681086127758024,-0.8229150507420301,0.5116016149044037
1789923314220910000,9.05591015625,0.024552257454395293,-0.5394868161737919,0.3408341293543577
1789923314230914000,9.0659140625,0.15324468834102153,-0.21325053649246692,0.13819851037859915
1789923314240918000,9.07591796875,0.2947593375302851,0.13100246139466762,-0.022092004820704458
1789923314250922000,9.085921875,0.48247766562029715,0.40709436172544955,-0.15492752686142922
1789923314260925000,9.095925048828125,0.5215419941604137,0.6717424924999476,-0.22942776431143283
1789923314270929200,9.10592919921875,0.35759573293253777,1.019026236385107,-0.2246568966478109
1789923314280933000,9.11593310546875,0.17226020832583308,1.3642559703499078,0.048801732569932935
1789923314290936000,9.12593603515625,0.113718733638525,1.7361884178012608,0.4488111044704914
1789923314300940000,9.13593994140625,0.15706636552102862,1.972005006366968,0.7892904290378093
1789923314310944000,9.145944091796874,0.19648761774003504,2.1159511204868555,1.0100859740823507
1789923314320948200,9.1559482421875,0.2410977438390255,2.149433703371882,1.0317126994788646
1789923314330951000,9.165950927734375,0.19460260771103202,2.1464345215559004,0.6367799001902341
1789923314340955100,9.175955078125,0.2026584153294563,1.985216954639554,0.32729543334543704
1789923314350959000,9.185958984375,0.4037982427895069,1.723832794097066,0.35562954742610453
1789923314360961800,9.1959619140625,0.6510520981054753,1.5263684402793645,0.42359833728075025
1789923314370966000,9.205966064453126,0.9807850607961416,1.5202449889630079,0.43593876341581345
1789923314380970000,9.215969970703124,1.4180483508139847,1.5155249747037887,0.46139936788678165
1789923314390973200,9.22597314453125,1.8323130425602197,1.4890502247542141,0.6123772803395986
1789923314400977200,9.23597705078125,2.0962229221880433,1.5877438232183456,0.9953735581189393
1789923314410980900,9.24598095703125,2.3054057708501814,1.7022738732397555,1.4838415501952171
1789923314420985000,9.255985107421875,2.507904027181864,1.7355735007733106,1.8740391376554966
1789923314430988000,9.265988037109375,2.6666496510267255,1.7845558506071566,2.2949837455570696
1789923314440992000,9.275991943359376,2.7436767766058443,1.6974042213767766,2.7046716309070584
1789923314450996000,9.285995849609375,2.654492764765024,1.4910224016100166,3.1504455596387384
1789923314460999000,9.2959990234375,2.438022097182274,1.2726157975286245,3.4902941850870848
1789923314471003100,9.306003173828126,2.2567899162411686,1.067346322917938,3.8104356550246474
1789923314481007000,9.316007080078125,2.1601380527377128,0.8569868316918611,4.137213786497712
1789923314491010600,9.326010498046875,2.180517992943525,0.7234948915690184,4.483514072303474
1789923314501014500,9.3360146484375,2.2567291259646414,0.6562374648541212,4.870377546904981
1789923314511018500,9.3460185546875,2.395558919984102,0.6643646572083235,5.226461560100317
1789923314521022500,9.3560224609375,2.5853473323464393,0.822208363777399,5.543721337121725
1789923314531025700,9.366025634765625,2.6757658544182776,1.0889362234354019,5.762007529693841
1789923314541029400,9.376029296875,2.7989678711950776,1.1338614068329333,6.107700789517164
1789923314551033600,9.38603369140625,2.979201688748598,0.8592378254890441,6.6536874891042705
1789923314561036500,9.39603662109375,3.322131329077482,0.4892389764487743,7.046629406836629
1789923314571040500,9.40604052734375,3.5846705048739906,0.17289865235984325,7.138279516530036
1789923314581044700,9.416044677734375,3.657563891649246,0.05280570751428604,7.1642176753848785
1789923314591047400,9.42604736328125,3.7625814324378966,0.1586263813793659,7.243758829611539
1789923314601051600,9.4360517578125,4.02056133749485,0.35724048975408074,7.440403099218011
1789923314611055600,9.4460556640625,4.251753773391247,0.7232073067992926,7.535757908648252
1789923314621059600,9.4560595703125,4.48658894970417,1.2119190445035695,7.549290174916386
1789923314631062500,9.4660625,4.7196951102674,1.674016331526637,7.614736168295145
1789923314641066500,9.47606640625,4.891401922494173,2.016698134574294,7.6549524433493605
1789923314651070700,9.48607080078125,4.997289231854677,2.2908903387635946,7.6203814807057375
1789923314661073700,9.49607373046875,4.954960494691133,2.4095535430669783,7.47695909819901
1789923314671077400,9.506077392578124,4.79009960283637,2.28875391125679,7.186965513765811
1789923314681081600,9.51608154296875,4.416896404796838,1.9948229873746632,6.682889033669233
1789923314691084500,9.52608447265625,3.874963949036598,1.616522173935175,5.921662669599056
1789923314701088800,9.5360888671875,3.4733307753264904,1.2471914334148169,5.19163574591279
1789923314711092500,9.546092529296875,3.229039203882217,0.9063058661341666,4.625201886102557
1789923314721096400,9.556096435546875,3.007534633785486,0.6014157413423061,4.138021011227369
1789923314731099600,9.566099609375,2.891720973694324,0.2969073093444109,3.7738667965620754
1789923314741103600,9.576103515625,2.777107921564579,-0.010688567274808883,3.3112311648786066
1789923314751107300,9.586107421875,2.6182489004731178,-0.3628285190194845,2.8745775311917066
1789923314761110500,9.596110595703125,2.4815128638625144,-0.6890677213102578,2.4826293006718156
1789923314771114500,9.606114501953124,2.3476339702486992,-1.040889693146944,1.9978484726756809
1789923314781118700,9.61611865234375,2.2194214318335055,-1.3968103324741123,1.5378823524624108
1789923314791121400,9.626121337890625,2.160557154932618,-1.7396522945195436,1.155281796002388
1789923314801125600,9.636125732421876,2.113781375232339,-2.07224524975121,0.8024930249601602
1789923314811129600,9.646129638671875,2.148772609114647,-2.35938169118762,0.27755086696743964
1789923314821133600,9.656133544921875,2.0016729993999003,-2.6906302460730074,-0.36652445092797276
1789923314831136500,9.666136474609376,1.6297516578644513,-2.9471845022410155,-1.009615433961153
1789923314841140500,9.676140380859374,0.9160381555974483,-2.8363351865589617,-1.6064087761998176
1789923314851144400,9.68614453125,0.3741564801763743,-2.7030121732622385,-1.9536445892900227
1789923314861147600,9.696147705078126,0.05295592963993549,-2.70662685662806,-1.9122516716718672
1789923314871151600,9.706151611328124,-0.06938917804658412,-2.587181562036276,-2.3311411006093024
1789923314881155600,9.716155517578125,-0.186212453571707,-2.4197633869141337,-2.3839111522883174
1789923314891158500,9.726158447265625,-0.11325506164953111,-2.309507360950112,-1.839267099481821
1789923314901162800,9.736162841796874,-0.006226911690831184,-1.9971213274449109,-1.9286428345024584
1789923314911166700,9.746166748046875,-0.08305997600257396,-1.9625924503773449,-2.2853268594175575
1789923314921170400,9.75617041015625,-0.26186989823281764,-2.1404794125437734,-2.267204342749715
1789923314931173600,9.766173583984376,-0.49840369515717026,-2.2006632476106285,-2.349350126516819
1789923314941177600,9.776177490234375,-0.7878266400955617,-2.317958378431201,-2.519012865695357
1789923314951181600,9.786181640625,-0.7800736878812312,-2.506196638742089,-2.7592192136526106
1789923314961184500,9.7961845703125,-0.6188629890970886,-2.785539942084253,-3.094432580515742
1789923314971188500,9.8061884765625,-0.7922527859747409,-3.054518503278494,-3.5007436829090115
1789923314981192700,9.816192626953125,-1.0161578413419425,-3.1498619145318862,-3.866664322724938
1789923314991195600,9.826195556640625,-1.1534884828448295,-3.095197135147452,-4.143552926391363
1789923315001199400,9.836199462890624,-1.153388529601693,-3.165890089268982,-4.1862341302543875
1789923315011203600,9.84620361328125,-1.0669050088912249,-3.3848990431576964,-4.049121661546826
1789923315021207600,9.85620751953125,-0.9811585702836513,-3.6021371879816053,-3.9079491037935017
1789923315031210800,9.866210693359376,-0.9475064760506152,-3.8031881681144237,-3.882114989835024
1789923315041214500,9.87621435546875,-1.0025193382203579,-4.13524102512002,-3.845558406332135
1789923315051218400,9.886218505859375,-1.0927098967552185,-4.621873910723626,-3.683379300907254
1789923315061221600,9.8962216796875,-1.1648523190326987,-5.086900529196858,-3.5163463257104155
1789923315071225600,9.9062255859375,-1.3726754236489533,-5.469255001941323,-3.4662112987101077
1789923315081229600,9.9162294921875,-1.4821857458122074,-5.664333921927214,-3.4079841506689785
1789923315091232500,9.926232421875,-1.4700370428569614,-5.772575685459375,-3.3817028774648903
1789923315101236500,9.936236572265624,-1.353289170655608,-5.77728459380269,-3.3666572840243574
1789923315111240700,9.94624072265625,-1.3734120673604309,-5.713527284163236,-3.48799058431983
1789923315121244700,9.95624462890625,-1.320412298578769,-5.715204861986637,-3.491916233330965
1789923315131247600,9.96624755859375,-1.3341782274723053,-5.844607486969232,-3.4483687680274246
1789923315141251600,9.97625146484375,-1.414844001814723,-6.02561111985147,-3.416864207217097
1789923315151255600,9.986255615234375,-1.4681126506656408,-6.115713415580988,-3.477092758208513
1789923315161258500,9.996258544921876,-1.4951315904945135,-6.191172853451967,-3.488053128162026
1789923315171262500,10.006262451171875,-1.6306396927453577,-6.433091266024112,-3.271580122491717
1789923315181266400,10.016266357421875,-1.5565641104482113,-6.552050822925567,-3.0331407842069864
1789923315191269600,10.02626953125,-1.435282394209504,-6.473669944649934,-3.0503210515886545
1789923315201273600,10.036273681640624,-1.375010150206834,-6.246257027292251,-3.2014585385173557
1789923315211277600,10.046277587890625,-1.187209696791321,-5.9285687957257025,-3.2893601093322036
1789923315221281500,10.056281494140626,-0.8613871124774217,-5.5717550069510935,-3.191125360551476
1789923315231284700,10.06628466796875,-0.5033434896469116,-5.222076476883888,-3.036772418707609
1789923315241288700,10.076288818359375,-0.20110709423422812,-4.968797296863794,-2.8453157808721063
1789923315251292400,10.08629248046875,0.03798267078325152,-4.80349099932909,-2.344740002372861
1789923315261295600,10.096295654296876,0.26988880790695546,-4.5774914559006685,-1.7033113995939493
1789923315271299600,10.106299560546875,0.38775837761461734,-4.3219583594739435,-1.0496674583643675
1789923315281303600,10.116303466796875,0.4420779968231916,-3.9878462318509813,-0.35873394318222995
1789923315291306500,10.126306396484376,0.44518648423254487,-3.578282265141606,0.2384475215911865
1789923315301310500,10.136310546875,0.3372856430925429,-3.0670553287684914,0.7748995001137257
1789923315311314700,10.146314697265625,0.31309447403550145,-2.492632223770022,1.3431132290780543
1789923315321318700,10.156318603515626,0.3460473339579999,-1.9084505258232354,1.8384534450113772
1789923315331321600,10.166321533203124,0.3561174770735204,-1.4180606257736683,2.146071533462405
1789923315341325600,10.17632568359375,0.4045592902898788,-1.0307055682629347,2.2081267153590916
1789923315351329500,10.18632958984375,0.5431487727474421,-0.6300561448931694,2.0929817483097315
1789923315361332700,10.196332763671874,0.7324503514409065,-0.2550754157871008,1.8395482545107602
1789923315371336400,10.20633642578125,0.854801304346323,0.15049159024059772,1.5716905140399933
1789923315381340400,10.21634033203125,0.9761755211740731,0.4788566986441612,1.5007067602783442
1789923315391343600,10.226343505859376,1.090664654663205,0.8412824820816517,1.3603613009989262
1789923315401347600,10.23634765625,1.038470941567421,1.1589970171332358,1.0715817685306073
1789923315411351800,10.246351806640625,0.7727302663158625,1.3749603197157383,0.8687555954188108
1789923315421355500,10.25635546875,0.4899882604461163,1.5845640241384504,0.7580798827379942
1789923315431358500,10.2663583984375,0.22095972263030705,1.9091420152187346,0.7997311590313911
1789923315441362700,10.27636279296875,-0.017025369080901145,2.222894660902023,1.0194207886606454
1789923315451366700,10.28636669921875,-0.1337357588160783,2.4904870284348726,1.3105249646842478
1789923315461369600,10.29636962890625,-0.1868786623954773,2.6239935816049575,1.57018595469594
1789923315471373600,10.30637353515625,-0.2558960845202207,2.673998844745755,1.7228192331403493
1789923315481377500,10.31637744140625,-0.2929197740782052,2.618290401527285,1.6285452046841382
1789923315491380000,10.3263798828125,-0.34550738186240193,2.4935142673015593,1.2244319045960903
1789923315501384000,10.336384033203124,-0.4185458031315356,2.3643261618524787,0.7012655241042375
1789923315511388000,10.346387939453125,-0.38236791674792764,2.1600562196731565,0.3404547746479511
1789923315521391900,10.356391845703126,-0.11337857843134552,1.9695494299083947,0.2829536027938127
1789923315531395000,10.36639501953125,0.29234920764863487,1.8665040659755467,0.4889285953253507
1789923315541399000,10.37639892578125,0.7989642663121223,1.794837006124854,0.6443249087423086
1789923315551402800,10.38640283203125,1.3085633092224598,1.6308084734410047,0.6788578774631023
1789923315561406000,10.396406005859374,1.7735265070706605,1.4866320576965808,0.6828682821482419
1789923315571410000,10.406409912109375,2.1345558677136895,1.3894693220615386,0.8942477640718222
1789923315581414000,10.416413818359375,2.3133692970752713,1.396809163430333,1.3744669832408427
1789923315591416800,10.426416748046876,2.33414788120985,1.3996668909490109,2.013559252026677
1789923315601420800,10.4364208984375,2.271049912261963,1.3252256902098656,2.535551912564039
1789923315611425000,10.446425048828125,2.179067209613323,1.2781383603423833,2.996097878491878
1789923315621429000,10.456428955078126,2.0821464660406113,1.1190858625054358,3.587659749817848
1789923315631432000,10.466431884765624,2.048272253489494,0.9324877706170082,4.201611732128263
1789923315641436000,10.476435791015625,2.0434312431991097,0.866024709150195,4.709235967834293
1789923315651439900,10.48643994140625,1.9685680176556108,0.8485591950863599,5.135874111202359
1789923315661443000,10.496443115234374,1.8898504547715187,0.8758733184695243,5.457547613012791
1789923315671446800,10.50644677734375,1.9322762225687502,0.9656091189742088,5.6322109369575974
1789923315681450800,10.51645068359375,2.1219524067282673,1.0476754077643156,5.845324110805988
1789923315691454000,10.526453857421876,2.4762474906802177,0.9496376428604125,5.961376255828142
1789923315701458000,10.5364580078125,2.7005460754096506,0.6784837834537029,6.053501581817865
1789923315711462100,10.546462158203125,2.864063735961914,0.38623336000442504,6.207739957371354
1789923315721465900,10.5564658203125,3.136609926509857,0.12555413286089898,6.391718806672096
1789923315731468800,10.56646875,3.3400843343973157,-0.08056348301172256,6.541818182724714
1789923315741473000,10.57647314453125,3.511837908375263,-0.1944330232977867,6.655179188966751
1789923315751477000,10.58647705078125,3.792450501000881,-0.12195464706420897,6.688216366171837
1789923315761480000,10.59647998046875,4.011452148365974,0.10226210460066795,6.757226189512014
1789923315771484000,10.60648388671875,4.184640139061212,0.4834849429666996,6.785806971830129
1789923315781487900,10.61648779296875,4.304090694350004,1.0273878220170736,6.6536021489083765
1789923315791490800,10.62649072265625,4.307263479167223,1.5546715746998787,6.381312563470005
1789923315801494800,10.636494873046875,4.21474535446763,1.9545704719632864,6.018563539427518
1789923315811499000,10.6464990234375,3.9510651919424533,2.1476877364873883,5.638654706269502
1789923315821503000,10.6565029296875,3.5592192527532576,2.112857830646634,5.227819988971948
1789923315831506000,10.666505859375,3.1290146490752697,1.8529203617811203,4.860664838925004
1789923315841510000,10.676510009765625,2.83236628292799,1.5904291167795657,4.48740844939351
1789923315851513900,10.686513916015626,2.6682407196104525,1.4478946230232714,4.02971962646246
1789923315861517000,10.69651708984375,2.539576930296421,1.2653536975711583,3.4977953544974323
1789923315871521000,10.70652099609375,2.4619302115142343,1.0906371821343899,3.005710925489664
1789923315881524700,10.716524658203125,2.4273382060825823,0.8984171587109565,2.4845985549181697
1789923315891528000,10.72652783203125,2.252194405144453,0.6486252362847328,1.98197928789258
1789923315901532000,10.736531982421875,2.0170400798797608,0.3232867822259664,1.5192314280062913
1789923315911535900,10.746535888671875,1.7879542608737944,0.044433015966415405,0.9719406600832938
1789923315921538800,10.756538818359376,1.57913790743649,-0.22839900578558445,0.4910182610809803
1789923315931542800,10.766542724609375,1.4974638328343628,-0.4852694882959127,0.05977028582990169
1789923315941547000,10.776547119140625,1.4969500380933285,-0.7078864035487175,-0.3114753484010696
1789923315951551000,10.786551025390626,1.5352631098747254,-0.8488888654321431,-0.6784247467428446
1789923315961554000,10.796553955078124,1.5485114446349442,-1.0009586647748947,-1.0288222387343644
1789923315971558000,10.806557861328125,1.5111369688779115,-1.0565379286557435,-1.419488028228283
1789923315981561900,10.816561767578126,1.3272798462606965,-1.0935627141922712,-1.6329080760687589
1789923315991565000,10.82656494140625,0.937933761063218,-1.0412725549846886,-1.6378098766356706
1789923316001568800,10.83656884765625,0.6849703689940273,-1.0035925204098224,-1.6032435901671647
1789923316011572700,10.84657275390625,0.5762146645903587,-0.968753262218833,-1.4064917685329914
1789923316021577000,10.856576904296874,0.31717326778173444,-0.8411784371852874,-1.5516764845371245
1789923316031580000,10.866579833984375,0.02101005480289459,-0.8445973057180642,-1.7322452331334353
1789923316041584000,10.876584228515625,-0.18997852810695767,-0.9038666562885046,-1.534872064730525
1789923316051587800,10.886587890625,-0.2701046426147222,-0.9082511549830437,-1.634045555666089
1789923316061590800,10.8965908203125,-0.33515549919605253,-1.0339245303094386,-1.859496817561984
1789923316071595000,10.906594970703125,-0.45772667072340845,-1.141844222280383,-2.036011906853318
1789923316081599000,10.916598876953126,-0.6781231334477663,-1.085194698819518,-2.041989227697253
1789923316091602000,10.926601806640624,-0.8883867630839347,-1.1145973189145326,-1.8722195210129022
1789923316101606000,10.93660595703125,-0.9415092814624308,-1.334924661925435,-1.7737188147723675
1789923316111609900,10.94660986328125,-0.7286154494531453,-1.6132196252584456,-1.9720617049902676
1789923316121612800,10.95661279296875,-0.6673783059410751,-1.8581264059916138,-2.447576691991091
1789923316131616800,10.96661669921875,-0.7857084788978099,-2.039926449948549,-2.9045301863849162
1789923316141621000,10.97662109375,-0.7847884414434433,-2.134491862566769,-3.153133775809407
1789923316151625000,10.986625,-0.7185685410827398,-2.2115172345802185,-3.239628986957669
1789923316161628000,10.9966279296875,-0.7169248655289411,-2.5102593581363557,-3.2023674700558185
1789923316171631900,11.0066318359375,-0.7201099253058433,-3.005235124671459,-3.236281430095434
1789923316181635800,11.0166357421875,-0.861262463184446,-3.7065140927791593,-3.2401334293484685
1789923316191639000,11.02663916015625,-1.0433481922149657,-4.39772174872756,-3.1491064199894665
1789923316201643000,11.03664306640625,-1.1027962603531778,-4.9006192481726405,-3.1133319267749786
1789923316211646700,11.046646728515626,-1.1724980114802717,-5.383501549071073,-3.0028876847624777
1789923316221650000,11.05664990234375,-1.0985991009242833,-5.630505302083492,-2.807749728065729
1789923316231654000,11.06665380859375,-0.9867495221585034,-5.686819309979676,-2.6675416314303875
1789923316241657900,11.076657958984375,-0.9549654137544333,-5.64613717097938,-2.5092677167505024
1789923316251660800,11.086660888671876,-0.8899936137586831,-5.58906737627983,-2.324519052121043
1789923316261664800,11.096664794921875,-0.9848274680547415,-5.722573344928026,-2.072528742867708
1789923316271669000,11.1066689453125,-1.1683651494592429,-6.013475276377797,-1.6744015314519405
1789923316281673000,11.1166728515625,-1.2722032712049782,-6.225045896959305,-1.4143629402995108
1789923316291676000,11.126676025390625,-1.1847877303414045,-6.2158063594490285,-1.384360600745678
1789923316301679900,11.136679931640625,-1.0207330403029917,-6.239450854408741,-1.2965034535944462
1789923316311683800,11.146683837890626,-0.9651767189063131,-6.316862010869383,-1.1623545108675957
1789923316321687000,11.15668701171875,-0.8227451010026037,-6.079122345286607,-1.2466641946703194
1789923316331690800,11.166690673828125,-0.7859944562323391,-5.462198069167137,-1.7408996642321348
1789923316341694700,11.17669482421875,-0.8556810097903013,-4.749293252934515,-2.2670365849673746
1789923316351698000,11.186697998046874,-0.7776128507256508,-4.125899780800938,-2.5974492735505104
1789923316361702000,11.196701904296875,-0.6423585771054029,-3.6227918534755705,-2.6660458399146796
1789923316371706000,11.2067060546875,-0.6329341845475137,-3.272438200625777,-2.4688047734588383
1789923316381709800,11.216709716796874,-0.7033861695200204,-2.966561110623181,-2.2275825264573097
1789923316391713000,11.226713134765625,-0.8451907415665686,-2.664206934049725,-1.9202526072978972
1789923316401717000,11.236717041015625,-0.999738183069229,-2.5307190855801105,-1.3499544732749462
1789923316411721000,11.246720947265626,-0.9832412217766046,-2.462287354388833,-0.7232336102843284
1789923316421724000,11.256723876953124,-1.0355552002511919,-2.1933920875638724,-0.3448521328240633
1789923316431727900,11.266727783203125,-1.1291390544861555,-1.8981670322179793,-0.08330372163057327
1789923316441731800,11.27673193359375,-1.2145505620509385,-1.666584135699272,0.10897884563505648
1789923316451735000,11.286735107421874,-1.2289508433252572,-1.4173685518562793,0.20350188041627407
1789923316461738800,11.29673876953125,-1.0701806695610283,-1.2319587929695843,0.1945721395075321
1789923316471743000,11.306742919921875,-0.738098586460948,-1.0779401976466179,0.07418108849823475
1789923316481747000,11.316746826171874,-0.3704008539699018,-0.9216945739239454,-0.12863514774143694
1789923316491750000,11.32675,-0.019622399836778638,-0.786726716029644,-0.32072599182724953
1789923316501753900,11.33675390625,0.26672785965800283,-0.5875070429772138,-0.4910246908217668
1789923316511757800,11.3467578125,0.47463104377314447,-0.37792321229875087,-0.6040197863608598
1789923316521761000,11.356760986328124,0.5555864487119019,-0.1498351721584797,-0.6995417690515517
1789923316531765000,11.366764892578125,0.46019832153394813,0.21411095271408556,-0.7678028198510408
1789923316541768700,11.376768798828126,0.20390768473818896,0.6345908657133579,-0.789262956508994
1789923316551772000,11.38677197265625,-0.07011164710223675,1.0255155984044075,-0.7409411164104938
1789923316561775900,11.39677587890625,-0.2463708619363606,1.3393436474114655,-0.7151461654186249
1789923316571779800,11.40677978515625,-0.30700667855441566,1.552265098080039,-0.6597592092394828
1789923316581784000,11.4167841796875,-0.31041853282451626,1.7402046677052974,-0.6093091249406337
1789923316591786800,11.426786865234375,-0.33416780333295465,1.9377876794666051,-0.5692126768738031
1789923316601791000,11.436791015625,-0.30459143410623074,2.06771345154047,-0.487184382006526
1789923316611795000,11.446794921875,-0.20858722085654735,2.138555751004815,-0.3261854262769222
1789923316621798000,11.4567978515625,-0.12914601987302302,2.178118530586362,-0.3549807281285524
1789923316631801900,11.4668017578125,-0.11422492959499359,2.182543945813179,-0.502993945556879
1789923316641805800,11.476805908203126,0.017664836028218268,2.10161922827363,-0.0831710351616144
1789923316651809000,11.48680908203125,0.060095280000567436,2.059093507233262,0.27377602460384365
1789923316661813000,11.49681298828125,0.3161475049305707,1.8789011907339095,0.22249533469974994
1789923316671816700,11.506816650390626,0.564850353478454,1.599740550482273,0.38113925173580643
1789923316681820000,11.51681982421875,0.6888017638504504,1.3464134396672247,0.6510661996960639
1789923316691823900,11.526823974609375,0.8643670050710439,1.1246698001176119,0.8493822019070386
1789923316701828000,11.536828125,1.0852893913656472,0.8453858257472514,1.121021214482188
1789923316711831800,11.546831787109374,1.3458821092694997,0.599739332562685,1.522518194591999
1789923316721835000,11.5568349609375,1.7370839053362608,0.5338216300189494,1.9414689983278512
1789923316731839000,11.5668388671875,1.9996341870486736,0.547187307548523,2.4130595053613186
1789923316741843000,11.576843017578126,2.115966902577877,0.5704167919665575,2.8961019652575253
1789923316751846000,11.586845947265624,2.2177052755653857,0.5214443790048361,3.3051772716671226
1789923316761849900,11.596849853515625,2.30352477940917,0.4617021502256393,3.6871658337086437
1789923316771853800,11.606853759765626,2.3489701872885225,0.4543909504294395,3.9784266615986823
1789923316781857000,11.61685693359375,2.4134534731149673,0.4614940604329109,4.304541945248842
1789923316791860700,11.62686083984375,2.554025142365694,0.4886310736835003,4.733884963661432
1789923316801865000,11.636864990234375,2.735962256705761,0.5494546679586172,5.07417724122405
1789923316811869000,11.646868896484374,2.872920411634445,0.6921370457530022,5.312153638172149
1789923316821871900,11.656871826171875,3.1314369077861306,0.8654910406649112,5.573297560217976
1789923316831875800,11.666875732421875,3.4438428150355813,0.8240969540029763,5.835429324257373
1789923316841879800,11.6768798828125,3.7290696234583853,0.4769710310280323,6.077153091040254
1789923316851883000,11.686883056640625,4.135522764670848,0.2393155365973711,6.087952132952213
1789923316861887000,11.696886962890625,4.4535552796304225,0.2255599829673767,6.064561905014514
1789923316871891000,11.706890869140626,4.616332935470342,0.14544541276693343,6.23728987698257
1789923316881894000,11.716893798828124,4.770249239462614,0.15749299343526363,6.385068116611242
1789923316891897900,11.72689794921875,4.901473234653473,0.3668289868324995,6.362600848737359
1789923316901902000,11.736902099609376,4.818551790338755,0.825863963675499,6.2259869772017
1789923316911906000,11.746906005859374,4.631950191318989,1.3760042758107185,6.074928985249996
1789923316921908700,11.75690869140625,4.538502676814795,1.9491098684698343,6.033005321756005
1789923316931913000,11.766912841796875,4.458488644379377,2.3302245702862736,6.165285548001528
1789923316941917000,11.7769169921875,4.279297613877058,2.525525608590245,6.254811505147814
1789923316951919900,11.786919921875,4.061075718712806,2.6002052942603826,6.043791504186392
1789923316961923800,11.796923828125,3.8730455481946464,2.447452773350477,5.679243321767449
1789923316971927800,11.806927734375,3.7049428979396817,2.1249586028069256,5.229435022953153
1789923316981931000,11.816930908203124,3.622130174696445,1.9439555544465779,4.743085922726989
1789923316991935000,11.82693505859375,3.3969735118329525,1.8315332903593777,4.036887033873796
1789923317001939000,11.83693896484375,3.0525942572176454,1.629946303653717,3.30654388384521
1789923317011942000,11.84694189453125,2.825239792048931,1.3744973783791063,2.773131419149041
1789923317021945900,11.85694580078125,2.688040814101696,1.1251567068517208,2.3393472034186122
1789923317031950000,11.8669501953125,2.5559131480693815,0.9490864387184381,1.9709125349551437
1789923317041953800,11.876953857421874,2.4314649306237697,0.814237238767743,1.6684920151472091
1789923317051957000,11.88695703125,2.2444904066383837,0.6599871727764606,1.3501362595826387
1789923317061961000,11.8969609375,2.1292934171408415,0.5421241789400577,1.0483148747116326
1789923317071965000,11.90696484375,2.0126292777001855,0.44427638365030286,0.783841515982151
1789923317081967900,11.9169677734375,1.7384405806422232,0.2786795787364244,0.4837409635543823
1789923317091971800,11.926971923828125,1.4267904601961374,0.029321371552348135,0.08980068243443966
1789923317101975800,11.936975830078126,1.2015426119178534,-0.1890963384449482,-0.12785890267193317
1789923317111979000,11.94697900390625,1.0658861872375012,-0.34761925944983957,-0.07708440872430801
1789923317121982700,11.956982666015625,1.0542966525349766,-0.37126200084388256,-0.15771803436279297
1789923317131987000,11.966987060546876,0.9723825586318969,-0.4897895960688591,-0.47421910197138784
1789923317141990000,11.976989990234374,0.6765735659182072,-0.7781283990323543,-0.7030716967433691
1789923317151994000,11.986994140625,0.3011268267355859,-0.9789981773793697,-1.0786083061665297
1789923317161997800,11.996997802734375,-0.09224705267325044,-1.0603414125919342,-1.5172335321873425
1789923317172001800,12.007001708984374,-0.4837177288092673,-1.2155687991827726,-1.6780238136023282
1789923317182004000,12.01700390625,-0.7960656222611665,-1.430802618446946,-1.5616075114428996
1789923317192008000,12.027008056640625,-0.9414315400511026,-1.5310177273899317,-1.59351714592278
1789923317202012000,12.037011962890626,-0.9856862768411636,-1.560568231523037,-1.7526555684775114
1789923317212014800,12.047014892578124,-0.9464568208672106,-1.6312322518110274,-1.7917437162846326
1789923317222019000,12.05701904296875,-0.8826493884757161,-1.8325205478310584,-1.6365858877986668
1789923317232023000,12.06702294921875,-0.7854927903205156,-1.9811235478460787,-1.6750871756285428
1789923317242026800,12.07702685546875,-0.6138543671548367,-2.209302773401141,-1.8443056781709193
1789923317252030000,12.087030029296875,-0.6837161311492324,-2.410712065452337,-2.11055247631371
1789923317262034000,12.097033935546875,-0.8983172054678201,-2.511191378289461,-2.4902315923690796
1789923317272038000,12.107037841796876,-1.0677706858098506,-2.74481279489845,-2.6329595628708597
1789923317282040800,12.117040771484374,-1.089251280733943,-3.042525575406849,-2.743130833160877
1789923317292044800,12.127044921875,-1.107792899596691,-3.3005572106510397,-2.913486230778694
1789923317302049000,12.137049072265626,-1.1893418865144252,-3.626815117642283,-2.9941467444241043
1789923317312052000,12.147052001953124,-1.2364449984729289,-4.073326128476858,-2.9831717614233493
1789923317322056000,12.157055908203125,-1.2559738748073577,-4.64885427210778,-2.9213521418482062
1789923317332060000,12.167059814453125,-1.3300786831989884,-5.257306780219078,-2.789519074848294
1789923317342062800,12.177062744140626,-1.3456297419436276,-5.775209541094303,-2.691525733608007
1789923317352067000,12.187067138671875,-1.2719359985709189,-6.204848912104964,-2.6346032384246585
1789923317362070800,12.19707080078125,-1.3046572416946292,-6.54441813609004,-2.754432563897967
1789923317372074800,12.20707470703125,-1.3794361499555408,-6.584546732860804,-3.077853201636672
1789923317382078000,12.217077880859375,-1.2790268336147068,-6.432209807014465,-3.3279216029167173
1789923317392082000,12.22708203125,-1.201115910938382,-6.280033624687791,-3.481477256903052
1789923317402086100,12.237086181640626,-1.3271481827050446,-6.4032876639127725,-3.3913971730053425
1789923317412088800,12.2470888671875,-1.4043842748597264,-6.6080187938630575,-3.1493302918732162
1789923317422092800,12.2570927734375,-1.2641025284662841,-6.680579587683082,-2.940239797669649
1789923317432097000,12.267096923828126,-1.1612339824050664,-6.627385173112153,-2.7780653684198855
1789923317442099700,12.277099609375,-1.143677575187385,-6.610096184659004,-2.591511115673184
1789923317452104000,12.28710400390625,-1.2805159031286835,-6.884812704983354,-2.4787673645466564
1789923317462108000,12.29710791015625,-1.3960016464397311,-6.974353275176882,-2.587648595026135
1789923317472111900,12.30711181640625,-1.4474639765210449,-6.6762360055208205,-2.9528286456078288
1789923317482114800,12.31711474609375,-1.2232508781179785,-6.083796182316541,-3.195117060536146
1789923317492118800,12.327118896484375,-0.8614289057925343,-5.3793116961658,-3.22959391515553
1789923317502122800,12.337122802734376,-0.6716893010079861,-4.855352996252477,-2.9691449896365403
1789923317512125700,12.347125732421874,-0.39027854374200105,-4.34545467813462,-2.7083517807245254
1789923317522129700,12.357129638671875,-0.10614654481858014,-3.9331387823686,-2.3517244544327256
1789923317532134000,12.3671337890625,-0.01262275020778179,-3.678152213908732,-1.7834931898117063
1789923317542136600,12.377136474609374,-0.026764672806859013,-3.4384354030340907,-1.2988538161128758
1789923317552140800,12.387140869140625,-0.03790975167751312,-3.1541122654527425,-0.987399510499835
1789923317562144800,12.397144775390625,-0.24865663478597996,-2.815768783870339,-0.8217623735755681
1789923317572149800,12.407149658203124,-0.49328152983784673,-2.4067075059860943,-0.5529886873036622
1789923317582153700,12.41715380859375,-0.7131983923517167,-1.908419546163082,-0.2393932780086994
1789923317592157000,12.427156982421875,-0.8421456747822463,-1.443484989887476,0.14644552972018718
1789923317602160600,12.43716064453125,-0.9077009737543761,-1.0119576131731272,0.4859112933307886
1789923317612164600,12.44716455078125,-0.8570346163563429,-0.6467553507596254,0.6128460668951272
1789923317622167800,12.457167724609375,-0.7585815486498176,-0.3388251276195049,0.6713157915204763
1789923317632171800,12.467171875,-0.6134713591866194,-0.027492987081408498,0.8237748824417591
1789923317642175700,12.47717578125,-0.40755554949641226,0.378366864413023,0.7885498398035764
1789923317652178700,12.4871787109375,-0.3308966727077961,0.6803256119281054,0.696566552633047
1789923317662183000,12.497182861328126,-0.3545739008933306,0.9493898055791854,0.6233358967274427
1789923317672187000,12.507186767578125,-0.39003582102730866,1.2054407884001732,0.47891982700824737
1789923317682190800,12.51719091796875,-0.46498599420189857,1.3389350666105746,0.3223866185158491
1789923317692193800,12.52719384765625,-0.5535585961461067,1.3514385743528603,0.2529308049738407
1789923317702197800,12.53719775390625,-0.4082318413227796,1.3793524171948432,0.3280821998089552
1789923317712201700,12.54720166015625,-0.3597451660513878,1.39509885238111,0.45063013659119605
1789923317722204700,12.55720458984375,-0.4774181902736425,1.4494319155931472,0.25173896484076974
1789923317732208600,12.567208740234374,-0.4956096805244684,1.320437286889553,0.3722749772787094
1789923317742212900,12.577212890625,-0.3821403916023671,1.2158207281172275,0.5830442183494567
1789923317752215800,12.5872158203125,-0.17316987051665783,1.3397095581144094,0.39527766720354557
1789923317762219800,12.5972197265625,0.13150339665412902,1.2166413968503476,0.4937836341410875
1789923317772223700,12.6072236328125,0.471357867321372,1.224963819515705,0.8174146997600793
1789923317782226700,12.617226806640625,0.9738513890754431,1.5498258882343767,1.0027607457607983
1789923317792231000,12.62723095703125,1.269668053638935,1.807287906897068,1.1258902818232774
1789923317802235000,12.63723486328125,1.1423621086746454,1.939313281598687,1.2920254313975572
1789923317812238600,12.647238525390625,0.9662608608812093,1.9431226107537745,1.581183734050393
1789923317822241800,12.65724169921875,0.9285650442153215,1.8944465503901242,1.7373510318398475
1789923317832245800,12.667245849609374,0.8908311605613678,1.8721090463757515,1.9930121385604143
1789923317842250000,12.67725,0.8207470590531826,1.7758330304473637,2.4256588746935126
1789923317852252700,12.687252685546875,0.7290729839622974,1.7075474297285078,2.8402701879203316
1789923317862256600,12.697256591796876,0.7763935380637645,1.676349158388376,3.181388394913077
1789923317872260900,12.7072607421875,0.8175614147543907,1.574047890821099,3.4923481950074433
