time,seconds_elapsed,z,y,x
1789757564318362000,0.059362060546875,-1.1225678594022988,-0.7844377283096313,0.52669283758495
1789757564328377000,0.069377197265625,0.7881482732653617,0.4748825343161821,-0.307736673329398
1789757564338390800,0.079390869140625,1.6702262915939092,0.7870189769744873,-0.7427185744117945
1789757564348405000,0.089405029296875,2.9774744265645743,0.9764178054973482,-0.9856194221500306
1789757564358419000,0.0994189453125,3.1221348264336584,0.9794149414867163,-1.01307112737298
1789757564368433000,0.109432861328125,2.012654996663332,0.26261399459838863,-0.9743749014928936
1789757564378448100,0.1194482421875,0.16408756939470767,-1.0987181972593068,-0.11833083054386079
1789757564388461800,0.1294619140625,0.14462182142436503,-1.0529293827697634,-0.28046996928453444
1789757564398475800,0.139475830078125,-1.5988222665935754,-0.49534196949899195,0.9428842961426824
1789757564408490000,0.149489990234375,-2.228727020317316,-1.1462237525388599,0.7598254112310707
1789757564418504000,0.15950390625,-2.2496324457019568,-1.0862062139496207,0.6741491152502596
1789757564428518000,0.169517822265625,-2.8228385761260983,-0.9010878392249345,1.164662787809968
1789757564438532900,0.179532958984375,-2.648413152590394,-1.2370730672433972,1.6479457784637808
1789757564448546800,0.189546875,-2.5487404799610376,-1.5795976339027284,1.8624197192713616
1789757564458561000,0.19956103515625,-2.40705178937912,-1.7288482841715216,2.0925658609852196
1789757564468575000,0.209574951171875,-2.429220951089263,-1.6799781625404953,2.186339246442914
1789757564478589000,0.2195888671875,-2.730209976789355,-2.175816683384776,2.097674143909663
1789757564488604000,0.22960400390625,-2.977970101127028,-2.170329776406288,2.090233910906315
1789757564498617900,0.239617919921875,-3.3372721995860335,-2.1017752956181766,1.986034846893698
1789757564508632000,0.249632080078125,-3.30527547134459,-2.101885477994382,1.253298079726845
1789757564518646000,0.25964599609375,-3.3449411267787217,-1.9794591217651962,1.323089262703061
1789757564528659700,0.26965966796875,3.0623961047857997,0.710999859394133,-5.295158664229512
1789757564538675000,0.279675048828125,3.050563628172874,2.9189237456575032,-7.622308064854145
1789757564548689000,0.28968896484375,-0.06572481032013892,4.212773177611828,-5.736091582670808
1789757564558702800,0.299702880859375,-0.1122679503083229,4.398938723301887,-5.696131912726163
1789757564568717000,0.309717041015625,5.326218988403678,4.485310600331426,-4.783397182588279
1789757564578730800,0.319730712890625,-1.3518874871641398,0.9907105347439646,1.4638855344898998
1789757564588745000,0.329744873046875,-1.0484873086690902,0.8019074801571666,4.637728482459485
1789757564598760000,0.339760009765625,0.4569201766461134,2.2662775832936166,7.611614821404218
1789757564608774000,0.34977392578125,-2.048964327406883,0.5887821774795651,6.37209231518209
1789757564618788000,0.3597880859375,-2.038324275448918,0.5868425877191126,6.2187950198709965
1789757564628801800,0.3698017578125,-2.9237609565556046,-0.8738916431330144,4.271444562289118
1789757564638816000,0.37981591796875,-3.0282249551147222,0.056954936148226255,3.315283070617914
1789757564648831000,0.3898310546875,-2.780886271059513,-0.31213556587547064,4.01233711450696
1789757564658845000,0.399844970703125,-2.3769319609254596,-1.4223779044508933,2.972302576884627
1789757564668859000,0.40985888671875,-2.7357781323105095,-4.062939466758072,1.493793327628076
1789757564678872800,0.419872802734375,-2.635208803102374,-4.178917669761181,1.1721025824218987
1789757564688886800,0.42988671875,-1.6595318791002034,-3.379411843918264,1.6046394284397363
1789757564698902000,0.439902099609375,-1.4342331774175165,-2.7522107961952686,1.456612474747002
1789757564708916000,0.449916015625,-1.1591524999558924,-2.994861906956136,0.9477738948151468
1789757564718930000,0.459929931640625,-2.111045228266716,-3.8607431159824133,0.27445436225682496
1789757564728943900,0.46994384765625,-2.9248727171897886,-4.848234104157984,-1.1983493688344955
1789757564738957800,0.479957763671875,-2.6487404848486182,-4.731476441214978,-2.266734387150407
1789757564748972000,0.489971923828125,-2.6713199809253214,-4.444893249747157,-3.1405437588274476
1789757564758987000,0.499987060546875,-2.2001006452918053,-4.607586442174017,-3.582507189360261
1789757564769001000,0.5100009765625,-2.775909067168832,-4.9205000066846605,-3.2894016103863715
1789757564779015000,0.520014892578125,-3.6892420554608103,-5.011686005997658,-2.2823843762248752
1789757564789028900,0.53002880859375,-1.9774533349007366,-5.279024691030383,-1.0301982032626866
1789757564799042800,0.540042724609375,-1.2657768914192915,-5.269568295899033,-0.22953122468590734
1789757564809058000,0.55005810546875,-0.2502048871412873,-5.019883340978622,0.31540450454354285
1789757564819072000,0.560072021484375,0.009196867412328719,-4.853246671622991,0.0721609808474779
1789757564829086000,0.5700859375,1.0058417606413363,-4.574241806454956,0.5803028106868267
1789757564839100000,0.580099853515625,1.601982191929221,-3.3903649073481557,1.390333829936385
1789757564849113900,0.59011376953125,1.5909128086432813,-3.2936978462755677,2.1410551666051147
1789757564859128800,0.60012890625,1.5618971420392394,-3.2023581177055833,2.5485762293100356
1789757564869143000,0.61014306640625,1.781283989329636,-2.976516102926433,2.3874644608557225
1789757564879156700,0.62015673828125,1.7828659978240726,-2.777570862901211,2.2482792775273324
1789757564889171000,0.6301708984375,1.652197590689361,-2.715083134806156,1.9078169040948152
1789757564899185000,0.640184814453125,1.4870754175499081,-2.905565959173441,1.3153221358329057
1789757564909199000,0.65019921875,1.6013085304513572,-2.624738847014308,1.224492110350728
1789757564919214000,0.660214111328125,2.0418226389586924,-2.579154615186155,1.15570674341619
1789757564929227800,0.670227783203125,3.197128984880447,-3.003776742556691,1.4915350273072718
1789757564939242000,0.680241943359375,3.1153438511192797,-3.1448873409897087,1.5791723942279814
1789757564949256000,0.690255859375,3.3580373397171495,-2.9067396791279316,1.5055495241343975
1789757564959270000,0.700269775390625,2.809972664812207,-2.333362868312001,1.7237842787802218
1789757564969285000,0.71028515625,3.0725019037365913,-2.105461436785012,1.672466179475188
1789757564979298800,0.720298828125,3.077970106014609,-1.785555090777576,1.569419061976671
1789757564989312800,0.730312744140625,2.8345132318288084,-1.5262790084302424,1.2731149792224168
1789757564999327000,0.740326904296875,2.8117414280503987,-0.9903408246487378,1.2681342682003973
1789757565009341000,0.7503408203125,2.7653368197500705,-0.5714829598933459,1.751298308649659
1789757565019355000,0.76035498046875,2.6053081703573464,-0.13691672693975268,2.813320221674442
1789757565029369900,0.770369873046875,2.459153732538223,0.4977445005960762,4.027503119456767
1789757565039383800,0.7803837890625,2.6021745485067367,0.9162067901626229,4.702763849210739
1789757565049398000,0.79039794921875,2.6560177823752165,1.1790751979134977,4.749233923962712
1789757565059412000,0.800411865234375,2.9917654022455213,1.6329317492052913,4.9321670636028045
1789757565069426000,0.810426025390625,3.3378356786876915,1.5262613266430793,4.7482437438815825
1789757565079441000,0.82044091796875,3.8383728787422178,1.5819143864125012,4.493584507679939
1789757565089454800,0.830454833984375,4.116144694983959,1.941152187463641,4.127326598733664
1789757565099469000,0.840468994140625,4.118442450532317,2.2085218521565197,3.9945968751549716
1789757565109483000,0.85048291015625,3.9938644692271947,2.723914091515541,3.1233506319642066
1789757565119496700,0.86049658203125,3.5997330494493243,2.960264640827477,2.5816110684275624
1789757565129512000,0.870511962890625,3.1105361585766076,2.696615750223398,3.1632647092014547
1789757565139526000,0.88052587890625,2.6336709260106086,2.40015033942759,3.396647348618507
1789757565149539800,0.890539794921875,2.6034248408287763,2.5358774912565947,3.455084340018034
1789757565159554000,0.900553955078125,1.8318530238330364,2.607483468569815,3.2905764993846414
1789757565169567700,0.910567626953125,1.796817366287112,2.698054258593917,3.333420784854889
1789757565179582000,0.92058203125,0.9313070363998412,3.64976052442193,2.672447523650527
1789757565189597000,0.930596923828125,0.5108657018452882,3.7257270350322127,2.6201035884290933
1789757565199611000,0.94061083984375,-0.08930902645997703,3.6508930355831977,2.876438064366579
1789757565209625000,0.950625,-0.5510410603672266,3.9195127003371715,2.7877298533439636
1789757565219638800,0.960638671875,-0.620206439595297,3.9648251294866204,2.817076943859458
1789757565229653000,0.970653076171875,-0.769153503807634,4.14711967896223,2.6533313197702166
1789757565239668000,0.98066796875,-0.6438385865300893,4.122753299468756,2.493516605389118
1789757565249682000,0.990681884765625,-0.7862881784819066,3.7972818666800854,2.4998066454440355
1789757565259696000,1.000696044921875,-0.7731773524962365,3.78382675730139,2.357081597551703
1789757565269709800,1.010709716796875,-0.8435251464419067,3.7935087778821583,2.3719401439875365
1789757565279723800,1.020723876953125,-0.7003647758722304,3.427429148112237,2.1111463505536316
1789757565289738000,1.030738037109375,-0.5896865789733827,3.1628122892588375,2.0229192010462285
1789757565299753000,1.0407529296875,-0.6614933395557105,3.154601802535355,2.030521492743492
1789757565309767000,1.050766845703125,-0.5957429564028978,2.6412352237850425,1.8943711470663547
1789757565319780900,1.06078076171875,-0.5238381422735751,2.6005340878233314,1.6332880152970553
1789757565329794800,1.070794921875,-0.6121084002703427,1.865255819480121,1.793302051642537
1789757565339809000,1.08080908203125,-0.6995423535734414,1.504895736400783,1.8864537980705498
1789757565349824000,1.090823974609375,-0.7747533696413039,1.4484814830005168,1.8736223735481499
1789757565359838000,1.100837890625,-0.5750684171646833,1.0446741801217199,1.8404934264063835
1789757565369852000,1.110851806640625,-0.6796021199591458,0.9052955200478434,1.441853004771471
1789757565379865900,1.120865966796875,-1.0564432361096143,0.571264348706603,1.1142337462991476
1789757565389880000,1.130880126953125,-1.1353528144344687,0.4768588028252124,1.0896715519726277
1789757565399894000,1.14089404296875,-1.8198647721365093,-0.04925298346877098,0.5732634135693311
1789757565409909000,1.150908935546875,-2.0471581547677515,0.24226386500895022,0.4487538213253021
1789757565419923000,1.1609228515625,-1.6702011571526527,0.5236909888878465,0.32951135582923885
1789757565429937000,1.17093701171875,-1.4149202819213271,0.8281190491259097,0.7029477781027555
1789757565439950800,1.180950927734375,-1.422486625522375,0.9343652549266814,1.413370422130823
1789757565449965000,1.190965087890625,-1.4213126133069396,1.0357754188731312,1.6515473100870848
1789757565459980000,1.20097998046875,-1.4899711389914154,1.4152949604526162,1.420778652560711
1789757565469993700,1.21099365234375,-1.0632616839528084,1.9769743192121385,1.1529238346993922
1789757565480008000,1.221008056640625,-0.8729144686639309,2.0770523577719926,0.9122685739308595
1789757565490022000,1.23102197265625,-0.8184796986430883,1.796869680996239,0.7810995237976313
1789757565500036000,1.2410361328125,-0.5323346063315868,1.927146166203916,0.30284254461228843
1789757565510049500,1.251049560546875,-0.14836656091064213,2.076891614252329,-0.03341886999905109
1789757565520064500,1.261064453125,-0.2575564189478755,1.913037269091606,-0.6178039815634488
1789757565530078700,1.27107861328125,-1.5474489299699663,1.8136799460217357,-1.346921973711252
1789757565540092700,1.2810927734375,-2.046000509165227,1.6008163630202412,-1.6554992625832556
1789757565550107000,1.29110693359375,-2.0433222298666833,1.5147164347998796,-1.6777613632738588
1789757565560120600,1.30112060546875,-2.1230323109194633,0.3663229370065033,-1.6635586503982542
1789757565570135600,1.311135498046875,-2.231529802778363,0.14919628973305224,-1.8577730625092983
1789757565580149800,1.321149658203125,-1.9374398889422415,-0.7128611232213675,-2.105375365936756
1789757565590163700,1.331163818359375,-1.7494319302558898,-0.85302099680081,-2.7305583518356085
1789757565600177700,1.341177734375,-0.21093992146253585,-1.1825934351675211,-2.480931264582276
1789757565610191600,1.351191650390625,1.050466499787569,-1.5662189507611095,-1.833157092168927
1789757565620205600,1.36120556640625,1.8666306149646639,0.20773732602894304,-2.1430033780634403
1789757565630220500,1.371220458984375,4.7065275856584305,1.6526165467537939,-2.182590123042464
1789757565640234800,1.38123486328125,6.541151243248581,-0.31104148702844975,0.7793868746608495
1789757565650248700,1.391248779296875,6.600383768939971,-0.3804058228947222,0.749376351800561
1789757565660262700,1.4012626953125,3.292195040497184,-1.4762624932430684,1.7975848435282706
1789757565670276600,1.411276611328125,1.2054498484894633,0.6312545608974993,-0.48749827026128767
1789757565680290800,1.421290771484375,-0.03630786943882704,-1.2695093559458852,-0.9760217919170856
1789757565690305800,1.431305908203125,-0.7368328043088317,-2.9442089935615656,-0.8957476472407578
1789757565700319700,1.44131982421875,-0.7061784305870532,-2.9315199001193046,-0.9024293169617652
1789757565710333700,1.451333740234375,-0.8595768481850623,-3.55537309871912,0.4124246168375015
1789757565720347600,1.46134765625,-1.429689396508038,-3.250220815859735,1.05727208814919
1789757565730361600,1.471361572265625,-1.5934528485149144,-2.612430861844122,0.8560305538803339
1789757565740376800,1.481376953125,-1.911241033324599,-1.4584537186995148,0.6982803708136082
1789757565750390800,1.491390869140625,-1.7330054038509726,-1.712647967737913,0.8146446505248546
1789757565760404500,1.501404541015625,-0.8248483568921685,-0.8152303414583205,0.7525549818366766
1789757565770418700,1.511418701171875,-0.9228560189187526,1.6242412238799036,0.16735329319238662
1789757565780432600,1.5214326171875,-0.2899813094735145,1.3238525021605192,0.46579146536588667
1789757565790446800,1.53144677734375,0.742186732557416,0.8181906525686383,0.8994792349845171
1789757565800461800,1.5414619140625,1.7197142528623341,0.5436838294722139,2.0773247449725867
1789757565810475500,1.5514755859375,3.0875515888303515,0.3789993170976639,3.511035359820723
1789757565820489700,1.56148974609375,5.624989753532409,-0.31466449983119965,3.467422428065538
1789757565830503700,1.571503662109375,7.044666582331061,-1.6013775040343403,3.183652832713723
1789757565840517600,1.581517578125,6.134222885739803,-1.5823507320031522,3.8681928474664686
1789757565850532900,1.591532958984375,4.427839531354606,-0.4558811889871955,3.636502398920059
1789757565860546600,1.601546630859375,0.399382618304342,1.9856313806593417,1.9314719204485415
1789757565870560800,1.611560791015625,-2.898337176963687,3.3276837025076147,0.745230338037014
1789757565880574700,1.62157470703125,-3.3625770289734005,1.2661053927212953,-1.1854811194330452
1789757565890588700,1.631588623046875,-3.201609345164895,1.2048385847233236,-1.2210223884135485
1789757565900602600,1.6416025390625,-4.188329641228914,-2.6148250635042785,-8.243881043562293
1789757565910617600,1.65161767578125,-4.113884348836541,-2.600286542803049,-8.248751279947161
1789757565920631600,1.661631591796875,-2.736667190104723,-2.3014368672192096,-9.372834804609417
1789757565930645800,1.671645751953125,-2.452870706745982,-0.8666121536493301,-9.096357119831442
1789757565940659700,1.68165966796875,-2.6003712984770533,0.06281535261422395,-9.110615946808457
1789757565950673700,1.691673583984375,-3.0686031427323814,0.19758681115359067,-9.200342979484796
1789757565960688600,1.701688720703125,-2.7875509896457196,-0.18839666574299335,-8.640953777489065
1789757565970702600,1.71170263671875,-1.2633259911358357,-1.1118088572397828,-7.266486209726334
1789757565980716800,1.721716796875,1.0925532448887825,-2.179167747378349,-5.635411778825521
1789757565990730800,1.731730712890625,3.3580952073842285,-2.4959078844398257,-3.558694936618209
1789757566000744700,1.74174462890625,3.6569700174093245,-2.050659440886974,-3.335792190161347
1789757566010758700,1.751758544921875,4.813854572433233,-1.6931220140129326,0.9038450289785861
1789757566020773600,1.761773681640625,3.054146747356653,-0.6531406678825616,3.979676369398832
1789757566030787600,1.77178759765625,2.0513117673158643,-0.5820797572314739,7.717250201830267
1789757566040801800,1.7818017578125,1.4111819721758365,-1.2389870841711759,10.86205337166786
1789757566050815500,1.7918154296875,1.4382089491806924,-0.9082716132491826,11.165607279419898
1789757566060829700,1.80182958984375,-0.5345931989133358,-3.020649551424384,14.815621486341952
1789757566070843600,1.81184375,-3.3170448195934292,-3.688227909982204,15.349665234678982
1789757566080858600,1.821858642578125,-9.583394202321767,-2.4176579390674826,12.317529243600367
1789757566090872800,1.831872802734375,-10.451230344808101,0.36568975366950035,5.468877985322475
1789757566100886500,1.841886474609375,-10.380427208310365,0.33454116668999195,5.447783174845576
1789757566110900700,1.851900634765625,-5.016038355988264,1.8432669827729462,0.9868863002806901
1789757566120914700,1.861914794921875,-3.267318373394012,1.7300339868247507,-0.15071663116812706
1789757566130928600,1.8719287109375,-1.9256547586023807,1.7309651301950215,-0.8001420779198407
1789757566140944000,1.88194384765625,-0.5018704944849014,2.0023288329601288,-1.120254906284809
1789757566150957600,1.89195751953125,1.446646084266901,2.0652526143848893,-1.1021119313508272
1789757566160971500,1.901971435546875,1.4328408462762832,1.9703724367290734,-1.1956605681419372
1789757566170985700,1.91198583984375,1.6293769793331623,2.070074919974804,-1.022187330764532
1789757566180999700,1.921999755859375,1.000111108034849,2.373801846206188,-1.3457973535954952
1789757566191014700,1.9320146484375,1.326955875003338,2.693426598793268,-1.7067279300391673
1789757566201028600,1.942028564453125,0.3593406769037247,3.0345407141327856,-1.803563333415985
1789757566211042600,1.95204248046875,-0.45147754720076916,3.163327837565541,-1.9979244605213402
1789757566221056800,1.962056884765625,-0.3180255006968975,2.6177847900927067,-1.1847416992425919
1789757566231070700,1.97207080078125,0.7420866331838071,1.3732991085052488,0.08940613015890121
1789757566241084700,1.982084716796875,1.8412766857385634,-0.11175415556728839,1.0726613804608582
1789757566251099600,1.992099609375,2.1543886954307556,-1.2624912938773631,1.1003799929916858
1789757566261113600,2.002113525390625,1.9856779962800442,-1.6964146258175372,0.824172357326746
1789757566271127800,2.0121279296875,2.1333317327462136,-1.346910867795348,0.5321265165388583
1789757566281141800,2.022141845703125,1.9853297673642634,-0.5578501558601856,0.16872048989236355
1789757566291155500,2.032155517578125,1.7280344835706054,0.3627729894399643,-0.05824877535104751
1789757566301169700,2.042169677734375,1.6238403879940508,1.1053729789733886,-0.17585282599031923
1789757566311184600,2.0521845703125,1.170415213856846,1.5576239947646855,-0.3190150962561369
1789757566321198600,2.062198486328125,0.800080849251896,1.7042542334020137,-0.440064903435111
1789757566331212800,2.072212890625,0.03279299318566918,1.3116209432274102,-0.5814736080318689
1789757566341226500,2.0822265625,-1.4266130578026175,0.5857026239037514,-0.6267004047244786
1789757566351240700,2.09224072265625,-1.6028548831105232,0.5696048910617828,-0.6659487115293741
1789757566361255700,2.102255615234375,-6.863736599206924,-3.572746842846274,0.16994330968558788
1789757566371269600,2.11226953125,-6.9528609898149965,-5.198161932811141,1.6142641658753156
1789757566381283800,2.122283935546875,-3.322604791808128,-3.6072412331223487,2.166851871162653
1789757566391297500,2.132297607421875,-3.3423242222785947,-3.6331297076165674,2.1436294010072947
1789757566401311700,2.142311767578125,1.8852794935941695,-0.9814847334980964,0.6576788958340883
1789757566411325700,2.15232568359375,2.1450246547579765,0.22102935380041597,-0.0655430240124464
1789757566421340700,2.162340576171875,2.145290027695894,0.2265045703411102,-0.06110650286972522
1789757566431355000,2.17235498046875,2.250515658277273,-0.09691782096326351,-0.4105646681845188
1789757566441368600,2.18236865234375,1.4790987395823,0.07868015348315238,-0.4017196829497814
1789757566451382500,2.192382568359375,0.5543371793031692,0.7775012070447206,-0.2782020243525505
1789757566461396700,2.202396728515625,-0.11256006512269377,1.6316513540059328,-0.5378028086096048
1789757566471410700,2.21241064453125,-0.3915454949378967,2.008936268401146,-0.9157704445719719
1789757566481425700,2.22242578125,-0.6367477514863014,1.5243705444604156,-1.0741998420745134
1789757566491439600,2.232439697265625,-0.7786614829957484,1.5258382789254188,-1.0314970109015702
1789757566501454300,2.242454345703125,-1.1523730689488352,2.022550367733836,-0.6521990031182766
1789757566511468300,2.25246826171875,-1.0422726719379425,3.315610987398028,-0.012111878076195716
1789757566521482500,2.262482421875,-0.7146199495874345,4.3495062916129825,0.5646165812551975
1789757566531496400,2.272496337890625,-0.29738953990340233,4.610055170375109,1.2907739700317382
1789757566541511400,2.282511474609375,-0.07076119705215096,3.4928719266206025,1.6056845535784958
1789757566551525400,2.292525390625,-0.273030320803076,1.9008090711593626,1.251590545156598
1789757566561539300,2.302539306640625,-0.8552700909018516,0.5196873062044381,0.5997481003910303
1789757566571553500,2.312553466796875,-1.8539470744803548,-0.36693010911941526,0.23978666124045847
1789757566581567500,2.3225673828125,-2.6470973938167095,0.15265549027621744,0.1893564506858587
1789757566591582500,2.33258251953125,-2.8780948916628954,1.6547218484699726,0.5103127441376447
1789757566601596400,2.342596435546875,-2.87720992552191,1.6568623676300047,0.5128489846169948
1789757566611610400,2.3526103515625,-1.1185121542707086,3.3242823696315287,1.897503599873185
1789757566621624600,2.36262451171875,0.14779285267591474,3.146889328461885,2.1101094087213275
1789757566631638500,2.372638427734375,0.9733455584451556,2.5645132186323405,2.028582049113512
1789757566641652200,2.38265234375,1.0099823675774038,2.5650141538918017,1.6991881821841
1789757566651667500,2.39266748046875,1.4262765193246305,3.801294317191839,1.0730307982951401
1789757566661681400,2.402681396484375,2.6064848129212854,4.754737197554111,0.2388712999612093
1789757566671695400,2.4126953125,3.5663387293696402,4.169753535574674,-0.5035241069108247
1789757566681709600,2.42270947265625,1.5543734685361383,0.43580783051252364,-0.751334500131011
1789757566691723300,2.43272314453125,-3.1225171037495136,-4.3878848298460245,0.09285539382994175
1789757566701737500,2.442737548828125,-3.18421806538105,-4.319795043960213,0.1603039592027664
1789757566711752400,2.45275244140625,-5.308208115416765,-5.822119176307321,1.5617629942655562
1789757566721766400,2.462766357421875,-2.2597172018647194,-5.4094888077646495,0.7966226716220378
1789757566731780600,2.472780517578125,0.45310156820602715,-4.499305807936191,0.6934919674932957
1789757566741794300,2.482794189453125,1.9451812968492508,-1.4268874908298252,0.8585141873896122
1789757566751808500,2.49280859375,1.8815104964494704,-1.3873317255109547,0.8987281243562698
1789757566761822500,2.502822509765625,3.2403450262725353,1.6497019744813441,-0.154970781481266
1789757566771837400,2.51283740234375,3.0392566367387768,1.6022534100860357,-0.47161388790905473
1789757566781851600,2.5228515625,3.0097441265285014,0.7449825007557869,-0.49181788702607154
1789757566791865300,2.532865234375,2.96118204793334,0.34205110392868515,-1.0422311708837746
1789757566801879300,2.54287939453125,2.509049690085649,0.7681476877659559,-1.757341095945239
1789757566811893500,2.5528935546875,2.1157366009533405,0.03126490683555603,-2.581246911290288
1789757566821907500,2.562907470703125,1.7286849103033541,-0.14924831218123435,-3.2255098607122896
1789757566831922400,2.57292236328125,1.5239514422655105,0.15823182910382746,-3.7405759368568656
1789757566841936400,2.582936279296875,1.1550141580421478,1.5949311043739318,-4.252663873973488
1789757566851950300,2.592950439453125,1.142177911214158,1.772544510295987,-3.9066751383349296
1789757566861964500,2.602964599609375,0.9728514182526617,4.2435178599655625,-4.481840878394246
1789757566871978500,2.612978515625,1.050313355052471,4.739817860841751,-4.19518988238722
1789757566881992400,2.622992431640625,-0.09904599209837615,4.673364151725173,-3.42649157500118
1789757566892007400,2.63300732421875,-0.19644845477342604,4.82749322168529,-2.8829470078691837
1789757566902021400,2.643021484375,-0.3184241080930456,4.809722002673149,-1.8980894369371235
1789757566912035600,2.65303564453125,0.1818155337870121,4.741962471655011,-1.1833845855452119
1789757566922049500,2.663049560546875,0.5626818138003349,4.582835739538074,-0.4902608668424189
1789757566932063200,2.673063232421875,0.891103620827198,3.907418942439556,-0.01963684848723933
1789757566942077400,2.683077392578125,0.7273527360409497,3.043118572863936,0.23835383369205518
1789757566952092400,2.693092529296875,0.31655780276451256,1.8908768752098082,0.3518469236148521
1789757566962106400,2.7031064453125,0.17284250172581522,-0.5443903703063726,0.1677574900791049
1789757566972120600,2.71312060546875,0.19348785140216349,-3.305210589414835,0.2684150820925832
1789757566982134300,2.72313427734375,0.22073533928990363,-6.094122346019745,0.12623524699285626
1789757566992148500,2.7331484375,0.45329131862446664,-8.017410960012674,0.023212679413706062
1789757567002163500,2.74316357421875,0.33878698756620285,-8.06939541427195,0.2233145421281457
1789757567012177400,2.753177490234375,0.2744229442052543,-11.836124029517173,0.2432635435707867
1789757567022191600,2.763191650390625,-0.2045681944735348,-12.219757436156272,0.9737485862880945
1789757567032205300,2.773205322265625,-1.895121234781295,-9.65276642923355,1.3683648669734596
1789757567042219500,2.783219482421875,-3.4535207439631224,-5.761780150678754,1.6534421839229763
1789757567052233500,2.7932333984375,-3.681232352006435,-5.814190136873722,1.6805730596937238
1789757567062248400,2.80324853515625,-5.139570043110847,-0.9344652081698178,2.309732548008114
1789757567072262400,2.813262451171875,-5.8648033027797934,0.5913567041426897,2.6963372255429623
1789757567082276400,2.8232763671875,-6.600604718214273,1.3614619557172059,3.1703321633696553
1789757567092290300,2.833290283203125,-6.682775636422634,1.3051584692150353,3.2897514467373488
1789757567102304500,2.843304443359375,-7.280300800067186,0.9500485617488622,4.054499262931943
1789757567112318500,2.853318359375,-6.433656498691439,-2.6468431267946957,5.3341059422612185
1789757567122333400,2.86333349609375,-4.988533093947172,-4.335155110177397,5.762649334728717
1789757567132347400,2.873347412109375,-3.6663922180101274,-5.444359630137682,6.06158610407412
1789757567142361300,2.883361328125,-2.6983970806822177,-5.955515839362144,6.305567878916859
1789757567152375600,2.89337548828125,-2.390685760989785,-6.287623641425371,6.650286740750074
1789757567162389500,2.903389404296875,-2.5093778991267084,-6.66622139198482,6.958520330750942
1789757567172403500,2.913403564453125,-2.5136577684029935,-7.198672318172455,7.16643418239057
1789757567182418400,2.92341845703125,-2.4035633627414703,-7.162150805982947,7.12465781841278
1789757567192432400,2.933432373046875,-4.891404845103621,-8.476347737178205,7.632765745982527
1789757567202446300,2.9434462890625,-8.739706412664056,-9.440519516825676,7.921122669124602
1789757567212460500,2.95346044921875,-12.086572954547405,-9.622457215687632,7.348405783522129
1789757567222474200,2.96347412109375,-12.65423372580409,-7.886144879245758,4.829873979341984
1789757567232488400,2.973488525390625,-7.641057188987731,-6.543023466861247,2.0122000925026833
1789757567242503400,2.98350341796875,-0.6688759971529245,-5.646731045219302,0.02323664481118321
1789757567252517400,2.993517333984375,4.1883810791552065,-4.945788761720061,-1.2746315212652086
1789757567262531600,3.003531494140625,5.620577782309055,-4.4569922683417795,-2.1187639859505
1789757567272545300,3.013545166015625,5.661960763055085,-4.917533558094501,-2.9004443783760068
1789757567282559500,3.0235595703125,5.899280157399177,-5.799326914262771,-3.785729083791375
1789757567292573400,3.033573486328125,5.426280368089675,-6.3341755492419,-4.998546538439393
1789757567302588400,3.04358837890625,5.143378787744045,-6.1511862955003975,-5.956034310278296
1789757567312602600,3.0536025390625,6.113804367089271,-5.637888982594013,-6.655774816772341
1789757567322616300,3.0636162109375,6.288429112589359,-4.39772116420567,-6.54482788593471
1789757567332630300,3.07363037109375,3.6158439340338107,-2.289978484615683,-5.685590060445666
1789757567342644500,3.08364453125,1.3328724055707455,-0.582995118510723,-4.90966530893743
1789757567352658400,3.093658447265625,1.2707435739159583,-0.565667551612854,-5.076186827480793
1789757567362673400,3.10367333984375,-1.0523290787890553,1.8963409858345985,-3.5347748395875094
1789757567372687400,3.113687255859375,-0.6404714481845498,2.891446248406172,-3.6362437479838725
1789757567382701300,3.123701416015625,0.9908908597469329,3.784885618704557,-3.901896964147687
1789757567392715500,3.133715576171875,3.8644130366668104,4.514555399516224,-3.788977564193308
1789757567402729500,3.1437294921875,4.007372185575962,4.475413475695252,-3.901810747168958
1789757567412744400,3.153744384765625,6.528819584941863,5.609196556594967,-2.0167229767546058
1789757567422758400,3.16375830078125,5.648611452138423,6.045921501952409,-0.7550558587417006
1789757567432772400,3.1737724609375,4.299094785758853,6.249715643313527,0.0295358180206269
1789757567442786600,3.18378662109375,3.425843924747407,6.453128091880679,0.16135149549432098
1789757567452800500,3.193800537109375,3.566980242143571,6.702387514865398,-0.24086809980161486
1789757567462814200,3.203814208984375,4.18751598675847,6.986223745712637,-1.4582158182904124
1789757567472828400,3.213828369140625,5.09019898622036,7.144095509332418,-3.177899383753538
1789757567482843400,3.223843505859375,5.055218858253956,7.146510169258713,-3.237942056784034
1789757567492857300,3.233857421875,6.169225225538015,7.281597854140401,-5.084207052329182
1789757567502870800,3.243870849609375,6.477657552981376,7.331466339159012,-5.225832030025124
1789757567512884700,3.253884765625,6.3378387479245655,7.361669754242897,-5.13070635317564
1789757567522898700,3.263898681640625,5.883163719856738,7.520343481895327,-4.929151515173912
1789757567532912600,3.27391259765625,5.1182782487571234,7.538398778545856,-4.642411671839654
1789757567542927600,3.283927734375,3.8473862062811848,7.4826020725220435,-4.534075508022308
1789757567552941800,3.29394189453125,1.6378712514340876,6.839150439482927,-4.130261190880835
1789757567562955800,3.303955810546875,-2.5656582970142363,5.193215124058723,-2.5793840400278567
1789757567572969700,3.3139697265625,-10.378633895152806,1.8638760555595157,0.5471066435277462
1789757567582983700,3.323983642578125,-10.381009392112492,1.8708780432760714,0.6339459919385612
1789757567592998000,3.333997802734375,-21.831682151913643,-10.04370986662507,7.941298026669025
1789757567603012900,3.344012939453125,-21.89128701804876,-10.03471875091791,7.895477940258384
1789757567613026800,3.35402685546875,-3.986577234828472,-13.365158474135399,7.392310976222157
1789757567623040800,3.364040771484375,-5.16123593147397,-13.21858376507759,6.990706444084644
1789757567633054700,3.3740546875,-8.84840936396718,-11.593612911748885,4.7294855596587055
1789757567643068700,3.384068603515625,-9.23926044690013,-5.142074134886265,0.8646070974372326
1789757567653084000,3.394083984375,0.028028993654251096,1.2178005037575959,-1.3331411395095287
1789757567663097900,3.404097900390625,5.657177035909891,2.6408453476846216,-4.145077944001555
1789757567673111600,3.414111572265625,5.64822566769123,0.8881529543280601,-6.760677791270613
1789757567683125800,3.424125732421875,5.949773496317863,-1.2792629804581404,-7.340685418403148
1789757567693139700,3.4341396484375,5.502181704509258,-3.837518307739496,-8.127061421298981
1789757567703154000,3.44415380859375,2.7954969802141187,-8.144324690788984,-9.486846968236565
1789757567713169000,3.4541689453125,-6.036304947823286,-15.37682796689272,-10.168132365107535
1789757567723182600,3.4641826171875,-4.854156187683343,-14.469341366541384,-9.965151293694973
1789757567733196800,3.47419677734375,0.030945830949023364,-8.026699597361683,-8.147844681608676
1789757567743210800,3.484210693359375,2.2730489771246907,-2.5043361055672166,-6.159933081057668
1789757567753225000,3.494224853515625,2.356508181577921,-2.511955932921171,-6.105747901883721
1789757567763238700,3.50423876953125,3.2232220420360562,1.6896341718971728,-5.536374481490254
1789757567773253600,3.514253662109375,3.8456817404508588,6.30830753301382,-4.136829755616188
1789757567783267800,3.524267822265625,3.8314053778171537,7.376847449630499,-3.4038810992643236
1789757567793281800,3.53428173828125,3.7938650439739225,8.075619403353333,-2.728213542275131
1789757567803295700,3.544295654296875,3.8612849677741523,8.065804696303605,-2.6559967395871875
1789757567813309700,3.554309814453125,3.181533940863609,8.328280743736029,-2.066608851299435
1789757567823323600,3.56432373046875,2.986425210261345,7.320438749188185,-2.0927305500276385
1789757567833338600,3.574338623046875,3.06711378095746,5.688811360579729,-2.2261460639134047
1789757567843352800,3.584352783203125,3.317256416517496,3.9572903500676153,-2.3948769290693104
1789757567853366800,3.59436669921875,3.3203710414066907,3.9531174482971427,-2.269263321106136
1789757567863380700,3.604380615234375,4.673732985037565,0.04768003506362438,-2.442350189514458
1789757567873394700,3.614394775390625,5.71946953369379,-1.355409816071391,-1.8930173943698405
1789757567883409000,3.624408935546875,5.661836844414473,-1.3593167603820562,-1.70726817439571
1789757567893423900,3.634423828125,5.978632511055469,-2.2308312991201875,-0.0068760232493281365
1789757567903437800,3.644437744140625,5.257580336463451,-1.75666772672832,0.9998995841760188
1789757567913451800,3.65445166015625,4.978238494426011,-1.2947902199357748,1.9119762157313525
1789757567923465700,3.6644658203125,4.154733661097288,-1.0551298154234885,2.5149872634410855
1789757567933479700,3.674479736328125,3.949836526930332,-1.0538894599735735,2.645349088844657
1789757567943494000,3.684493896484375,2.4149989489912986,-1.0541671078711747,3.268700767663121
1789757567953508900,3.6945087890625,1.3679460570394992,-1.1241115817129612,3.7785049777567385
1789757567963522600,3.7045224609375,-0.8582757024586201,-0.6504740790218114,4.342956139317154
1789757567973536800,3.714536865234375,-4.106548599120974,0.18268880949020386,4.776115208886564
1789757567983550700,3.72455078125,-4.277469813928008,-0.14333645778894424,5.054364287251234
1789757567993565000,3.73456494140625,-3.308496771478653,-0.8976952741771936,5.099185425752401
1789757568003578600,3.74457861328125,-3.699502168190479,-1.1418874769002199,4.990411747300625
1789757568013593600,3.754593505859375,-4.860025371977686,-1.185630757036805,4.794133972918987
1789757568023607800,3.76460791015625,-6.8175354045242065,-1.2735983788251877,4.329724317300319
1789757568033621800,3.774621826171875,-7.950489633384347,-1.4346534486562013,3.6539153060138223
1789757568043636000,3.784635986328125,-7.4393106278061865,-1.661297135207057,2.9723256654992696
1789757568053649700,3.794649658203125,-6.179842481142282,-1.8681997639775274,2.5532635103434322
1789757568063663600,3.80466357421875,-5.309938300210237,-1.769560526049137,2.6540534965649245
1789757568073678800,3.814678955078125,-4.998547707483172,-1.695566484555602,3.295831058911979
1789757568083692800,3.82469287109375,-0.9068407036632299,-1.7380682401984928,4.0969542568236585
1789757568093706800,3.834706787109375,-0.9449999000571667,-1.789333148011565,4.22709162582159
1789757568103720700,3.844720703125,-1.7130793448925017,-3.2027105844050645,6.348042162030935
1789757568113734700,3.854734619140625,-4.686780098137259,-3.756858963137865,7.651269370922446
1789757568123748900,3.864748779296875,-10.27629580270648,-3.793656954181194,9.439459194117784
1789757568133763800,3.874763916015625,-8.866357693111896,-3.7852000914812085,10.208006110334395
1789757568143777800,3.88477783203125,-4.424693926805258,-3.566907469168305,9.461700836542247
1789757568153791700,3.894791748046875,-1.6838941669404506,-4.013610787704587,8.303073821765183
1789757568163805700,3.9048056640625,-0.3703922322720289,-5.132425432053208,7.575269250303506
1789757568173820000,3.91481982421875,-1.1759815427470952,-6.904285467216372,6.6187026849627495
1789757568183833900,3.924833740234375,-1.000840591353178,-6.821088128569722,6.348951678091288
1789757568193848800,3.934848876953125,-5.226235934650898,-7.413848269769549,2.729182387307286
1789757568203862800,3.94486279296875,-2.648728209888935,-5.90343435446918,1.1308150248743594
1789757568213876700,3.954876708984375,1.0938766024470328,-5.172320804589987,0.35297990970015525
1789757568223890700,3.964890625,2.819816597956419,-5.128428471371532,-0.5556006233677268
1789757568233905000,3.97490478515625,3.081370269846916,-5.114486455258727,-0.9308020094871521
1789757568243918600,3.984918701171875,3.739851714235544,-8.345194469135999,-3.031766573244333
1789757568253933600,3.99493359375,3.891956000369787,-11.075073022013902,-4.361892602716386
1789757568263947800,4.00494775390625,2.738287484782934,-13.530451912188528,-5.995477262872457
1789757568273961700,4.014961669921875,0.776518479617685,-14.785211150509118,-8.213017703264951
1789757568283976000,4.024975830078125,-1.4463177290953695,-14.076908567374943,-10.429510680431127
1789757568293989600,4.03498974609375,-3.40331908146739,-11.17759699242115,-11.611957546734809
1789757568304003800,4.04500390625,-4.435919961957633,-6.790293761855364,-11.031375334584713
1789757568314018800,4.055018798828125,-4.155971678459644,-2.777009137365222,-9.60155295934677
1789757568324032800,4.06503271484375,-2.539159581667185,0.30633330933749675,-8.301411441510915
1789757568334046700,4.075046630859375,0.3960496744893491,2.8201187957733866,-7.702040357738733
1789757568344060700,4.085060791015625,3.718790221506357,4.491217778548598,-7.673035797050595
1789757568354074600,4.09507470703125,6.200635093802213,5.427200405544042,-7.358675833123922
1789757568364088800,4.1050888671875,7.127131515049934,5.9042550232023,-6.5002908250719305
1789757568374103800,4.115103759765625,6.340867740356922,6.286715294408798,-5.5022553542673585
1789757568384117800,4.12511767578125,4.399223969984054,6.8113260284900665,-4.429264595721662
1789757568394131700,4.135131591796875,1.8923114380575716,7.17048258099854,-3.3268823229968545
1789757568404145700,4.145145751953125,0.1337877081990242,7.38195324833691,-2.378243189654499
1789757568414160000,4.155159912109375,-0.37796485948339104,7.438357857125997,-1.748013149499148
1789757568424173800,4.165173828125,0.4310299485862255,7.676503180900216,-1.6860130587905644
1789757568434188800,4.175188720703125,1.9143363689914346,8.186851580873132,-2.1985345650188624
1789757568444202800,4.18520263671875,3.248474848975241,8.803208286237716,-3.1475980612531305
1789757568454216700,4.195216796875,4.094880080898106,9.15744024182558,-4.082258207473159
1789757568464230700,4.205230712890625,4.63622801476866,9.287329773542284,-4.64194376206696
1789757568474244900,4.215244873046875,4.839232174795866,9.272886822170019,-4.982013336789608
1789757568484258800,4.2252587890625,4.6660020985245705,9.095181061789393,-5.224313442155719
1789757568494273500,4.2352734375,3.8283378069400786,8.687856982961296,-5.4959863570004694
1789757568504288000,4.2452880859375,1.9429310337044297,8.094459128379821,-5.786229532280564
1789757568514302000,4.255302001953125,-0.6007375498197972,7.004473103630542,-5.459395871227979
1789757568524316000,4.26531591796875,-3.3863094944775103,4.6947979848980905,-2.7327158221304413
1789757568534329900,4.275329833984375,-5.223179469689726,1.943498458328843,1.664957703541219
1789757568544344000,4.285343994140625,-7.809971155625581,-1.0942056882709263,4.622001044234633
1789757568554359000,4.295359130859375,-10.987055715864896,-4.93832967788577,6.540355124434829
1789757568564373000,4.305373046875,-12.298251711678505,-8.255582587271928,8.049381969290971
1789757568574387000,4.315386962890625,-10.411590408337116,-9.435313764876126,8.139130044755339
1789757568584401000,4.32540087890625,-6.999286056381464,-8.720145387625694,7.451225522005558
1789757568594414800,4.335414794921875,-3.0528456016302106,-5.716453985264897,5.646246476572752
1789757568604429000,4.345428955078125,0.8116378699243069,-0.7959574857115745,2.645399065466225
1789757568614443800,4.35544384765625,-0.3148352532882243,2.492032504311204,-0.19014584749788044
1789757568624457700,4.365457763671875,-11.867289567631483,-5.757898340809345,-8.352362461069227
1789757568634472000,4.375471923828125,-16.975836695969104,-12.007614568644762,-8.018123492196201
1789757568644486000,4.38548583984375,-13.595657667070627,-19.149032967722416,0.24643062929958104
1789757568654500000,4.3955,-13.816439768111705,-30.229363179612157,0.7540729851841926
1789757568664513800,4.405513671875,6.323868674761057,-28.102103314125536,-4.893679804298281
1789757568674528800,4.41552880859375,11.0872357534945,-14.140138638269901,-9.319984673431515
1789757568684543000,4.42554296875,10.868305417799949,-2.363731118568778,-10.460552299904823
1789757568694557000,4.435556884765625,13.434824131035803,2.3949878420978785,-9.604150574624537
1789757568704571100,4.445571044921875,13.933754480415582,5.414498744881152,-8.490994686689973
1789757568714584800,4.455584716796875,14.567531691658496,7.513222836235165,-7.713278375589847
1789757568724598800,4.465598876953125,14.735760598641633,8.640065888738631,-7.133638412725925
1789757568734614000,4.475614013671875,13.565225119405984,8.364766015568375,-6.6348752366065975
1789757568744628000,4.4856279296875,10.459245308959483,6.342867974263429,-6.848261966699361
1789757568754642000,4.495641845703125,8.791985465955733,3.8989959820091724,-7.22091103798747
1789757568764655900,4.50565576171875,8.819404803279042,3.9641292561769483,-7.003150915116072
1789757568774669800,4.515669921875,8.189794648587704,-0.058442252096533774,-7.693403462296724
1789757568784684000,4.52568408203125,6.1045268356561655,-1.8310317705780266,-7.288624391776323
1789757568794698000,4.535697998046875,-5.94110620573759,-6.328542511790991,-5.2746653267771
1789757568804713000,4.545712890625,-16.25994468061924,-8.441440089926123,-2.556438340987265
1789757568814727000,4.555726806640625,-10.880096393358707,-6.393496922260523,-1.4919843785099685
1789757568824740900,4.565740966796875,1.697611580517143,-3.368624784705043,-2.095566357975453
1789757568834754800,4.5757548828125,1.4476327572166918,-3.330848304018378,-2.1049889969676734
1789757568844769000,4.58576904296875,7.590818701612949,1.1848106728255747,-2.981702857914567
1789757568854782700,4.59578271484375,7.0456561778903,2.3499591983258723,-2.5876877579927444
1789757568864798000,4.6057978515625,4.908823012894392,2.5014918220520017,-1.6193815088890493
1789757568874812000,4.61581201171875,0.7816601533550769,1.7246271593451499,0.04225684097111225
1789757568884825900,4.625825927734375,-2.560099493843317,0.4793582184255123,1.7761315750025213
1789757568894840000,4.635840087890625,-1.5892624110877513,-0.675866878953576,2.5616689351171256
1789757568904853800,4.645853759765625,1.3402712836503983,-1.304756318154931,2.716088220195472
1789757568914868000,4.655867919921875,2.484415599566698,-1.4727631068199871,2.5401149826958775
1789757568924883000,4.665883056640625,1.6955378429830072,-1.4725310516297816,2.6005525002628564
1789757568934897000,4.67589697265625,-0.43464229386448855,-1.293365155568719,3.008821750986576
1789757568944911000,4.6859111328125,-1.1127829629689454,-0.7764455605119467,2.932055906692147
1789757568954924800,4.6959248046875,-0.13873042529821394,-0.058719315472245216,2.3299312864281236
1789757568964938800,4.705938720703125,0.5443997226566076,0.9518827914386987,2.0087080126032233
1789757568974953000,4.715952880859375,-2.6015888575732706,0.9516694409489631,3.0755390794754027
1789757568984968000,4.725968017578125,-7.027443060329556,-0.24460721326470375,4.124631368300318
1789757568994982000,4.73598193359375,-4.334185972884297,-0.5839052190929651,2.8051693561837077
1789757569004995800,4.745995849609375,-0.6554401769965886,-0.41563773366510864,0.7822657910980284
1789757569015009800,4.756009765625,-0.4778530745595693,-0.1586222897261381,-0.6308904037602245
1789757569025024000,4.76602392578125,-1.5827198575764894,-0.017377835780382156,-1.7050988675326109
1789757569035038000,4.776037841796875,-2.491933720111847,-0.14231062187254429,-2.282983511161804
1789757569045053000,4.786052978515625,-2.1282437619574366,-0.21621990769207478,-2.518654553776979
1789757569055067000,4.79606689453125,-1.2864428089596331,-0.3051420537263155,-2.553804193091392
1789757569065080800,4.806080810546875,-0.7906355600364505,-0.5069096576958895,-2.3492390673577783
1789757569075095000,4.816094970703125,-0.6451359328642488,-0.5075806888252496,-2.198047804415226
1789757569085109000,4.82610888671875,-0.6736427731633186,-0.43778935971856114,-2.0585862883634864
1789757569095122700,4.836122802734375,-0.6547118627220392,-0.4255336892575025,-1.9720362782880663
1789757569105138000,4.846137939453125,-0.5368960690282285,-0.3052057666122913,-1.7745894601270555
1789757569115152000,4.85615185546875,-0.3831663736492395,-0.2830114704608917,-1.6707660975590348
1789757569125165800,4.866165771484375,-0.26292978254929184,-0.3285638458460569,-1.6368810713529587
1789757569135180000,4.876179931640625,-0.157511844266206,-0.3924129254221916,-1.6684686342716215
1789757569145193700,4.88619384765625,-0.007308277186751365,-0.4515045813381672,-1.7729739877544342
1789757569155208000,4.8962080078125,0.11633907220475374,-0.5790303065329789,-1.9158079028487205
1789757569165222000,4.906221923828125,0.2186971114605665,-0.7459738498806953,-2.055906109368801
1789757569175236900,4.91623681640625,0.2963554476153105,-0.8713865284442901,-2.180656232370436
1789757569185251000,4.9262509765625,0.3540254732303321,-0.9290987127006053,-2.221227604472637
1789757569195264800,4.9362646484375,0.4248771981101483,-0.903214914381504,-2.1934126919604835
1789757569205279000,4.946279052734375,0.47141412755325435,-0.8431775020480156,-2.0669692090444265
1789757569215293000,4.95629296875,0.46596974454224105,-0.6430202558845282,-1.954251907533407
1789757569225307000,4.966306884765625,0.5359728167034685,-0.23513620508611202,-1.794130319160223
1789757569235322000,4.976322021484375,0.5593074419964105,0.22940438343584535,-1.6507931307189165
1789757569245335800,4.986335693359375,0.6590769991289824,0.7101005724668502,-1.5438976672291755
1789757569255349800,4.996349853515625,0.9485702328246086,1.1599398509413004,-1.481321968589723
1789757569265364000,5.006364013671875,1.2179974876344204,1.2757342218101024,-1.2294877266809343
1789757569275378000,5.0163779296875,1.3399597334831952,1.1452467242002486,-0.9180987413890659
1789757569285392000,5.026391845703125,1.3611790471225975,1.145882099494338,-0.8612755418617278
1789757569295406800,5.03640673828125,1.4844880314052105,0.6408043334007263,-0.5978827083779499
1789757569305420800,5.0464208984375,1.56013334723711,0.19835165804624558,-0.4446709359258413
1789757569315435000,5.05643505859375,1.6910982531003653,-0.23419863197505472,-0.2971713671080768
1789757569325449000,5.066448974609375,1.7583534878581761,-0.48443128390610213,-0.17105591056998817
1789757569335463000,5.076462890625,1.7833225094199179,-0.5072276376038789,-0.05504311117753386
1789757569345476900,5.086476806640625,1.8861556919068097,-0.46449382677078244,0.18973266358710825
1789757569355491800,5.096491943359375,1.918462801271677,-0.4664642500609159,0.25145496026761827
1789757569365506000,5.106506103515625,2.0248060377061368,-0.2801666024237871,0.8615200912073254
1789757569375520000,5.11652001953125,1.952760207670927,-0.10469079305231571,1.1790956561796366
1789757569385533700,5.12653369140625,1.9258149176001547,-0.002685293561220169,1.496283098617196
1789757569395548000,5.1365478515625,1.9487959802150725,0.06905716961324214,1.8167706055134534
1789757569405561900,5.146561767578125,1.9667963318079709,0.08234510573148728,2.158848889710009
1789757569415576000,5.156576171875,1.9804040013998745,0.10018179119527339,2.481446520628035
1789757569425591000,5.166591064453125,2.0215613566964863,0.07128595157861708,2.7444509758487343
1789757569435604700,5.176604736328125,1.955453100016713,0.03444295234978199,2.93927738237828
1789757569445619000,5.186618896484375,1.6819675827920435,0.08059270910620689,3.052207303726673
1789757569455633000,5.1966328125,1.354568689072132,0.16818623688519,3.114073100531101
1789757569465647000,5.206647216796875,1.0000643462836742,0.2506201899439096,3.171560243859887
1789757569475660800,5.216660888671875,0.6236350258044898,0.25898995888233184,3.1801269966751335
1789757569485675800,5.22667578125,0.2188921956412494,0.18387889605760574,3.155703918558359
1789757569495690000,5.23668994140625,-0.18637144352570176,0.03193652248680592,3.045829000866413
1789757569505704200,5.2467041015625,-0.5818501862592995,-0.18656886579394338,2.9295488923072814
1789757569515718100,5.25671826171875,-0.9342974503874778,-0.4471592456102371,2.848641710424423
1789757569525732400,5.266732421875,-1.2817284937888382,-0.6425012004464864,2.692505392295122
1789757569535746300,5.276746337890625,-1.6602400273695588,-0.787176213362813,2.4405679822728037
1789757569545761300,5.28676123046875,-1.9574416434854267,-0.9124123663157224,2.2010468401007355
1789757569555775200,5.296775146484375,-2.188848891176283,-1.01618604452312,1.9480124286219476
1789757569565789200,5.3067890625,-2.464740885020792,-1.1059370425969361,1.6690297752857208
1789757569575803400,5.316803466796875,-2.9319407558798787,-1.1537053404659032,1.3967258690610527
1789757569585817300,5.3268173828125,-3.1116552257344123,-1.2095400404125451,1.4307168398596346
1789757569595832300,5.336832275390625,-6.0875990817308425,-1.1847872919499873,0.9035745414741336
1789757569605846300,5.34684619140625,-12.014390346390009,-0.8930985940366983,-0.4047122888945043
1789757569615860200,5.356860107421875,-13.57849025917053,-0.49636137567460537,-1.4843633821122348
1789757569625874200,5.366874267578125,-8.176247184750437,-0.5940951891958713,-0.8964994885213673
1789757569635888400,5.376888427734375,-1.9471265856981277,-1.0659282728135586,0.628934885778278
1789757569645902000,5.386902099609375,-0.013370645965635775,-1.440181856688857,1.6236626933395861
1789757569655917000,5.3969169921875,-0.06765782420933246,-1.5892518896937369,1.9822206954330204
1789757569665931300,5.40693115234375,-0.27884382938742636,-1.7519255006372927,2.2175509617865083
1789757569675945200,5.4169453125,-0.3438318498656153,-2.116479528275132,2.5502275036484003
1789757569685959400,5.42695947265625,-0.32779724538773297,-2.8552906469196078,3.0442239037573335
1789757569695973000,5.43697314453125,-0.6636746291175484,-3.964501012098789,3.4857121179938315
1789757569705987300,5.4469873046875,-1.8828323927029966,-5.309222260895371,4.028604943218827
1789757569716001300,5.457001220703125,-5.220526324832439,-7.141905305811762,5.1877638729155064
1789757569726016300,5.467016357421875,-7.329600545287132,-7.975141259559988,6.163678112804889
1789757569736030500,5.477030517578125,-8.33898100144863,-7.549500602796673,6.510452153602242
1789757569746044200,5.487044189453125,-10.515922889471053,-7.1378183287590735,6.716402011692524
1789757569756058000,5.49705810546875,-11.648452755439282,-6.599823212447762,6.25504356033802
1789757569766072300,5.507072265625,-11.284434734374283,-5.772150153523683,5.22132711982131
1789757569776086300,5.517086181640625,-10.188870032709836,-4.751085104787349,4.1963972123503686
1789757569786101200,5.527101318359375,1.4064714563973246,-3.278296863526106,1.3105718725658952
1789757569796115200,5.537115234375,3.1632822448581455,-3.5637773544490337,-0.14819770714975894
1789757569806129200,5.547129150390625,2.733130832672119,-3.4352257933378216,-1.4025602743029593
1789757569816143400,5.557143310546875,2.61029998729527,-2.441411739620566,-2.7125004248365756
1789757569826157300,5.5671572265625,3.314837080416083,-1.229492110595107,-3.8925186026886105
1789757569836171300,5.577171142578125,3.726959499436617,-0.527207180315256,-4.832997079798579
1789757569846186200,5.587186279296875,1.7794348543316125,-0.3941080389022827,-5.425725656816363
1789757569856200200,5.5972001953125,-3.9773745221972465,-1.9934487764120101,-5.232452909469604
1789757569866214400,5.60721435546875,-8.161419617974758,-4.453060774111748,-4.899251174689829
1789757569876228400,5.617228271484375,-5.194595764762163,-4.883254856395721,-5.078525499561429
1789757569886242300,5.6272421875,-0.6668926413159817,-3.454179500132799,-4.7152372540757055
1789757569896256300,5.63725634765625,2.310457209020853,-1.3493600145131348,-4.004087757077813
1789757569906270200,5.647270263671875,4.5663948923468585,0.6132043788135051,-3.1925007405579087
1789757569916285200,5.65728515625,6.001114391976595,1.8145301331102848,-2.262203173461556
1789757569926299400,5.66729931640625,5.875237603032589,2.5963345903068777,-1.0606759052433072
1789757569936313300,5.677313232421875,4.142449349063635,3.3823663098096843,0.14690262583792207
1789757569946327300,5.687327392578125,2.488954996562004,4.118852784898877,0.852214502723515
1789757569956341200,5.69734130859375,1.8708019092999397,4.65024338837862,1.1127331324778496
1789757569966355200,5.707355224609375,1.7179146560944616,5.067318461370468,0.8003856774173677
1789757569976370400,5.717370361328125,1.6919558928430078,5.418301059773564,-0.04287073508575558
1789757569986384100,5.727384033203125,1.960894560418278,5.691164645707607,-1.023856433020532
1789757569996398300,5.7373984375,2.4271524742521344,5.985702303311228,-1.9963813227325677
1789757570006412300,5.747412353515625,2.740355523228645,6.383345530602336,-2.924594777031243
1789757570016426200,5.75742626953125,2.558874043701589,6.736387984144687,-3.7851290720716118
1789757570026440400,5.7674404296875,2.1511153728485106,6.617250148066878,-4.336161364610493
1789757570036454100,5.7774541015625,2.058151842468977,6.203695650416612,-4.301643593458831
1789757570046469000,5.78746923828125,2.2872911452278495,5.893440199199318,-4.035775273239612
1789757570056483300,5.7974833984375,2.3703297861814496,5.7896571686416864,-3.9587627607077356
1789757570066497300,5.807497314453125,1.9659379614129662,5.883270102840662,-4.04397757665664
1789757570076511500,5.817511474609375,0.6053241469576954,6.204736683902144,-3.91763112437427
1789757570086525200,5.827525146484375,-1.6166858400642872,6.374431571784615,-3.104685971243679
1789757570096539100,5.8375390625,-4.764613279402256,5.544673523280024,-0.8455366323947906
1789757570106554400,5.847554443359375,-9.315583808124066,2.83650586695075,3.640146892902255
1789757570116568300,5.857568359375,-10.271942283672093,-0.9635638768821955,7.4775962270587675
1789757570126582300,5.867582275390625,-5.359752424693108,-4.157058304652572,7.975211986708641
1789757570136596200,5.87759619140625,-5.410598814833164,-4.167461625245213,7.882128044819831
1789757570146610200,5.887610107421875,1.4306868831127881,-6.632188774001598,6.610781244313716
1789757570156624400,5.897624267578125,-0.19905980631560086,-6.166136027351022,5.46743304721117
1789757570166639400,5.907639404296875,-1.0016048537239433,-4.130440931361913,3.585338028872013
1789757570176653300,5.9176533203125,-0.7294999772027134,-0.9530418983459472,2.1844810513556
1789757570186667300,5.927667236328125,1.4505039287388324,1.712222435802221,0.5746849708050489
1789757570196681200,5.93768115234375,1.00842768548131,0.6810872439503669,-3.1685327127322553
1789757570206695400,5.9476953125,-13.800946430903672,-1.7206752068489788,-7.461607799810171
1789757570216709400,5.95770947265625,-15.74822148516178,-3.2731466411560772,-5.048009949788451
1789757570226723000,5.96772314453125,12.340821271860598,-6.80102441470623,1.9685031357258558
1789757570236738300,5.97773828125,14.462940851849316,-9.93725323294401,1.826113311137259
1789757570246752300,5.987752197265625,3.759818981987238,-11.900430789732932,1.3881098702766
1789757570256766200,5.99776611328125,-2.0710313439168035,-7.335690094333887,-0.18620310122147202
1789757570266780400,6.007780517578125,3.546413254933059,-1.778542289406061,-1.5968541813910007
1789757570276794000,6.017794189453125,6.594701047128439,0.569464605808258,-1.6083336067825555
1789757570286808300,6.027808349609375,5.801925698584318,2.501184948059916,-1.8538516512818632
1789757570296823300,6.0378232421875,4.571546868282557,3.590319324415922,-2.2399925106972454
1789757570306837200,6.047837158203125,3.7193525315642355,3.6957787637531756,-2.5715812573224306
1789757570316851500,6.0578515625,3.394389048297703,2.7534488135576245,-2.793400300195813
1789757570326865200,6.067865234375,3.3724636322155592,1.399828803512454,-2.868323439233005
1789757570336879400,6.07787939453125,3.5188697067081924,0.13092413546144963,-2.8507442356616255
1789757570346893300,6.087893310546875,3.6831843628570433,-1.0792091946691273,-2.680678760901093
1789757570356908300,6.097908203125,3.7500621426045893,-1.8768986187398433,-2.340273816744238
1789757570366922500,6.107922607421875,3.66954892847538,-2.1739152336776257,-1.820263854456693
1789757570376936200,6.117936279296875,3.450471293264627,-2.0415759707212446,-1.2688937082655727
1789757570386950100,6.1279501953125,3.2890614186465736,-1.640369497990608,-0.794027613627538
1789757570396964400,6.13796435546875,3.2426269997298713,-1.263692486360669,-0.1494538812233135
1789757570406978300,6.147978271484375,3.0492133826076984,-0.7251011577218771,0.4426817348700017
1789757570416992300,6.1579921875,2.304373651323467,0.5748199953615665,0.5807365989942104
1789757570427007200,6.16800732421875,2.051922008168697,0.6001940905928611,0.6328394920013845
1789757570437021200,6.178021240234375,1.3727718697607516,2.204174178341031,0.48508952861912547
1789757570447035400,6.188035400390625,-0.33953126659486443,3.9459868657648562,0.40676965981572866
1789757570457049300,6.19804931640625,-1.5674726040840148,4.402911718586087,0.5108504312109202
1789757570467063300,6.208063232421875,-3.015458997043967,4.555708078637719,0.7831497343257069
1789757570477077200,6.2180771484375,-4.585730876457691,4.493575155329704,0.9222045692726969
1789757570487092200,6.22809228515625,-5.653121038517355,3.9815345644861457,1.0982578862711787
1789757570497106400,6.2381064453125,-5.945832649737596,2.7212200301259752,1.621414037629962
1789757570507120600,6.24812060546875,-5.599111215910315,1.403049519124627,2.109868877963722
1789757570517134300,6.25813427734375,-4.720931958585977,0.3831839093059301,2.328333057451248
1789757570527148500,6.2681484375,-3.711632166445255,-0.3768354170620441,2.2239462157815693
1789757570537162500,6.27816259765625,-3.697741003736853,-0.3750251527696848,2.2213249273672697
1789757570547176700,6.2881767578125,-1.6482343861468136,-0.8115005072802305,1.5231411487959325
1789757570557191700,6.298191650390625,-0.5713420901179314,-0.4731009115964174,1.175525396477431
1789757570567205400,6.308205322265625,0.182661483091861,0.1809048486828804,0.79363459572196
1789757570577219600,6.318219482421875,0.4951566760599613,0.7212894904792309,0.6035813949435949
1789757570587233500,6.328233642578125,0.45574762573540206,1.1014210264772175,0.5587899209283292
1789757570597247500,6.33824755859375,0.19922201113998889,1.2969190486580133,0.5381988221898675
1789757570607261400,6.348261474609375,-0.1704647032111883,1.2497884641706942,0.5623059662252664
1789757570617276400,6.3582763671875,-0.5339151535212994,0.8351677985936403,0.7015200833871961
1789757570627290400,6.368290283203125,-0.8704590383358299,0.16943068398833275,0.9049784169226884
1789757570637304600,6.3783046875,-1.2910165466159582,-0.6923211701482535,1.2160064599476754
1789757570647318500,6.388318603515625,-1.964575879279524,-1.6041764871031046,1.7564855020292103
1789757570657332500,6.39833251953125,-2.992888268795609,-2.5295886202454567,2.494956867325306
1789757570667346400,6.408346435546875,-4.485075622531771,-3.561078032362461,3.4598514082893725
1789757570677360600,6.418360595703125,-6.184332193776965,-4.449422709870338,4.680942770285904
1789757570687375600,6.428375732421875,-8.514830904829502,-5.1098658097207545,6.319356750294566
1789757570697389600,6.4383896484375,-12.690987293183802,-5.757942764472961,8.469805183666944
1789757570707403500,6.448403564453125,-14.959209288543462,-6.224404676446318,10.078506454718113
1789757570717417500,6.45841748046875,-14.69260768561363,-6.174204182994365,10.062294155585766
1789757570727431400,6.468431396484375,-6.993702703291177,-5.893747657713294,9.221822405365108
1789757570737445600,6.478445556640625,-2.6573288649737834,-5.709871684265137,8.184907461068034
1789757570747460600,6.488460693359375,-0.22054887680709362,-5.910667812854051,7.709649663698673
1789757570757474300,6.498474365234375,-0.5724842458903789,-6.323736572813988,7.819104894673824
1789757570767488500,6.508488525390625,-0.23799860877990722,-6.29717414458096,7.568847692823409
1789757570777502500,6.51850244140625,3.646480187577009,-7.831597881022096,6.423502768945694
1789757570787516700,6.5285166015625,3.8730420410633086,-7.827963323912024,6.1456444434642785
1789757570797530400,6.5385302734375,7.5955089052557945,-6.56924044265747,3.0550597705483433
1789757570807545300,6.54854541015625,6.449890425133705,-5.801979474598169,0.7996819861274213
1789757570817559600,6.5585595703125,5.640460878908634,-6.593388795486092,-0.7066782698679714
1789757570827573500,6.568573486328125,4.083847814752161,-8.38704272930622,-1.5908809522002934
1789757570837587700,6.578587646484375,2.182390070425719,-10.150717119926213,-2.0095161141157147
1789757570847601400,6.588601318359375,1.0005608976289628,-11.280920588773489,-2.2535437739267943
1789757570857615400,6.598615478515625,0.9688638829864561,-10.805129122918844,-3.003682926793396
1789757570867629600,6.608629638671875,1.7752400329902767,-8.981139087545872,-3.349674292780459
1789757570877644500,6.61864453125,2.3487600516691804,-6.670626348945498,-3.272496068292856
1789757570887658500,6.628658447265625,2.3506762605540454,-6.691988285925984,-3.4525948612898585
1789757570897672400,6.63867236328125,2.2582535590529442,-2.8803105218857525,-2.4870734205991027
1789757570907686400,6.648686279296875,2.9244977463975546,-1.2978694812506437,-2.659643571656942
1789757570917700600,6.65870068359375,4.641384082357585,-0.021769348737597463,-3.2392738899096845
1789757570927714600,6.668714599609375,6.77713383603096,1.1968407178372145,-4.224031069207191
1789757570937729500,6.6787294921875,6.766062991440296,1.9741578004866838,-5.382635287630558
1789757570947743500,6.688743408203125,5.595946029877663,2.8824533791333433,-6.082046123778819
1789757570957757400,6.69875732421875,4.271715195924044,3.773991884246468,-6.20914573251605
1789757570967771600,6.708771728515625,3.6583272772371767,4.625659566742182,-6.009806232476234
1789757570977785600,6.71878564453125,3.582871931019425,5.5701352967947715,-5.609269621831178
1789757570987799300,6.72879931640625,3.7082667816653845,6.508373009240627,-5.427004590710998
1789757570997813500,6.7388134765625,3.8986511140942572,7.34439420979321,-5.502776747792959
1789757571007828500,6.748828369140625,3.9860353830367323,8.099125951147078,-5.8577791032314295
1789757571017842400,6.758842529296875,4.192975421208143,8.748354414021968,-6.156743345105648
1789757571027856600,6.768856689453125,4.3784825029894705,9.317423883032799,-6.44881841198802
1789757571037870300,6.778870361328125,4.577440017974377,9.803538005459307,-6.608284166800975
1789757571047884500,6.788884521484375,4.729460132956505,10.258352149736881,-6.757779731741548
1789757571057898500,6.7988984375,4.657200367909669,10.64983802344203,-6.984813878914713
1789757571067913500,6.80891357421875,4.249349050337076,10.86662433284521,-7.318757079711556
1789757571077927700,6.818927734375,3.506279981987178,10.617660093414782,-7.486883110842109
1789757571087941400,6.82894140625,2.2290204503059385,9.710011580500007,-7.332509710732102
1789757571097955600,6.83895556640625,2.329438972866535,9.716805478423833,-7.135681901252269
1789757571107969500,6.848969482421875,-9.810984814333915,3.8135686923533676,-0.6388602135956287
1789757571117983500,6.8589833984375,-21.32287221355438,-1.2357739673435688,4.56988887194246
1789757571127997700,6.868997802734375,-17.569872263932226,-6.595680705815553,5.893989649775624
1789757571138012400,6.879012451171875,-4.0622783725008365,-8.75299493330419,5.52715014154911
1789757571148026400,6.8890263671875,3.859520003928244,-9.28948022957444,5.93556786083281
1789757571158040600,6.89904052734375,4.883970018927752,-9.267956964552402,5.756166986972093
1789757571168054500,6.909054443359375,-0.18603695087432862,-8.538329269316792,4.863903674715757
1789757571178068700,6.91906884765625,-5.818137413194775,-5.775781788024306,2.8236358639836308
1789757571188082400,6.92908251953125,-8.425159401732683,-1.5857891820192336,1.0441035406269132
1789757571198097400,6.939097412109375,-5.023646492904424,1.192393675300479,0.59070320867002
1789757571208111600,6.949111572265625,2.3203540413960813,3.2594027779638766,-0.5617176449432969
1789757571218125600,6.95912548828125,2.323183711864054,3.2044723333805796,-0.7324521050065755
1789757571228139500,6.969139404296875,3.93380981349796,1.2155693837046622,-6.604256810981035
1789757571238153500,6.979153564453125,-4.186072217690945,-4.607299149665236,-8.066231397283076
1789757571248167400,6.98916748046875,-8.125319546067715,-10.62838840817809,-0.7829328767046332
1789757571258182400,6.999182373046875,-1.312201665724814,-15.31842955393791,3.34054318408072
1789757571268196600,7.009196533203125,-0.3656855158858001,-18.053246147739888,0.8484759007170796
1789757571278210600,7.01921044921875,-0.2625380067527294,-18.071132517564294,0.8632929460987449
1789757571288224500,7.029224609375,6.478148551368713,-5.226663804674148,-5.496983551344275
1789757571298238500,7.039238525390625,6.9197595152020455,0.11131985580325127,-5.411441110876202
1789757571308252700,7.049252685546875,6.660809303808212,2.9994769995361565,-5.284651883262396
1789757571318266600,7.0592666015625,5.904176112747192,4.847494391706586,-5.1306584223806855
1789757571328281600,7.069281494140625,5.325415270805358,5.611099175345897,-4.845103989438712
1789757571338295600,7.079295654296875,4.899655663837492,5.483946375116705,-4.647886011597514
1789757571348309500,7.0893095703125,4.885211543421447,4.261142363983392,-4.839679334041476
1789757571358323500,7.099323486328125,5.119375980865955,1.8166484404385088,-5.366557428532839
1789757571368337700,7.109337646484375,5.556413060912489,-0.886077317097783,-5.691603621646761
1789757571378351400,7.119351318359375,6.051300272381305,-3.3661358904987573,-6.050234688976406
1789757571388365600,7.129365478515625,6.426809993797541,-5.4611289786309,-6.3902539948165415
1789757571398380500,7.139380615234375,6.770983496707678,-6.858115836715698,-6.380577819454669
1789757571408394500,7.14939453125,7.143902617108822,-7.144317043128609,-5.522512544876337
1789757571418408700,7.15940869140625,7.289255675417184,-5.648628987795115,-4.1124180756762625
1789757571428422400,7.16942236328125,6.803973912161588,-3.413542953839898,-3.2167867482915518
1789757571438436600,7.1794365234375,6.026012101867795,-1.6258523123383521,-2.514289636565745
1789757571448450600,7.189450439453125,5.726549262821674,-0.02287175702154636,-1.6638906588315963
1789757571458465500,7.199465576171875,5.0414346630513664,1.1710182943165302,-1.0018535677880047
1789757571468479700,7.209479736328125,4.332842157059908,1.7966688977271317,-0.32778858715724196
1789757571478493400,7.219493408203125,3.2988626816928384,2.0316472819030285,0.47412126762010154
1789757571488507400,7.22950732421875,0.4129611348669976,2.0530127260148525,1.6421832694143055
1789757571498521600,7.239521484375,-7.5878201043188565,2.038084621474147,3.692014150522649
1789757571508535300,7.249535400390625,-17.415156333994865,1.7501590754866598,5.808956912395358
1789757571518549200,7.25954931640625,-18.97496351801753,1.579475761088729,5.559198307716846
1789757571528564200,7.269564208984375,-19.195448681938647,1.5550883388072252,5.643911896145344
1789757571538578200,7.279578125,-6.037841071349382,0.3884685717105865,3.1440783626943825
1789757571548592400,7.28959228515625,-1.283223116260767,-0.03718494453430175,2.578512810151279
1789757571558606300,7.2996064453125,1.4090898222021757,-0.6423813734591007,2.6566142869636415
1789757571568620300,7.309620361328125,3.550758882921934,-1.1339023233652115,3.3439757888779043
1789757571578634200,7.31963427734375,4.138132070386409,-1.065828904092312,3.509513557080924
1789757571588649200,7.329649169921875,1.5908838748097418,-0.5049216987490653,3.3026614894539117
1789757571598663400,7.339663330078125,-2.249970883876085,0.20832360148429868,3.7856428668126463
1789757571608677400,7.349677490234375,-6.068717271128296,0.7662392237961292,4.417042243008315
1789757571618691300,7.35969140625,-5.896722289609909,0.9194581931740045,4.53375519002676
1789757571628705300,7.369705322265625,-2.315817274749279,0.5810252797424793,4.434527338555455
1789757571638719200,7.37971923828125,0.4495533011399209,-0.14604279413819313,4.5599201433748
1789757571648733400,7.3897333984375,1.6199708530843258,-1.1514876644164322,5.040595289617777
1789757571658748400,7.39974853515625,1.555856985092163,-2.3453917442798615,5.641220172843337
1789757571668762000,7.40976220703125,0.4297662122607231,-3.866203719475865,6.0830351348161695
1789757571678776300,7.4197763671875,-1.6556301954865456,-5.727426045656204,5.9767661326617
1789757571688790300,7.429790283203125,-5.13956419789195,-7.733107111653685,5.161813439100981
1789757571698804500,7.439804443359375,-9.053346830144523,-9.403039388737081,3.7608489095568656
1789757571708818200,7.449818115234375,-9.990635279041529,-10.649170499444008,2.520165542861819
1789757571718833200,7.459833251953125,-7.630273929166793,-11.569376296114921,2.1989937069632113
1789757571728847400,7.469847412109375,-3.93092899736464,-12.60753159586191,3.1481457582637664
1789757571738861300,7.479861328125,-3.696936117094755,-12.571774053782224,3.121393360416591
1789757571748875300,7.489875244140625,-5.080235226088762,-14.04664553105831,5.133139717802405
1789757571758889200,7.49988916015625,-9.149414756280184,-11.046495746827125,2.917779251797497
1789757571768903200,7.509903076171875,-8.844582499155402,-11.015932266259194,2.735613004876673
1789757571778917400,7.51991748046875,-8.744815718501807,-8.29977945639491,0.65627239003703
1789757571788932400,7.529932373046875,-4.238146103799343,-7.381579738849401,-0.27329306339249015
1789757571798946300,7.5399462890625,-1.225213994884491,-7.863222268819809,-0.7069642472025006
1789757571808960300,7.549960205078125,1.8908616776406764,-7.794609920364618,-1.7667830241598188
1789757571818974200,7.55997412109375,4.253921180558204,-7.3314756915092465,-2.9888930616796014
1789757571828988400,7.569988525390625,5.77586654369831,-7.01419311813414,-4.255400897721946
1789757571839002400,7.58000244140625,6.666868457716703,-6.8957479404956095,-5.623746475473046
1789757571849017300,7.590017333984375,6.304585297620296,-7.1220303925186395,-6.810967132049798
1789757571859031300,7.60003125,5.248250198060274,-7.080916876363754,-7.835362786513566
1789757571869045200,7.610045166015625,4.3771103378534315,-6.190843767628073,-8.425884208875894
1789757571879059200,7.62005908203125,2.422121932739019,-4.433348357903957,-8.494356856599449
1789757571889073400,7.630073486328125,0.5211641007587313,-2.891341034466028,-7.8838517998725175
1789757571899087400,7.64008740234375,-0.7584393637001514,-2.088369870600104,-6.5075009025812145
1789757571909102000,7.65010205078125,-1.0757938332676886,-1.3030296404927968,-5.346182749024034
1789757571919116300,7.6601162109375,0.9396975558653473,-0.7169488309264183,-4.252332157801091
1789757571929130200,7.670130126953125,4.790561959651113,-0.09011398616731166,-3.3612820207268
1789757571939144400,7.68014453125,8.323968141233921,0.6145856040388346,-2.7063749276936053
1789757571949158400,7.690158447265625,9.697413380211591,1.3408400234490632,-2.30732037229985
1789757571959172400,7.70017236328125,8.161727076488733,2.3222166203975676,-1.8085431676551698
1789757571969186300,7.710186279296875,5.314229859924316,3.5770232049912214,-1.377412973564863
1789757571979201300,7.720201171875,3.6855814871266483,4.773526069176197,-1.3558379783555865
1789757571989215500,7.730215576171875,3.44987888032943,5.822321420881152,-2.032306038072705
1789757571999229400,7.7402294921875,4.259714669267833,6.580211334004998,-3.3594273327708244
1789757572009243100,7.7502431640625,5.036911632668971,7.25164695251286,-4.519284473864734
1789757572019257300,7.76025732421875,5.080004924464226,7.952361272475123,-5.543123955750465
1789757572029271300,7.770271240234375,5.388147913572192,7.698572389367222,-5.673045636171103
1789757572039286300,7.780286376953125,6.352675082528591,9.498345682850479,-7.730340569549798
1789757572049300500,7.790300537109375,5.7086623084753745,9.587121698412298,-8.795380953612923
1789757572059314200,7.800314208984375,6.645809303075075,9.478791087552905,-9.41406697870791
1789757572069328400,7.810328369140625,8.135665583515166,9.535594340270757,-9.285731690695881
1789757572079342300,7.82034228515625,9.347874550876021,9.554196749410032,-8.49293822197318
1789757572089356500,7.8303564453125,9.472578788909315,9.723796944746374,-7.5086676571488375
1789757572099370200,7.840370361328125,9.585096914586424,9.744424722233415,-7.323230425733327
1789757572109385200,7.85038525390625,3.1876579767018556,10.758144084382057,-5.895812773549556
1789757572119399400,7.8603994140625,-2.8037837470442053,11.652449716120957,-5.73914512502253
1789757572129413400,7.870413330078125,-6.9461576927840705,9.84521675428152,-7.483737214031815
1789757572139427300,7.88042724609375,-1.5047019673943518,6.557576308348774,-8.967721387568115
1789757572149441300,7.890441162109375,5.235524571999907,4.804153847151994,-7.861031480777263
1789757572159455200,7.900455322265625,8.152713748949767,3.132101509174704,-6.099884562808275
1789757572169469400,7.910469482421875,10.985136145979165,1.26783090133965,-4.266251377560198
1789757572179484400,7.920484375,13.893091630637645,-2.5425650061964986,-3.454330599041283
1789757572189498400,7.930498291015625,10.580478656011818,-11.7778483661592,-1.10197632227242
1789757572199512300,7.94051220703125,-8.533158004158734,-26.576882290315627,4.6013376109123225
1789757572209526300,7.9505263671875,-4.092060055041313,-34.99717262470722,2.3556533183142543
1789757572219540500,7.96054052734375,2.7856805195987224,-36.99934948197603,-3.4003377275690436
1789757572229554400,7.970554443359375,-10.19505661239028,-32.486029177212714,-3.095934509511292
1789757572239569400,7.9805693359375,6.264919642186165,-14.040780438417196,-4.819236849993467
1789757572249583400,7.990583251953125,6.300993995130062,-6.087463472652435,-4.989881001424789
1789757572259597300,8.000597412109375,-5.742026233416795,-1.9989725082695482,-3.9303912372261283
1789757572269611300,8.010611328125,-7.505441096317767,1.6764076105773449,-2.831064260418713
1789757572279625500,8.02062548828125,-7.479248670440912,1.7669184871077537,-2.469486618243158
1789757572289639200,8.03063916015625,2.1144015529572964,1.3674094659447669,-1.7399932169117032
1789757572299654100,8.040654052734375,2.6426222942292688,1.98390002682209,-1.4231754845693707
1789757572309668400,8.05066845703125,2.4950655883967876,2.2134610621243715,-1.040172338657826
1789757572319682300,8.060682373046875,1.6092084899209438,1.5806009657263755,-0.7229376230124384
1789757572329696500,8.070696533203124,1.2438579050779341,0.5635492442846298,-0.31940628753080963
1789757572339710200,8.080710205078125,2.094373494929075,0.25581775858700273,0.07656473223175853
1789757572349724400,8.090724365234376,2.7159330296337605,0.48624856246113773,0.3883679243477061
1789757572359738400,8.10073828125,2.8603882623195647,0.8890747453480958,0.8634393688321113
1789757572369753300,8.11075341796875,2.9246845011413094,1.584316771379113,1.3719078002773224
1789757572379767300,8.120767333984375,1.9064403550446032,2.795056835231185,1.8567723610341549
1789757572389781200,8.13078125,1.8076503104686736,2.801214773339033,1.99354712221995
1789757572399795200,8.140795166015625,-2.0719500661969183,5.326430585327744,3.0348598630845545
1789757572409809400,8.150809326171874,-2.200210535407066,5.6882186553835865,3.4053429885104296
1789757572419823400,8.1608232421875,-2.1052175450265405,5.975895779567956,3.8905879268869756
1789757572429838300,8.17083837890625,-2.7948540061354636,5.92062981941998,4.810664251959324
1789757572439852300,8.180852294921875,-4.0223406221270555,5.8398389573931695,5.656183933219313
1789757572449866200,8.1908662109375,-4.818163083282113,5.160179115897416,6.178841779667139
1789757572459880400,8.20088037109375,-4.675117132872343,3.270108880895376,6.723319243735075
1789757572469894400,8.210894287109374,-3.4454607716262338,2.0593056886792183,6.448255517408251
1789757572479908400,8.220908447265625,-2.097667275777459,1.6454542539089918,5.4800937913417815
1789757572489922300,8.23092236328125,-0.5762556176552549,0.9912187765270472,4.687811779272556
1789757572499937300,8.240937255859375,-0.2955249150753021,-0.005655833804607391,4.281286449606716
1789757572509951200,8.250951171875,-0.45113571149315684,-1.4006401198953389,4.202749796247482
1789757572519965200,8.260965087890625,-0.2117740341991186,-2.8711341127395626,4.707168806171417
1789757572529979100,8.270979248046874,-0.20999124243557452,-2.866446831706166,4.666920090152323
1789757572539993300,8.280993408203125,0.5424345600634813,-3.329914238038659,3.0551831046670674
1789757572550007000,8.291007080078124,0.6339163274526596,-3.343692588022351,1.9788015346392989
1789757572560021200,8.301021240234375,0.14097086116876453,-4.055896270248294,1.149046627939865
1789757572570036200,8.3110361328125,-0.720983201009035,-5.315893993744254,0.5300350241523236
1789757572580050200,8.32105029296875,-1.1964098521392792,-6.969664240577816,-0.10793488954007625
1789757572590064400,8.331064453125,-1.1389280425727366,-8.666734699955581,-0.6380627065423876
1789757572600078000,8.341078125,-0.5172037457603961,-10.068798715174198,-0.8106872181359678
1789757572610092300,8.35109228515625,0.6186591370880603,-11.228981142699718,-0.4422021346595138
1789757572620106200,8.361106201171875,1.0608392791114747,-12.415366517496109,0.15949059699326754
1789757572630121200,8.371121337890624,1.0596960273604838,-12.423928594136237,0.23377485360503195
1789757572640135200,8.38113525390625,-2.760844769027829,-13.219510816794633,2.2462733445324004
1789757572650149000,8.391149169921874,-6.511119093078374,-10.144639261317252,3.6499627689957617
1789757572660163000,8.4011630859375,-8.836049064087867,-7.574082086345553,4.194936784408986
1789757572670177300,8.41117724609375,-9.550113864010571,-6.428368329155445,4.077129320152103
1789757572680191200,8.421191162109375,-9.401712524047493,-6.414466645053029,3.9989840041980145
1789757572690206200,8.431206298828124,-10.224999330711364,-4.958754626277089,3.236115133617818
1789757572700220200,8.44122021484375,-9.740224932456016,-5.016671393194795,3.257441999284923
1789757572710234000,8.451234130859374,-7.599132940971851,-5.200277902051806,3.079952804264426
1789757572720248300,8.461248291015625,-7.318733114314079,-5.203647670745849,2.8209979166954753
1789757572730262300,8.47126220703125,-0.8050292654395103,-5.319583495911956,0.3673227982314303
1789757572740276200,8.481276123046875,1.6415969939589499,-5.030007844629884,-1.3612798771485686
1789757572750290200,8.491290283203124,3.0649779379725453,-4.340938369753957,-2.8790017773747443
1789757572760305200,8.50130517578125,4.4923616878867145,-3.230904997754097,-4.171062280085683
1789757572770319000,8.511319091796874,4.562499638473987,-3.276649680840969,-4.476712867856025
1789757572780333300,8.521333251953125,6.238350784212351,-1.9355273333191871,-5.253336707544326
1789757572790347000,8.531346923828124,3.5718358654811975,0.8142226257205009,-6.865439311471581
1789757572800361200,8.541361328125,1.902889969086647,2.347878884920478,-8.024663123098016
1789757572810375200,8.551375244140624,2.3907960894964635,3.4848856040418146,-8.386797230112553
1789757572820390100,8.56139013671875,2.4802128871798512,3.4307559544473882,-8.548966398665309
1789757572830404400,8.571404296875,3.7961072699427603,4.04891006462276,-5.614307615998387
1789757572840418000,8.58141796875,0.6582793459452688,3.928163039782643,-3.4831983816072345
1789757572850432300,8.591432373046874,-2.012001062799245,4.101223020184039,-1.6271517044991255
1789757572860446200,8.6014462890625,-0.5135699923679232,4.10040235145092,-1.571468980243802
1789757572870460200,8.611460205078124,1.189094049233198,3.977994699922204,-2.431181145246327
1789757572880474000,8.62147412109375,2.5854253660187125,4.4265281564950945,-3.296848127000034
1789757572890489000,8.631489013671874,2.6907994651600715,4.311840285563469,-3.5101384109809994
1789757572900503000,8.6415029296875,6.0110319748789065,5.48815434820056,-3.4648253973096605
1789757572910517200,8.651517333984375,5.751550433087349,6.119897423267364,-3.4557825514152642
1789757572920531200,8.66153125,5.914282496219873,5.969046352064609,-3.647862581846118
1789757572930545200,8.671545166015624,3.876252527542412,7.146658053296804,-3.835838684089482
1789757572940559000,8.68155908203125,3.7149975512251254,7.240510056948661,-3.7957360985428092
1789757572950574000,8.691573974609375,3.382628467877209,7.045636304146051,-3.501411206907034
1789757572960588300,8.70158837890625,2.91318607878834,6.951055401697754,-3.665114745420217
1789757572970602200,8.711602294921875,3.4001755227446555,7.171167056131362,-4.988600898486376
1789757572980616200,8.7216162109375,5.154001888567209,7.591943321728706,-6.680121907043457
1789757572990630100,8.731630126953124,7.092703760269284,8.079379632669687,-7.451980724287033
1789757573000644000,8.74164404296875,7.796487989196181,8.107614962550997,-7.028738360837101
1789757573010658300,8.751658203125,7.657551812192797,7.984924402427673,-6.03877747541666
1789757573020673300,8.76167333984375,7.565092724204063,8.068788680550455,-5.9986874570906155
1789757573030687000,8.77168701171875,7.258602178478241,8.06038793195188,-5.319449640399217
1789757573040701200,8.781701171875,3.3820360549420116,9.065079938036202,-5.7971092382133005
1789757573050715100,8.791715087890625,0.3648015726581216,9.426329078909754,-7.37790777233839
1789757573060729300,8.801729248046875,-6.466280418920516,8.821184672433137,-9.610257074806094
1789757573070743000,8.811742919921874,-4.393659613855183,6.166991182875633,-8.044206612479686
1789757573080758000,8.821758056640626,10.540594389390945,2.0383090778797865,-4.090364649300277
1789757573090772200,8.831772216796875,11.75343288682699,-2.738578576683998,-3.6316301167085765
1789757573100786200,8.8417861328125,11.345340746235847,-2.5480834773570296,-3.386959190557897
1789757573110800400,8.85180029296875,-1.2031227207161486,-28.186010262346265,2.279744383110106
1789757573120814000,8.86181396484375,-1.4819699111044407,-28.11861722655296,2.3620593859642742
1789757573130828000,8.871828125,-7.177338438242673,-46.64459895970821,6.115543904232979
1789757573140842200,8.88184228515625,-4.307166448533534,-36.871498178088665,6.175422326612472
1789757573150857200,8.891857177734375,-9.251803117609024,-18.2951096152544,3.203276693855226
1789757573160871200,8.90187109375,-1.6154969225406646,-7.608215242093801,-0.07063274836689233
1789757573170885000,8.911885009765625,-0.8830594305813312,-1.882471450436115,-1.3361596105478704
1789757573180899000,8.921899169921875,-0.391358447933197,1.166074408173561,-2.159524012492597
1789757573190913300,8.931913330078125,1.045607953840494,2.7679636611223217,-2.385363543053716
1789757573200927200,8.94192724609375,1.3760288257300852,3.809674023002386,-2.1745516318850218
1789757573210942200,8.951942138671875,1.0768272679686546,4.526797041451931,-1.8194291571982204
1789757573220956200,8.9619560546875,1.176237928660959,4.549297042551636,-1.5280878114178775
1789757573230970000,8.97197021484375,-0.7615209631025791,4.764222234258056,-1.125596924899891
1789757573240984300,8.981984375,-0.06595993425026536,3.04232771474719,-0.438636331936717
1789757573250998300,8.991998291015625,-0.03875833133086562,3.045941229069233,-0.24209086479591205
1789757573261012000,9.002011962890625,2.0190029043853284,-0.41571196794509885,1.0339409699875861
1789757573271026200,9.012026123046875,1.9438136617578565,0.028431144714355466,1.2289479207158087
1789757573281041200,9.022041259765626,1.7984953825019299,1.6861492523908614,1.1065904650043696
1789757573291055000,9.03205517578125,1.6135374590359628,3.0093478206872937,1.050087364276871
1789757573301069300,9.0420693359375,1.5478022734522818,3.681103757190704,1.3763190408483146
1789757573311083000,9.0520830078125,1.696097814953327,4.21715241560936,1.7159509548060594
1789757573321097200,9.06209716796875,1.6162698066093026,4.2210178588658565,1.8211024972379206
1789757573331111200,9.072111083984375,1.9180068741977214,5.563934688588977,2.562766082704067
1789757573341126100,9.082126220703126,1.1470271048109977,6.345950158187747,3.059919193278253
1789757573351140400,9.092140380859375,-0.3836147019386291,7.289222357669472,3.3777371887043115
1789757573361154000,9.102154052734376,-1.1632979291975498,7.701144870203733,3.5986963998779653
1789757573371168300,9.112168212890625,-0.6633890901744365,7.596936307710409,3.7653783696800467
1789757573381182200,9.12218212890625,0.5439713046440854,7.277521398481726,3.9709167243599888
1789757573391196200,9.132196044921875,0.4226257293889299,7.273163203272223,4.043125636002421
1789757573401210400,9.14221044921875,2.654733587783575,6.68423811019063,4.418909790445864
1789757573411225000,9.15222509765625,2.9022675021499396,5.998329145172238,4.586618765208125
1789757573421239000,9.162239013671876,2.748865577420592,5.989512801510095,4.642236607533693
1789757573431253200,9.172253173828125,1.4705997913062572,2.952292639034986,4.939819039660692
1789757573441267200,9.18226708984375,-0.29229955982062966,0.9248644361317158,5.34290591931045
1789757573451281200,9.19228125,-0.4496089768499136,0.9160743959546088,5.341156445294618
1789757573461295000,9.202295166015626,-5.931058858975768,-2.597975927773118,3.5745611987918613
1789757573471310000,9.21231005859375,-5.200958870053291,-4.3482355410248035,2.180694956945628
1789757573481324300,9.22232421875,-4.630108947366476,-6.701081108441948,0.8161576854363083
1789757573491338200,9.232338134765625,-4.655338665691017,-9.070367523050308,0.1116644314572215
1789757573501352200,9.242352294921876,-3.5885470540463924,-11.325548835051059,-0.041952158936113114
1789757573511366000,9.252365966796875,-2.733190453904867,-13.56983933520317,-0.22116540127024054
1789757573521379800,9.2623798828125,-2.756258610281348,-13.577925611025094,-0.18688304630964994
1789757573531394000,9.27239404296875,-3.1511984238326547,-15.840734933686255,0.09301452991440892
1789757573541409000,9.282408935546876,-2.636109551334381,-15.587372751557826,1.2652023064017295
1789757573551422700,9.292422607421875,-2.6246792257815597,-15.592895314371585,1.3084585336737333
1789757573561437000,9.30243701171875,-1.1836387064367533,-12.176105341434479,4.258912412974238
1789757573571451000,9.312450927734375,-4.7059506625533105,-6.720422937771677,5.618813695245981
1789757573581465000,9.322465087890626,-4.588002328521013,-6.704577133864164,5.603139156252145
1789757573591478800,9.332478759765625,-4.440231687676906,-6.681149496525526,5.548692111271619
1789757573601493800,9.34249365234375,-6.65247752879262,-5.846616488704085,5.50644871430397
1789757573611508000,9.352508056640625,-7.864612261873483,-5.934786355066299,4.901573187896609
1789757573621522000,9.36252197265625,-8.829284392258524,-6.400797016140818,4.167627921722829
1789757573631536000,9.3725361328125,-8.421867374449969,-6.985205508580804,3.605395897516608
1789757573641549800,9.3825498046875,-5.510070411932468,-7.387079505309462,3.000600742869079
1789757573651563800,9.392563720703125,-1.2531576483428477,-7.346577399051189,1.7826174298904836
1789757573661579000,9.4025791015625,2.3653730405569076,-6.9080287453979246,0.2554277911550365
1789757573671593000,9.412593017578125,4.203595014899969,-6.235025439181923,-0.9700411100722849
1789757573681607000,9.42260693359375,4.82410007211566,-5.5703936554700135,-1.9246347679048776
1789757573691620900,9.432620849609375,5.4570823335886,-4.787065934228897,-2.758663917857408
1789757573701634800,9.442634765625,6.047919397771358,-3.370679379147291,-3.825007201212644
1789757573711649000,9.45264892578125,5.778648867893219,-2.0264882917046547,-4.823944004771113
1789757573721663000,9.4626630859375,4.380848939859867,-0.5564549021095038,-6.093668172511458
1789757573731678000,9.472677978515625,1.4766624523460865,1.686992717477679,-7.706684968674183
1789757573741692000,9.48269189453125,-0.31707404519096016,3.879900236395001,-9.042085431417823
1789757573751705900,9.492705810546875,0.32960590224489567,5.3290720397472375,-9.169259274435042
1789757573761720000,9.502719970703126,1.168582153210789,5.994974574047327,-8.12717306497991
1789757573771734000,9.512734130859375,-0.4720457034550607,5.595694685465097,-5.359523292112351
1789757573781748000,9.522748046875,-0.2887172808870673,5.522371090579033,-5.493110509303212
1789757573791763000,9.532762939453125,-0.3051962681315839,5.089774038806557,-4.763288168278336
1789757573801777000,9.54277685546875,1.1532418146073817,4.986040692609548,-4.075649895249307
1789757573811790800,9.552790771484375,2.7108161250114438,5.195946594849229,-3.6319644632294774
1789757573821805000,9.56280517578125,3.568001109623909,5.702686741197109,-3.325454628281295
1789757573831819000,9.572819091796875,4.854473583069443,6.082116850927472,-2.8452187502384185
1789757573841833000,9.5828330078125,5.498574035406112,6.701653939893841,-2.4192937235757705
1789757573851847000,9.592846923828125,4.857305007103085,7.316149527561664,-2.5704101677164433
1789757573861862000,9.60286181640625,3.8033237771928308,7.747538957110047,-3.33836116386652
1789757573871876000,9.6128759765625,3.024924744525552,8.019474322283267,-4.314833622160553
1789757573881889800,9.622889892578126,2.5906620976284143,8.316222641673683,-5.031477917182445
1789757573891904000,9.632904052734375,3.0014293026477095,8.90663475844264,-5.990059329476952
1789757573901918000,9.64291796875,4.130713610823452,9.517355503746867,-7.05104663875699
1789757573911932000,9.652931884765625,5.811020274665951,9.647094813337922,-7.169054594022035
1789757573921947000,9.66294677734375,8.551551154461503,9.501410915639996,-6.340210737752914
1789757573931960800,9.6729609375,11.257089631330967,8.715135450509191,-5.044482944706082
1789757573941974800,9.682974853515624,12.750292884111404,7.9435437597692005,-3.7955686330214142
1789757573951989000,9.692989013671875,12.005414428251981,7.769052869781851,-3.0437589165940877
1789757573962003000,9.7030029296875,7.8248706185936925,8.31889624479711,-2.8961911048457023
1789757573972017200,9.71301708984375,-5.2567339487671845,9.71561831446588,-4.853147887423634
1789757573982030800,9.72303076171875,-6.940176864808797,6.87316201467812,-6.482319699573517
1789757573992045800,9.7330458984375,6.323627267220616,3.1528023518979547,-5.392138444513082
1789757574002060000,9.74306005859375,9.064687139326333,0.17383914808034895,-5.814088430064916
1789757574012074000,9.753073974609375,6.968012966239452,-8.574783561488985,-5.52036150432229
1789757574022088000,9.763087890625,0.7535738034904003,-21.71860756139755,-3.5658424702852964
1789757574032102000,9.773101806640625,-10.606369468593597,-36.355673977053165,-0.7133727260053158
1789757574042115800,9.78311572265625,-6.453902583384513,-45.89403076777458,-0.2593970783784985
1789757574052130800,9.793130859375,-6.2288639939427375,-39.84006741366386,1.4960484130784868
1789757574062145000,9.80314501953125,-5.2210079708695405,-21.153758340430258,1.9267089438304303
1789757574072159000,9.813158935546875,-1.125032715145871,-9.131919431599973,0.1565659417182207
1789757574082173000,9.8231728515625,-1.7821137181520461,-3.4297102447867394,-0.36252222954928875
1789757574092187000,9.833186767578125,-0.4159283141095191,-0.014027356308698653,-0.9354530501633882
1789757574102201000,9.843201171875,0.7184358546137809,1.686409364631772,-1.089134157160297
1789757574112215000,9.853215087890625,0.8216789330758154,2.9886902325838802,-1.0212423780646174
1789757574122230000,9.86322998046875,0.43252500944957134,3.969513871824741,-0.7970433812521398
1789757574132244000,9.873243896484375,0.013120032205432652,4.409522661158443,-0.5085459536608308
1789757574142258000,9.8832578125,0.1169125612437725,4.15689405400157,-0.004109611292893532
1789757574152272000,9.89327197265625,0.799589704734087,2.895236872860789,1.0265580931946634
1789757574162286000,9.9032861328125,1.8107132051706314,1.0639029044657946,2.142119873227179
1789757574172299800,9.9132998046875,2.1298411141514775,0.4908288759887218,2.82675195017755
1789757574182314800,9.923314697265624,1.6005413454711437,1.1629109757065772,3.097251437328756
1789757574192329000,9.933328857421875,0.8358663022518158,2.2532845384687183,3.0032185241520404
1789757574202343000,9.943343017578124,0.6655552552323788,3.1070880639493463,2.9382243661940097
1789757574212357000,9.953357177734375,0.8719710503339767,3.6002673024564977,2.93522050820291
1789757574222370800,9.963370849609374,0.9302128844875842,4.107442917612195,2.8990213598355647
1789757574232385000,9.973385009765625,0.8032944775361567,4.679321014302968,2.869122772917151
1789757574242400000,9.98339990234375,0.8509118226271122,5.336742720505595,3.08406666932404
1789757574252414000,9.9934140625,0.47202590277604756,6.090629243206977,3.437425933730602
1789757574262428200,10.00342822265625,-0.34846272453665733,6.801876063099503,3.6591289490088816
1789757574272441900,10.01344189453125,-0.9251543589890002,7.32770143366754,3.7899955090641972
1789757574282455800,10.023455810546874,-0.8453858257472514,7.581758027800917,3.9055414581298824
1789757574292470000,10.033469970703125,-0.4435889859080314,7.6744345579326145,4.038730031391978
1789757574302484000,10.04348388671875,-0.4768529576063156,7.71176154128611,4.031235291722417
1789757574312499000,10.0534990234375,-0.5252186368465424,7.739467878857255,3.722005676421523
1789757574322513000,10.063512939453124,-0.01459376715295948,6.996299734047055,3.3866482249125838
1789757574332526800,10.07352685546875,0.6395499494254588,5.162325480276346,3.3904683677226304
1789757574342541000,10.083541015625,0.6891846256881952,3.2002824804753063,3.8993443570554254
1789757574352555000,10.093554931640625,0.31720015578866,1.539775034341216,4.5730420752763745
1789757574362569000,10.10356884765625,-0.3607587270081043,-0.107937227627635,4.953462949609756
1789757574372583000,10.1135830078125,-1.1834160035967827,-1.5267729294270276,4.719165533435344
1789757574382598000,10.123597900390624,-1.6609680493831633,-2.4703707076013086,4.03074429333508
1789757574392612000,10.133612060546875,-1.0673446424175053,-3.6858325392782687,3.370594038951397
1789757574402626000,10.1436259765625,-0.6198791073370724,-5.231576126635074,2.563336576068401
1789757574412639700,10.1536396484375,-1.517889365747571,-7.432280583038926,1.7171726055555045
1789757574422654000,10.163654052734374,-2.969951045322418,-10.002553680372237,0.9220129922233521
1789757574432668000,10.17366796875,-4.030063325333595,-12.552709287828206,0.05022431271895766
1789757574442683000,10.183682861328125,-4.151992837956548,-14.722069926941394,-0.6962059026271105
1789757574452697000,10.193697021484375,-3.1545524104356764,-16.15219976069331,-1.1505297791697084
1789757574462710800,10.203710693359374,-1.6975680336363612,-16.83305787206292,-0.7665387912645936
1789757574472725000,10.21372509765625,-0.3354087433047592,-16.59487572340965,-0.14126345090717077
1789757574482739000,10.223739013671874,0.15136004363819955,-13.985800309473275,0.8556311792992055
1789757574492753200,10.233753173828125,-1.5049141488403082,-9.817712661284208,2.44883662892431
1789757574502766800,10.243766845703124,-4.614093632110953,-7.785538725158572,3.6060900172606107
1789757574512781800,10.25378173828125,-7.229959436839819,-6.937777402451634,4.240293637222051
1789757574522796500,10.263796630859375,-8.73255595638752,-6.573471212095022,4.45921052891314
1789757574532810800,10.273810791015626,-9.227037509664893,-6.457571042764187,4.1170378444314
1789757574542824700,10.28382470703125,-8.899909249579906,-6.511885401275753,3.487495494279265
1789757574552838700,10.293838623046875,-7.223311084866523,-6.669680592527985,2.8431618177086113
1789757574562852600,10.3038525390625,-4.252779024785757,-6.680232381680607,1.917032183946669
1789757574572867600,10.31386767578125,-0.6379764895636588,-6.356701269304752,0.6739565883528441
1789757574582881800,10.3238818359375,2.7608663963377476,-5.797432478818297,-0.7835781888708472
1789757574592895700,10.333895751953126,4.698759874266385,-5.080924961918592,-2.0389156654708085
1789757574602909400,10.343909423828125,5.665429315948486,-4.160633825051784,-2.9682994787231087
1789757574612923600,10.353923583984376,6.322551162421703,-2.9894904430508613,-3.7623698355138298
1789757574622937600,10.3639375,6.793053874218463,-1.3299240771591663,-4.454292653994262
1789757574632951800,10.373951904296876,6.539982783991098,0.1658247684508562,-4.878311262513697
1789757574642966800,10.383966796875,5.338187074095011,1.40673668320477,-5.404363135313988
1789757574652980500,10.39398046875,2.6777789478063583,3.260834272071719,-5.951765546917915
1789757574662994700,10.40399462890625,-0.054606911717355246,5.229098922866583,-6.25452216681242
1789757574673008600,10.414008544921876,-0.49532165736332534,6.616843905353546,-5.964244504740834
1789757574683022800,10.42402294921875,-0.19943433871641755,6.916299145615101,-4.838676294478773
1789757574693036500,10.43403662109375,-0.6184044316746294,6.591442337593436,-3.5739877828180786
1789757574703051500,10.444051513671875,-0.6302922917366027,5.654141029214859,-2.523161217546463
1789757574713065700,10.454065673828126,0.3851894039094448,4.759150337821245,-1.8697469934195279
1789757574723079700,10.46407958984375,1.9371999427065252,4.228101095125079,-1.9456670345395801
1789757574733093600,10.47409375,3.169799663928151,4.4496880828082555,-2.5741134061485527
1789757574743107600,10.484107666015625,3.6581224023148415,4.986830966204405,-3.247650673110783
1789757574753121500,10.49412158203125,4.092581740827859,5.797196916496754,-3.8376737905621527
1789757574763135700,10.5041357421875,4.417334796214104,6.692316787227988,-4.240464025352895
1789757574773150700,10.514150634765626,4.321539841800928,7.270088033610582,-4.507321356609464
1789757574783164700,10.52416455078125,3.9938758674040433,7.65799429526329,-4.551565864266455
1789757574793178600,10.5341787109375,3.0916265831843015,7.743160888156295,-4.5923318821579215
1789757574803192600,10.544192626953125,2.1656664607703684,7.732606176394223,-4.747340949822962
1789757574813206800,10.554206787109376,1.3515452495977283,7.924998633775115,-5.45074085560739
1789757574823220700,10.564220703125,1.931407623040676,8.395217267933488,-6.680360391974449
1789757574833234400,10.574234375,3.6038562668591734,8.90152545260489,-7.679483073493838
1789757574843249700,10.584249755859375,5.852763905417919,8.769695308214425,-7.677042110082507
1789757574853263600,10.594263671875,7.849841978242993,7.983240394863486,-6.5779480652481315
1789757574863277600,10.604277587890625,9.393341586065292,7.1258607644617555,-5.285260370549559
1789757574873291800,10.614291748046876,9.700608376860618,6.559549069726467,-4.477335675929487
1789757574883305500,10.624305419921875,7.281532972210646,6.769511086067557,-4.4170200311765075
1789757574893319700,10.634319580078126,-0.36178105579316616,7.28255062482059,-6.008930034163594
1789757574903334700,10.644334716796875,-6.233762287378311,6.206655669265985,-8.346064822229742
1789757574913348600,10.6543486328125,4.884305534492433,3.808983702650666,-6.983778106126189
1789757574923362800,10.66436279296875,11.062729088747501,0.5425403585255145,-5.615024824357032
1789757574933376500,10.67437646484375,3.13992416562438,-7.598516270378232,-4.582175229802727
1789757574943390700,10.684390625,-5.191669648182391,-20.635018544209004,-0.9022615591794252
1789757574953404700,10.69440478515625,2.0719535733282566,-30.393653578102587,0.5673524359598755
1789757574963418600,10.704418701171875,-1.5408745200157166,-40.84485118968487,3.181899851566553
1789757574973433900,10.714433837890626,-10.701581070160865,-40.94285914397239,7.032431370136141
1789757574983447600,10.724447509765625,-6.164650757229328,-23.419355832505225,5.387040244591236
1789757574993461500,10.73446142578125,-2.7856816886425015,-10.02504140651226,1.9198833355940876
1789757575003475700,10.744475830078125,-2.110147402644157,-4.326021371129155,0.1003863738566637
1789757575013489700,10.75448974609375,0.12995784771256147,-1.0041367102891205,-1.2094766197875142
1789757575023503600,10.764503662109375,1.6232593732357024,0.881114726254344,-1.7757899219579993
1789757575033518600,10.7745185546875,2.237382620459795,2.0356775603324175,-1.8445462089285254
1789757575043532500,10.784532470703125,2.01808520501852,2.9012101020514964,-1.7191040120095014
1789757575053546800,10.794546630859376,1.204050649216026,3.5593496011346577,-1.45469042064324
1789757575063560700,10.804560791015625,0.06637815966233611,3.863058991709351,-1.1438999127011746
1789757575073574700,10.81457470703125,-0.6259118846952915,3.29960619353652,-0.6203506703715771
1789757575083588600,10.824588623046875,0.05696034297570586,1.218914017957449,0.7081402321793139
1789757575093602600,10.8346025390625,1.132647939389944,-0.2821528078049421,1.8124530345752834
1789757575103617800,10.84461767578125,0.9923091290470212,-0.6391741018503904,5.023510299304127
1789757575113631700,10.8546318359375,1.8317349504113196,-0.37856735542118547,7.889695265203714
1789757575123645400,10.8646455078125,2.7947978920340537,0.43695349341630935,4.514622911794484
1789757575133659600,10.87465966796875,3.4169489628911016,2.317128357347846,2.2936836227439343
1789757575143673600,10.884673583984375,3.2093641970753666,3.8575340908080338,0.7905053577855229
1789757575153687800,10.894687744140626,0.5201706692745909,5.283790882518887,0.3999212552256882
1789757575163701500,10.904701416015625,-3.9006607003509997,6.770161658930778,0.5615043675187975
1789757575173716500,10.914716552734374,-4.676578437596559,7.546271703878045,0.8373486497640609
1789757575183730700,10.924730712890625,-2.715418650370836,7.534343365675211,1.116116125979647
1789757575193744600,10.93474462890625,-0.6749193689703941,7.413606862229108,1.717751574487239
1789757575203758600,10.944758544921875,0.5252057773649692,7.546321972760557,2.253535298359394
1789757575213772500,10.9547724609375,0.7729752540528774,7.607535443136095,2.6929578122377396
1789757575223786500,10.964786376953125,0.22481413303613662,7.692717818120122,2.968078821709752
1789757575233800700,10.97480078125,-0.6048813716262579,7.763675852918625,3.2442885032013056
1789757575243815700,10.984815673828125,-0.8067395764887333,7.529072731795907,3.6980508003383874
1789757575253829600,10.99482958984375,0.1366700039033778,6.835168676370382,4.0513407989010215
1789757575263843600,11.004843505859375,1.4911030656307935,5.774091350719332,4.518080943293869
1789757575273857500,11.014857421875,2.727202027145028,4.579399335348606,4.997175834608078
1789757575283871700,11.024871826171875,2.9316151771873233,3.3362820195049046,5.511280956766009
1789757575293885700,11.0348857421875,1.8936054233908652,1.887145287466049,5.849874613717198
1789757575303900700,11.044900634765625,-0.43830607706904406,0.2471054598212242,5.343780364057421
1789757575313914600,11.05491455078125,-2.2922703949451444,-1.555976227557659,5.03180408039689
1789757575323928600,11.064928466796875,-2.5781606357127425,-3.2553707459688184,4.452867297366261
1789757575333942500,11.074942626953124,-3.2236072419613597,-5.069661809626221,3.377455156892538
1789757575343956700,11.084956787109375,-5.258408019459247,-7.317364164048433,1.9379662509039044
1789757575353970700,11.094970703125,-6.963959306934475,-9.754014388355612,0.3208436268575489
1789757575363984600,11.104984619140625,-5.829460186719894,-11.647608705830573,-1.028290469945222
1789757575373999600,11.11499951171875,-3.124965081423521,-12.943126655519007,-1.6626368593782186
1789757575384013600,11.125013671875,-1.5265806217253208,-14.035815509486197,-1.884693656530231
1789757575394027800,11.13502783203125,-1.0762515139073132,-14.780201797914504,-1.5083705729044974
1789757575404041500,11.14504150390625,-0.8788409361034631,-15.203005185425281,-0.7346165895640849
1789757575414055700,11.1550556640625,-1.0206430239319801,-14.993115065276623,0.21129618755429982
1789757575424069600,11.165069580078125,-2.4702199009537695,-12.693128981387614,1.115760517475009
1789757575434083600,11.17508349609375,-5.077407893708348,-9.284592457532883,1.9999447143025695
1789757575444098800,11.185098876953125,-7.472794964256882,-7.508372473594546,2.4413474422127006
1789757575454112500,11.195112548828124,-9.131549429243803,-6.584132891362905,2.739130365347862
1789757575464126500,11.20512646484375,-9.99531496129036,-6.430868913799524,3.1907407451480627
1789757575474140700,11.215140625,-10.513332288455963,-7.050659685266018,3.7027813359916206
1789757575484154600,11.225154541015625,-9.33998701249659,-7.946321992310881,3.884483472532034
1789757575494168800,11.2351689453125,-5.288662872469425,-8.172621979990602,3.513424885305762
1789757575504182500,11.2451826171875,0.006952449486404657,-7.733035799983143,2.3735341351807118
1789757575514197500,11.255197509765624,4.340277275496721,-6.956344740277529,0.848288561451435
1789757575524211000,11.2652109375,6.122186410987377,-6.291971899762749,-0.1289989304193761
1789757575534224600,11.275224609375,6.36397739778757,-5.390508797484636,-0.92194708738029
1789757575544238800,11.28523876953125,6.760222448718547,-4.203980799347162,-1.5709648301139474
1789757575554252800,11.295252685546876,6.713265467232465,-2.767064081934094,-2.2794632280811666
1789757575564267000,11.30526708984375,6.386026732510328,-1.7067407895207405,-3.38049116358757
1789757575574282000,11.315281982421874,5.635758984827995,-0.7545289122581481,-4.774651273813843
1789757575584295700,11.325295654296875,4.001270946091413,0.9611609073936939,-6.355348685652017
1789757575594310000,11.335309814453124,-0.33290625896453857,2.882857283759117,-7.963496998995542
1789757575604323800,11.34532373046875,-2.963183450883627,4.546764309203624,-8.61858470929265
1789757575614338000,11.355338134765624,-3.218826437425613,5.33636044318974,-7.430466811615228
1789757575624351700,11.365351806640625,-3.864744168317318,5.3094829576581715,-5.667968479037285
1789757575634365700,11.37536572265625,-3.003455840039253,4.5954964836686845,-4.3450481431603425
1789757575644381000,11.385380859375,0.035579993555694814,4.187337707582116,-3.9298236664712425
1789757575654395000,11.395394775390624,3.304389920681715,4.178746989369392,-3.7245150288939475
1789757575664408800,11.405408935546875,4.803615794752538,4.486314808937907,-3.18464651992619
1789757575674422800,11.4154228515625,3.7162405370235443,5.207978393426537,-2.7722183959573505
1789757575684436700,11.425436767578125,2.4625679248958825,5.975354512298106,-2.630234521821141
1789757575694451000,11.435450927734376,1.9524153397560118,7.082088258230685,-2.8673958029940723
1789757575704465000,11.44546484375,1.7293781532645225,8.032744138222933,-3.6968159978464246
1789757575714479900,11.45547998046875,1.8841127879023551,8.165631682711838,-4.764001577244699
1789757575724493800,11.465493896484375,2.350351120252907,8.157891443848609,-5.70779429346919
1789757575734507800,11.4755078125,2.735287426184118,7.973663588222861,-6.3891907494992015
1789757575744522000,11.48552197265625,3.1731966128900644,7.6258011676669115,-6.726776106190681
1789757575754536000,11.495535888671874,3.574710544134676,7.3524974367499345,-6.723539608487487
1789757575764549600,11.505549560546875,3.692346451216936,7.416404968515038,-6.721117934298515
1789757575774563800,11.515563720703126,3.7774604371398683,7.3042001465708015,-6.603971564298868
1789757575784578800,11.525578857421875,4.507841581091284,7.2660764598816625,-6.318645387154818
1789757575794592800,11.5355927734375,5.246594247546792,7.3929668097823855,-6.0667123610466716
1789757575804607000,11.54560693359375,5.449526803642511,7.32951111343801,-5.746464508125186
1789757575814620700,11.55562060546875,5.913780976438522,7.159723871096968,-5.135290173834562
1789757575824635000,11.565634765625,6.12085603916645,6.564847176134586,-4.308685036402941
1789757575834648800,11.57564892578125,4.861927113945782,5.5933980989605185,-3.316312413665652
1789757575844662800,11.585662841796875,1.4815546083018183,4.3657858107626435,-1.8210449218317866
1789757575854678000,11.595677978515624,-1.264693772357702,3.6239334247261286,-1.1391107056632637
1789757575864691700,11.605691650390625,2.229263611412048,3.00629603190124,-2.952218112494051
1789757575874705700,11.61570556640625,7.819844899386167,1.1725661082804202,-3.8102693585470315
1789757575884719900,11.625719970703125,10.345379275804758,-1.199690846571326,-2.6934946955934165
1789757575894733800,11.63573388671875,-3.29264921400547,-8.811293977537751,0.5869233978703617
1789757575904747800,11.645747802734375,-9.362115257674455,-18.890199660706518,4.5834661463961
1789757575914761700,11.65576171875,6.39396804690361,-25.21439216059446,3.698896311251819
1789757575924776700,11.665776611328125,6.557645281931758,-34.25058853397369,6.15795155185163
1789757575934791000,11.675791015625,-7.187949264106154,-34.1649280200839,9.448386596938967
1789757575944804900,11.685804931640625,-13.710582853889465,-17.075662513333558,5.058888486677408
1789757575954818800,11.69581884765625,-3.277535816025734,-5.796484968835115,0.5721317791908979
1789757575964832800,11.705832763671875,-1.983327779892087,-0.8786264165699481,-1.114788749833405
1789757575974846700,11.7158466796875,-3.39158772714138,2.5952894651681184,-1.8600205491751431
1789757575984862000,11.725862060546875,-1.4291770630717278,4.446722803261876,-1.9611612485304473
1789757575994876000,11.7358759765625,0.18951487438427284,5.054457226231694,-1.9176590836733578
1789757576004889600,11.7458896484375,0.1406850664973259,5.192951504686475,-1.972772629738599
1789757576014903800,11.75590380859375,-0.282930806440115,5.1507618837326765,-2.11984958923012
1789757576024917800,11.765917724609375,-0.3713852984299883,4.694591064149141,-2.312672546982765
1789757576034932000,11.775931884765624,-0.2084428256834857,3.6266456062942742,-2.497116091185808
1789757576044945700,11.785945556640625,0.2384089796790853,1.8036720544874667,-2.5293460436612367
1789757576054960600,11.795960693359374,0.45540100425481794,0.03563245439529419,-2.414728753747791
1789757576064974800,11.805974853515625,0.5392705430746079,-1.3863561584770678,-2.2082234537318346
1789757576074988800,11.81598876953125,0.7083961066365242,-2.276523959758878,-1.8494252131417392
1789757576085003000,11.8260029296875,0.7896908265322446,-2.5261744278877973,-1.4659119257509707
1789757576095016700,11.8360166015625,0.8036889567464589,-2.1703233466655014,-1.1549147162556648
1789757576105030700,11.84603076171875,0.8459042966634035,-1.5670219377070664,-0.8923404691457748
1789757576115044900,11.856044921875,0.8951759848326444,-0.8725748614460229,-0.6393911786671728
1789757576125059800,11.866059814453125,0.742912124222517,-0.04445756588578224,-0.4313953112998977
1789757576135073800,11.87607373046875,0.5213876438489183,0.8058943578362464,-0.20688052653651684
1789757576145087700,11.886087646484375,0.32667233301103116,1.6485919674128293,0.09200509714353829
1789757576155101700,11.896101806640624,0.09736965638399124,2.383077039551735,0.4201949585780501
1789757576165116000,11.906115966796875,0.00940904885828495,2.990364887797832,0.635258755037561
1789757576175129900,11.9161298828125,0.028133623072504995,3.589553016218543,0.8940950577281415
1789757576185143800,11.926143798828125,0.03975618326179683,4.069568821769953,1.2328238853663205
1789757576195158800,11.93615869140625,0.07521225817687809,4.471486657640337,1.6044837994866072
1789757576205172700,11.9461728515625,0.10060856523998081,4.844363692465424,2.220343515114486
1789757576215187000,11.95618701171875,0.4104682220727205,4.916064070063829,2.819021063664555
1789757576225201000,11.966200927734375,1.1474842009287327,4.686514725199341,3.2761762181103227
1789757576235214600,11.976214599609374,1.4741776497930288,4.483942234587669,3.841983470454812
1789757576245228800,11.986228759765625,1.623554556789994,4.236229456523061,4.184401069608331
1789757576255242800,11.99624267578125,1.5766085350893437,3.8634184726715084,4.418260678887367
1789757576265257700,12.0062578125,1.3656615993641317,3.4431618470340966,4.507878990492224
1789757576275272000,12.01627197265625,1.056910999751836,3.0387375813007353,4.471692701606452
1789757576285285600,12.02628564453125,0.6293430281877518,2.737103827956319,4.375951230946183
1789757576295299800,12.0362998046875,0.26829160184338685,2.492331194996834,4.311415338149667
1789757576305313800,12.046313720703125,-0.08986088818907738,1.9376222597718238,4.356594788569212
1789757576315328000,12.056327880859374,-0.5724390915744006,0.6552408550322055,4.350985131993889
1789757576325341700,12.066341796875,-1.150381310609728,-1.5430664771020413,4.574463340251148
1789757576335356700,12.076356689453124,-2.230163921252638,-4.519107071471214,5.096307824489474
1789757576345371000,12.086370849609375,-4.363451230335236,-7.5871858980685465,5.464605714830756
1789757576355384800,12.096384765625,-8.100505422806739,-9.25583865673542,5.044194775414467
1789757576365398800,12.106398681640625,-14.892906970596313,-7.11266635184586,2.0390964288651943
1789757576375412700,12.116412841796874,-14.602583131295441,-3.5075194606542586,-0.46188744366466994
1789757576385426700,12.1264267578125,-5.6995279849052425,-2.2567975150257347,0.8004844616167247
1789757576395441000,12.13644091796875,-0.2886307716473937,-1.4021277281045912,1.9056264083132146
1789757576405456000,12.146455810546875,0.7321013918727636,0.029909400573372838,2.3730770390629767
1789757576415469800,12.1564697265625,0.0407895448975265,1.9851655167132616,3.093827015838027
1789757576425483800,12.16648388671875,-0.49895957547426223,4.2262616047382355,4.437292711615562
1789757576435497700,12.176497802734374,-0.38215821952000256,3.894872764599323,5.379171410912275
1789757576445512000,12.186511962890625,-0.4834317514747381,2.2429262260615825,5.7174488415211435
1789757576455526000,12.19652587890625,-0.7830296150773763,0.9000497283488511,6.124349141979217
1789757576465539800,12.206539794921875,-3.895003112980723,-1.2111112352520226,7.133388821879029
1789757576475554800,12.216554931640625,-10.456198780870437,-5.553511494252086,8.339551494812964
1789757576485568800,12.22656884765625,-11.438757865601778,-9.658450904610753,7.65652071557939
1789757576495582700,12.236582763671874,-8.276071833071112,-11.61915651832819,5.564759448975324
1789757576505597000,12.246596923828125,-7.988866418051719,-12.300575770711898,3.259297564023733
1789757576515611000,12.25661083984375,-9.304234146592021,-11.5924672488451,0.6878293386217206
1789757576525625000,12.266625,-8.894197301673888,-10.264702395546436,-1.793040770357847
1789757576535638800,12.276638671875,-6.740226539394259,-9.245704216212033,-3.8430560681223866
1789757576545653800,12.28665380859375,-4.584584629032015,-8.643059809857606,-5.397632950276136
1789757576555668000,12.29666796875,-2.531079735586047,-7.738882187923789,-6.787177675661444
1789757576565682000,12.306681884765625,-0.7968564803779125,-6.331448170104623,-7.927832980418205
1789757576575696000,12.31669580078125,-0.2236947736173868,-5.114226927539706,-8.670118497174977
1789757576585709800,12.326709716796875,-0.6724877579092979,-4.485462576022744,-8.948591739684343
1789757576595723800,12.336723876953124,-1.874235537010431,-4.1949978669464585,-9.342780442607403
1789757576605738800,12.34673876953125,-3.0188135681688784,-4.36075775346756,-9.588086744052172
1789757576615753000,12.3567529296875,-3.1295874805271624,-4.867710665783286,-9.767851775050163
1789757576625767000,12.366766845703125,-2.419753450042009,-5.268374117678404,-10.101976177632809
1789757576635780900,12.37678076171875,-1.0919534523647279,-5.629852975654602,-10.513459714227913
1789757576645794800,12.386794921875,0.6197476629771291,-5.395283172279596,-10.512151554238796
1789757576655809000,12.39680908203125,2.326238130998611,-3.8410926590949295,-9.85314170206189
1789757576665823000,12.406822998046875,3.969458049984276,-1.5202964268893002,-8.58721283495128
1789757576675838000,12.416837890625,5.054766438311338,0.7368325120478868,-7.078637240993976
1789757576685852000,12.426851806640625,4.960938984578847,2.4978818148612976,-5.419902065229415
1789757576695865900,12.436865966796875,4.067210860466957,3.818880827286839,-3.833633575260639
1789757576705879800,12.4468798828125,3.083509912224114,4.707883091920614,-2.5530650651618836
1789757576715894000,12.45689404296875,2.508390349394083,5.3731987662434575,-1.616833139580488
1789757576725907700,12.46690771484375,2.4629227296829224,5.874014198717474,-0.9229171014562249
1789757576735922000,12.476921875,2.785403456223011,6.182850430786609,-0.513807308255136
1789757576745937000,12.48693701171875,3.008116817587614,6.420294912815094,-0.4020730264320969
1789757576755950800,12.496950927734375,2.9062136094272133,6.647412646618485,-0.47406800306290386
1789757576765965000,12.506965087890626,2.695349675810337,6.933445510727167,-0.744987761452794
1789757576775978800,12.516978759765625,2.516775900423527,7.2706988589853045,-1.2523577301368116
1789757576785993000,12.526992919921875,2.4696026458382607,7.6135419900745145,-2.0156959717944263
1789757576796007000,12.5370068359375,2.693991246938705,7.747989623486995,-2.973724134120345
1789757576806020900,12.547020751953125,3.1335879483401774,7.313271341776847,-4.004603305384516
1789757576816036000,12.5570361328125,3.3381700252085924,6.677986648580432,-4.613741749933362
1789757576826049800,12.5670498046875,3.129886755734682,6.247077111503481,-4.78093400734514
1789757576836063700,12.577063720703125,2.5749323213160036,5.759504606962204,-4.882916418221592
1789757576846078000,12.587077880859376,1.8275638022065162,5.110110139870644,-4.853254562668502
1789757576856092000,12.597091796875,0.8614784440226853,4.243137336215376,-4.554111749356985
1789757576866105900,12.60710595703125,-1.634643375428766,2.665658886423707,-3.936324426667392
1789757576876119800,12.617119873046875,-5.306738627386093,-0.17999007192552088,-1.7736894425474106
1789757576886134800,12.627134765625,-8.093270210856199,-3.226989870136976,2.0953205665208396
1789757576896149000,12.63714892578125,-7.233975102221965,-4.955783501511812,5.078232654094696
1789757576906163000,12.647162841796876,-3.7638171117126937,-5.830790558540821,6.325400122112035
1789757576916177000,12.657177001953125,-1.059476320195198,-5.639882202237844,6.6806982456266875
1789757576926190800,12.66719091796875,-1.1342729102432727,-3.2215713522195815,5.963222175955772
1789757576936204800,12.677204833984375,-0.4938438398957252,0.37289457048177715,4.301289080932736
1789757576946219000,12.687218994140625,2.609754628372192,2.697123115223646,3.1154213002696634
1789757576956234000,12.69723388671875,5.925649108886718,4.200072685992717,2.635331552699208
1789757576966247700,12.70724755859375,8.166181717810034,5.160023048552871,2.871389841066301
1789757576976262000,12.717261962890625,6.308557708382606,-1.3956430422604083,3.033819998642802
1789757576986275800,12.72727587890625,-5.539063282182813,-9.637070847451687,6.887699074074626
1789757576996290000,12.7372900390625,-10.019012647742032,-13.535640128481388,13.411037597256898
1789757577006303700,12.7473037109375,-22.36317153959274,-20.959453911948202,17.184420994216204
1789757577016318000,12.75731787109375,-11.097885742324591,-22.943087396788595,10.875422556328774
1789757577026333000,12.7673330078125,-4.618864499774575,-14.96072203119397,-2.7350711530849336
1789757577036347000,12.777346923828125,-10.80767413122654,-3.3135867880940437,-10.480949775767325
1789757577046361000,12.787361083984376,-2.4979712467104194,0.9125970752328634,-7.645059994888305
1789757577056374800,12.797374755859375,3.2006244257807728,2.368555177724361,-5.426404286730289
