time,seconds_elapsed,z,y,x
1789336752516170000,0.098169921875,-0.162238726657629,0.006616203269362449,-0.12186550747603177
1789336752526180000,0.10818017578125,-0.25469839916825293,0.09447627303004265,-0.16176964784115552
1789336752536189200,0.118189208984375,-0.14992343496382235,0.05340250436365604,-0.11415303340256214
1789336752546199000,0.128198974609375,-0.022497078490257262,-0.010852233403921127,-0.02128682591766119
1789336752556208000,0.1382080078125,-0.09969429993927478,0.04206570231318474,0.01516074425280094
1789336752566218000,0.148218017578125,-0.24895021090507505,0.06110182669460773,0.06520166322886943
1789336752576227000,0.15822705078125,-0.2738128494828939,-0.002144610813260078,0.05461977119892835
1789336752586237000,0.16823681640625,0.0458534041583538,-0.09318681774139403,0.059413435216248034
1789336752596246000,0.17824609375,0.12155629539638757,-0.019922844088077544,0.01952916859537363
1789336752606256000,0.188256103515625,-0.21926994291245935,0.1201367839872837,-0.022317338009178636
1789336752616265000,0.198264892578125,-0.392199574932456,0.09174421771764754,-0.029783728367090225
1789336752626275000,0.208275146484375,-0.31595161703228947,-0.028185645520687103,-0.06517594426572322
1789336752636284200,0.2182841796875,-0.12050795538723467,-0.07050736842155456,-0.026582594238221645
1789336752646294000,0.2282939453125,0.048074002817273136,-0.05076163446605205,0.033282384137809276
1789336752656302800,0.238302734375,0.09852116450667381,-0.0005576338827610015,0.029641981808841228
1789336752666313000,0.24831298828125,0.07627601495087147,0.046566520863771436,-0.014229016360640525
1789336752676322000,0.258322021484375,-0.026502807000279426,0.0579617751032114,-0.037111587037146086
1789336752686332000,0.268331787109375,-0.1770826600462198,0.05456921005547046,0.020673370194435117
1789336752696341000,0.278341064453125,-0.20224165122210977,0.04162847993969917,0.06115794079601764
1789336752706351000,0.28835107421875,-0.2654793209016323,0.02205576446354389,0.0173585465580225
1789336752716360200,0.298360107421875,-0.361259077745676,0.011523849055171013,-0.04033259491026401
1789336752726370000,0.3083701171875,-0.26613310863524675,-0.008003858235478402,-0.05943301669955253
1789336752736379000,0.31837890625,0.03318856837451458,-0.020948095482587813,-0.015170973385870456
1789336752746389000,0.328388916015625,0.2530576462239027,0.001585223364830017,0.0027981062859296795
1789336752756398000,0.338398193359375,0.1952545688137412,0.03464928857684135,0.04878448917418718
1789336752766408000,0.348407958984375,-0.13872867173254488,0.07195113748908043,0.059065936952829357
1789336752776417000,0.3584169921875,-0.34039749150276183,0.0592559065669775,-0.04656242921054363
1789336752786427100,0.36842724609375,-0.35028204891830683,-0.01016542018353939,-0.09819207868278026
1789336752796436000,0.37843603515625,-0.241397019046545,-0.05570259799957275,-0.04748860414475202
1789336752806446000,0.388446044921875,-0.1122679503083229,-0.032684125983715055,-0.025347791746258733
1789336752816455200,0.398455078125,0.06338380015194416,0.0408475586950779,0.046888592424988745
1789336752826465000,0.408465087890625,0.11532558431327343,0.07540683090090751,0.11261252596229314
1789336752836475100,0.41847509765625,-0.05184709161520004,0.0547071572214365,0.014491174428164957
1789336752846484000,0.42848388671875,-0.03020779899805784,-0.006631985360383987,-0.07785422405302524
1789336752856493800,0.438493896484375,0.03107785983085632,-0.022705752804875374,0.012003741526603698
1789336752866503000,0.4485029296875,-0.2111982801377773,0.05271627566516399,0.06610124241709708
1789336752876513000,0.458512939453125,-0.46775662795901296,0.06947510276436805,-0.05108107567876577
1789336752886522000,0.468522216796875,-0.3826256909012794,-0.006181903505325317,-0.08155629344135522
1789336752896532000,0.478531982421875,-0.23176176021695136,-0.02801438060700893,-0.03803746971040964
1789336752906541000,0.488541015625,-0.16319821933954953,-0.0031119945406913757,-0.03889087166935205
1789336752916551200,0.49855126953125,-0.07918810300529003,0.033524668461084366,-0.007746668604016304
1789336752926560000,0.50856005859375,-0.05256342319101095,0.03387479707300663,0.04166355125308036
1789336752936569900,0.51856982421875,0.01420914261639118,0.02458849781155586,-0.023078093248605727
1789336752946579000,0.528578857421875,0.11755962697565554,0.0008230068206787109,-0.046021161940693854
1789336752956589000,0.538589111328125,-0.019258242699503898,0.01575111136138439,0.026970424512028694
1789336752966598100,0.54859814453125,-0.19371113876402377,0.04202069412767887,0.020396014557778834
1789336752976608000,0.55860791015625,-0.2346589429631829,0.0148836808770895,-0.024573007981479166
1789336752986617000,0.5686171875,-0.2169613737091422,0.003037175738811493,0.011095979031920432
1789336752996627200,0.578627197265625,-0.23153496572375296,0.016623218020796776,0.04120937774479389
1789336753006636000,0.588635986328125,-0.14598141933977604,0.018541034340858457,0.019996786107122896
1789336753016646000,0.59864599609375,-0.10725392153859138,0.023961890345811844,0.033281215094029905
1789336753026655000,0.608655029296875,-0.17992285190820692,0.03302548676729202,0.008109072175621986
1789336753036665000,0.6186650390625,-0.09809855518043041,0.006518588113784789,-0.03558072420805693
1789336753046674000,0.628673828125,0.0405357162669301,-0.012063947281241416,-0.03256137638688087
1789336753056684000,0.63868408203125,0.15563450608700513,-0.022561375898122786,-0.018764321702718734
1789336753066693000,0.648693115234375,0.14365326865315436,0.008302548921108245,0.052929626154899594
1789336753076703000,0.658702880859375,-0.04006897553801536,0.07837094140350818,0.07322597973048686
1789336753086712000,0.668712158203125,-0.2606160987794399,0.07942191176116466,0.009766483993828297
1789336753096722200,0.67872216796875,-0.3306552651673555,0.015991349858045577,-0.02349135022461414
1789336753106731000,0.68873095703125,-0.38824469982683657,-0.03381634488403797,-0.02403378653824329
1789336753116740900,0.698740966796875,-0.34435879634916783,-0.03666998074948787,-0.0465966237410903
1789336753126750000,0.70875,-0.22828853114843367,-0.016764087796211243,-0.03545622104555368
1789336753136760000,0.718760009765625,-0.07455518250763415,0.021187164935469627,0.0015551204875111579
1789336753146769200,0.72876904296875,0.04376344614177942,0.03876782981157303,0.007706628854572773
1789336753156779000,0.738779052734375,0.04874532620757818,0.03723404437303543,0.006754734957218169
1789336753166788000,0.7487880859375,0.0018923896178603171,0.006406359910964965,-0.06613076077252626
1789336753176798200,0.758798095703125,-0.01791091974377632,-0.004460486540198326,-0.04374328013658523
1789336753186807000,0.76880712890625,-0.14550561852157115,0.009700725281238555,0.004435059837996959
1789336753196817000,0.77881689453125,-0.2184884371459484,0.01473638136088848,0.01250643035173416
1789336753206827000,0.788826904296875,-0.17147271120995283,-0.001402268013358116,0.022144904051721096
1789336753216836000,0.798836181640625,-0.08915858513861893,0.012666589349508284,0.0468950221657753
1789336753226846000,0.808845947265625,-0.1502808700993657,0.022429858472943303,0.024537936668097973
1789336753236855000,0.81885498046875,-0.07600771940350533,0.025190555357933044,0.02815612716525793
1789336753246865200,0.828865234375,-0.10456687441170215,0.02078442935347557,-0.00473608861118555
1789336753256874000,0.8388740234375,-0.15689619658589363,0.02441080315709114,-0.061539925850927824
1789336753266884000,0.848884033203125,-0.17914514553397892,0.0035778584867715833,-0.03302577902823686
1789336753276893000,0.858892822265625,-0.1831570115238428,-0.010828852528333663,-0.034334523539245126
1789336753286902800,0.86890283203125,-0.11286211680918931,-0.015907178705930707,-0.004136953674256801
1789336753296912000,0.878911865234375,-0.03502192128151655,0.00044599020183086393,0.022741116379201412
1789336753306922000,0.888921875,-0.05064063843488693,0.023092121773958203,-0.0066597501501441
1789336753316931000,0.89893115234375,-0.018885317733883855,0.014381576573848724,0.037542671930789945
1789336753326941000,0.90894091796875,0.02480593995451927,0.01620002417266369,0.09666413846313952
1789336753336950000,0.918949951171875,-0.05168342548608779,0.0502934324324131,0.058899055953323835
1789336753346960100,0.928960205078125,-0.0860211638957262,0.03913140242695808,0.01821194851696491
1789336753356969200,0.93896923828125,-0.26328911738097666,0.0014203881919384001,-0.055685939125716684
1789336753366979000,0.94897900390625,-0.540555322188139,0.044862639555335045,-0.238687175565958
1789336753376988000,0.95898779296875,-0.5596124893575907,0.06276712955832481,-0.20360387948602438
1789336753386998000,0.968998046875,-0.36240415612757204,0.053417701932787894,-0.010329378573596476
1789336753397007000,0.979007080078125,-1.033360466685891,0.041586394363641734,0.5932797811597585
1789336753407017000,0.989016845703125,-1.8464391830682754,0.4662169973015785,0.4173082972258329
1789336753417026000,0.999026123046875,-1.3466057473689317,0.2765238620072603,-1.5953367625653743
1789336753427036200,1.0090361328125,-0.9729822780907154,0.2513297995179891,-0.8649778304457664
1789336753437044700,1.019044677734375,-1.0411205792933702,0.09235036691725254,0.07069441542625426
1789336753447054600,1.0290546875,-0.9222107067525386,-0.2189630689203739,-0.17162497916221617
1789336753457063400,1.0390634765625,-0.9646087097600102,0.13127894024848938,-0.37766894527673717
1789336753467073500,1.049073486328125,-0.8063815568313002,0.3540536764115095,-0.4757423660159111
1789336753477082400,1.059082275390625,-1.092834107656777,0.2808072384148836,-0.4883399817824363
1789336753487092500,1.069092529296875,-1.4636626855194568,0.1387719263523817,-0.11801526178866624
1789336753497101600,1.0791015625,-1.3639257154822348,0.1840326253145933,0.21847557766437528
1789336753507111400,1.089111328125,1.0676362457752226,0.2155301718622446,0.5428171296402812
1789336753517120500,1.09912060546875,2.026511672580242,0.3153875534087419,1.163127833327651
1789336753527130600,1.109130615234375,1.7741595442771911,0.544322565767169,1.829481034004688
1789336753537139500,1.119139404296875,2.2994290345281363,0.7173568272054195,2.215953463461995
1789336753547149300,1.1291494140625,0.9344476725131273,0.49240883865654467,3.083725893062353
1789336753557158400,1.139158447265625,0.3724854051589966,0.24897826795578,3.6179651639714834
1789336753567168500,1.14916845703125,0.20103578256368637,-0.019042554122209548,3.1656001664116977
1789336753577177600,1.159177490234375,0.11603811649680137,0.3859995512485504,2.598599028107524
1789336753587187500,1.1691875,0.08013619751036166,0.883574394366145,2.216307683727145
1789336753597196500,1.179196533203125,0.08141045522987841,1.2485732431620358,2.093271671167016
1789336753607206700,1.18920654296875,-0.215238495439291,1.50377316211164,1.7327964372754097
1789336753617215700,1.1992158203125,-0.6577671586394309,1.5909598626554011,1.0545077380023895
1789336753627225300,1.209225341796875,-0.317140534555912,1.5969406906306742,0.6310897257246076
1789336753637234400,1.219234375,0.8423977498471736,1.509418474522233,0.8277930320419371
1789336753647244500,1.22924462890625,2.0855822857081887,1.202414134055376,1.6142204728640615
1789336753657253400,1.23925341796875,3.3065590814143415,0.7208557752370834,2.776979326748848
1789336753667263500,1.249263427734375,4.0704263153821225,0.1738467468649149,3.767003925055265
1789336753677272600,1.2592724609375,4.844709144902229,-0.44823651945292947,3.916827406775951
1789336753687282700,1.26928271484375,5.463808426973223,-0.7801981910437346,3.7178871351867913
1789336753697291500,1.27929150390625,5.210163336250186,-1.0781196458667517,3.008588526752591
1789336753707301600,1.289301513671875,4.287198596259952,-1.5985054557293652,1.910994949609041
1789336753717311700,1.299311767578125,3.4486095910459755,-1.5825047535210848,1.012160661464557
1789336753727320300,1.3093203125,1.539596170642972,-1.1836544885277747,-0.0017567805394530294
1789336753737329400,1.319329345703125,-1.1094646322011947,-0.5585697023063898,-1.2151241972204296
1789336753747339500,1.329339599609375,-3.254205793842673,-0.22038228806853294,-1.5446064000204205
1789336753757349400,1.339349365234375,-3.2052988473325965,-0.6812801361739635,-0.45563145200982685
1789336753767358500,1.3493583984375,-2.4469810641855,-1.1016671101927757,0.9377415994919835
1789336753777367600,1.359367431640625,-1.9710516511648892,-0.9102531424552202,1.9625451041042803
1789336753787377700,1.369377685546875,-1.4235633148431777,-0.3499696219682693,2.7281559668689965
1789336753797387500,1.379387451171875,-0.7242506783723831,0.06519464896619319,3.0758360165953635
1789336753807396400,1.389396240234375,0.06834639099538325,0.2491045246839523,2.980399374100566
1789336753817406500,1.399406494140625,0.7712906619668006,0.0783043059080839,2.81131969550699
1789336753827415600,1.40941552734375,1.2607038259387016,-0.21429098545610903,2.6592507729470727
1789336753837425400,1.41942529296875,1.4401286651968954,-0.6273498085439205,2.6208544067963957
1789336753847434500,1.4294345703125,1.0973778885662555,-1.135645367640257,2.63838626409471
1789336753857444600,1.439444580078125,0.2535188339948654,-1.5824690976858138,2.9129698056891558
1789336753867453700,1.44945361328125,-1.6941887664616107,-2.1770243056088683,2.5614789655029773
1789336753877463600,1.459463623046875,-2.185700948539376,-2.1144401314020156,2.631061035773158
1789336753887472600,1.46947265625,-1.7373901948064565,-1.1297633238643408,2.7342957847982645
1789336753897482800,1.479482666015625,-1.3455372413545845,-0.14027590117454528,1.9947537215307354
1789336753907491300,1.4894912109375,-0.9165595491230487,0.46910044378340243,1.5112372143819928
1789336753917501400,1.49950146484375,-0.9012450756132602,0.5732371100842952,1.6458718947991728
1789336753927510500,1.509510498046875,-1.023985320097208,0.3375409330278635,1.8640587186500428
1789336753937520400,1.519520263671875,-1.20932610540092,0.11790098775923251,1.947618460868299
1789336753947529500,1.529529541015625,-1.4560218153774738,-0.13751578881144522,1.7836138935819268
1789336753957539600,1.53953955078125,-1.3774533055752516,-0.44382922440469263,1.458147136968374
1789336753967548700,1.549548583984375,-1.4761866515278816,-0.7062023959845304,0.9859504807353019
1789336753977558500,1.55955859375,-2.0299574291199445,-0.6841665052652358,0.7459989843219518
1789336753987567400,1.5695673828125,-3.128075906920433,-0.5489227530390024,0.5302025627389549
1789336753997577500,1.579577392578125,-3.884685717105865,-0.3756844934612512,0.4935055478520691
1789336754007586600,1.589586669921875,-3.721920920747518,0.05798983215391636,0.5476964261144399
1789336754017596400,1.599596435546875,-3.350145125162601,0.7436351778000593,0.4931232705362141
1789336754027605500,1.60960546875,-2.881533341678977,1.367922091642022,0.5673214562997222
1789336754037615600,1.61961572265625,-1.9261738140404223,1.6405881091773509,0.9481143788158893
1789336754047624700,1.629624755859375,-0.7486953837990761,1.4960042816758155,1.2123152042143046
1789336754057634600,1.639634521484375,0.20626374634504316,1.0420651666671037,1.217329525244981
1789336754067643400,1.649643310546875,0.874359406775236,0.5512503192037344,1.3120507129468022
1789336754077653500,1.659653564453125,1.052709894800186,0.19651567479074,1.2560260433860122
1789336754087662300,1.669662353515625,0.8846002302825451,0.24012393037080762,1.2909820598244666
1789336754097672400,1.67967236328125,0.3373527169793844,0.4860796356350183,1.43114500214383
1789336754107681500,1.689681640625,-0.3443897760093212,0.66416591976583,1.4471218850851058
1789336754117691400,1.69969140625,-0.7187105799019337,0.7483791574567555,1.4520903211474419
1789336754127700500,1.709700439453125,-1.1336205838143825,0.9237620278477668,1.8951698962286114
1789336754137710600,1.719710693359375,-1.7783312770038842,0.9666472298502922,2.1844166078172624
1789336754147719700,1.7297197265625,-1.9943483556002377,0.7990782480806112,2.160587257809937
1789336754157729500,1.7397294921875,-1.358608319851756,0.4360445618778467,1.8228497792966663
1789336754167738400,1.74973828125,-0.32017887933850286,-0.19195231239795685,1.1051751183137297
1789336754177748500,1.75974853515625,0.7166016249239444,-0.9438000227481126,0.5205189347229897
1789336754187757600,1.769757568359375,1.2596668841063976,-1.5591145255833863,0.13070055583864448
1789336754197767400,1.779767333984375,1.149677400124073,-1.7912398584157228,-0.06181479726955294
1789336754207776500,1.789776611328125,0.7262906597673893,-2.0357997254073616,-0.2104232041120529
1789336754217786600,1.79978662109375,0.5558715492635965,-1.960117584696412,-0.09663520462960004
1789336754227795700,1.809795654296875,0.242364987295866,-1.1433686553686857,0.1952517923347652
1789336754237805600,1.8198056640625,-0.4945552030354738,-0.10689619414210319,0.1939873253569007
1789336754247814400,1.829814453125,-1.4443179335802792,0.21203414644002913,-0.25711072100698945
1789336754257824500,1.839824462890625,-1.6645558447420596,-0.2898392706543207,-0.700121322505176
1789336754267833300,1.849833251953125,-0.6908703868180514,-1.1153659651994705,-0.8694716347336768
1789336754277843500,1.859843505859375,0.44624154624342915,-1.7548440184324978,-0.8926302458725869
1789336754287852500,1.8698525390625,1.0982634392291306,-2.005957544851303,-0.8917731906518339
1789336754297862700,1.879862548828125,0.9009154052674769,-2.066158038792014,-0.7676707179039717
1789336754307871500,1.88987158203125,0.44343467212915416,-1.8179501706868408,-0.6084704821594059
1789336754317881600,1.899881591796875,0.13576105409860612,-1.4528028533309698,-0.37228476802036164
1789336754327890700,1.909890625,0.09009937312006949,-1.2035977908819913,-0.20449688280299305
1789336754337900300,1.919900390625,0.2608656896263361,-1.12245387763381,-0.15665362000167368
1789336754347909400,1.929909423828125,0.3865273745149374,-1.2830939369231462,-0.25744082974418997
1789336754357919500,1.93991943359375,0.25993396173417566,-1.5113234313607216,-0.4595857425935566
1789336754367928600,1.949928466796875,-0.10313421126008034,-1.6483961525797843,-0.6031812897101044
1789336754377938400,1.9599384765625,-0.2528957336604595,-1.7255097873985767,-0.6144621237896383
1789336754387947500,1.969947509765625,-0.5234054499447346,-1.679161877721548,-0.2855263758912682
1789336754397957600,1.97995751953125,-0.952760743317008,-1.4821131189674137,0.1862023705691099
1789336754407966700,1.989966796875,-1.1240659890055655,-1.1557821467399596,0.6278811389416455
1789336754417976600,1.9999765625,-0.7085691251158713,-0.8657844706535339,1.0017609210684895
1789336754427985400,2.0099853515625,-0.3209387577950954,-0.8693494696587324,1.3027847258210181
1789336754437995500,2.01999560546875,-0.01364274090528488,-1.0696429094225168,1.4479608201272784
1789336754448004600,2.030004638671875,0.5384288315534591,-1.2629402066886424,1.1681823402382432
1789336754458014500,2.040014404296875,0.9927648369252681,-1.4539970315515993,0.7436364929743111
1789336754468023600,2.0500234375,0.6841244196891785,-1.5384458315640688,0.4333103146083653
1789336754478033700,2.06003369140625,-0.014200374788045882,-1.331509885045886,0.07653919593170284
1789336754488042500,2.07004248046875,-0.7963608058154582,-0.9418272613704204,-0.09360898867622017
1789336754498052600,2.080052490234375,-1.8314795143455267,-0.7146078207582235,-0.2528787825256586
1789336754508061400,2.0900615234375,-2.325315755456686,-0.46273324683904643,-1.0552889515079558
1789336754518071300,2.1000712890625,-2.2901854053646327,-0.1973351744800806,-1.8117453246973454
1789336754528080400,2.110080322265625,-2.2836112876713273,-0.24903496657907961,-2.1628221772551535
1789336754538090500,2.120090576171875,-2.035382376778126,-0.4529933585911989,-2.214076417543739
1789336754548099600,2.130099609375,-1.3886533295035361,-0.4929904379367828,-2.0890312571182847
1789336754558109400,2.140109375,-0.8169920904338359,-0.4259183046609163,-2.116322145756334
1789336754568118500,2.150118408203125,-0.537201920107007,-0.3384808442264795,-2.1899071680575606
1789336754578128600,2.160128662109375,-0.3829495160281658,-0.18224106572270393,-2.3567988350875675
1789336754588137700,2.1701376953125,-0.20193360818624495,0.0368476754039526,-2.4335456824205814
1789336754598147600,2.180147705078125,-0.2118430077821016,0.08744856635034083,-2.553843940579891
1789336754608156400,2.190156494140625,-0.34331600929796696,-0.0620966829508543,-2.858988916915655
1789336754618166500,2.20016650390625,-0.4860118310958147,-0.2944447186231613,-3.174909846548736
1789336754628175600,2.210175537109375,-0.8537281221568584,-0.5521253484725952,-3.435205042810738
1789336754638185500,2.220185546875,-1.167913314038515,-0.5289817887723446,-3.468414946234226
1789336754648194600,2.230194580078125,-1.0500935748219489,-0.11221417429447174,-3.001141425617039
1789336754658204700,2.24020458984375,-0.47441550132632254,0.22955752817094324,-2.638091957323253
1789336754668213500,2.250213623046875,-0.09161913003325461,0.23366204088032244,-2.5496108330547806
1789336754678223600,2.2602236328125,0.13399462894797323,0.10267126992344856,-2.712285613042116
1789336754688232400,2.270232421875,0.556696894171834,-0.051043374016880985,-3.0937340768575665
1789336754698242300,2.2802421875,0.9946621949791907,-0.22043547956049442,-3.250814690099656
1789336754708251400,2.29025146484375,1.1679811185777187,-0.41705929090082644,-3.161379041585326
1789336754718261500,2.300261474609375,1.0559358711093663,-0.5310732080936431,-3.0481781943410633
1789336754728270600,2.3102705078125,0.9640525371819734,-0.5238479330152273,-2.953373420009017
1789336754738280400,2.320280517578125,1.3098603632956742,-0.28332302062809467,-2.6569272984355687
1789336754748289500,2.33028955078125,1.8199989199101925,-0.10424655641615391,-2.4886405237853526
1789336754758299600,2.340299560546875,2.226419327896833,-0.2556418174982071,-2.568693134665489
1789336754768308500,2.35030859375,2.1823159822762013,-0.46083822687268255,-2.551867087548971
1789336754778318300,2.360318359375,1.9569477224886416,-0.46636020516455173,-2.5782629270434376
1789336754788327400,2.370327392578125,1.8367144923895595,-0.43692309827804565,-2.6389059040546416
1789336754798337500,2.380337646484375,1.7908780393660066,-0.5082137260317802,-2.7094512663990256
1789336754808346600,2.3903466796875,1.7135574837982654,-0.5766454572230577,-2.569297530299425
1789336754818356500,2.4003564453125,1.709136160224676,-0.5736468599289656,-2.3869001049712297
1789336754828365600,2.410365478515625,1.6340607532352207,-0.6065566113620996,-2.2218566961564123
1789336754838375700,2.420375732421875,1.4772370373636483,-0.5540338124424219,-2.0438227267347275
1789336754848384500,2.430384521484375,1.1633984669625759,-0.3910866452544927,-1.827350305586308
1789336754858394600,2.44039453125,0.8658639656305313,-0.22636370056569574,-1.7716453694991767
1789336754868403500,2.450403564453125,0.5562684396266937,-0.12121931852698326,-1.8324834306910633
1789336754878413300,2.460413330078125,-0.124459323361516,-0.13145838846862315,-1.893896807552874
1789336754888422400,2.47042236328125,-0.4930868840485811,-0.28000761246979233,-2.1624219258911905
1789336754898432500,2.4804326171875,-0.37825463621020317,-0.5623059662252664,-2.4025422030001877
1789336754908441600,2.490441650390625,-0.1363455759882927,-0.8530471541553736,-2.4815444280445575
1789336754918451500,2.500451416015625,0.30013328565359115,-0.9830518366843461,-2.377776010534167
1789336754928460500,2.51046044921875,1.0357190125107765,-1.0867162092983722,-2.214507210176438
1789336754938470700,2.520470703125,1.2232418180286884,-1.1638280905514955,-2.0415528821066022
1789336754948479500,2.5304794921875,1.0306196435451507,-1.1552502318203448,-1.9044309149183332
1789336754958489300,2.5404892578125,0.832691763868928,-1.0811655894339085,-1.8629079411797225
1789336754968498400,2.55049853515625,0.6020803427308797,-1.0113333437949419,-1.9506034680284559
1789336754978508500,2.560508544921875,0.36204759777486323,-1.0439175165355206,-2.21808389961943
1789336754988517600,2.570517578125,0.16279752958416938,-1.0194014994382858,-2.4331613592781127
1789336754998527500,2.580527587890625,0.3001946604520082,-0.8954396042048931,-2.3247306490451094
1789336755008536600,2.59053662109375,0.40940263866782184,-0.798349349284172,-2.3160797250777483
1789336755018546700,2.600546630859375,0.23393501260280608,-0.7197124504208564,-2.3282056316792965
1789336755028555500,2.610555419921875,0.19710487285554407,-0.7121487371683121,-2.29579842294082
1789336755038565400,2.6205654296875,0.6267237856000661,-0.7849895169734954,-2.2510142554491757
1789336755048574500,2.630574462890625,1.5499088903427123,-0.8854740905076265,-1.9548061804153023
1789336755058584600,2.64058447265625,2.657165783366561,-1.1399620617955923,-1.6897139591351151
1789336755068593400,2.650593505859375,3.2888246872812505,-1.3830594550192354,-1.3075744443155823
1789336755078603500,2.660603515625,3.476206623023748,-1.5170722041457891,-0.8242330014728009
1789336755088612600,2.670612548828125,3.1823616238594052,-1.5510463699400423,-0.4777497603155672
1789336755098622500,2.68062255859375,2.836946596455574,-1.3159493278205394,-0.1974073629334569
1789336755108631600,2.690631591796875,2.517782447117567,-0.821044580695033,0.04994403447285294
1789336755118641700,2.7006416015625,1.8275614641189575,-0.29268296964764595,0.11413973552957177
1789336755128650500,2.710650390625,1.2647627459406852,0.14121055167615412,0.15059052057042718
1789336755138660400,2.720660400390625,1.5021195496857165,0.2650175486087799,0.17565291950404643
1789336755148669400,2.73066943359375,2.057705267745256,-0.19698504586815832,0.2132863384582102
1789336755158679600,2.740679443359375,2.258844510683417,-1.0210638796925544,0.045189095030725
1789336755168688600,2.750688720703125,2.1420324872046708,-1.6542127299040554,-0.17117825830802322
1789336755178698500,2.760698486328125,1.5178560479998588,-1.9385440507918594,-0.24409137269705533
1789336755188708600,2.77070849609375,0.6717167735368013,-1.8315093249619006,-0.18497063681706785
1789336755198717700,2.7807177734375,0.32211481583714485,-1.2792214794039725,0.019084055176377294
1789336755208727600,2.7907275390625,0.24723054750561713,-0.7025520567834377,0.34981516205891966
1789336755218736400,2.800736328125,0.09116904817819595,-0.35564065334200856,0.472851247684285
1789336755228746500,2.81074658203125,0.16572656877338884,-0.0623971272021532,0.45313583580181
1789336755238755600,2.820755615234375,0.1473550457805395,0.10485913535654544,0.24442038545571265
1789336755248765400,2.830765380859375,-0.01656067417860031,0.08494739718437194,-0.0899319806639105
1789336755258774500,2.8407744140625,-0.18656126700937747,0.20439473760277033,-0.2916943970017135
1789336755268784600,2.85078466796875,-0.40665304769873617,0.5676286225527525,-0.05777377825044095
1789336755278793500,2.86079345703125,-0.5383142652630806,0.941110053011775,0.45520526248700915
1789336755288803600,2.870803466796875,-0.3257540491223335,1.0277405809774993,1.112645600324869
1789336755298812700,2.880812744140625,0.3321598245114088,0.945904886072874,1.8740305159576236
1789336755308822500,2.890822509765625,1.3384253635227679,0.7748825489789247,2.5013281559228897
1789336755318831400,2.900831298828125,2.9269512770295143,0.36832302478253837,2.9635847251608967
1789336755328841500,2.910841552734375,4.470339241170883,-0.197425775372982,3.292024944627285
1789336755338850600,2.9208505859375,5.336370380061864,-0.47605946914106606,3.4003555554866787
1789336755348860400,2.9308603515625,5.4445870091527695,-0.2630854115024209,3.566725098338723
1789336755358869500,2.940869384765625,4.5962896798729895,0.3665732585057616,4.084425614640116
1789336755368879600,2.950879638671875,3.1632173629283904,1.2769202167242764,4.916210785058141
1789336755378888700,2.960888671875,1.8113883279532192,1.8230147606000302,5.473273589932918
1789336755388898600,2.970898681640625,0.7521633521705865,2.0446219142884017,5.5461757445365185
1789336755398907400,2.980907470703125,0.31304011349976063,2.000188898321986,5.1991801699429745
1789336755408917500,2.99091748046875,0.8661854526698589,1.382793789820373,4.172687543199956
1789336755418926600,3.000926513671875,1.6787369303077457,0.46424540496766564,3.199494252707064
1789336755428936400,3.0109365234375,1.994692638993263,-0.26963877866864205,2.417113895318657
1789336755438944800,3.02094482421875,2.1103683519184586,-0.7470762581646442,1.8939760102689265
1789336755448955000,3.030954833984375,1.9817922408878803,-1.04582071980834,1.4025007992006837
1789336755458964000,3.0409638671875,1.6387158855646848,-1.1309610092163085,0.7145414775237441
1789336755468973800,3.050973876953125,0.9651409169405698,-0.9761818047843873,0.30392054910734295
1789336755478983000,3.06098291015625,0.11693886472880839,-0.5956047169759869,0.36010625444874167
1789336755488993000,3.070992919921875,-0.33340719422399995,-0.2064233208209276,0.3704597445502877
1789336755499003000,3.0810029296875,0.14957213730812072,0.037760406334698196,0.16484291780665516
1789336755509012000,3.091011962890625,1.1417489452123641,-0.13598624115660785,-0.3597492577046156
1789336755519022000,3.10102197265625,1.5002636926859616,-0.8846066600233315,-1.0046849918216467
1789336755529031000,3.111031005859375,1.5592004503011703,-1.4721176485233007,-1.4115417453989385
1789336755539040800,3.121040771484375,1.6082418368458746,-1.589904800644517,-1.698494354701042
1789336755549049900,3.1310498046875,1.412272105500102,-1.1909810320235787,-1.3563818759739399
1789336755559060000,3.14106005859375,1.3708178130835293,-0.32305326573103665,-0.5395736176744104
1789336755569068800,3.15106884765625,2.1473943064987657,0.7297516138762236,0.0666083151564002
1789336755579079000,3.161078857421875,2.774614351183176,1.3556070922091603,0.2501595866948366
1789336755589088000,3.171087890625,2.9958178925067185,1.563959189135581,0.031926877875626085
1789336755599097900,3.181097900390625,3.335169674348831,1.6388126239374279,-0.601201514069736
1789336755609106700,3.191106689453125,3.3412668221801516,1.4862873359121382,-1.60112645188272
1789336755619116800,3.20111669921875,3.3423487721979614,1.2717989281877875,-2.446602294000983
1789336755629126000,3.2111259765625,3.855748960956931,1.1338614068329333,-2.869158721013367
1789336755639135700,3.2211357421875,4.358523710805177,0.9077032387766987,-2.7857731663182377
1789336755649144800,3.231144775390625,4.269910192328691,0.7199943361021578,-2.374707855135202
1789336755659155000,3.241155029296875,3.897297945919633,0.9068958679165691,-1.6792153614744543
1789336755669164000,3.2511640625,3.268008693745732,0.9182274092700332,-1.2068924485132098
1789336755679174000,3.261173828125,2.3402385993003842,0.6210510006606579,-0.892759863601625
1789336755689183000,3.271182861328125,1.13537824113667,0.3866085499923676,-0.8527475866869092
1789336755699193000,3.281193115234375,-0.1625526149123907,0.29275647327527404,-1.1026946996748446
1789336755709202000,3.291201904296875,-1.2642735011190176,0.18754735543727874,-1.2896318142592906
1789336755719211800,3.301211669921875,-2.2239883013576267,0.03706628659069538,-1.1870324405282735
1789336755729220900,3.311220947265625,-2.7755829039543864,0.014460633159428833,-0.798778388351202
1789336755739231000,3.32123095703125,-2.8168986646831033,0.17923998421058057,-0.3362231284275651
1789336755749239800,3.33123974609375,-2.3551433229655028,0.3761560564957559,0.24075316818505524
1789336755759250000,3.34125,-1.9010288513898848,0.35820641217678784,0.6902572233557701
1789336755769259000,3.351259033203125,-2.1004870093733072,-0.03894201733469963,0.7360065826177596
1789336755779268900,3.361268798828125,-2.533632927200198,-0.5445626581333577,0.3810615103244781
1789336755789277700,3.371277587890625,-2.809077761799097,-0.9155664464324712,-0.1006847722813487
1789336755799287800,3.381287841796875,-2.966900425580144,-1.1297649312995373,-0.44124125373810524
1789336755809297000,3.391296875,-3.016070991462469,-1.3842794983334838,-0.6636106239706278
1789336755819306800,3.401306640625,-2.941099629369378,-1.6217453154109418,-0.7237152563214302
1789336755829315800,3.41131591796875,-2.669897254645824,-1.6509629343278704,-0.8324801669448614
1789336755839326000,3.421325927734375,-1.8838667041867971,-1.5393915879815816,-0.8747589274868368
1789336755849335000,3.4313349609375,-0.9086889618784189,-1.6997592600703237,-0.874919086484611
1789336755859345000,3.441344970703125,-0.6222054313927888,-2.1193745190642774,-0.8694476693361997
1789336755869353700,3.451353759765625,-0.698638682731986,-2.221039096163213,-0.78698595148772
1789336755879363800,3.46136376953125,-1.006907344046235,-2.0055776056230066,-0.6931792482823133
1789336755889373000,3.471373046875,-1.5521236437827348,-1.630804089526832,-0.48966947682052847
1789336755899382800,3.4813828125,-2.172332932922244,-1.1974947978317736,-0.2558382168531418
1789336755909392000,3.491391845703125,-2.398036123752594,-0.9306305984430014,-0.1221937165170908
1789336755919402000,3.501402099609375,-1.9988678788512944,-0.9170916101731359,0.04690145190656185
1789336755929410800,3.511410888671875,-1.32193483197093,-1.0732166762560604,0.01044248355925083
1789336755939421000,3.5214208984375,-0.5349222847372294,-1.3440351662285626,-0.22131606178730726
1789336755949430000,3.531429931640625,0.36897710477709766,-1.711984243132174,-0.3963965882308781
1789336755959440000,3.54143994140625,1.0650444757163524,-1.8468414802588522,-0.31853681121990085
1789336755969448700,3.55144873046875,1.227162790864706,-1.681367132680863,0.03833689104840159
1789336755979458800,3.561458740234375,0.764963797032833,-1.2748626996725796,0.5498650023251772
1789336755989468000,3.571468017578125,-0.12007073301374911,-0.7294409404918551,1.0493341347567737
1789336755999477800,3.581477783203125,-1.2258587225288151,-0.21807386499568818,1.4166924061603843
1789336756009486800,3.59148681640625,-2.1806483413249254,0.07272972064614296,1.6578662839755416
1789336756019497000,3.6014970703125,-2.7709821321606634,0.1080013789050281,1.765199262099713
1789336756029506000,3.611506103515625,-2.886728572234511,0.09817381237372755,1.6401912188142538
1789336756039516000,3.621515869140625,-2.7968951565742493,0.07724661354869604,1.3616745755545794
1789336756049524700,3.631524658203125,-2.7449942889451977,0.02100932415053248,1.0420996534585951
1789336756059534800,3.641534912109375,-2.5988135476410386,0.008189736196398735,0.9525422782607376
1789336756069544000,3.6515439453125,-2.164275883194804,0.0903188610896468,1.1364992079906164
1789336756079553800,3.6615537109375,-1.972997524535656,0.10022446129322052,1.382707865102589
1789336756089563000,3.67156298828125,-1.9253262573003769,0.14193389751464128,2.0504921214960516
1789336756099573000,3.681572998046875,-1.751883999583125,0.12642653178125618,2.638532102306187
1789336756109581800,3.691581787109375,-1.935657681700587,-0.030946050144731996,2.854628383618593
1789336756119592000,3.701592041015625,-2.292072242024541,-0.16116759029477834,3.061825026899576
1789336756129601000,3.71160107421875,-2.9348043286174534,-0.2854705540508032,2.923435962384939
1789336756139611000,3.72161083984375,-3.35404505521059,-0.2906736756518483,2.9507299197629093
1789336756149619700,3.73161962890625,-3.5029449923455713,-0.5956570316851139,2.886499439653754
1789336756159629800,3.7416298828125,-4.315668319419026,-1.190876840996742,2.5906015996128318
1789336756169639000,3.751638916015625,-4.905744920623302,-1.7937623626306651,2.4296637264207006
1789336756179648800,3.761648681640625,-4.94043863286376,-2.2673785302728415,2.4438155858919024
1789336756189657900,3.771657958984375,-4.812897710099816,-2.551865041722357,2.667282980494201
1789336756199668000,3.78166796875,-4.862129066258668,-2.7297163480535147,2.7253789033710953
1789336756209677000,3.791677001953125,-5.215352721586823,-2.8979090146794912,2.606006674015522
1789336756219687000,3.80168701171875,-4.938686236238479,-2.6610005392238496,2.393841886933148
1789336756229695700,3.81169580078125,-4.764022327771783,-2.6958272301942108,1.904047906950116
1789336756239705900,3.821705810546875,-4.197111498099566,-4.198601152135431,1.4718658657193182
1789336756249715000,3.83171484375,-3.2077924177139994,-5.1955941281497475,1.2668179249048233
1789336756259724800,3.841724853515625,-2.8294781602710484,-5.798931192943454,0.48748190364837646
1789336756269734000,3.85173388671875,-2.489289927604794,-6.398650067239999,-0.9817249719947576
1789336756279744000,3.861743896484375,-2.376519288471341,-6.7923851811766625,-2.4191788650244472
1789336756289753000,3.871753173828125,-3.2149683006927368,-6.764429252758622,-3.201086782595515
1789336756299763000,3.881762939453125,-4.717760050551593,-6.1554573969483375,-3.0445518205374476
1789336756309771800,3.891771728515625,-5.810246952205896,-5.107533567380905,-2.6250194175213575
1789336756319782000,3.901781982421875,-5.181755572411418,-3.9324800261989235,-2.0601853941231965
1789336756329790700,3.911790771484375,-2.158889660111815,-3.5817169157654045,-1.6134376519232987
1789336756339800800,3.92180078125,0.5895322651945054,-3.822510708221793,-0.7162614331841468
1789336756349810000,3.931809814453125,2.258694726949185,-3.784165779997408,0.46479485554397104
1789336756359819800,3.94181982421875,3.2135669094622132,-2.9800439847916365,0.810117528489232
1789336756369828900,3.951828857421875,2.9396640436083077,-1.7536930948317049,-0.40226562639474867
1789336756379839000,3.9618388671875,2.6181729126274584,-0.7478820215895772,-1.5106833798915147
1789336756389848000,3.97184814453125,2.0965625294059516,0.05404854718223214,-0.4946370361000299
1789336756399858000,3.98185791015625,1.8355616690926253,0.9116755764737725,0.5045616332650185
1789336756409866800,3.99186669921875,2.597442259287834,1.5989254347071051,-0.26024025120437144
1789336756419876900,4.001876953125,3.46340910077095,1.7769196566402912,-1.4594891992270946
1789336756429886000,4.011885986328125,4.655770042845607,1.5508677985027433,-2.0239239941745994
1789336756439896800,4.021896728515625,5.831400799393654,1.09498463675417,-2.390016483426094
1789336756449906000,4.031906005859375,6.43417730769515,0.4948917415134608,-3.0722622497618195
1789336756459915800,4.041915771484375,6.815297270208597,0.07126403200775384,-3.1180759064316748
1789336756469924900,4.0519248046875,7.349711020901799,0.6053470894418657,-1.7786621163934468
1789336756479935000,4.06193505859375,7.3636232263982295,2.060904063786566,-0.23187457294166086
1789336756489944000,4.071944091796875,6.4947220850288865,3.119306325009465,0.6730448072701692
1789336756499954000,4.081953857421875,5.342508444425463,3.262724031341076,0.8508890993386506
1789336756509962800,4.091962646484375,4.219012364262342,2.8452313174590467,0.6247814193606376
1789336756519972900,4.101972900390625,3.1516447062954303,2.2028315315604208,0.13426350901722908
1789336756529982000,4.11198193359375,2.2703487782552836,1.4174028925172983,-0.09508534483909606
1789336756539991800,4.12199169921875,2.4018559743016956,0.8617004162102937,2.166515771076083
1789336756550001000,4.1320009765625,3.540646654230356,1.862340516555309,6.050988722214102
1789336756560011000,4.142010986328125,4.752693124505877,3.315025588725507,8.29821293773055
1789336756570019800,4.152019775390625,6.175608789095282,3.8854602086097,9.063077950564026
1789336756580030000,4.162030029296875,6.772991913920641,3.3677722595289348,9.109281483334302
1789336756590038800,4.172038818359375,6.23559184089303,2.12959386139214,8.381213292500377
1789336756600047900,4.1820478515625,4.693698791484534,1.00007194506824,7.869498864871263
1789336756610057700,4.1920576171875,2.6628876681447027,1.0880436585098505,6.885917451354861
1789336756620066800,4.20206689453125,0.33295477428138254,1.5568395663887262,6.662666329851747
1789336756630077000,4.212076904296875,-2.38652659548372,2.0476582132443784,7.728251488316059
1789336756640086000,4.2220859375,-3.9037466836676,2.6535446702599526,7.876804219448566
1789336756650095900,4.232095947265625,-4.101309529423713,2.2084040709957478,8.00175220310986
1789336756660105000,4.24210498046875,-4.498943404364586,1.4011743729025126,8.870130781909824
1789336756670115000,4.252114990234375,-5.053313901415467,0.9379343455851078,8.757481723329425
1789336756680124000,4.2621240234375,-5.337775570684671,0.5977604337051511,7.337617263004184
1789336756690133800,4.2721337890625,-5.007090494900941,0.7219815643966198,4.853047349658608
1789336756700142800,4.282142822265625,-5.7362382976651185,0.2195887996032834,2.245051547652483
1789336756710153000,4.292153076171875,-4.990781165134907,-0.20924159311205148,1.243136605066061
1789336756720161800,4.302161865234375,-2.515018243101239,0.9069073391586542,1.9181307928383349
1789336756730172000,4.312171875,-0.9817711492240428,1.9909245186313986,2.7638258306652306
1789336756740181000,4.322180908203125,-0.4399795632392168,1.914532768346369,2.9351679012328384
1789336756750190800,4.33219091796875,-0.3866872412517667,1.5732698921859263,3.463196919324994
1789336756760199700,4.34219970703125,-0.9897411051899194,1.2989622449234128,2.5422043561905623
1789336756770209800,4.352209716796875,-1.4678922859132288,0.5164698054626584,0.6755553287863731
1789336756780219000,4.362218994140625,-0.8498761229038237,-0.49741176151037214,-0.17545535110533236
1789336756790228700,4.372228759765625,0.8885583202585577,-0.5819678212895989,-0.2771972312241793
1789336756800237800,4.38223779296875,1.2728528211548924,0.1545502179816365,-0.46748248719274993
1789336756810248000,4.392248046875,0.4277962273620069,1.1391671120256184,-0.6750894648402929
1789336756820257000,4.402257080078125,-0.10437427444905042,2.06035578225404,-0.5681587839066982
1789336756830267000,4.412266845703125,-0.4609599535562098,2.59852216347903,-0.2683645209491253
1789336756840276000,4.42227587890625,-0.035322219402343036,3.22847455573678,0.2638537655264139
1789336756850286000,4.4322861328125,-0.09873480725735426,4.132518614418804,0.21217384717166424
1789336756860295000,4.442294921875,-1.108915766146779,4.6392678208559746,-0.6327396848887205
1789336756870304800,4.4523046875,-1.7328391073733567,4.7959576812148095,-1.321395902788639
1789336756880313900,4.46231396484375,-1.4648494110859929,4.140254469367862,-1.6186252836942672
1789336756890323000,4.472322998046875,-0.25423311974406243,2.5288033150866625,-1.993812933549285
1789336756900332800,4.482332763671875,0.4617394134961068,1.4405243865162134,-2.403635258933902
1789336756910342000,4.492341796875,1.0094305789135396,2.315710599504411,-1.1789297980934381
1789336756920352000,4.50235205078125,1.0125848051607609,3.202554517060518,0.26308102758824825
1789336756930360800,4.51236083984375,0.3619400457471609,2.9647283422380686,-0.058282677620649335
1789336756940370700,4.52237060546875,-0.41551878346055743,2.9484108291655775,-0.6575000321358442
1789336756950379800,4.5323798828125,-0.1371855339437723,2.6982588412553072,-1.3811720338374376
1789336756960390000,4.542389892578125,0.04880640874505043,2.245407813744247,-1.8829162715941667
1789336756970399000,4.55239892578125,0.37235622582137584,0.5850836152225732,-3.0788387055426836
1789336756980408800,4.562408935546875,1.0835714815318584,-1.3454425488084554,-3.9310833111435173
1789336756990418000,4.57241796875,0.5000291044019163,-2.7684470607250926,-3.6461639612346883
1789336757000428000,4.582427978515625,-0.4443178847044706,-2.997228051565587,-3.495597552192211
1789336757010436900,4.592436767578125,-1.5247079597212374,-2.902973020070791,-3.3279531670987605
1789336757020446700,4.60244677734375,-1.311928986263275,-2.3092167074404655,-2.2406594501733776
1789336757030455800,4.612455810546875,-0.23390870911777017,-1.4073647519752381,-1.0699497834146021
1789336757040466000,4.6224658203125,0.37488194490671156,-1.149889143178612,-0.2363081714749336
1789336757050475000,4.63247509765625,-0.4624520918101072,-0.34718495968580243,-0.3982394396185875
1789336757060484900,4.64248486328125,-3.5450165398776528,1.339031220461428,-2.0002736539959907
1789336757070494000,4.652493896484375,-5.28065316901505,2.16047824447751,-5.400114830219746
1789336757080503000,4.6625029296875,-0.9788871182203293,2.3835465567596255,-7.30793348788023
1789336757090513000,4.672512939453125,0.6491238334566355,1.5977572677105665,-8.122655295294523
1789336757100521700,4.682521728515625,0.3182522951900959,-0.6071908176124096,-2.100953457841277
1789336757110531800,4.69253173828125,2.917842964683473,-4.102181343822181,1.715326247036457
1789336757120541000,4.702541015625,6.203771638262271,-2.831994234745204,0.7594879959702492
1789336757130550800,4.71255078125,8.882683389490841,-0.012514029136300087,0.12257540931105614
1789336757140560000,4.722559814453125,9.634690674316882,1.7547583859756588,1.6640584166139363
1789336757150570000,4.732570068359375,8.621669815826415,4.311001788912713,5.536000387480855
1789336757160579000,4.7425791015625,5.802412605318427,6.83629095839858,7.955821642062068
1789336757170589000,4.7525888671875,3.1674285508826374,7.838532648721337,8.422875674709678
1789336757180597800,4.76259765625,-0.9817825474008918,7.3887939080119125,7.940694800078869
1789336757190608000,4.77260791015625,-8.310116726014018,6.61957771423161,5.90637976027131
1789336757200617000,4.782616943359375,-10.94928157326579,5.942789628779888,3.875245688587427
1789336757210626800,4.792626708984375,-6.598126929923891,6.011181612482667,2.7003619510143992
1789336757220636000,4.802635986328125,-4.180378097702563,5.645599995362758,2.007229464483261
1789336757230646000,4.81264599609375,-3.44934784219265,3.708864455297589,1.7371026100367306
1789336757240654800,4.82265478515625,-2.443318157763779,3.8650115870818493,1.6587836910814047
1789336757250665000,4.8326650390625,-2.418397943779826,4.58984444925636,1.6576310139149426
1789336757260674000,4.842674072265625,-3.7619039715677496,2.685026726977527,1.192455050098896
1789336757270683000,4.852682861328125,-4.572473335477709,0.44080753849595783,-0.40829204707741734
1789336757280692700,4.862692626953125,-4.176210456629097,-0.18681085785627363,-2.2280115655243398
1789336757290701800,4.872701904296875,-3.5684424236506223,-0.5475216540694237,-3.6996529748380182
1789336757300712000,4.8827119140625,-3.140757693839073,-0.34502368999868627,-4.570566040551662
1789336757310721000,4.892720947265625,-2.350117019236088,0.7544213602304458,-4.9975434988766905
1789336757320731000,4.90273095703125,-1.7925024256974458,1.1675053177595138,-5.161097984308004
1789336757330740000,4.912739990234375,-1.5012018503189086,0.8277513848572969,-5.349096006122231
1789336757340750000,4.92275,-1.8888189197666942,-0.2862181575477123,-5.961748596271872
1789336757350759000,4.932759033203125,-1.6916140936680137,-1.7564239811003206,-6.181420105722546
1789336757360768800,4.942768798828125,-0.25323767896592614,-2.413985388034582,-5.468372958409786
1789336757370777900,4.95277783203125,1.2073976946216076,0.9102671709805726,-2.7848095819830894
1789336757380788000,4.9627880859375,0.3479231377672404,4.376791773423553,-3.8702608859121796
1789336757390796800,4.972796875,0.24589897010829298,5.668989638778567,-3.2773502303257582
1789336757400807000,4.982806884765625,0.20006602421607822,6.034924891641736,-2.9353648851096628
1789336757410816000,4.99281591796875,0.32071079425811766,6.105113695633411,-2.4058882985576986
1789336757420825000,5.0028251953125,0.7793862901389599,5.104012992039323,-1.491896846356988
1789336757430835000,5.0128349609375,1.5521616377055645,1.8127198688179254,-0.42575434627085923
1789336757440843300,5.02284326171875,1.828218466722965,-3.550754791268706,1.7728347254142165
1789336757450853400,5.032853271484375,1.872050009664893,-7.996487414449453,2.939219222450256
1789336757460862500,5.042862548828125,2.793374581232667,-12.693966016733645,3.9308924647465346
1789336757470872300,5.052872314453125,2.5052023670077324,-18.263870427381992,2.642948457443714
1789336757480881400,5.06288134765625,-10.291050304245948,-26.44836229338646,0.04370850108414888
1789336757490891500,5.0728916015625,-7.626821742886304,-29.66383357516527,-0.7822323272198438
1789336757500900600,5.082900634765625,3.7001439732253547,-24.42835284230709,-0.966647522111237
1789336757510910200,5.09291015625,3.3876375282108784,-15.353659857273101,-0.4315604022011161
1789336757520919300,5.102919189453125,2.8157836891785264,-7.08450584076643,-0.9759335291117429
1789336757530929400,5.112929443359375,2.4334160646915435,-2.187864848574996,-1.8157228500261902
1789336757540938500,5.1229384765625,1.9047724218323825,1.9036422487586735,-2.389182955211401
1789336757550948400,5.1329482421875,2.245713226431608,4.814603929495811,-2.6262366843566296
1789336757560957400,5.14295751953125,1.9270874217540024,5.273114590203762,-2.8204622023835775
1789336757570966500,5.152966552734375,2.445669981586933,5.2012213203817605,-2.8857299165859818
1789336757580976400,5.162976318359375,2.443360827861726,5.403137392911314,-2.794383758275211
1789336757590985200,5.172985107421875,2.4049583242312074,5.579657158377766,-2.6674364174902436
1789336757600995300,5.182995361328125,2.2110195141911504,5.421809944677353,-2.8273484547659753
1789336757611004400,5.19300439453125,2.04428932133317,4.557574457031488,-3.4955645267054436
1789336757621014300,5.20301416015625,2.1706772746697065,2.869122772917151,-4.320976070438325
1789336757631023400,5.2130234375,2.443914954613149,1.368894151544571,-4.700136715577543
1789336757641033500,5.223033447265625,2.201866485920548,0.3654343176037073,-4.782531213408708
1789336757651042600,5.23304248046875,1.6583239646151662,0.11725450654923915,-4.712623564445972
1789336757661052400,5.243052490234375,1.1852119471028446,0.6191583187818527,-4.38316393880397
1789336757671061200,5.253061279296875,0.8250915179982781,1.6959586987435817,-3.7280209911882873
1789336757681070300,5.2630703125,0.6454480675533414,2.604819510057568,-3.104364191943407
1789336757691080400,5.27308056640625,0.16661299621909856,3.1695746230006216,-2.5432901056006547
1789336757701089300,5.28308935546875,-0.6470715771019458,3.5800229713290928,-1.9726862666293978
1789336757711099400,5.293099365234375,-1.7092697234764693,3.6198423560202118,-1.3177680676802992
1789336757721108500,5.3031083984375,-2.99003346388638,3.28584187207818,-0.45828708108514543
1789336757731118300,5.313118408203125,-3.694515904210508,2.514231476637721,0.48760348420143124
1789336757741127400,5.32312744140625,-3.6954417868837712,1.2495061400979757,1.356608962728083
1789336757751136300,5.33313623046875,-4.165911180932819,-0.06028583413660526,1.9748413988366722
1789336757761146400,5.343146484375,-5.080660758024454,-1.1056757613122463,2.5795503365054726
1789336757771155500,5.353155517578125,-5.045961785086989,-1.7874913195371627,3.1931799549937248
1789336757781165300,5.363165283203125,-4.155315844899416,-2.6691414678424596,3.722718208605051
1789336757791174400,5.37317431640625,-3.1054619240522383,-2.8892607210606336,3.889154679213464
1789336757801183500,5.38318359375,-1.7895606731571256,-2.358312600651383,3.587488192643225
1789336757811193300,5.393193359375,-0.18214403508901594,-1.512324132835865,2.860730499885976
1789336757821202200,5.4032021484375,1.5595442953027785,-1.0576023430168628,2.026568371203542
1789336757831212300,5.41321240234375,3.6854748118817806,-1.375072547918558,1.1506018214926124
1789336757841221400,5.423221435546875,5.552042590743303,-2.5415473535865543,0.18594225832819938
1789336757851231200,5.433231201171875,6.7211459913492195,-4.4283641397506,-0.710431119595468
1789336757861240300,5.443240234375,7.03933457365334,-5.71161882019341,-1.2124448219433426
1789336757871250400,5.45325048828125,5.773475264647603,-7.902929425308108,-1.0685615439265965
1789336757881259500,5.463259521484375,-6.483766391250491,-8.578230487072467,-1.3997697668015956
1789336757891269400,5.473269287109375,-26.838734068369863,-8.010952577653526,-6.736303228470683
1789336757901278500,5.483278564453125,-11.37909220919013,-6.503094192054867,-10.877987438380718
1789336757911912400,5.493912353515625,1.312306002882123,-3.2926930531471967,-8.820436484414339
1789336757922549500,5.504549560546875,2.6061060427367684,-1.0562380689263344,-6.896615955501795
1789336757932558300,5.514558349609375,3.3941245521426198,-0.1393120245784521,-5.611664408013224
1789336757942568200,5.524568115234375,3.3042449592530727,0.25099837560653687,-4.7020089391902085
1789336757952577300,5.534577392578125,3.1643641948759553,0.4235141661286354,-4.062989151118695
1789336757962586400,5.54458642578125,3.068404405289888,0.4448807792842388,-3.6424656912386415
1789336757972596500,5.554596435546875,3.0506875468134877,0.36160219209492206,-3.359805810694396
1789336757982605600,5.56460546875,3.2590766147494312,0.06843757641017437,-3.246906284484267
1789336757992615400,5.574615478515625,3.7823148914337157,-0.5653513252705336,-3.0774305923104284
1789336758002624300,5.584624267578125,4.441698837620019,-1.1746171955913305,-2.991471679995954
1789336758012634400,5.59463427734375,4.8796471872925755,-1.4570330382466314,-2.7845050460785625
1789336758022643200,5.604643310546875,5.006536952671408,-1.3783113837093115,-2.374331423038244
1789336758032653300,5.6146533203125,4.861254621511698,-1.005650621983409,-1.8196487912982702
1789336758042662400,5.624662353515625,4.5283588839411735,-0.5399561872512102,-1.2093524088859557
1789336758052672500,5.634672607421875,4.08182624579668,-0.06015080958008766,-0.5819108304053545
1789336758062681300,5.644681396484375,3.4158459700852633,0.3454015834003687,0.037244273506104944
1789336758072690400,5.6546904296875,2.593110952085256,0.6911229002743959,0.6863572933077812
1789336758082700500,5.664700439453125,1.4854823031395672,0.9314987595796584,1.2325371773794294
1789336758092709400,5.67470947265625,0.19873451988399027,1.1409253538697957,1.5983067182868718
1789336758102719200,5.68471923828125,-1.065237367939949,1.3825772244602441,1.6845725045934319
1789336758112728300,5.694728271484375,-2.0698928414061664,1.4194851056188345,1.6049293512970209
1789336758122738400,5.704738525390625,-2.5927923876553773,1.3273854985922575,1.6380881090551613
1789336758132747500,5.71474755859375,-2.7701088564574716,1.1085568697065113,1.6702268761157988
1789336758142757400,5.72475732421875,-2.617032218159735,1.0325690240472554,1.5806591256543994
1789336758152766500,5.734766357421875,-1.6230135817810891,0.8183312300831079,1.51183927192837
1789336758162775300,5.744775390625,-0.42911505487561225,0.6972860990792512,1.4321271450489759
1789336758172785400,5.754785400390625,1.0127367808520793,0.4584995547920465,1.6600740231528877
1789336758182794200,5.764794189453125,2.4174328981399533,0.1556733767926693,1.9372595639392733
1789336758192804400,5.774804443359375,2.9615929668217897,0.19645429999232292,1.9593919007703662
1789336758202813400,5.7848134765625,3.011628332839906,0.415217462426424,1.9682617281854151
1789336758212823300,5.7948232421875,2.650499895736575,0.7812737113207578,1.9724910363182424
1789336758222832400,5.804832275390625,1.6839619714796543,1.2887901027381419,1.596107454676926
1789336758232842500,5.814842529296875,1.5365104795873163,1.5059703798949717,1.594861838530004
1789336758242851600,5.8248515625,1.8835691825449465,1.5572487317115067,1.8911822878971696
1789336758252861400,5.834861328125,1.6496096200227737,1.8086299691557883,1.8302055488869546
1789336758262870300,5.844870361328125,1.600602135747671,2.0037036284446716,1.9147274141356347
1789336758272879400,5.85487939453125,1.9122212765336035,2.3393466188967227,2.1145710643053053
1789336758282889500,5.864889404296875,1.7433756989568472,2.6977245882481333,2.1729157012462617
1789336758292898300,5.874898193359375,1.026678212442994,2.981443330195546,2.145810252177715
1789336758302908400,5.884908447265625,0.1727694730222225,3.0768688667744395,2.1152368347376584
1789336758312917500,5.89491748046875,-0.5883282962322235,2.9585978766590357,2.1943831444278357
1789336758322927400,5.90492724609375,-1.0830781450569629,2.5076830779075623,2.429522272123396
1789336758332936200,5.914936279296875,-1.5579770459860562,1.836959991583228,2.9961387950241565
1789336758342946300,5.9249462890625,-2.967172228258848,0.9489759640812874,3.8959833561897277
1789336758352955400,5.934955322265625,-10.821445466947555,-0.6616869624316692,5.184766444665193
1789336758362964500,5.944964599609375,-12.316197702735662,-1.9316998839855193,6.230735633033514
1789336758372974300,5.954974365234375,-4.309142132520676,0.24991467202305792,2.684694718544185
1789336758382983400,5.9649833984375,-0.06613806729614734,1.1413690059840678,2.61097101842463
1789336758392993500,5.97499365234375,2.0470275141254066,1.271342708852887,3.591495382457971
1789336758403002600,5.985002685546875,1.3683259962677954,1.9624603484302758,2.8451591290056704
1789336758413012500,5.995012451171875,-0.1834898967400193,2.587940271449089,2.0372022856816647
1789336758423021300,6.005021240234375,-0.6275406549409032,2.9556659148603677,1.8640493662998079
1789336758433030400,6.015030517578125,0.04368073629438877,3.182369807165861,2.4575448360368606
1789336758443040800,6.025040771484375,1.701846003216505,3.1906419609487053,3.8793978398308155
1789336758453049900,6.0350498046875,3.359850526618957,2.9433406862944365,5.38037377243936
1789336758463060000,6.04506005859375,4.283703739881515,2.339267708441615,6.496271652558446
1789336758473069000,6.055069091796875,4.160169422410428,1.456336288154125,7.012979066169262
1789336758483079000,6.065078857421875,3.0142694949984548,0.461674677696824,6.961543477964401
1789336758493088000,6.075087890625,-1.2358248207479714,-0.646157384866476,7.084546172776818
1789336758503097900,6.085097900390625,-16.96459517098665,-2.7491186753988264,8.353667698448897
1789336758513107000,6.09510693359375,-15.174114606505631,-4.419156166422367,6.79772303507328
1789336758523116800,6.10511669921875,-3.6123902864485977,-3.0495500672161575,1.792397796279192
1789336758533126000,6.1151259765625,-0.31216683779656884,-3.059928253367543,2.1366478715568777
1789336758543135000,6.125135009765625,0.1965150902688503,-3.8275124620318413,1.8584172056317327
1789336758553144800,6.135144775390625,-1.3417363877668975,-5.243673976185917,1.1004413677901028
1789336758563154000,6.14515380859375,-3.6474987169697877,-6.841630565860867,0.584615997710824
1789336758573164000,6.1551640625,-4.020457877120376,-7.89578247616291,1.0668214222609995
1789336758583172900,6.1651728515625,-2.7307430607527494,-8.579406545114516,1.7236767267525195
1789336758593182700,6.1751826171875,-1.8928193875797092,-9.499975914400816,1.5042816961556673
1789336758603191800,6.18519189453125,-1.471400001773238,-10.229552756232023,0.896995016953349
1789336758613201000,6.195200927734375,-1.6508470528632402,-10.931067871183156,0.29502164172828194
1789336758623211000,6.2052109375,-1.2725240275919436,-11.005229670459032,-0.4677887766629457
1789336758633219800,6.2152197265625,-0.8013830178916453,-9.377523839208482,-1.6153051993608474
1789336758643230000,6.22522998046875,-0.6444400595545768,-7.217996027323603,-2.3916315174072977
1789336758653238800,6.23523876953125,-0.10736256954483687,-5.541994659459591,-3.1273733116090296
1789336758663249000,6.245248779296875,0.7597473775587975,-4.2983121109485625,-3.9557647479355333
1789336758673257700,6.2552578125,1.2109143975056706,-3.3365392091363666,-4.744678744876384
1789336758683267800,6.265267822265625,1.1187643754661083,-2.546083827972412,-5.512005179387331
1789336758693277000,6.27527685546875,0.9421211297504604,-1.9835686029106376,-6.056767890137434
1789336758703286000,6.2852861328125,1.099687919074297,-1.5707330671846866,-6.101126087301969
1789336758713296000,6.2952958984375,1.1868997540593147,-1.2474445313930511,-5.819297689145803
1789336758723305000,6.305304931640625,1.3190192367851734,-1.0573287867724894,-5.540024820691347
1789336758733315000,6.315315185546875,1.809212737479806,-1.031299442502856,-5.200021296942234
1789336758743324000,6.325323974609375,2.386710135357082,-1.0144020837157963,-4.795115385171771
1789336758753333800,6.335333740234375,2.9122432449802753,-0.8868214134633541,-4.660635603055358
1789336758763342800,6.3453427734375,3.0449685846447943,-0.6267746390044688,-4.536433469325304
1789336758773352000,6.35535205078125,3.019284692811966,-0.21893501186966896,-4.33278136678338
1789336758783361800,6.36536181640625,2.8846655022248626,0.3506944291114807,-3.803591488218307
1789336758793371000,6.375370849609375,3.1497333197161552,0.9217612094193697,-2.8553175349265336
1789336758803381000,6.385381103515625,3.6760581642389294,1.1227788718044758,-2.1052292354643343
1789336758813389800,6.395389892578125,3.791235864514112,1.1207523344129324,-1.8085797002732753
1789336758823399700,6.405399658203125,3.6239231955930586,0.953072293484211,-1.6593354797452686
1789336758833408800,6.41540869140625,3.3259242916196583,0.6659253306537867,-1.7521207309484481
1789336758843419000,6.4254189453125,3.122137164521217,0.2483206808298826,-1.9510545727968214
1789336758853428000,6.435427978515625,3.0525138854578135,-0.14056640855371952,-2.111917334926128
1789336758863437000,6.44543701171875,3.0814325214281677,-0.5259294154644012,-2.4194360546559093
1789336758873447000,6.455447021484375,3.1080393733248113,-0.8623822609946131,-2.5563345883518456
1789336758883456000,6.4654560546875,2.8375960002750156,-0.7664142881020903,-2.464081252068281
1789336758893466000,6.475466064453125,2.067896114630997,0.18301468044370411,-1.5498884320765733
1789336758903474700,6.485474609375,1.71248547065258,1.6501622854694724,-0.13870938251018525
1789336758913484800,6.49548486328125,2.3626515066385267,2.8416119579181074,0.6082932258963585
1789336758923494000,6.505493896484375,2.9358965077683328,3.5782907407090065,0.3194628400236368
1789336758933503000,6.5155029296875,2.78047213730067,4.109811400309205,-0.3805886321157217
1789336758943512800,6.525512939453125,1.865679305589199,4.341803754411638,-1.3679367046892643
1789336758953522000,6.53552197265625,0.20688012467771769,4.239286798267067,-2.2412685219824313
1789336758963532000,6.545531982421875,-2.248332176758349,4.087518612219393,-2.461214172199368
1789336758973540900,6.555540771484375,-4.628639459335804,3.7073362228170037,-1.7068115166693925
1789336758983550700,6.56555078125,-6.455466763961315,3.2883681756854055,-0.2264747597247362
1789336758993559800,6.575559814453125,-8.204426400530338,2.7429472932875156,1.497737973600626
1789336759003569000,6.58556884765625,-10.060639958637951,2.4059943892806768,3.4659149461120364
1789336759013579000,6.5955791015625,-10.92121400116682,2.116328721627593,5.758531378015875
1789336759023587800,6.605587890625,-8.513018886971473,1.4839771592736244,8.15738700145781
1789336759033598000,6.615597900390625,-0.40164829821400344,0.00881342105269432,9.128899791517853
1789336759043607000,6.62560693359375,6.306922216135263,-2.2861121645763514,8.175880689525604
1789336759053617000,6.635616943359375,7.144095509332418,-3.936154623058438,6.060275021475553
1789336759063625700,6.645625732421875,6.003802023625373,-5.075127673816681,3.941345177438855
1789336759073634800,6.655634765625,5.184916082268953,-5.509435621160269,2.2067326306521893
1789336759083645000,6.66564501953125,3.7149674483478066,-4.502622385138273,1.2520254294425248
1789336759093654000,6.675654052734375,-2.4132722713291646,-3.030098932293057,-0.5220446829855442
1789336759103663900,6.685663818359375,-15.213604905372858,-2.7961341090738774,-5.32571045435965
1789336759113673000,6.6956728515625,-11.674654533666372,-2.960907322645187,-6.576390898934006
1789336759123683000,6.70568310546875,-0.7901987760543823,-3.174081286770105,-5.237018025428056
1789336759133692000,6.71569189453125,2.5662884116113185,-3.313222046434879,-4.197544044297933
1789336759143700700,6.72570068359375,2.415645430201292,-3.5282191343337295,-3.9900826126009226
1789336759153710800,6.7357109375,2.453161798647046,-3.879327989464998,-3.51937765623033
1789336759163720000,6.745719970703125,2.6087854910790917,-4.176938478642702,-3.075110624930262
1789336759173729800,6.755729736328125,2.8854467157304287,-4.463772137740254,-2.7759412158727645
1789336759183739000,6.76573876953125,3.174628399258852,-4.824756490197777,-2.6334938158780337
1789336759193749000,6.7757490234375,3.3001942225575447,-5.1518520170569415,-2.526678285756707
1789336759203758000,6.785758056640625,3.163469876384735,-5.094011237984895,-2.242529920220375
1789336759213767000,6.795766845703125,2.5346868201673027,-4.343715433251858,-1.8275275618493556
1789336759223776800,6.80577685546875,1.6356389623373746,-3.5477117703109977,-1.6706307807415723
1789336759233785900,6.815785888671875,0.7409088215760886,-2.8476357482522725,-1.772462677231431
1789336759243796000,6.8257958984375,0.15818448283076286,-2.27778828060627,-1.8324550813794136
1789336759253804800,6.8358046875,-0.28393998348265886,-1.8506763822466135,-1.8896078781872987
1789336759263815000,6.84581494140625,-0.16227905866801737,-1.2843547506392001,-1.92211255595088
1789336759273824000,6.855823974609375,0.6876290668092667,-0.7336550510555505,-1.8607354194462298
1789336759283832800,6.865832763671875,1.624496513815224,-0.3058691989570856,-1.6990934896379708
1789336759293842700,6.8758427734375,2.2581594510287046,0.02659282337129116,-1.4705419236391781
1789336759303851800,6.885851806640625,2.571778241199255,0.32581834653019903,-1.2719330759614704
1789336759313862000,6.89586181640625,2.5061913780450817,0.6449748970836401,-1.1300286968022584
1789336759323871000,6.90587109375,2.2179741556346415,0.9757587570667267,-1.0043775333076714
1789336759333880800,6.915880859375,1.8716645174786448,1.2254343596369028,-0.8709668417274952
1789336759343890000,6.925889892578125,1.6552800668746233,1.6155442688137291,-0.5770148750573396
1789336759353899000,6.93589892578125,1.6543074224501848,1.8114152159601449,-0.22552198904454707
1789336759363909000,6.9459091796875,1.8792402134299278,1.9738450812757014,0.21063597007989882
1789336759373917700,6.955917724609375,2.25735602569133,2.1062825439095496,0.7136246549397707
1789336759383927800,6.965927734375,2.568420747464895,2.1550328385531903,1.1420055503219366
1789336759393937000,6.97593701171875,2.783883114787936,2.165494611334801,1.526706878453493
1789336759403946800,6.98594677734375,2.964379090408981,2.1774241185814143,1.847489568904042
1789336759413955800,6.995955810546875,3.0070600020110607,2.267126016816497,2.0104829133212565
1789336759423965000,7.00596484375,2.8814295890435573,2.4059669167518614,2.0529589500010013
1789336759433975000,7.01597509765625,2.688001651135087,2.5617671347945925,1.9468828400701284
1789336759443983600,7.025983642578125,2.356081918989867,2.7905051632761952,1.8947522553384304
1789336759453993500,7.035993408203125,1.9424219151385127,3.046495355820656,1.87089967058599
1789336759464002600,7.04600244140625,1.3532272113353012,3.242615309292078,1.8735428785711525
1789336759474012700,7.0560126953125,1.003158805167675,3.488240175166726,2.092365077716112
1789336759484021800,7.066021728515625,0.7974939014986157,3.662802961346507,2.3938977087736126
1789336759494030600,7.076030517578125,0.5559539668500423,3.660426879864931,2.5685914278566835
1789336759504040700,7.086040771484375,0.2727063495457172,3.538395660433173,2.492632808291912
1789336759514049500,7.096049560546875,-0.10602028809040784,3.3425615381658074,2.332018467965722
1789336759524059600,7.1060595703125,-0.1739858630746603,3.2896699059337378,2.3769810607641935
1789336759534068500,7.116068359375,-0.4825093759328127,2.970476530501246,2.332586623242497
1789336759544078600,7.12607861328125,-1.0030150127828121,2.609808988907933,2.3313088583916426
1789336759554087700,7.136087646484375,-1.28427087174803,2.43769359588027,2.5727041238725183
1789336759564096800,7.1460966796875,-1.2604869683176279,2.3312153348892926,2.992863134354353
1789336759574106600,7.156106689453125,-1.207039163507521,2.279604390117526,3.30771877284348
1789336759584115700,7.16611572265625,-1.312163964062929,2.2362556622564793,3.423033835762739
1789336759594125800,7.176125732421875,-1.5975608683556317,2.175610931679606,3.3256454746782778
1789336759604134700,7.186134765625,-2.1119825091168285,2.1007547203987835,3.068017451798916
1789336759614143500,7.1961435546875,-2.7481109596610067,2.0322797345876693,2.7228911782085894
1789336759624153600,7.206153564453125,-3.5465520788818594,1.7974170857459306,2.403611878058314
1789336759634162700,7.21616259765625,-4.458700825825333,1.2878431772768497,2.3369576779335737
1789336759644172500,7.226172607421875,-4.782089899381995,0.5256839162707329,2.4971429791927338
1789336759654181600,7.236181640625,-4.094370670071244,-0.28423487477600573,2.902521769171953
1789336759664191700,7.246191650390625,-3.0465368568748232,-0.9333511094480752,3.098300361859798
1789336759674200600,7.25620068359375,-2.2155584727950393,-1.7457763303577898,2.786993940284848
1789336759684209700,7.266209716796875,-1.9676837821669875,-2.733845118421316,1.9872545979470013
1789336759694219500,7.276219482421875,-2.240501044741273,-3.782317814043164,1.3726824379116296
1789336759704228600,7.286228515625,-2.6592028421521183,-4.820582419383525,0.8509078040391206
1789336759714238700,7.29623876953125,-2.8057775512099266,-5.339528551831841,0.08205109122097491
1789336759724247800,7.306247802734375,-2.005127523767948,-4.91606290102005,-1.526125279173255
1789336759734256600,7.316256591796875,-1.1638006180226803,-6.013765199235081,-1.028631100076437
1789336759744266800,7.326266845703125,-0.7921662767350673,-6.746489106920361,-0.8421604339599609
1789336759754275600,7.336275634765625,-2.1590473348915578,-5.72105417253673,-1.469424902307987
1789336759764285400,7.346285400390625,-1.6318553521454333,-4.043039126762747,-1.509077113738656
1789336759774294500,7.35629443359375,-0.6147966164410114,-3.0278380016237496,-1.4832681342214344
1789336759784304600,7.3663046875,0.31362755799889563,-2.3232465479671953,-1.411662449169159
1789336759794313700,7.376313720703125,1.03510402241759,-1.8463515047848225,-1.315080728292465
1789336759804322800,7.38632275390625,1.4964087708234786,-1.4877180993676185,-1.3353630533427
1789336759814332700,7.396332763671875,1.677665355553478,-1.1188830334097146,-1.3267507078200578
1789336759824341500,7.406341552734375,1.472573137205839,-0.8756126217067242,-1.3116525074094534
1789336759834351600,7.4163515625,0.9464391390800475,-0.7325298464179039,-1.2283476167351006
1789336759844360700,7.426360595703125,0.3182687348682433,-0.6030372050642967,-0.9767074360936879
1789336759854369500,7.43636962890625,-0.2650152105212211,-0.4598240813940763,-0.7296656891584395
1789336759864379600,7.446379638671875,-0.445350807948783,-0.24387071568369864,-0.5325719222187996
1789336759874388700,7.456388671875,-0.26876550296545026,0.08817278897166252,-0.47702480704188344
1789336759884398600,7.466398681640625,0.04229476182870567,0.4351899908751249,-0.6108376496821641
1789336759894407700,7.47640771484375,0.3209539553642273,0.8125766120791434,-0.8392354864239692
1789336759904417800,7.486417724609375,0.5476151045065373,1.1497948890239,-1.1700813057273625
1789336759914426600,7.496426513671875,0.6848632553577423,1.4811679470717907,-1.303693072837591
1789336759924435700,7.506435791015625,0.8620388543844223,1.6694079609483479,-1.4151555519819259
1789336759934445600,7.516445556640625,1.106765310114622,1.6747019757032393,-1.5776602360993623
1789336759944454700,7.52645458984375,1.448175193530321,1.5861428177624939,-1.576957640787959
1789336759954464800,7.53646484375,1.7170763055741787,1.324335463371873,-1.6183581571906804
1789336759964473600,7.5464736328125,1.7137468688905237,0.913414821356535,-1.7170546782642602
1789336759974482400,7.556482421875,1.3610463606536387,0.5002817639887333,-1.7634668853491544
1789336759984492500,7.566492431640625,0.6380337727088481,0.057151627764105796,-1.868049541851878
1789336759994501600,7.576501708984375,-0.15563830547928809,-0.44795828703343865,-2.0914730973124502
1789336760004511500,7.586511474609375,-0.688282781477645,-0.8596025671482086,-2.3380635933488607
1789336760014520600,7.5965205078125,-0.9293395357191562,-1.1876724919974804,-2.397270984598994
1789336760024529700,7.60652978515625,-0.9715864398181437,-1.3177081541866063,-2.207539270859957
1789336760034539800,7.616539794921875,-1.0527321066319941,-1.2519295678526163,-1.7909978663533925
1789336760044548900,7.626548828125,-1.3369722421050072,-0.9540987139225006,-1.2223656197160482
1789336760054558700,7.636558837890625,-1.855347296667099,-0.34862522162199017,-0.9056588004022836
1789336760064567600,7.646567626953125,-2.527055302375555,0.36785306918323035,-1.1843822182804344
1789336760074577700,7.65657763671875,-2.921722144204378,0.8284200778990983,-0.09534779516756534
1789336760084586500,7.66658642578125,-2.9731916346788405,1.249098728340864,0.562920298731327
1789336760094595600,7.676595703125,-2.6839526680052277,1.4247089777469635,0.7251110945940017
1789336760104605700,7.686605712890625,-2.049171248155832,1.3078063533753157,0.5014519768118858
1789336760114614800,7.69661474609375,-1.2979402083992957,1.0307938310682774,0.05487023882865905
1789336760124624600,7.706624755859375,-0.6790799957811832,0.8257721937388182,-0.1709142005443573
1789336760134633500,7.716633544921875,-0.4519920725941658,0.4686059382647276,-0.27767770821750165
1789336760144642600,7.726642578125,-0.6991454632103443,-0.20263444993197915,-0.7013917808324098
1789336760154652700,7.736652587890625,-1.209365268367529,-0.7516127325505018,-1.326713298419118
1789336760164661800,7.746661865234375,-1.6621721644759178,-0.9300666809499263,-1.6075088463962077
1789336760174671600,7.756671630859375,-1.802701748150587,-0.8365946165263652,-1.5602484980493783
1789336760184680700,7.7666806640625,-1.505388196092844,-0.6504910301566124,-1.3797995764404534
1789336760194689800,7.776689697265625,-0.9566998363316058,-0.5048211609840393,-1.1343395457386969
1789336760204699600,7.78669970703125,-0.4325543816745281,-0.4542828138798475,-0.7989379628270864
1789336760214708500,7.79670849609375,-0.12302782925367355,-0.4892705406308174,-0.4575894542098045
1789336760224718600,7.806718505859375,-0.1618985349178314,-0.5568459472537041,-0.17777824109494686
1789336760234727700,7.816727783203125,-0.5353197596222162,-0.5951800618231297,-0.05235387209355831
1789336760244737500,7.826737548828125,-1.171359655100107,-0.5233347227960825,-0.008004442757368087
1789336760254746600,7.83674658203125,-1.7468828302949666,-0.43634325256347656,-0.009390928679704666
1789336760264755700,7.846755615234375,-1.7489532068282365,-0.16284487585723398,0.003095627927780151
1789336760274765800,7.856765869140625,-1.357720431101322,0.32839725710749623,0.23323767798840997
1789336760284774700,7.866774658203125,-0.8434978200435638,0.8958359100461005,0.5864122334778309
1789336760294784500,7.876784423828125,-0.26478664419604464,1.3834247812002896,0.9393424588173628
1789336760304793600,7.886793701171875,0.4236608811229467,1.7856600124567745,1.3230693889588117
1789336760314802700,7.896802734375,1.0960475167453287,1.9464649069190023,1.741376634094119
1789336760324812500,7.9068125,1.3805103550583124,1.7790759578913449,2.0108657751590013
1789336760334821600,7.916821533203125,1.3434504982084035,1.3970336198359727,1.964865656006336
1789336760344831700,7.926831787109375,1.132522851705551,1.011982163092494,1.775116406610608
1789336760354840800,7.9368408203125,0.6139274323910474,0.6563467704474926,1.4657611191034317
1789336760364849700,7.946849609375,-0.09863456175327301,0.23841771097481249,1.1375450637817381
1789336760374859500,7.956859619140625,-0.5813695631355047,-0.1621089627981186,0.8582920690715312
1789336760384868600,7.96686865234375,-0.50237669044137,-0.2941787611633539,0.6616670886874199
1789336760394878700,7.976878662109375,-0.12541448692819102,-0.1328770230948925,0.6686047789961099
1789336760404887600,7.986887451171875,0.051752399069070816,0.1371943017721176,0.6670803459078073
1789336760414896600,7.996896728515625,0.04155833731293678,0.39305589950084685,0.6388070221036672
1789336760424906800,8.00690673828125,0.014960801233910023,0.5719838951528072,0.6265045898914336
1789336760434915600,8.01691552734375,0.11513327661156654,0.7287900753676891,0.6588175444751978
1789336760444925200,8.02692529296875,0.09522676260378211,0.786963447394967,0.6621463966369628
1789336760454934300,8.036934326171876,0.07173596036843954,0.8546715404868125,0.6056441726922989
1789336760464943400,8.046943359375,0.06544124413840473,0.8751157781004906,0.609532412302494
1789336760474953500,8.056953369140626,0.0419574561657384,0.9051333152234554,0.7346919928878546
1789336760484962600,8.066962646484376,0.05845160444676876,0.967436334401369,0.8631395091027021
1789336760494972400,8.076972412109376,0.0880559576589614,1.046775828576088,0.9281436039328574
1789336760504981200,8.086981201171875,0.2565904599925503,1.1089566826790571,1.0156839402198792
1789336760514990300,8.096990234375,0.4649135865528136,1.107692361831665,1.0745704289525746
1789336760525000400,8.10700048828125,0.5821382094204426,1.0198550884246826,1.0838660805642604
1789336760535009300,8.11700927734375,0.7460668619263917,0.9727519764661788,1.1037357331603765
1789336760545019400,8.127019287109375,0.8817885338626802,0.9700672674268483,1.049067738905549
1789336760555028500,8.137028564453125,0.9590524638723581,0.9568810381174087,0.9543705166012049
1789336760565037600,8.14703759765625,0.9294033216703682,0.9879366861164569,0.8300871343284845
1789336760575047400,8.15704736328125,0.9623604193765669,1.080246721023321,0.7315063485890626
1789336760585056300,8.16705615234375,1.0157125817924737,1.0915712481141089,0.6946873147577047
1789336760595066400,8.17706640625,1.1444267861194908,1.0759773731410502,0.67237202257514
1789336760605075500,8.187075439453125,1.1749394132830202,1.0149830984741448,0.5886918688476085
1789336760615084300,8.197084228515624,1.222802257567644,0.9553776478171349,0.4830927287787199
1789336760625094400,8.207094482421875,1.2717635646134615,0.8772814317017793,0.4023778545975685
1789336760635103500,8.217103515625,1.3246511051923036,0.8386205693960189,0.3838508487820625
1789336760645113300,8.22711328125,1.3638668249018489,0.7319073306053876,0.36676995012164115
1789336760655122200,8.2371220703125,1.4109171837598085,0.6304185484647751,0.29647710123360155
1789336760665131300,8.24713134765625,1.414403856831789,0.544723547783494,0.2752659709006548
1789336760675141400,8.257141357421874,1.3656174679614603,0.42949791671335696,0.2636398305147886
1789336760685150500,8.267150390625,1.2844966433279215,0.31761691989600654,0.235537187102437
1789336760695160300,8.277160400390626,1.1745545056186615,0.1679635340452194,0.16213760437071323
1789336760705169400,8.28716943359375,1.00628249014616,0.030462358281016347,0.07300970663130282
1789336760715178500,8.297178466796876,0.7990092744976282,-0.039161213043332095,-0.025830022305250167
1789336760725188600,8.307188720703126,0.6048118135213851,-0.03526128299534321,-0.18652093499898909
1789336760735197200,8.317197265625,0.46696810792982574,-0.014493804776668548,-0.3835457283556461
1789336760745207300,8.327207275390625,0.3963900123596191,0.05923369473516941,-0.5677724149376153
1789336760755216400,8.33721630859375,0.3364677508383989,0.1210819558829069,-0.7685089222937822
1789336760765225500,8.3472255859375,0.31303850606456396,0.16892156542241574,-0.9284621683627367
1789336760775235300,8.3572353515625,0.312580679294467,0.17597148393392562,-1.0056944611251353
1789336760785244400,8.367244384765625,0.3317757936298847,0.13496610432863235,-0.9428010748386383
1789336760795254500,8.377254638671875,0.370806073769927,0.0881254426985979,-0.7555459803462028
1789336760805263400,8.387263427734375,0.38821649664565916,0.024531214666366576,-0.5654179607659578
1789336760815272400,8.3972724609375,0.39943405623063444,0.007049918511509895,-0.41479193049073215
1789336760825282300,8.4072822265625,0.41437852738425135,0.012779402074217796,-0.3223024473637342
1789336760835291400,8.41729150390625,0.3630763563007116,0.0260159002661705,-0.260550632327795
1789336760845301500,8.427301513671875,0.2975910538248718,0.0902951879531145,-0.23781331534087657
1789336760855310300,8.437310302734375,0.2230371864914894,0.14735855291187763,-0.22467677039206027
1789336760865319400,8.4473193359375,0.04906038350611925,0.2567342889100313,-0.11342764173746109
1789336760875329500,8.45732958984375,-0.24984876717999577,0.32343349722027775,-0.07579203082621097
1789336760885338400,8.46733837890625,-0.7434663971044123,0.39590076753795145,-0.0318850845605135
1789336760895347500,8.477347412109374,-1.1969443243421614,0.44797582269012926,0.14287819262742996
1789336760905357300,8.487357421875,-1.559344827207923,0.4685170909374952,0.43164135848283763
1789336760915366400,8.497366455078126,-1.7137608974158762,0.44576165377199645,0.7262047350496054
1789336760925376500,8.50737646484375,-1.5845733764886856,0.47159459868669507,0.9006400954574346
1789336760935385300,8.51738525390625,-1.1882314410544932,0.5843617306888104,0.8388093699663877
1789336760945394200,8.527394287109376,-0.5781038393378257,0.7355728673756122,0.6537789657860994
1789336760955404300,8.537404296875,-0.06837927035167812,0.8867705600589513,0.6705225953161716
1789336760965413400,8.547413330078125,0.2245622041016817,1.1073971782773733,0.8868407026857137
1789336760975423200,8.55742333984375,0.39114436679109926,1.270037471473217,1.0232412237316368
1789336760985432300,8.567432373046875,0.3407569724649191,1.3115817802608012,1.0991308697134257
1789336760995441400,8.57744140625,0.3130266694962978,1.4304805468857287,1.1823662022829056
1789336761005451500,8.587451416015625,0.44428442082628605,1.5705290690451859,1.3787836773961781
1789336761015460600,8.597460693359375,0.3420047805689275,1.6846306645214557,1.592284389257431
1789336761025470500,8.607470458984375,0.43577275919914243,1.8992162490099667,1.8235627498716114
1789336761035479300,8.617479248046875,0.5130187882259488,2.074382846301794,2.121362624141574
1789336761045488400,8.62748828125,0.5929509875968099,2.2262235130637884,2.4719512547910214
1789336761055498200,8.637498291015625,0.6037567515105009,2.328319613447785,2.8237083446979523
1789336761065507300,8.64750732421875,0.6859408214613795,2.4291344418495893,3.2449937288612127
1789336761075516400,8.657516357421875,0.5835181194715201,2.4821523308098317,3.7185008831709623
1789336761085526500,8.667526611328125,0.09677928927540778,2.457688336160779,4.147276915350556
1789336761095535400,8.677535400390624,-0.5116460385680198,2.518843938869238,4.731042433711886
1789336761105545200,8.687545166015624,-1.4662638079285621,2.8200860625475643,5.7116229118466375
1789336761115554300,8.69755419921875,-3.7991485373347995,3.2642280061632394,7.053772848850488
1789336761125563400,8.7075634765625,-8.333725565138458,3.7688720570147036,8.29168616631031
1789336761135573500,8.717573486328124,-5.833187682810426,3.560667113474011,7.675718752524256
1789336761145582300,8.727582275390626,-2.616796948099136,3.057503656569123,5.799845969700813
1789336761155592400,8.737592529296874,-1.461739608502388,2.824686249819398,4.192037848097086
1789336761165601500,8.7476015625,-0.7103040591496974,2.651540344700217,3.1398581146508455
1789336761175610400,8.7576103515625,-0.4280694182801991,2.672355753713846,2.611547357007861
1789336761185620200,8.7676201171875,-0.5058323838531971,2.910806197914481,2.099998933595419
1789336761195629300,8.77762939453125,-0.34888358029723165,2.5075147356033325,2.1373890453130007
1789336761205638400,8.787638427734375,0.3223375186771154,1.7810107253462075,2.0818062743008134
1789336761215648500,8.7976484375,1.495630187666416,0.8437579322844744,1.5319769278109072
1789336761225657300,8.8076572265625,2.616695241290331,-0.3912491423398256,1.0324252316623925
1789336761235667500,8.81766748046875,3.4015164159595965,-1.512321794748306,0.7154717441111803
1789336761245676300,8.82767626953125,4.347885412412881,-1.8232547068357468,1.0425748697549104
1789336761255685400,8.837685302734375,4.9211155082345,-2.09401898240298,1.4949860445439815
1789336761265695200,8.8476953125,4.754287115699053,-2.601580674266815,1.4353297404825687
1789336761275704300,8.857704345703125,2.3544565097451207,-3.3206331994742153,1.331386550927162
1789336761285714400,8.86771435546875,-1.4292308390855788,-3.969439345283806,1.588328929629922
1789336761295723500,8.8777236328125,-0.7725448998115957,-3.972736925524473,1.8608645987838506
1789336761305732600,8.887732666015625,1.1635586990255862,-3.52194224602133,1.233785423874855
1789336761315742500,8.897742431640625,1.8559598756074904,-3.0391064146131277,0.13274901280105114
1789336761325751300,8.907751220703124,1.7096107919991015,-2.538390058599412,-0.7776677957832813
1789336761335760400,8.917760498046874,1.203685030774027,-2.1512685175836084,-1.3967021959245205
1789336761345770200,8.927770263671874,0.688718761742115,-1.9983225199282169,-1.8584382484197615
1789336761355779300,8.937779296875,0.4612017994880676,-1.9272630705818532,-2.051920254603028
1789336761365789400,8.94778955078125,0.7221908232331276,-1.8320938468515873,-1.9364695826053617
1789336761375798500,8.957798583984374,1.2759808900475502,-1.7042638780131936,-1.8612877926319837
1789336761385807400,8.967807373046876,1.862457567063719,-1.7726029624849557,-1.970429135352373
1789336761395817200,8.977817138671876,2.1668319974184036,-1.9391665666043758,-2.173980115607381
1789336761405826300,8.987826416015626,2.2033741140045224,-1.9575228920280932,-2.4003981767088174
1789336761415835400,8.99783544921875,1.9753787205837665,-2.0082547158777713,-2.7315280736505985
1789336761425845500,9.007845458984375,1.7411457479476928,-2.075109699271619,-3.136746120110154
1789336761435854300,9.017854248046875,1.5921991951920091,-2.0074685339361427,-3.521545647919178
1789336761445864000,9.027864013671875,1.4852178069844841,-1.851546443079412,-3.9017718764632936
1789336761455873000,9.037873046875,1.4181811834134161,-1.6627712994128465,-4.26681690248847
1789336761465882000,9.047882080078125,1.4721581266641617,-1.4730390011519192,-4.467977188214659
1789336761475892000,9.05789208984375,1.465195301914215,-1.3525503349870442,-4.4605145972490305
1789336761485901000,9.067901123046875,1.2753626120187342,-1.2646461338236927,-4.420242792615294
1789336761495910000,9.077909912109375,0.9692648650027811,-1.2241349674761295,-4.271725717318057
1789336761505920000,9.087919921875,0.5664964036524296,-1.2092319973766803,-4.138603779551387
1789336761515929000,9.09792919921875,0.28416297858357425,-1.1825152553647755,-4.198047902166843
1789336761525939000,9.10793896484375,0.10581132151484489,-0.9921379371985792,-4.377122028291225
1789336761535948000,9.117947998046875,-0.11234379202350973,-0.5273711387053132,-4.507102745422721
1789336761545957000,9.12795703125,-0.4457692525565624,0.1449208043709397,-4.397476834055781
1789336761555967000,9.137967041015624,-1.0142132831454276,0.8809849623948335,-3.8544998376786705
1789336761565975800,9.147975830078124,-1.754052868054807,1.6107432982727885,-2.929338464426994
1789336761575985000,9.15798486328125,-2.4635987292483446,2.320705339051783,-1.6506062298446893
1789336761585995000,9.1679951171875,-3.052880672943592,2.779485756611824,-0.32127836501300333
1789336761596004000,9.178004150390626,-3.391142321461439,2.96771904848665,1.1913181550234555
1789336761606014000,9.188013916015626,-3.9642461605548855,3.250549024900794,3.146128280961513
1789336761616023000,9.19802294921875,-5.09348166115284,4.112540240751207,5.727479821670055
1789336761626032000,9.2080322265625,-3.8877100333631036,4.098089106072485,7.363176651674508
1789336761636042200,9.218042236328126,0.17280805146694184,2.936935495427251,7.161554009133577
1789336761646050800,9.22805078125,5.048729496234655,0.858755010408163,4.896333533677458
1789336761656060000,9.238059814453125,7.225905193012952,-0.9720470430672168,2.604748782908916
1789336761666070000,9.248070068359375,5.825090301072597,-2.125246479837596,1.4029086493492127
1789336761676079000,9.2580791015625,4.0301860749304295,-3.090810882887244,1.571851257559657
1789336761686089000,9.2680888671875,0.4575882851660251,-3.6560093556836244,2.476729721239209
1789336761696098000,9.27809814453125,-7.667048539334536,-3.3554972998455166,2.667475580456853
1789336761706107000,9.28810693359375,-10.30383964319229,-2.6986455024853346,1.1747311773598192
1789336761716117000,9.298116943359375,-3.5268040068387982,-2.4329610144004223,-0.3538122688710689
1789336761726126000,9.3081259765625,2.1464789452195165,-2.5738603081703184,-2.0545278067529202
1789336761736135000,9.318135009765625,3.947678764374554,-2.711457637785375,-3.425415177941322
1789336761746144000,9.32814404296875,4.218371728271245,-3.0561826370984315,-3.0206068813264366
1789336761756154000,9.338154052734374,4.014652990233898,-3.376850176736712,-2.1497873391151425
1789336761766163200,9.3481630859375,3.6852994553148744,-3.6434710688889025,-1.413370422130823
1789336761776172000,9.358172119140624,3.0528175445795056,-3.5736744790852066,-0.8471645258575677
1789336761786182000,9.368181884765624,2.2212264354288576,-3.205596076713502,-0.624967297321558
1789336761796191000,9.37819091796875,1.3564999493956564,-2.639345464515686,-0.7384890470832586
1789336761806200000,9.388199951171876,0.6193056182980538,-1.9649977579534053,-0.8590028476893902
1789336761816210000,9.3982099609375,0.09736030403375626,-1.372700265829265,-1.002687096002698
1789336761826219000,9.408218994140626,-0.06912959552863612,-0.9417448437839746,-1.2251496974766254
1789336761836229000,9.41822900390625,0.09430270656142384,-0.6788388805016875,-1.231547289559245
1789336761846238000,9.428238037109375,0.35037352659404275,-0.47554918153136966,-0.9008452626407146
1789336761856247000,9.4382470703125,0.4535048152446747,-0.19091595508754253,-0.4878361239135265
1789336761866257000,9.4482568359375,0.3544377072930336,0.1410726045101881,-0.2587836226552725
1789336761876266000,9.458265869140625,0.2892822578260675,0.5656593683063984,-0.12115151398777961
1789336761886275000,9.468275146484375,0.17898524226453155,0.8447849372446536,-0.15549568213820456
1789336761896285200,9.47828515625,0.04095803333222866,0.9161123898774385,-0.20815993535518645
1789336761906294000,9.4882939453125,0.017784041961096227,0.8723696942627429,-0.17701485550701618
1789336761916304100,9.49830419921875,-0.01047697035074234,0.7661182277649641,-0.16324176622033118
1789336761926313000,9.50831298828125,-0.016096563798189162,0.6418582263678312,-0.006385901644825935
1789336761936322000,9.518322021484375,0.02338898582868278,0.5742097545087337,0.1388543439388275
1789336761946332000,9.528331787109375,0.07376315534710884,0.5425993952363729,0.20725860260128973
1789336761956341000,9.538341064453125,0.061700888566300266,0.5518477005749941,0.11068331146538257
1789336761966351000,9.54835107421875,-0.02489478728175163,0.7101613627433776,-0.06498772821724415
1789336761976360200,9.558360107421874,-0.06709083797633647,1.0146218639463185,-0.2440162616342306
1789336761986369000,9.568369140625,-0.04647299736142158,1.3694406795114278,-0.34473815105557437
1789336761996379000,9.57837890625,0.0318283859372139,1.678100385969877,-0.45038054574429986
1789336762006388000,9.588387939453124,0.20160729884132741,1.9384937819093464,-0.38688217930197716
1789336762016397000,9.59839697265625,0.35828736845850945,2.0673019481301305,-0.18685878865122793
1789336762026407000,9.608406982421876,0.5745212316107005,2.041150438785553,0.1825643063277006
1789336762036416000,9.618416015625,0.8000514770269394,1.862516457644105,0.6633581105142832
1789336762046425000,9.628425048828126,1.0331026925325393,1.6217209116220472,0.9572434416890144
1789336762056435200,9.638435302734376,1.1149867566235363,1.423102127072215,1.1107558410555123
1789336762066444000,9.648444091796875,1.102303508400172,1.3027823877334594,1.2618459817111491
1789336762076454000,9.658453857421875,1.0368543001510202,1.2358949633747338,1.3494628903657198
1789336762086463000,9.668462890625,0.8409580724328756,1.1632651959717273,1.2551321632862091
1789336762096472000,9.67847216796875,0.5732919090114533,1.091979828915,0.9653799863934517
1789336762106482000,9.68848193359375,0.3049450698494911,1.0072948820590972,0.7554086177021264
1789336762116491000,9.698490966796875,0.05865604097768664,0.9420353511631488,0.6118763450801372
1789336762126500000,9.7085,-0.17285203673914074,0.8744792337626218,0.5073685073792934
1789336762136510200,9.71851025390625,-0.4290561642952263,0.8796732952743768,0.48054888951480385
1789336762146519000,9.72851904296875,-0.7052602928288281,0.8865104478180408,0.33010932172238827
1789336762156527900,9.73852783203125,-0.9784142400115727,0.8722621422350406,0.09092588707208633
1789336762166538000,9.7485380859375,-1.2483385576233268,0.8138567150175571,-0.07968903826475143
1789336762176547000,9.758547119140625,-1.6256182113215327,0.613025515115261,-0.2648375158667564
1789336762186556200,9.76855615234375,-2.1579174540787935,0.30032851596474647,-0.25889643537998197
1789336762196566000,9.77856591796875,-3.017995822045207,-0.20182313354909417,-0.14884382303357124
1789336762206574800,9.788574951171874,-4.6653322364389895,-0.6760276224732399,0.15246961231529713
1789336762216585000,9.7985849609375,-6.4742416070580475,-0.8034832050412892,0.5184317531853914
1789336762226594000,9.808593994140624,-6.1440042750418185,-0.14102701180279253,1.1330746403694152
1789336762236603100,9.81860302734375,-3.5157629728645086,0.7404314133226871,1.4074965616613626
1789336762246613000,9.828613037109376,-1.9710861379563807,1.4478952075451612,1.7887153083741665
1789336762256622000,9.8386220703125,-1.084411439487338,1.9640256980508566,2.187408336979151
1789336762266631200,9.848631103515626,-0.3597843290179968,2.387865442872047,2.6707851433962584
1789336762276641000,9.85864111328125,0.15810323428809642,2.774787369662523,3.346201355972886
1789336762286649900,9.86864990234375,0.629389205417037,3.017489626088738,4.233060763359069
1789336762296659000,9.878658935546875,1.0863291096769272,3.2156887239217755,5.298143232998251
1789336762306669000,9.8886689453125,1.378069391646981,3.409557683596015,6.3324547167986625
1789336762316678100,9.89867822265625,1.4695361075975,3.446342230635881,7.22559188928008
1789336762326687000,9.90868701171875,1.6242513068825006,3.3196167159080505,7.953643713501095
1789336762336697000,9.918697021484375,1.5531301904767751,3.273389802262187,8.343876372274757
1789336762346706000,9.928705810546875,1.1022807120464742,3.498281676709652,8.135986486032605
1789336762356716000,9.938716064453125,0.1946685856193304,4.026609385487437,7.19698363443315
1789336762366724900,9.948724853515625,-2.841269135829806,4.537180488300323,5.059038708803057
1789336762376734000,9.95873388671875,-16.384183639228343,4.643244907793402,2.062441064095497
1789336762386744000,9.968744140625,-13.114503797399998,2.4177029472529887,0.7890531131505966
1789336762396753200,9.978753173828125,-3.1911183462888,-0.13134031504690646,2.172525240623951
1789336762406762200,9.98876220703125,0.14198153604865074,-2.2354133662134408,3.177725780752301
1789336762416772000,9.998772216796874,2.6341391280442474,-3.677862583312392,3.465658341002464
1789336762426781000,10.008781005859374,2.0334733282864095,-4.631830948853493,2.1377315751403567
1789336762436790000,10.0187900390625,-0.8542530228137969,-6.009651918697357,0.24741759451031684
1789336762446800100,10.028800048828124,-4.22172162322104,-7.286276951867341,-0.7411158884555101
1789336762456809200,10.038809326171876,-3.7552059352338314,-7.877531364679336,-0.68231240183115
1789336762466818300,10.048818359375,-1.1587351513266562,-7.501266440981626,-0.20152093573212623
1789336762476828400,10.058828369140626,0.3411667223095894,-7.211285716030001,-0.10659633441269398
1789336762486837200,10.068837158203126,1.053314290434122,-6.865866596972942,-0.2999000614196062
1789336762496846000,10.07884619140625,1.5037082801818846,-5.639347949230671,-0.34057635520100593
1789336762506856200,10.088856201171875,1.8632348350465298,-4.304394061210751,-0.6535451570302248
1789336762516865300,10.098865234375,2.096744315713644,-3.3455618890255687,-1.1393483138114213
1789336762526875100,10.108875244140625,2.1770096925616262,-2.6655077875152227,-1.7224293570399283
1789336762536884200,10.11888427734375,2.274593283957243,-2.1789333541005846,-2.447174540930986
1789336762546893300,10.128893310546875,2.0454373223245144,-1.6583087670460341,-3.000772300043702
1789336762556903400,10.1389033203125,1.5816951907038688,-1.049084397779405,-3.3324750284373756
1789336762566912300,10.148912353515625,1.02638288275823,-0.4224380613297224,-3.528748126643896
1789336762576921300,10.15892138671875,0.656651890873909,0.14138240111172198,-3.592158230280876
1789336762586931200,10.16893115234375,0.654692719630152,0.37863282187283037,-3.6449668604046104
1789336762596940300,10.178940185546875,0.9824642460547387,0.37316783446520563,-3.772522980737686
1789336762606949400,10.188949462890625,1.2702096131697296,0.3757379772141576,-3.8241824408262968
1789336762616959200,10.198959228515625,1.4408103638507426,0.4198173574373126,-3.7991678265571593
1789336762626968300,10.20896826171875,1.470518981155008,0.41966596626788377,-3.807935654902458
1789336762636977200,10.21897705078125,1.503681684435904,0.32726649951189757,-3.7956577726095913
1789336762646987300,10.2289873046875,1.5762300571657717,-0.04114975651204586,-3.9906326476991176
1789336762656996400,10.238996337890624,1.7637107771076261,-0.5630348650217056,-4.612581473982334
1789336762667006200,10.249006103515624,1.9866776748418806,-0.9557777530506253,-5.068866859856247
1789336762677015300,10.259015380859376,2.140694370468706,-1.2365133875340222,-5.332596122220158
1789336762687024400,10.2690244140625,2.2599241226136684,-1.5090277216389774,-5.596347596415877
1789336762697034200,10.2790341796875,2.175452380117029,-1.7199425086602567,-5.867751631191372
1789336762707043000,10.28904296875,2.0427543668508528,-1.8433733657568692,-6.0852013729393475
1789336762717052200,10.29905224609375,1.9901228468596934,-1.8252227920383215,-6.238771639972925
1789336762727062300,10.309062255859375,1.936989807087183,-1.6964903214022515,-6.141648651826381
1789336762737071400,10.3190712890625,1.7002222014069557,-1.6260925508350133,-5.766596026527881
1789336762747080400,10.32908056640625,1.0613725092053412,-1.6510048737734555,-4.936469729232788
1789336762757090300,10.33909033203125,-0.18289558410868048,-1.5431605851262806,-3.3429864855796096
1789336762767099400,10.349099365234375,-2.215474886164814,-0.8555942082896828,-0.9475748651117086
1789336762777109500,10.359109619140625,-4.4589749665915965,0.02947013237327337,2.211077966380119
1789336762787118000,10.3691181640625,-5.110058701944351,1.101914362952113,5.438523179069161
1789336762797127200,10.379127197265625,-4.094827181667089,1.9069453819572924,8.437553603881597
1789336762807137300,10.38913720703125,-3.2245816399514675,2.5967659674614665,9.962408716988563
1789336762817146400,10.399146484375,-2.7124247292518615,3.3304970063626764,9.14098828871846
1789336762827155500,10.409155517578125,-1.7080793446481226,4.456875363963842,8.143112976911663
1789336762837165300,10.419165283203125,-1.215136837506294,5.85063624573946,6.764996238991618
1789336762847174100,10.429174072265624,-0.6786591400206089,6.953553648254275,4.914184247666597
1789336762857183200,10.439183349609374,-0.3903472250640392,7.43909903088212,2.7716093241482973
1789336762867193300,10.449193359375,-0.7262953359425067,6.586715309071541,0.4330366122335195
1789336762877202200,10.4592021484375,-0.6193652395308017,3.824166658735275,-0.28030221150219436
1789336762887212300,10.46921240234375,0.21936989615559577,1.134859770220518,0.19694354481399057
1789336762897221400,10.479221435546876,1.17747141597867,-0.8555214353144168,0.589545270806551
1789336762907230500,10.48923046875,2.635485281956196,-2.3100424907401202,1.2158318340331316
1789336762917240300,10.499240234375,3.4885447110712526,-3.856345757806301,2.4155080675572154
1789336762927249200,10.509249267578125,4.149030481019616,-5.72187425674796,4.364344964304566
1789336762937258200,10.51925830078125,4.321885294237733,-7.1084162931859485,5.807843398195505
1789336762947268400,10.529268310546875,1.3945909028589725,-8.369222994977235,6.350610551214218
1789336762957277200,10.539277099609375,-17.54595596629381,-9.551924712824821,3.7484634752362966
1789336762967287300,10.549287353515625,-23.421894995594023,-10.216635991513728,-1.734168310150504
1789336762977296400,10.55929638671875,-7.427146727281809,-8.902594543141126,-3.220615074408054
1789336762987305200,10.56930517578125,4.085259727376699,-5.7922752421855925,-3.540534426027536
1789336762997315000,10.579315185546875,5.9372460231781,-3.442608597065508,-4.1424931882053615
1789336763007324200,10.58932421875,4.155452623021603,-2.5412621069043873,-4.787440612760186
1789336763017333200,10.599333251953125,3.8007062881708142,-2.909355706845224,-5.182107454589009
1789336763027343400,10.60934326171875,3.6992964164853093,-3.6315816013917326,-4.958083010625839
1789336763037352400,10.6193525390625,3.573486263036728,-4.261937313753366,-4.546093278074264
1789336763047361300,10.629361328125,3.455896825444698,-4.816576983134448,-4.023595006102323
1789336763057371400,10.639371337890625,3.337159386861324,-5.3679152728825805,-3.384758173382282
1789336763067380200,10.649380126953124,3.1835920424371955,-5.814206503486633,-2.675921337240934
1789336763077390000,10.65939013671875,3.0546774932324885,-5.860583639258146,-2.079074803510308
1789336763087399200,10.669399169921874,2.7160020032167433,-5.57224600533843,-1.843810003608465
1789336763097408300,10.679408203125,2.1095348237037657,-5.072073546943068,-1.9383143336892126
1789336763107418400,10.68941845703125,1.2536340336829424,-4.463161020104587,-2.1515449964374302
1789336763117427500,10.699427490234376,0.41367125589773057,-3.812102711454034,-2.500439682650566
1789336763127436300,10.709436279296876,-0.2581787886299193,-3.215153301870823,-2.958945082661509
1789336763137446100,10.719446044921876,-0.6467869149416685,-2.607619954431057,-3.580375438028574
1789336763147455200,10.729455322265625,-0.5376946720600128,-1.9811442983731626,-4.136156386399269
1789336763157464300,10.73946435546875,0.0210749367326498,-1.4889581625565886,-4.433883195433021
1789336763167474200,10.74947412109375,0.7703482665501534,-1.2470441338986158,-4.3555093314200635
1789336763177483300,10.759483154296875,1.627883525905013,-1.270913962046802,-3.9293285764306782
1789336763187492400,10.769492431640625,2.4719039085179566,-1.4885186020955443,-3.240798615258932
1789336763197502500,10.77950244140625,3.2374668404877185,-1.8037021573647856,-2.4491163226485253
1789336763207511300,10.78951123046875,3.7956151025116442,-2.087391673217714,-1.6435966433435678
1789336763217521200,10.799521240234375,4.126390194666385,-2.1632380645796654,-0.8914256923884153
1789336763227530200,10.8095302734375,4.235981619241834,-2.048377467429638,-0.22528350411355494
1789336763237539300,10.819539306640625,4.172974251186847,-1.7927578617632387,0.20547581083774566
1789336763247549200,10.829549072265625,4.015299471443892,-1.4685381826013326,0.378525269845128
1789336763257558300,10.839558349609375,3.7635879791319367,-1.056160327515006,0.35977088501453397
1789336763267567000,10.849567138671874,3.5501889740794894,-0.5753104092270136,0.16512568027079105
1789336763277577200,10.8595771484375,3.2730472724348303,-0.10130407322347164,-0.0732289023399353
1789336763287586300,10.86958642578125,3.0338375342994928,0.43064007248580455,-0.3588286357283592
1789336763297595100,10.87959521484375,2.7297669091969725,0.9375924002796411,-0.659911769452691
1789336763307605200,10.889605224609374,2.521611065495014,1.436588216111064,-0.8694313027232885
1789336763317614300,10.8996142578125,2.1392484094440936,1.8061024965047836,-1.1127870546221732
1789336763327623400,10.90962353515625,1.9351386262625454,2.0690736339777707,-0.9814245277434587
1789336763337633300,10.91963330078125,1.6584129580728708,2.20799870506525,-0.8554162213742732
1789336763347642000,10.92964208984375,1.515032953403145,2.15661806191802,-0.508842671585083
1789336763357651200,10.939651123046875,1.4975450813770292,2.086245718052983,0.01565875690281391
1789336763367661300,10.949661376953125,1.4288490001611411,1.9478543154507875,0.5960942540585994
1789336763377670400,10.95967041015625,1.5065717067889868,1.8166718213140964,1.2982833227485417
1789336763387680300,10.96968017578125,1.5529285304248333,1.811319938892126,1.9224948332667349
1789336763397689300,10.979689453125,1.4849385516516864,1.9187696752637624,2.1911627210766076
1789336763407698200,10.9896982421875,1.4400963703624903,2.158724094286561,2.184160148838162
1789336763417708000,10.9997080078125,1.438883633571863,2.44328805488646,1.9190999301314353
1789336763427717000,11.009717041015625,1.480479818677157,2.646870014801621,1.5536580137431621
1789336763437726200,11.019726318359375,1.4720312854140996,2.774878555077314,1.2243845583230257
1789336763447737000,11.029737060546875,1.4171113622248173,2.6945132249861956,1.029462874725461
1789336763457745700,11.03974560546875,1.3824123892873525,2.519503864082694,1.0308177964657546
1789336763467754800,11.049754638671875,1.4603969617217778,2.293841589784622,1.258507777199149
1789336763477764900,11.059764892578125,1.469442876356095,1.9207506199479103,1.5530898584663868
1789336763487774000,11.06977392578125,1.4278623272113502,1.3909598528802394,1.8025877663820982
1789336763497783000,11.079782958984374,1.4169834980614482,0.7442951030135154,1.9007798450648783
1789336763507793000,11.08979296875,1.3466821736060082,0.14496844290494917,2.000487589007616
1789336763517802000,11.099802001953124,1.221185470020771,-0.41066228334009647,2.1093734956622123
1789336763527810800,11.109810791015626,1.020035121166706,-0.9009756110221147,2.2781629591375587
1789336763537821000,11.119821044921874,0.593499999781698,-1.3635890308737755,2.4337872360914945
1789336763547829800,11.129829833984376,-1.2710454794719814,-2.0071563992470502,2.7661306004762647
1789336763557838800,11.1398388671875,-11.451239746034144,-3.6624469875156875,3.446629815405607
1789336763567849000,11.149848876953126,-14.311410566210746,-5.842661613598466,3.331056978332996
1789336763577858000,11.159858154296876,-3.3278204806298017,-5.790907460963726,2.7018033819943663
1789336763587867000,11.169866943359375,0.07516542336046696,-5.418273587244749,1.277553253930807
1789336763597876700,11.179876708984375,0.25981413474678994,-5.340432807195186,-0.46492871105670924
1789336763607885800,11.1898857421875,-0.012136866386979818,-4.941292034822702,-1.8777292243450878
1789336763617895000,11.19989501953125,-0.3335259982980788,-3.8712332380756735,-2.4725170719802376
1789336763627904800,11.20990478515625,-1.2183593797493726,-2.2445845146626233,-2.1826707870632407
1789336763637913900,11.219913818359375,-1.5205740747869014,-0.4286246410101652,-1.7450158673793077
1789336763647924000,11.229924072265625,-2.3820769225984813,0.8803975178956985,-2.406075637823343
1789336763657933000,11.23993310546875,-3.1402737097144127,0.23384938014596698,-3.043549950018525
1789336763667942000,11.24994189453125,-2.2974568576723335,-0.4273243720665574,-3.3050726422488688
1789336763677951700,11.25995166015625,-1.3449100493669508,-0.4893406832575798,-3.3804613529711958
1789336763687960800,11.2699609375,-0.419074795441702,-0.38213235442638394,-3.1326994750678536
1789336763697970000,11.279969970703124,0.1769002161514014,-0.23681845908463,-2.8268799604713917
1789336763707980000,11.28997998046875,0.3425204750061035,-0.11665858648270368,-2.676873523399234
1789336763717988900,11.29998876953125,0.3248218097735196,-0.16583762793242932,-2.7346681252419947
1789336763727997700,11.309997802734374,0.32946868573129173,-0.31947803759276866,-2.732810514676571
1789336763738007800,11.3200078125,0.4326584265708923,-0.5180979911863803,-2.5158809974104166
1789336763748017000,11.330016845703126,0.6232534060757607,-0.6665031305417418,-2.1900866162776946
1789336763758026000,11.34002587890625,1.1173154187668115,-0.8188912020534277,-1.9008856435269117
1789336763768035800,11.350035888671876,1.857715779364109,-0.9279360986620188,-1.5667758539915084
1789336763778045000,11.360044921875,2.6150848834842444,-0.9011702568113803,-0.9913701676964759
1789336763788054000,11.370053955078125,3.0874469594120977,-0.8146431892201303,-0.422269134503603
1789336763798063900,11.38006396484375,3.2920050708830355,-0.6420277377158403,-0.11436170771718024
1789336763808072700,11.39007275390625,3.397770215168595,-0.32500001588463784,0.015548866787552833
1789336763818081800,11.400081787109375,3.4777357322871683,0.0964390975356102,0.06487316192686557
1789336763828092000,11.410091796875,3.446318849760294,0.48866614499688144,0.018541618862748147
1789336763838101000,11.42010107421875,3.3441806638002394,0.7778554273098707,-0.06462415560185909
1789336763848110000,11.430110107421875,3.1789620445489883,1.0208417613744736,-0.0710024584621191
1789336763858120000,11.440119873046875,3.067498396360874,1.225076047718525,-0.03783317930996418
1789336763868128800,11.450128662109375,2.9897324351131913,1.4030220465958119,-0.07287000589966773
1789336763878137900,11.460137939453125,2.9249066194593905,1.5607541094839572,-0.13745499853491783
1789336763888147700,11.470147705078125,2.8652175821721553,1.7747493268638848,-0.06391396150588989
1789336763898156800,11.48015673828125,2.8426947847187516,2.0519816294014452,0.18965747945904732
1789336763908166000,11.490165771484374,2.80282396210134,2.345695111140609,0.553783637073636
1789336763918175000,11.500175048828124,2.7177304344445465,2.647666718137264,1.0411661720007657
1789336763928185000,11.51018505859375,2.3818021973103285,3.0350036554694175,1.4542466223984956
1789336763938194000,11.52019384765625,1.822636867198348,3.509498067250848,1.719408547914028
1789336763948203800,11.530203857421874,-0.2841834733823314,4.714817859619855,1.834412060666084
1789336763958212900,11.540212890625,1.5119915398806332,5.502009270551801,2.5787317135989665
1789336763968222000,11.550221923828126,2.0118033482700586,5.21696307939291,2.5495459511250256
1789336763978231000,11.56023095703125,1.0940659875392913,5.133814256063103,2.0538702196270227
1789336763988241000,11.570240966796876,1.5191203688472508,5.205891650280356,2.089903071516752
1789336763998250000,11.58025,1.6975655494183302,5.307090509563684,2.3548674286335705
1789336764008258800,11.5902587890625,1.6336790604412554,5.166898195019364,2.68258722487092
1789336764018269000,11.60026904296875,1.4636375510782003,4.815385435262322,3.3692110601603984
1789336764028277800,11.61027783203125,1.2873217837512492,4.313340753254294,4.3519092611014845
1789336764038286800,11.620286865234375,1.0678302339773624,3.700348555886745,5.1657297357618805
1789336764048297000,11.630296875,0.734905270312354,2.9872359421223402,5.529893887299299
1789336764058306000,11.64030615234375,0.2550033734641969,2.228341235870123,5.486271018671989
1789336764068315000,11.65031494140625,-0.5225479563325643,1.4557102652102707,5.120447409489751
1789336764078324700,11.66032470703125,-1.6780397418238222,0.647321167948842,4.612441773250699
1789336764088333800,11.670333740234375,-3.704267775157094,-0.40876960146129127,4.087297370684147
1789336764098343000,11.680343017578124,-13.230751172733306,-2.0780109736710783,2.160234498849511
1789336764108353000,11.69035302734375,-20.330246492838857,-4.080829051452875,-1.0736831247240304
1789336764118361900,11.70036181640625,-9.08897694645226,-4.22067591356039,-1.6879782213836907
1789336764128371000,11.710370849609374,-0.5759726725280284,-2.4138947871416807,-1.394340142968297
1789336764138381000,11.720381103515624,0.9288175576716661,-0.8570289172679185,-1.6681851411551236
1789336764148390000,11.730389892578126,0.44090603043437,0.24857962402701375,-1.8423393465340137
1789336764158399000,11.74039892578125,0.031152970893681048,0.8018535580128431,-1.9486358212172985
1789336764168408800,11.750408935546876,0.04976122525185346,0.9076543581336736,-1.9037708435744045
1789336764178418000,11.76041796875,0.35809973693192004,0.7995967189967632,-1.4755617976278066
1789336764188427000,11.770427001953125,0.8653226983606814,0.3827934486836195,-0.6920780090421438
1789336764198436900,11.780436767578125,1.372207806137204,-0.21168109521865844,0.4438233791857958
1789336764208445700,11.79044580078125,1.6961381469637153,-0.541582911670208,1.4888690229684114
1789336764218454800,11.800454833984375,1.6373884363532065,-0.6782078891217708,1.9813439125984906
1789336764228465000,11.81046484375,1.4492830086417496,-0.6402309174269437,1.9557044444292782
1789336764238474000,11.820473876953125,1.1785830304823814,-0.45394788283705706,1.5934896733939647
1789336764248482800,11.83048291015625,0.9240465438775718,-0.1834229689836502,1.0943874745786188
1789336764258493000,11.840492919921875,0.7056681429773569,0.07289981651604176,0.7431652222007512
1789336764268502000,11.850501953125,0.5565827662728726,0.2095388224929571,0.5917863277316093
1789336764278510800,11.8605107421875,0.4191184153877198,0.16401801128983495,0.5269990905225277
1789336764288520000,11.87052001953125,0.36958851467370984,0.059061260777711865,0.5461556264132261
1789336764298529800,11.88052978515625,0.3593722410857677,-0.07595452791154385,0.5996574994981289
1789336764308539000,11.890538818359374,0.36748642782792446,-0.1556727922707796,0.5780144074887037
1789336764318548000,11.9005478515625,0.34795126788318154,-0.13398936825096605,0.5641758517503738
1789336764328558000,11.91055810546875,0.2564519648373127,0.01250993748307228,0.4929553666234016
1789336764338566700,11.920566650390626,0.14156184933185575,0.17765666054189205,0.33851299293041226
1789336764348575700,11.93057568359375,0.018057926999032498,0.41918168988227844,0.11071838277876377
1789336764358585900,11.9405859375,-0.04824176059961319,0.6537959169209003,-0.14449030399918555
1789336764368595000,11.950594970703126,-0.07179799275398253,0.8166782021790743,-0.4369289434969425
1789336764378604000,11.96060400390625,-0.12409428944140671,0.9591928221911191,-0.5018079506427049
1789336764388614000,11.97061376953125,-0.12455825369134545,1.0657488245934248,-0.37535306954979897
1789336764398623000,11.980623046875,-0.14269523727595806,1.1576619691371917,-0.2987485532969236
1789336764408631800,11.9906318359375,-0.10027122304439544,1.2322077992945908,-0.25603520072996616
1789336764418642000,12.000641845703125,0.010552373674511908,1.3293190970033406,-0.1766138734906912
1789336764428650800,12.010650634765625,0.07043181896731257,1.4019693226724863,-0.10468027165830135
1789336764438659800,12.020659912109375,0.12837167449966072,1.506359671473503,0.015074819535017013
1789336764448668700,12.030668701171875,0.11690613150298594,1.5650778179019689,0.14872048891484738
1789336764458678800,12.0406787109375,0.06189370772466063,1.619949810296297,0.30778526171147824
1789336764468688000,12.05068798828125,-0.054884267354011536,1.6499164940148592,0.4968061968326568
1789336764478696700,12.06069677734375,-0.19689619854092597,1.5982435899227856,0.7048942359954118
1789336764488706800,12.070706787109375,-0.29956162324547764,1.4917887098073959,0.9768611653506756
1789336764498716000,12.0807158203125,-0.42641076435297726,1.4116647872567176,1.1615578075319528
1789336764508724700,12.090724853515624,-0.5535585961461067,1.379177645149827,1.2277525734513997
1789336764518734600,12.100734619140624,-0.6980944928526878,1.4028607185542583,1.1703665524095297
1789336764528743700,12.11074365234375,-0.8618781108647584,1.47467916957438,0.9844447523474693
1789336764538752800,12.120752685546876,-1.0420634131014346,1.57717975910604,0.8582979142904281
1789336764548763000,12.130762939453126,-1.2223112591803074,1.6306237645238637,0.8466986619114876
1789336764558772000,12.14077197265625,-1.351133746187389,1.6237462799698112,1.0173322919487953
1789336764568780500,12.150780517578125,-1.5048895989209412,1.5450199492573737,1.426078512534499
1789336764578790700,12.160790771484375,-1.695764052954316,1.4186620987981557,1.9288503397732972
1789336764588799700,12.1707998046875,-2.365016189943254,1.2903075215637683,2.446435120740533
1789336764598808800,12.180808837890625,-3.6711698076754806,1.3538538188010454,3.0787393368214366
1789336764608818000,12.19081787109375,-4.918004682737589,1.7417413757532834,3.924004751059413
1789336764618827800,12.200827880859375,-5.339759437978268,2.2967057470440864,4.43949694366157
1789336764628836900,12.2108369140625,-3.8351837273120877,2.699387553024292,4.514814927235245
1789336764638845700,12.220845703125,-2.0212113742150364,2.8913386963784693,4.4488983937352895
1789336764648855800,12.230855712890625,-0.9510897413648665,2.981611087977886,4.793642390009761
1789336764658864600,12.24086474609375,-0.18542028028070925,3.0704999162644144,5.550604082372784
1789336764668873700,12.250873779296874,0.3735549340866506,3.127590753751993,6.316427711105346
1789336764678883800,12.2608837890625,0.727284200849384,3.139973849985003,6.906089886289835
1789336764688893000,12.270892822265624,0.8270604799836874,3.0797815393507477,7.238892100358009
1789336764698901800,12.28090185546875,0.3770163265869021,3.046433396500349,7.20776338712275
1789336764708910600,12.29091064453125,-1.2625854019016027,3.1338410463184116,6.237797241982817
1789336764718920700,12.300920654296876,-7.653133411228656,3.446695281857252,4.358846366888285
1789336764728929800,12.3109296875,-10.579580830389261,3.2298908522754908,2.3977537996798755
1789336764738939000,12.32093896484375,-3.6827380803942678,2.261927863651514,1.4371376666873692
1789336764748948700,12.33094873046875,-0.0183779527336359,1.3299410282939672,0.870685686698556
1789336764758957800,12.340957763671875,0.5274638584900647,0.23735680374503135,0.17808686865270137
1789336764768966700,12.350966552734375,-0.0017267507273703814,-1.2031184829324484,0.17973112872838973
1789336764778976800,12.360976806640625,-0.6537023203533142,-2.6836218286156655,0.513773698246479
1789336764788985900,12.37098583984375,-1.4720301163703202,-3.756757256329059,0.4575771792501211
1789336764798994700,12.38099462890625,-1.84771753244102,-4.379001850688457,0.423121367418766
1789336764809003800,12.391003662109375,-1.289997578831762,-4.613003206525743,0.5589835438042878
1789336764819014000,12.401013916015625,-0.48913964426014567,-4.630681486557424,0.580675151130557
1789336764829023000,12.41102294921875,-0.08718028906928375,-4.827992111118138,0.3770107736289501
1789336764839031800,12.42103173828125,-0.26833823573039844,-5.012917009097338,0.2649789701640606
1789336764849041700,12.431041748046875,-0.7036082878381014,-4.792689619329572,0.4997808287292719
1789336764859050800,12.44105078125,-0.6390501832097768,-3.9403427223980425,0.6703063222169876
1789336764869059800,12.451059814453124,0.23905425531268118,-3.0885154654264446,0.17399813803434372
1789336764879069700,12.461069580078124,1.5159820708215235,-2.7777690158218142,-0.9793155727654695
1789336764889078800,12.471078857421874,2.6416601711988448,-2.6009239639237522,-2.1523148117661477
1789336764899087600,12.481087646484376,2.9447862089276313,-2.123245953670144,-2.649417361196875
1789336764909096700,12.4910966796875,2.8371242911100385,-1.45051766500324,-2.8181723378807306
1789336764919106800,12.50110693359375,2.2146505641698835,-0.7164607551485299,-2.8830566057235
1789336764929115600,12.51111572265625,1.1879027936220168,0.03741320033222437,-2.9370629211992023
1789336764939124700,12.521124755859375,0.1621451848889701,0.5391898790538311,-2.9533552998304367
1789336764949134800,12.531134765625,-0.252646727335453,0.7305363345131277,-2.941222963488102
1789336764959144000,12.54114404296875,-0.23753566744327545,0.7056646358460188,-2.9638837081074714
1789336764969152800,12.55115283203125,-0.08285013264417648,0.6471808826953173,-2.6292174537330864
1789336764979162600,12.56116259765625,-0.06409289826937019,0.538587529246509,-2.0933687018007037
1789336764989171700,12.571171630859375,0.1803296060781926,0.28929478851407764,-1.5343676223397253
1789336764999180800,12.581180908203125,0.9850457869805395,-0.34561551841199395,-1.4094003494560718
1789336765009190000,12.59118994140625,2.023209123903513,-1.1197288365840912,-1.6499796223789454
1789336765019199700,12.60119970703125,2.4601801529765126,-1.7033628375202416,-2.307223049405217
1789336765029208600,12.61120849609375,2.1878654330968854,-2.149777402243018,-3.2831589166045188
1789336765039217700,12.6212177734375,1.4463608375847339,-2.30814104103297,-4.212517741546034
1789336765049227800,12.631227783203125,0.5184650709331036,-2.1835575067698954,-4.864947630810737
1789336765059236900,12.64123681640625,-0.24535890841484068,-1.9802248454406857,-5.438160190975665
1789336765069245700,12.65124560546875,-0.5184288305759429,-1.7576351104557513,-5.914983337965607
1789336765079255800,12.661255859375,-0.2463689622402191,-1.5076090870127081,-6.170262751892209
1789336765089265000,12.671264892578124,0.2609959649425,-1.1513368577688932,-6.267507320591807
1789336765099273700,12.681273681640626,0.6080722766220569,-0.6669453213512897,-6.178624922046065
1789336765109282800,12.69128271484375,0.5231880078017711,-0.05503098234832286,-5.677260038995742
