time,seconds_elapsed,z,y,x
1789399277176623600,0.08462353515625,0,0,0
1789399277186623700,0.094623779296875,-0.13359832763671875,0.01944732666015625,0.029337048530578613
1789399277196623600,0.10462353515625,-0.17941951751708984,-0.038416385650634766,0.05563068389892578
1789399277206623700,0.114623779296875,-0.2699108123779297,-0.1170053482055664,-0.07426273822784424
1789399277216623600,0.12462353515625,-0.4790639877319336,-0.18578004837036133,-0.3348400592803955
1789399277226623700,0.134623779296875,-0.7694807052612305,-0.2503647804260254,-0.5503258109092712
1789399277236623600,0.14462353515625,-1.2295141220092773,-0.3242151737213135,-0.6554064750671387
1789399277246623700,0.154623779296875,-1.6132965087890625,-0.33440542221069336,-0.7282874584197998
1789399277256623600,0.16462353515625,-2.05087947845459,-0.27156901359558105,-0.8348124027252197
1789399277266623700,0.174623779296875,-2.557703971862793,-0.17505931854248047,-0.8870488405227661
1789399277276623600,0.18462353515625,-2.986206531524658,0.03112173080444336,-0.8006600141525269
1789399277286623700,0.194623779296875,-3.306255340576172,0.26761507987976074,-0.5749472379684448
1789399277296623600,0.20462353515625,-3.4231719970703125,0.4770021438598633,-0.34783363342285156
1789399277306623700,0.214623779296875,-3.2817859649658203,0.608372688293457,-0.2350640743970871
1789399277316623600,0.22462353515625,-2.7396435737609863,0.6876025199890137,-0.17133170366287231
1789399277326623700,0.234623779296875,-2.01615571975708,0.6483163833618164,-0.1531035304069519
1789399277336623600,0.24462353515625,-1.313821792602539,0.46598005294799805,-0.2518666684627533
1789399277346623700,0.254623779296875,-0.6127452850341797,0.22814321517944336,-0.42591825127601624
1789399277356623600,0.26462353515625,0.009311676025390625,0.024309396743774414,-0.711810290813446
1789399277366623700,0.274623779296875,0.5108928680419922,-0.09297037124633789,-1.0518672466278076
1789399277376623600,0.28462353515625,0.9307079315185547,-0.0696713924407959,-1.4158904552459717
1789399277386623700,0.294623779296875,1.2723112106323242,-0.07739830017089844,-1.6566262245178223
1789399277396623600,0.30462353515625,1.4088172912597656,-0.1859748363494873,-1.669787049293518
1789399277406623700,0.314623779296875,1.4282770156860352,-0.28923702239990234,-1.5739489793777466
1789399277416623600,0.32462353515625,1.3989992141723633,-0.22558879852294922,-1.5086840391159058
1789399277426623700,0.334623779296875,1.3351902961730957,-0.1790158748626709,-1.5321696996688843
1789399277436623600,0.34462353515625,1.2386088371276855,-0.14700579643249512,-1.500611662864685
1789399277446623700,0.354623779296875,1.092334270477295,-0.08400177955627441,-1.2866475582122803
1789399277456623600,0.36462353515625,1.1219754219055176,0.07757163047790527,-1.0468835830688477
1789399277466623700,0.374623779296875,1.1984686851501465,0.32689404487609863,-0.7885352373123169
1789399277476623600,0.38462353515625,1.3959379196166992,0.5863642692565918,-0.47422364354133606
1789399277486623700,0.394623779296875,1.7764253616333008,0.8030648231506348,-0.03510844334959984
1789399277496623600,0.40462353515625,2.0560402870178223,0.9114019870758057,0.30958229303359985
1789399277506623700,0.414623779296875,2.3213682174682617,0.9142773151397705,0.348842978477478
1789399277516623600,0.42462353515625,2.735018253326416,0.9886589050292969,0.04068370163440704
1789399277526623700,0.434623779296875,2.951446056365967,1.1533434391021729,-0.3666800260543823
1789399277536623600,0.44462353515625,3.092291831970215,1.1141629219055176,-0.6304911971092224
1789399277546623700,0.454623779296875,3.1524200439453125,0.8288116455078125,-0.6163970232009888
1789399277556623600,0.46462353515625,3.045790672302246,0.4839804172515869,-0.42375025153160095
1789399277566623700,0.474623779296875,2.846310615539551,0.1814415454864502,-0.1833381950855255
1789399277576623600,0.48462353515625,2.4806127548217773,-0.15255212783813477,-0.031862057745456696
1789399277586623700,0.494623779296875,1.8686714172363281,-0.46251606941223145,-0.10842420905828476
1789399277596623600,0.50462353515625,1.268448829650879,-0.7280726432800293,-0.36828696727752686
1789399277606623700,0.514623779296875,0.7112627029418945,-0.856231689453125,-0.8058096170425415
1789399277616623600,0.52462353515625,0.21448707580566406,-0.8380105495452881,-1.250823736190796
1789399277626623700,0.534623779296875,-0.11119365692138672,-0.7386600971221924,-1.4725677967071533
1789399277636623600,0.54462353515625,-0.23736190795898438,-0.6158664226531982,-1.3647693395614624
1789399277646623700,0.554623779296875,0.7974987030029297,-0.4675126075744629,-0.6911746263504028
1789399277656623600,0.56462353515625,2.806065559387207,-0.47921252250671387,1.030191421508789
1789399277666623700,0.574623779296875,1.9977617263793945,-0.30974650382995605,-0.5807996988296509
1789399277676623600,0.58462353515625,3.5283374786376953,-0.7340753078460693,-0.7559418678283691
1789399277686623700,0.594623779296875,3.591472625732422,-0.9619075059890747,0.21085119247436523
1789399277696623600,0.60462353515625,3.031277656555176,-1.400757074356079,-0.256544828414917
1789399277706623700,0.614623779296875,2.8037357330322266,-1.7466367483139038,-0.7525804042816162
1789399277716623600,0.62462353515625,2.7761220932006836,-2.0740177631378174,-0.24695557355880737
1789399277726623700,0.634623779296875,2.673126220703125,-2.0509085655212402,-0.33629196882247925
1789399277736623600,0.64462353515625,2.0154333114624023,-1.874725580215454,-0.8535452485084534
1789399277746623700,0.654623779296875,1.0389232635498047,-1.6012808084487915,-1.0275962352752686
1789399277756623600,0.66462353515625,0.0682382583618164,-1.0112004280090332,-0.6452048420906067
1789399277766623700,0.674623779296875,-0.8482646942138672,-0.430189847946167,-0.18429619073867798
1789399277776623600,0.68462353515625,-1.6642141342163086,0.13862371444702148,0.05575394630432129
1789399277786623700,0.694623779296875,-2.0700626373291016,1.02577543258667,0.2552620470523834
1789399277796623600,0.70462353515625,-2.7325963973999023,1.2153637409210205,0.06764073669910431
1789399277806623700,0.714623779296875,-3.448171615600586,0.668541669845581,1.0148621797561646
1789399277816623600,0.72462353515625,-3.0072131156921387,-0.4871397018432617,1.8618552684783936
1789399277826623700,0.734623779296875,-0.657170295715332,-0.8820475339889526,2.054138660430908
1789399277836623600,0.74462353515625,1.353769302368164,-0.983920693397522,1.9824986457824707
1789399277846623700,0.754623779296875,3.1880617141723633,-0.40955018997192383,1.6921604871749878
1789399277856623600,0.76462353515625,4.9296979904174805,0.5080769062042236,2.1867854595184326
1789399277866623700,0.774623779296875,1.4331779479980469,0.745816707611084,0.9522761106491089
1789399277876623600,0.78462353515625,1.5768470764160156,0.7218244075775146,0.5796362161636353
1789399277886623700,0.794623779296875,-0.9937419891357422,-0.044629812240600586,0.24661672115325928
1789399277896623600,0.80462353515625,-3.1810569763183594,-0.5379023551940918,0.368259072303772
1789399277906623700,0.814623779296875,-3.5378642082214355,-0.2683107852935791,1.2387744188308716
1789399277916623600,0.82462353515625,-2.3947229385375977,0.3561704158782959,1.8884303569793701
1789399277926623700,0.834623779296875,-1.458683967590332,0.3739807605743408,2.245481491088867
1789399277936623600,0.84462353515625,-0.7190046310424805,0.12057828903198242,1.846975564956665
1789399277946623700,0.854623779296875,0.11707401275634766,-0.27680444717407227,1.2060878276824951
1789399277956623600,0.86462353515625,0.5036249160766602,-0.5506458282470703,0.3510376513004303
1789399277966623700,0.874623779296875,0.39899349212646484,-0.8281164169311523,-0.3497934341430664
1789399277976623600,0.88462353515625,0.3551054000854492,-0.8552899360656738,-0.7224608659744263
1789399277986623700,0.894623779296875,0.22806167602539062,-0.6441402435302734,-0.8182219862937927
1789399277996623600,0.90462353515625,0.2043285369873047,-0.3565542697906494,-0.6407448053359985
1789399278006623700,0.914623779296875,0.30751800537109375,-0.21741843223571777,-0.017859458923339844
1789399278016623600,0.92462353515625,0.6533718109130859,-0.2589554786682129,0.5453757047653198
1789399278026623700,0.934623779296875,1.345768928527832,-0.18271923065185547,0.8022114038467407
1789399278036623600,0.94462353515625,1.6890325546264648,-0.04051566123962402,0.8758360743522644
1789399278046623700,0.954623779296875,1.5603008270263672,0.0734705924987793,0.9555932283401489
1789399278056623600,0.96462353515625,1.226278305053711,0.031557321548461914,0.8669618368148804
1789399278066623700,0.974623779296875,0.8998126983642578,-0.14231014251708984,0.48756176233291626
1789399278076623600,0.98462353515625,0.8931989669799805,-0.3632619380950928,0.027111470699310303
1789399278086623700,0.994623779296875,1.2692384719848633,-0.6219406127929688,-0.2012920081615448
1789399278096623600,1.00462353515625,1.9476070404052734,-0.7358882427215576,-0.31111663579940796
1789399278106623700,1.014623779296875,2.6238937377929688,-0.6325404644012451,-0.28840306401252747
1789399278116623600,1.02462353515625,2.577603340148926,-0.3730790615081787,0.0035861432552337646
1789399278126623700,1.034623779296875,1.9724102020263672,-0.6510100364685059,0.9986550211906433
1789399278136623600,1.04462353515625,1.5632610321044922,-0.9703409671783447,1.888209342956543
1789399278146623700,1.054623779296875,1.2562904357910156,-0.6785252094268799,2.206040859222412
1789399278156623600,1.06462353515625,1.0318031311035156,-0.37502074241638184,1.9238948822021484
1789399278166623700,1.074623779296875,0.896265983581543,-0.2906937599182129,1.3644630908966064
1789399278176623600,1.08462353515625,0.7545967102050781,-0.40940380096435547,0.7344679236412048
1789399278186623700,1.094623779296875,0.5618925094604492,-0.5737705230712891,0.05475950241088867
1789399278196623600,1.10462353515625,0.35285282135009766,-0.5999994277954102,-0.5737528800964355
1789399278206623700,1.114623779296875,-0.39348697662353516,-0.5293576717376709,-0.735913872718811
1789399278216623600,1.12462353515625,-1.347116470336914,-0.28891801834106445,-0.7778286933898926
1789399278226623700,1.134623779296875,-1.5128917694091797,0.07414865493774414,-0.7610576152801514
1789399278236623600,1.14462353515625,-0.8137264251708984,0.6203289031982422,-0.36388450860977173
1789399278246623700,1.154623779296875,0.08482646942138672,0.9514696598052979,0.5665802359580994
1789399278256623600,1.16462353515625,0.7829160690307617,0.6443676948547363,1.5320242643356323
1789399278266623700,1.174623779296875,1.6917619705200195,0.24497079849243164,1.874874472618103
1789399278276623600,1.18462353515625,2.3568668365478516,0.07842373847961426,1.6213947534561157
1789399278286623700,1.194623779296875,2.4794225692749023,-0.0616755485534668,0.9610716700553894
1789399278296623600,1.20462353515625,1.805598258972168,-0.5003671646118164,0.35908639430999756
1789399278306623700,1.214623779296875,1.039266586303711,-0.7944042682647705,-0.24161528050899506
1789399278316623600,1.22462353515625,0.4174642562866211,-0.9242429733276367,-0.7581795454025269
1789399278326623700,1.234623779296875,0.0896596908569336,-0.8700201511383057,-0.814295768737793
1789399278336623600,1.24462353515625,0.04648876190185547,-0.722238302230835,-0.5239443182945251
1789399278346623700,1.254623779296875,0.08821296691894531,-0.5681040287017822,-0.24877730011940002
1789399278356623600,1.26462353515625,0.184814453125,-0.4849369525909424,0.057032644748687744
1789399278366623700,1.274623779296875,0.6027498245239258,-0.4381999969482422,0.29992103576660156
1789399278376623600,1.28462353515625,1.053232192993164,-0.5402796268463135,0.2800210118293762
1789399278386623700,1.294623779296875,1.460005760192871,-0.631629467010498,-0.12120097875595093
1789399278396623600,1.30462353515625,1.623626708984375,-0.6023061275482178,-0.6566909551620483
1789399278406623700,1.314623779296875,1.5600957870483398,-0.47029638290405273,-1.1360012292861938
1789399278416623600,1.32462353515625,1.4293909072875977,-0.25386834144592285,-1.4574108123779297
1789399278426623700,1.334623779296875,1.3845758438110352,-0.08187460899353027,-1.5080126523971558
1789399278436623600,1.34462353515625,1.1845474243164062,-0.00019621849060058594,-1.4548192024230957
1789399278446623700,1.354623779296875,0.8485927581787109,-0.027364253997802734,-1.4002536535263062
1789399278456623600,1.36462353515625,0.48691558837890625,-0.14834141731262207,-1.3706037998199463
1789399278466623700,1.374623779296875,-0.02410602569580078,-0.21321344375610352,-1.3546817302703857
1789399278476623600,1.38462353515625,-0.5120458602905273,-0.15769672393798828,-1.1990671157836914
1789399278486623700,1.394623779296875,-0.7845182418823242,-0.0818789005279541,-0.9563579559326172
1789399278496623600,1.40462353515625,-1.0319223403930664,-0.04369521141052246,-0.8078973293304443
1789399278506623700,1.414623779296875,-1.2731633186340332,-0.07054662704467773,-0.8964109420776367
1789399278516623600,1.42462353515625,-1.2172784805297852,-0.17819619178771973,-0.9728777408599854
1789399278526623700,1.434623779296875,-0.8375778198242188,-0.2671229839324951,-0.8213455677032471
1789399278536623600,1.44462353515625,-0.30902957916259766,-0.21372199058532715,-0.5183502435684204
1789399278546623700,1.454623779296875,0.1806507110595703,-0.003452301025390625,-0.38317859172821045
1789399278556623600,1.46462353515625,0.3808450698852539,0.22094440460205078,-0.3842092752456665
1789399278566623700,1.474623779296875,0.23487472534179688,0.2750568389892578,-0.3932265043258667
1789399278576623600,1.48462353515625,0.0791635513305664,0.1463637351989746,-0.2789706587791443
1789399278586623700,1.494623779296875,-0.08985042572021484,-0.08340692520141602,-0.0609569251537323
1789399278596623600,1.50462353515625,-0.38840579986572266,-0.2950172424316406,0.08841563761234283
1789399278606623700,1.514623779296875,-0.7584905624389648,-0.3787229061126709,0.179169163107872
1789399278616623600,1.52462353515625,-1.0548620223999023,-0.4031832218170166,0.25329214334487915
1789399278626623700,1.534623779296875,-1.239469051361084,-0.3670535087585449,0.3007452189922333
1789399278636623600,1.54462353515625,-1.3159112930297852,-0.2621438503265381,0.20015500485897064
1789399278646623700,1.554623779296875,-1.2459440231323242,-0.06272745132446289,0.0045854151248931885
1789399278656623600,1.56462353515625,-1.2200322151184082,0.008975505828857422,-0.050280869007110596
1789399278666623700,1.574623779296875,-1.3168044090270996,0.04482316970825195,-0.04831823706626892
1789399278676623600,1.58462353515625,-1.3461718559265137,0.18365836143493652,0.000325620174407959
1789399278686623700,1.594623779296875,-1.2852602005004883,0.35289859771728516,0.08970782160758972
1789399278696623600,1.60462353515625,-1.116511344909668,0.5015380382537842,0.181259423494339
1789399278706623700,1.614623779296875,-0.9690980911254883,0.5352938175201416,0.347819060087204
1789399278716623600,1.62462353515625,-0.9038534164428711,0.5576705932617188,0.42892664670944214
1789399278726623700,1.634623779296875,-0.8927459716796875,0.5697157382965088,0.5014444589614868
1789399278736623600,1.64462353515625,-1.0055370330810547,0.540086030960083,0.5320317149162292
1789399278746623700,1.654623779296875,-1.1672487258911133,0.5048840045928955,0.6146179437637329
1789399278756623600,1.66462353515625,-1.3949289321899414,0.4138474464416504,0.748545229434967
1789399278766623700,1.674623779296875,-1.493293285369873,0.2579796314239502,0.7110537886619568
1789399278776623600,1.68462353515625,-1.2952251434326172,0.10348749160766602,0.551917552947998
1789399278786623700,1.694623779296875,-0.7403507232666016,-0.12077116966247559,0.36149436235427856
1789399278796623600,1.70462353515625,-0.028802871704101562,-0.3506135940551758,0.07374905049800873
1789399278806623700,1.714623779296875,0.5503358840942383,-0.4329824447631836,-0.1259658932685852
1789399278816623600,1.72462353515625,0.8937892913818359,-0.407001256942749,-0.12830311059951782
1789399278826623700,1.734623779296875,0.9798393249511719,-0.2890033721923828,-0.08279593288898468
1789399278836623600,1.74462353515625,0.7968482971191406,-0.13162684440612793,-0.00803607702255249
1789399278846623700,1.754623779296875,0.37964534759521484,0.03616070747375488,0.13789153099060059
1789399278856623600,1.76462353515625,-0.0818328857421875,0.10424208641052246,0.3185584843158722
1789399278866623700,1.774623779296875,-0.4251079559326172,0.07199859619140625,0.4388893246650696
1789399278876623600,1.78462353515625,-0.577214241027832,-0.07539129257202148,0.5589932203292847
1789399278886623700,1.794623779296875,-0.6975002288818359,-0.21992146968841553,0.45123255252838135
1789399278896623600,1.80462353515625,-0.6272029876708984,-0.3367476463317871,0.17652279138565063
1789399278906623700,1.814623779296875,-0.5684928894042969,-0.390555739402771,-0.05256134271621704
1789399278916623600,1.82462353515625,-0.4730348587036133,-0.25928986072540283,-0.41786953806877136
1789399278926623700,1.834623779296875,-0.15372085571289062,0.011780738830566406,-0.8323380947113037
1789399278936623600,1.84462353515625,-0.04686927795410156,0.2480412721633911,-1.1584010124206543
1789399278946623700,1.854623779296875,-0.23085403442382812,0.21603035926818848,-0.8153089284896851
1789399278956623600,1.86462353515625,-0.657719612121582,0.550358772277832,-0.3914533853530884
1789399278966623700,1.874623779296875,-0.3998126983642578,0.7272576093673706,-0.38343870639801025
1789399278976623600,1.88462353515625,-0.37302589416503906,0.6700705289840698,-0.3700459599494934
1789399278986623700,1.894623779296875,-1.1226720809936523,0.566256582736969,0.09241785109043121
1789399278996623600,1.90462353515625,-1.687929630279541,0.16811585426330566,0.5948581099510193
1789399279006623700,1.914623779296875,-1.6788525581359863,-0.2531830668449402,1.1979928016662598
1789399279016623600,1.92462353515625,-1.0034542083740234,-0.6311123967170715,0.8011054992675781
1789399279026623700,1.934623779296875,-0.6333589553833008,-0.7304179668426514,-0.19067905843257904
1789399279036623600,1.94462353515625,-0.21958446502685547,-0.4400445818901062,-1.202053427696228
1789399279046623700,1.954623779296875,0.2358541488647461,-0.13694465160369873,-1.5767004489898682
1789399279056623600,1.96462353515625,1.3211784362792969,0.8837395906448364,-2.209181785583496
1789399279066623700,1.974623779296875,2.0868568420410156,2.4783759117126465,-3.0613150596618652
1789399279076623600,1.98462353515625,2.5932540893554688,4.038748264312744,-4.846714019775391
1789399279086623700,1.994623779296875,2.6105194091796875,4.806646347045898,-6.219305038452148
1789399279096623600,2.00462353515625,2.6268110275268555,4.020164966583252,-4.889532089233398
1789399279106623700,2.014623779296875,2.8589086532592773,2.2376484870910645,-1.8891383409500122
1789399279116623600,2.02462353515625,3.04107666015625,1.280011534690857,-0.1444048285484314
1789399279126623700,2.034623779296875,2.917726516723633,1.3954691886901855,0.15883111953735352
1789399279136623600,2.04462353515625,2.628838539123535,2.1351826190948486,0.21602356433868408
1789399279146623700,2.054623779296875,2.2456512451171875,2.6938469409942627,0.4317950904369354
1789399279156623600,2.06462353515625,2.069594383239746,2.6319079399108887,0.5977516770362854
1789399279166623700,2.074623779296875,1.4548110961914062,2.5340723991394043,1.2791802883148193
1789399279176623600,2.08462353515625,1.0142326354980469,2.357551097869873,1.9838223457336426
1789399279186623700,2.094623779296875,0.7731466293334961,2.349921226501465,2.009389638900757
1789399279196623600,2.10462353515625,0.5929698944091797,2.517897605895996,1.3134292364120483
1789399279206623700,2.114623779296875,0.8568668365478516,2.6758880615234375,0.5585708618164062
1789399279216623600,2.12462353515625,0.8526449203491211,2.4026248455047607,0.13304394483566284
1789399279226623700,2.134623779296875,0.9219074249267578,2.1005749702453613,0.1357893943786621
1789399279236623600,2.14462353515625,1.0092124938964844,2.092493772506714,0.49930620193481445
1789399279246623700,2.154623779296875,0.6642599105834961,2.3081727027893066,0.8344032168388367
1789399279256623600,2.16462353515625,0.0037784576416015625,2.419062376022339,1.2009886503219604
1789399279266623700,2.174623779296875,-0.6251554489135742,2.5240933895111084,1.734156847000122
1789399279276623600,2.18462353515625,-0.9009647369384766,2.736485481262207,2.1771035194396973
1789399279286623700,2.194623779296875,-1.0521039962768555,2.9789953231811523,2.593090057373047
1789399279296623600,2.20462353515625,-1.0744705200195312,3.1399989128112793,2.741773843765259
1789399279306623700,2.214623779296875,-0.9257440567016602,3.1830291748046875,2.4189672470092773
1789399279316623600,2.22462353515625,-0.8574399948120117,3.1265339851379395,2.2384719848632812
1789399279326623700,2.234623779296875,-0.7873144149780273,3.0657742023468018,2.0835134983062744
1789399279336623600,2.24462353515625,-0.7745113372802734,2.9943552017211914,1.8443878889083862
1789399279346623700,2.254623779296875,-0.7815284729003906,2.84065580368042,1.594656229019165
1789399279356623600,2.26462353515625,-0.5646438598632812,2.6844329833984375,1.399376630783081
1789399279366623700,2.274623779296875,-0.443817138671875,2.487700939178467,1.1412723064422607
1789399279376623600,2.28462353515625,-0.37317752838134766,2.2459847927093506,0.7442576885223389
1789399279386623700,2.294623779296875,-0.14315509796142578,2.0386319160461426,0.40106409788131714
1789399279396623600,2.30462353515625,0.21989822387695312,2.0215420722961426,0.24319350719451904
1789399279406623700,2.314623779296875,0.48880767822265625,2.074007987976074,0.2316836714744568
1789399279416623600,2.32462353515625,0.31351470947265625,2.0521910190582275,0.42385566234588623
1789399279426623700,2.334623779296875,0.5682029724121094,1.9743812084197998,0.5032875537872314
1789399279436623600,2.34462353515625,0.6700735092163086,1.9283844232559204,0.5261885523796082
1789399279446623700,2.354623779296875,0.5425519943237305,1.755772590637207,0.5853441953659058
1789399279456623600,2.36462353515625,0.38988590240478516,1.453778862953186,0.6340996026992798
1789399279466623700,2.374623779296875,0.24345874786376953,1.1968262195587158,0.7806835770606995
1789399279476623600,2.38462353515625,0.5288276672363281,1.361916422843933,0.8749600648880005
1789399279486623700,2.394623779296875,0.9902849197387695,1.5393732786178589,0.9182699918746948
1789399279496623600,2.40462353515625,1.4425201416015625,1.2788640260696411,0.9242717623710632
1789399279506623700,2.414623779296875,1.6452255249023438,0.7890959978103638,0.5854648947715759
1789399279516623600,2.42462353515625,1.4060163497924805,0.3229697346687317,-0.05509680509567261
1789399279526623700,2.434623779296875,1.6107378005981445,0.22826582193374634,-0.5159416794776917
1789399279536623600,2.44462353515625,1.7581987380981445,0.3317917585372925,-1.0085530281066895
1789399279546623700,2.454623779296875,1.675048828125,0.4132336378097534,-0.9859331846237183
1789399279556623600,2.46462353515625,1.8986120223999023,0.4393664598464966,-0.7186505198478699
1789399279566623700,2.474623779296875,2.1970882415771484,0.14968335628509521,-0.5158118605613708
1789399279576623600,2.48462353515625,2.444920539855957,-0.189644455909729,-0.49083763360977173
1789399279586623700,2.494623779296875,2.805819511413574,-0.3244246244430542,-0.698042631149292
1789399279596623600,2.50462353515625,3.225661277770996,-0.31455254554748535,-0.7630566954612732
1789399279606623700,2.514623779296875,3.6461668014526367,-0.2677423357963562,-0.5606132745742798
1789399279616623600,2.52462353515625,4.15059757232666,-0.1992182731628418,-0.045923322439193726
1789399279626623700,2.534623779296875,4.80057430267334,-0.1067579984664917,0.5000685453414917
1789399279636623600,2.54462353515625,5.341045379638672,0.06673985719680786,0.8162746429443359
1789399279646623700,2.554623779296875,5.663918495178223,0.3727811574935913,0.9580844640731812
1789399279656623600,2.56462353515625,5.682651519775391,0.6747545003890991,0.8639110922813416
1789399279666623700,2.574623779296875,5.40355110168457,0.6914998888969421,0.7482770085334778
1789399279676623600,2.58462353515625,5.092597007751465,0.4763963222503662,0.8123762607574463
1789399279686623700,2.594623779296875,4.900069236755371,0.05608242750167847,1.162122130393982
1789399279696623600,2.60462353515625,4.5467939376831055,-0.357944130897522,1.3991612195968628
1789399279706623700,2.614623779296875,4.001970291137695,-0.5475608110427856,1.389022707939148
1789399279716623600,2.62462353515625,3.2413434982299805,-0.5528203845024109,1.373600721359253
1789399279726623700,2.634623779296875,2.3683385848999023,-0.5199099183082581,1.3998005390167236
1789399279736623600,2.64462353515625,1.4409236907958984,-0.372685045003891,1.243729591369629
1789399279746623700,2.654623779296875,0.5140008926391602,-0.1641913652420044,1.0252763032913208
1789399279756623600,2.66462353515625,-0.33006954193115234,0.0033349990844726562,0.9535089135169983
1789399279766623700,2.674623779296875,-1.0298070907592773,-0.07206213474273682,1.30105721950531
1789399279776623600,2.68462353515625,-1.5907974243164062,-0.38818490505218506,1.7265605926513672
1789399279786623700,2.694623779296875,-2.110556125640869,-0.6896357536315918,1.990616798400879
1789399279796623600,2.70462353515625,-2.5438265800476074,-0.801986813545227,2.0217487812042236
1789399279806623700,2.714623779296875,-2.8867244720458984,-0.7344666719436646,1.8319592475891113
1789399279816623600,2.72462353515625,-3.2401161193847656,-0.7634357213973999,1.6329137086868286
1789399279826623700,2.734623779296875,-3.5859880447387695,-0.8603794574737549,1.477311611175537
1789399279836623600,2.74462353515625,-3.9558658599853516,-0.992089033126831,1.3103046417236328
1789399279846623700,2.754623779296875,-4.314640045166016,-1.1004843711853027,1.1620734930038452
1789399279856623600,2.76462353515625,-4.60809326171875,-1.1175858974456787,1.1149827241897583
1789399279866623700,2.774623779296875,-4.772351264953613,-1.0930113792419434,1.1689811944961548
1789399279876623600,2.78462353515625,-4.731579780578613,-1.023740530014038,1.2432096004486084
1789399279886623700,2.794623779296875,-4.421250343322754,-0.9465185403823853,1.3327898979187012
1789399279896623600,2.80462353515625,-4.170035362243652,-0.8860073089599609,1.3629472255706787
1789399279906623700,2.814623779296875,-4.125665187835693,-0.8302721977233887,1.3062362670898438
1789399279916623600,2.82462353515625,-4.257834434509277,-0.7587277889251709,1.2876641750335693
1789399279926623700,2.834623779296875,-4.458292484283447,-0.6037373542785645,1.1829907894134521
1789399279936623600,2.84462353515625,-4.589293479919434,-0.4171743392944336,1.001147747039795
1789399279946623700,2.854623779296875,-4.5709733963012695,-0.29480838775634766,0.8287006616592407
1789399279956623600,2.86462353515625,-4.4400434494018555,-0.18419432640075684,0.6920222043991089
1789399279966623700,2.874623779296875,-4.215648651123047,-0.08783531188964844,0.5837583541870117
1789399279976623600,2.88462353515625,-3.9802370071411133,0.011706113815307617,0.44154584407806396
1789399279986623700,2.894623779296875,-3.6831398010253906,0.15951943397521973,0.24428069591522217
1789399279996623600,2.90462353515625,-3.3485965728759766,0.3392045497894287,0.05699038505554199
1789399280006623700,2.914623779296875,-3.052330493927002,0.5355556011199951,-0.1366429328918457
1789399280016623600,2.92462353515625,-2.6430959701538086,0.6818225383758545,-0.24563860893249512
1789399280026623700,2.934623779296875,-2.1470937728881836,0.632084846496582,-0.26660919189453125
1789399280036623600,2.94462353515625,-1.6190776824951172,0.5217235088348389,-0.3732318878173828
1789399280046623700,2.954623779296875,-1.090005874633789,0.41101551055908203,-0.6330058574676514
1789399280056623600,2.96462353515625,-0.7226438522338867,0.29854750633239746,-0.9131221771240234
1789399280066623700,2.974623779296875,-0.46619701385498047,0.18827223777770996,-1.1053097248077393
1789399280076623600,2.98462353515625,-0.29039955139160156,0.07164573669433594,-1.2706804275512695
1789399280086623700,2.994623779296875,-0.33139514923095703,0.06749296188354492,-1.4153735637664795
1789399280096623600,3.00462353515625,-0.4170503616333008,0.1660780906677246,-1.5773098468780518
1789399280106623700,3.014623779296875,-0.47582340240478516,0.2858912944793701,-1.8093035221099854
1789399280116623600,3.02462353515625,-0.45108985900878906,0.43375611305236816,-2.1122653484344482
1789399280126623700,3.034623779296875,-0.21781539916992188,0.6222007274627686,-2.464507818222046
1789399280136623600,3.04462353515625,0.21246337890625,0.8484063148498535,-2.800915002822876
1789399280146623700,3.054623779296875,1.067835807800293,1.1128039360046387,-3.133882761001587
1789399280156623600,3.06462353515625,2.128960609436035,1.3864407539367676,-3.2914342880249023
1789399280166623700,3.074623779296875,3.1545162200927734,1.3994433879852295,-3.1466667652130127
1789399280176623600,3.08462353515625,4.008882522583008,1.3176867961883545,-2.839927911758423
1789399280186623700,3.094623779296875,4.585671424865723,1.2778685092926025,-2.4244678020477295
1789399280196623600,3.10462353515625,5.027441024780273,1.361685037612915,-1.9621975421905518
1789399280206623700,3.114623779296875,5.214800834655762,1.8476285934448242,-1.8656160831451416
1789399280216623600,3.12462353515625,5.33641242980957,2.0110650062561035,-1.830395221710205
1789399280226623700,3.134623779296875,5.420312881469727,1.781153678894043,-1.483804702758789
1789399280236623600,3.14462353515625,5.174944877624512,1.4834482669830322,-0.8220806121826172
1789399280246623700,3.154623779296875,4.938503265380859,1.3614528179168701,-0.42664313316345215
1789399280256623600,3.16462353515625,4.950392723083496,1.493708848953247,-0.4696214199066162
1789399280266623700,3.174623779296875,4.811412811279297,1.879563570022583,-0.9845895767211914
1789399280276623600,3.18462353515625,4.371262550354004,2.2957992553710938,-1.5337491035461426
1789399280286623700,3.194623779296875,3.691164970397949,2.341013193130493,-1.5586504936218262
1789399280296623600,3.20462353515625,3.0802230834960938,1.8791930675506592,-0.9435007572174072
1789399280306623700,3.214623779296875,2.42193603515625,1.2241840362548828,0.05363607406616211
1789399280316623600,3.22462353515625,1.7208366394042969,0.7284235954284668,0.7804113626480103
1789399280326623700,3.234623779296875,0.9004907608032227,0.5638046264648438,0.8981766700744629
1789399280336623600,3.24462353515625,0.28452205657958984,0.5754880905151367,0.5780727863311768
1789399280346623700,3.254623779296875,-0.0859375,0.49074292182922363,0.39817380905151367
1789399280356623600,3.26462353515625,-0.31232452392578125,0.2676358222961426,0.6403886079788208
1789399280366623700,3.274623779296875,-0.5946025848388672,0.0830310583114624,1.0421607494354248
1789399280376623600,3.28462353515625,-0.9499425888061523,0.007960319519042969,1.3044077157974243
1789399280386623700,3.294623779296875,-1.3369131088256836,-0.04130816459655762,1.4188956022262573
1789399280396623600,3.30462353515625,-1.6580796241760254,-0.2867088317871094,1.4594097137451172
1789399280406623700,3.314623779296875,-2.012352466583252,-0.6366679668426514,1.4750308990478516
1789399280416623600,3.32462353515625,-2.404966354370117,-0.9751553535461426,1.4257110357284546
1789399280426623700,3.334623779296875,-2.6160202026367188,-1.1003470420837402,0.8947826623916626
1789399280436623600,3.34462353515625,-2.865208148956299,-0.9980086088180542,0.4782388210296631
1789399280446623700,3.354623779296875,-3.109222412109375,-0.950524091720581,0.3911576271057129
1789399280456623600,3.36462353515625,-3.269916534423828,-1.0756288766860962,0.41357922554016113
1789399280466623700,3.374623779296875,-3.366673469543457,-1.2575602531433105,0.3605079650878906
1789399280476623600,3.38462353515625,-3.2761659622192383,-1.3828154802322388,0.0745694637298584
1789399280486623700,3.394623779296875,-2.850933074951172,-1.321808934211731,-0.5504958629608154
1789399280496623600,3.40462353515625,-2.5348033905029297,-1.1373947858810425,-1.2650151252746582
1789399280506623700,3.414623779296875,-2.6315183639526367,-1.0986164808273315,-1.7948417663574219
1789399280516623600,3.42462353515625,-2.8330583572387695,-1.2766443490982056,-1.8245761394500732
1789399280526623700,3.434623779296875,-3.069185256958008,-1.520665168762207,-1.3936947584152222
1789399280536623600,3.44462353515625,-3.438418388366699,-1.582220435142517,-0.781771183013916
1789399280546623700,3.454623779296875,-3.771226406097412,-1.2762196063995361,-0.16492092609405518
1789399280556623600,3.46462353515625,-3.9847640991210938,-0.9339478015899658,-0.012134075164794922
1789399280566623700,3.474623779296875,-4.427931785583496,-0.8280050754547119,-0.23309171199798584
1789399280576623600,3.48462353515625,-4.884012222290039,-0.8278365135192871,-0.5513434410095215
1789399280586623700,3.494623779296875,-5.168126106262207,-0.7710115909576416,-0.9614589214324951
1789399280596623600,3.50462353515625,-5.168814182281494,-0.5850121974945068,-1.333013653755188
1789399280606623700,3.514623779296875,-4.810681343078613,-0.2649803161621094,-1.584450602531433
1789399280616623600,3.52462353515625,-4.234477996826172,-0.001186370849609375,-1.5608067512512207
1789399280626623700,3.534623779296875,-3.2610130310058594,0.060196876525878906,-1.2314090728759766
1789399280636623600,3.54462353515625,-2.128523826599121,-0.1542377471923828,-0.78889399766922
1789399280646623700,3.554623779296875,-1.101646900177002,-0.43929481506347656,-0.38267773389816284
1789399280656623600,3.56462353515625,-0.028087615966796875,-0.5055205821990967,-0.20193296670913696
1789399280666623700,3.574623779296875,0.9430389404296875,-0.3354775905609131,-0.1716327667236328
1789399280676623600,3.58462353515625,1.6962509155273438,-0.18239283561706543,-0.06167382001876831
1789399280686623700,3.594623779296875,2.348978042602539,-0.05328726768493652,0.2615669071674347
1789399280696623600,3.60462353515625,2.661947250366211,-0.07366490364074707,0.5994336009025574
1789399280706623700,3.614623779296875,2.638948440551758,-0.1921405792236328,0.7979323863983154
1789399280716623600,3.62462353515625,2.553372383117676,-0.3479492664337158,0.9198027849197388
1789399280726623700,3.634623779296875,2.303037643432617,-0.4949944019317627,0.950758695602417
1789399280736623600,3.64462353515625,1.8092823028564453,-0.553856372833252,0.8181577920913696
1789399280746623700,3.654623779296875,1.3249454498291016,-0.5555319786071777,0.7439264059066772
1789399280756623600,3.66462353515625,1.1192235946655273,-0.6127283573150635,0.7968384027481079
1789399280766623700,3.674623779296875,1.1132612228393555,-0.7262582778930664,0.8999273180961609
1789399280776623600,3.68462353515625,1.124781608581543,-0.8813164234161377,1.0341800451278687
1789399280786623700,3.694623779296875,1.1489534378051758,-1.0476018190383911,1.1700955629348755
1789399280796623600,3.70462353515625,1.5307855606079102,-1.0604968070983887,1.3263062238693237
1789399280806623700,3.714623779296875,2.283182144165039,-0.8596124649047852,1.5176143646240234
1789399280816623600,3.72462353515625,3.0974531173706055,-0.677513837814331,1.577172040939331
1789399280826623700,3.734623779296875,3.94577693939209,-0.5844001770019531,1.6659239530563354
1789399280836623600,3.74462353515625,4.69508171081543,-0.5242090225219727,1.8089563846588135
1789399280846623700,3.754623779296875,5.3440446853637695,-0.4814307689666748,1.9508538246154785
1789399280856623600,3.76462353515625,5.990171432495117,-0.49024510383605957,2.1097590923309326
1789399280866623700,3.774623779296875,6.623800277709961,-0.5783554315567017,2.1643567085266113
1789399280876623600,3.78462353515625,7.074465751647949,-0.7680855989456177,2.0753061771392822
1789399280886623700,3.794623779296875,7.21754264831543,-0.9700063467025757,1.8791457414627075
1789399280896623600,3.80462353515625,7.100797653198242,-0.9896318912506104,1.5488996505737305
1789399280906623700,3.814623779296875,6.770876884460449,-0.8744660019874573,1.2704473733901978
1789399280916623600,3.82462353515625,6.325863838195801,-0.6498419046401978,1.1779253482818604
1789399280926623700,3.834623779296875,6.089021682739258,-0.31716907024383545,1.3399029970169067
1789399280936623600,3.84462353515625,5.441650390625,-0.053052425384521484,1.4873939752578735
1789399280946623700,3.854623779296875,4.485420227050781,0.0453643798828125,1.6589936017990112
1789399280956623600,3.86462353515625,3.366950035095215,0.13817214965820312,1.7312688827514648
1789399280966623700,3.874623779296875,2.1834373474121094,0.2737525701522827,1.6629714965820312
1789399280976623600,3.88462353515625,0.9834327697753906,0.37404966354370117,1.4585646390914917
1789399280986623700,3.894623779296875,-0.1759471893310547,0.32852208614349365,1.2735579013824463
1789399280996623600,3.90462353515625,-1.2650823593139648,0.2058546543121338,1.1814886331558228
1789399281006623700,3.914623779296875,-2.272806167602539,0.01856529712677002,1.1714506149291992
1789399281016623600,3.92462353515625,-3.134864330291748,-0.08365058898925781,1.1621915102005005
1789399281026623700,3.934623779296875,-3.9216785430908203,-0.13671302795410156,1.1974588632583618
1789399281036623600,3.94462353515625,-4.6188201904296875,-0.1978156566619873,1.130234718322754
1789399281046623700,3.954623779296875,-5.2535481452941895,-0.2621324062347412,0.9601214528083801
1789399281056623600,3.96462353515625,-5.8262786865234375,-0.33832550048828125,0.8051021695137024
1789399281066623700,3.974623779296875,-6.328907012939453,-0.3688206672668457,0.6793995499610901
1789399281076623600,3.98462353515625,-6.751798629760742,-0.3996448516845703,0.6150863766670227
1789399281086623700,3.994623779296875,-7.1282477378845215,-0.43860387802124023,0.5182536840438843
1789399281096623600,4.00462353515625,-7.349395751953125,-0.436908483505249,0.38842156529426575
1789399281106623700,4.014623779296875,-7.3536529541015625,-0.44825196266174316,0.1965874433517456
1789399281116623600,4.02462353515625,-7.183679580688477,-0.4162569046020508,-0.10786271095275879
1789399281126623700,4.034623779296875,-6.678471565246582,-0.3374145030975342,-0.4207710027694702
1789399281136623600,4.04462353515625,-6.001734256744385,-0.29810500144958496,-0.7395363450050354
1789399281146623700,4.054623779296875,-5.230401039123535,-0.2256298065185547,-0.9819851517677307
1789399281156623600,4.06462353515625,-4.331520080566406,-0.08060717582702637,-1.254920244216919
1789399281166623700,4.074623779296875,-3.3149967193603516,0.18502211570739746,-1.471896767616272
1789399281176623600,4.08462353515625,-2.386195659637451,0.45192742347717285,-1.653257131576538
1789399281186623700,4.094623779296875,-1.423807144165039,0.6368210315704346,-1.7591986656188965
1789399281196623600,4.10462353515625,-0.6155567169189453,0.632220983505249,-1.75497567653656
1789399281206623700,4.114623779296875,-0.12485313415527344,0.6405138969421387,-1.770855188369751
1789399281216623600,4.12462353515625,0.18769168853759766,0.6988775730133057,-1.8047274351119995
1789399281226623700,4.134623779296875,0.3358306884765625,0.7264235019683838,-1.8737633228302002
1789399281236623600,4.14462353515625,0.30960559844970703,0.7440662384033203,-2.0579795837402344
1789399281246623700,4.154623779296875,0.2275543212890625,0.769350528717041,-2.274850606918335
1789399281256623600,4.16462353515625,0.25812625885009766,0.8838546276092529,-2.433828592300415
1789399281266623700,4.174623779296875,0.4644498825073242,1.0752229690551758,-2.4221253395080566
1789399281276623600,4.18462353515625,0.7219562530517578,1.2021784782409668,-2.3051726818084717
1789399281286623700,4.194623779296875,1.0671043395996094,1.2755646705627441,-2.156226634979248
1789399281296623600,4.20462353515625,1.3767375946044922,1.311734914779663,-1.9249937534332275
1789399281306623700,4.214623779296875,1.5810861587524414,1.3664379119873047,-1.658602237701416
1789399281316623600,4.22462353515625,1.7452278137207031,1.5220725536346436,-1.3025565147399902
1789399281326623700,4.234623779296875,2.1057682037353516,1.8828527927398682,-0.8727940320968628
1789399281336623600,4.24462353515625,2.827890396118164,2.7753305435180664,-0.40533867478370667
1789399281346623700,4.254623779296875,3.6869325637817383,3.345053195953369,0.2869141697883606
1789399281356623600,4.26462353515625,4.4454345703125,3.6055381298065186,1.3342915773391724
1789399281366623700,4.274623779296875,4.637019157409668,3.612974166870117,2.501225709915161
1789399281376623600,4.28462353515625,4.16445255279541,3.3700754642486572,3.208728075027466
1789399281386623700,4.294623779296875,3.8786115646362305,3.1185150146484375,3.0512967109680176
1789399281396623600,4.30462353515625,4.183741569519043,2.957329511642456,2.127546548843384
1789399281406623700,4.314623779296875,4.752038955688477,2.638295888900757,1.1344094276428223
1789399281416623600,4.32462353515625,5.202547073364258,2.029170513153076,0.4500136971473694
1789399281426623700,4.334623779296875,5.452686309814453,1.2054355144500732,-0.05614575743675232
1789399281436623600,4.34462353515625,5.773201942443848,0.3750326633453369,-0.42268067598342896
1789399281446623700,4.354623779296875,5.717131614685059,-0.15266704559326172,-0.8073854446411133
1789399281456623600,4.36462353515625,5.145194053649902,-0.3769538402557373,-0.942212700843811
1789399281466623700,4.374623779296875,4.3029375076293945,-0.7064595222473145,-0.9100896120071411
1789399281476623600,4.38462353515625,3.424776077270508,-1.0302808284759521,-0.946492075920105
1789399281486623700,4.394623779296875,2.8091163635253906,-1.0954504013061523,-1.0999828577041626
1789399281496623600,4.40462353515625,2.156540870666504,-1.110556960105896,-1.2349677085876465
1789399281506623700,4.414623779296875,1.4807014465332031,-1.2279897928237915,-1.2846417427062988
1789399281516623600,4.42462353515625,0.8393440246582031,-1.4061199426651,-1.197340726852417
1789399281526623700,4.434623779296875,0.2885932922363281,-1.5433886051177979,-1.056600570678711
1789399281536623600,4.44462353515625,-0.19651126861572266,-1.6246612071990967,-0.9493484497070312
1789399281546623700,4.454623779296875,-0.6691312789916992,-1.661604881286621,-0.90308678150177
1789399281556623600,4.46462353515625,-1.0777568817138672,-1.6935245990753174,-0.8752774596214294
1789399281566623700,4.474623779296875,-1.319589614868164,-1.803415060043335,-0.8007339239120483
1789399281576623600,4.48462353515625,-1.4587011337280273,-1.9473118782043457,-0.7360106706619263
1789399281586623700,4.494623779296875,-1.7156739234924316,-2.0964672565460205,-0.65453040599823
1789399281596623600,4.50462353515625,-2.0478296279907227,-2.193943977355957,-0.6448287963867188
1789399281606623700,4.514623779296875,-2.3717527389526367,-2.2771482467651367,-0.6388518810272217
1789399281616623600,4.52462353515625,-2.718883514404297,-2.3425815105438232,-0.5318782329559326
1789399281626623700,4.534623779296875,-3.111945629119873,-2.3804142475128174,-0.33990445733070374
1789399281636623600,4.54462353515625,-3.5206069946289062,-2.388781785964966,-0.19187718629837036
1789399281646623700,4.554623779296875,-3.941854476928711,-2.4306046962738037,-0.17087113857269287
1789399281656623600,4.56462353515625,-4.496189117431641,-2.507474422454834,-0.2153174877166748
1789399281666623700,4.574623779296875,-5.001041412353516,-2.4221951961517334,-0.24973297119140625
1789399281676623600,4.58462353515625,-5.385702610015869,-2.2593588829040527,-0.39809489250183105
1789399281686623700,4.594623779296875,-5.663109302520752,-2.1154112815856934,-0.4362674951553345
1789399281696623600,4.60462353515625,-6.002923488616943,-1.994898796081543,0.019365668296813965
1789399281706623700,4.614623779296875,-5.956403732299805,-1.7243916988372803,-0.008561253547668457
1789399281716623600,4.62462353515625,-5.559369087219238,-1.3151495456695557,-0.05447596311569214
1789399281726623700,4.634623779296875,-5.1952385902404785,-0.833653450012207,0.12849602103233337
1789399281736623600,4.64462353515625,-4.718203544616699,-0.4234154224395752,0.4942935109138489
1789399281746623700,4.654623779296875,-4.0388078689575195,-0.1402881145477295,0.9422938823699951
1789399281756623600,4.66462353515625,-3.416144847869873,0.08862113952636719,1.1868720054626465
1789399281766623700,4.674623779296875,-2.979867935180664,0.36455488204956055,1.4532936811447144
1789399281776623600,4.68462353515625,-2.264613151550293,0.6137382984161377,1.7401435375213623
1789399281786623700,4.694623779296875,-1.3576478958129883,0.6313197612762451,1.9179996252059937
1789399281796623600,4.70462353515625,-0.8384428024291992,0.2655296325683594,2.003425121307373
1789399281806623700,4.714623779296875,-0.6324558258056641,-0.2807426452636719,1.7715601921081543
1789399281816623600,4.72462353515625,-0.5441551208496094,-0.7476301193237305,1.2827892303466797
1789399281826623700,4.734623779296875,-0.37628173828125,-0.9320731163024902,0.670184314250946
1789399281836623600,4.74462353515625,-0.18565845489501953,-0.9142119884490967,0.2961893081665039
1789399281846623700,4.754623779296875,-0.241668701171875,-1.0165741443634033,0.2616662383079529
1789399281856623600,4.76462353515625,-0.49884700775146484,-1.3471653461456299,0.3230127692222595
1789399281866623700,4.774623779296875,-0.4816761016845703,-1.5906236171722412,0.18366926908493042
1789399281876623600,4.78462353515625,-0.2631692886352539,-1.421799898147583,-0.4452790319919586
1789399281886623700,4.794623779296875,-0.01251983642578125,-1.0611205101013184,-0.9630516171455383
1789399281896623600,4.80462353515625,0.4192323684692383,-0.7988228797912598,-1.2036619186401367
1789399281906623700,4.814623779296875,1.2657222747802734,-0.6246578693389893,-1.189330816268921
1789399281916623600,4.82462353515625,2.2140445709228516,-0.44496893882751465,-0.9731316566467285
1789399281926623700,4.834623779296875,3.2712574005126953,-0.17697453498840332,-0.6186531782150269
1789399281936623600,4.84462353515625,4.312607765197754,0.19564509391784668,-0.08115541934967041
1789399281946623700,4.854623779296875,5.223468780517578,0.5773234367370605,0.5584574341773987
1789399281956623600,4.86462353515625,6.0894575119018555,0.8410961627960205,1.1729793548583984
1789399281966623700,4.874623779296875,6.814759254455566,0.9122714996337891,1.6683719158172607
1789399281976623600,4.88462353515625,7.302870750427246,0.7059788703918457,2.0183563232421875
1789399281986623700,4.894623779296875,7.527413368225098,0.27145957946777344,2.1799356937408447
1789399281996623600,4.90462353515625,7.7734880447387695,-0.2073345184326172,2.0702764987945557
1789399282006623700,4.914623779296875,7.787397384643555,-0.5000232458114624,1.6613402366638184
1789399282016623600,4.92462353515625,7.515491485595703,-0.641638994216919,1.118645429611206
1789399282026623700,4.934623779296875,7.137778282165527,-0.6856702566146851,0.7955121994018555
1789399282036623600,4.94462353515625,6.683467864990234,-0.6313252449035645,0.7666247487068176
1789399282046623700,4.954623779296875,5.980267524719238,-0.5555988550186157,0.9442785382270813
1789399282056623600,4.96462353515625,5.030163764953613,-0.5088179111480713,1.185840129852295
1789399282066623700,4.974623779296875,4.058991432189941,-0.4037775993347168,1.4292263984680176
1789399282076623600,4.98462353515625,3.165055274963379,-0.17065191268920898,1.608494758605957
1789399282086623700,4.994623779296875,2.2430248260498047,0.07331633567810059,1.8070487976074219
1789399282096623600,5.00462353515625,1.2494945526123047,0.19770598411560059,1.9433826208114624
1789399282106623700,5.014623779296875,0.3434333801269531,0.2177722454071045,1.9701310396194458
1789399282116623600,5.02462353515625,-0.4730682373046875,0.16562914848327637,1.9453516006469727
1789399282126623700,5.034623779296875,-1.2165718078613281,0.050191402435302734,1.8949971199035645
1789399282136623600,5.04462353515625,-1.8729281425476074,-0.056333303451538086,1.814808964729309
1789399282146623700,5.054623779296875,-2.4691524505615234,-0.17069613933563232,1.6380555629730225
1789399282156623600,5.06462353515625,-3.0441064834594727,-0.3134979009628296,1.3964349031448364
1789399282166623700,5.074623779296875,-3.5784902572631836,-0.47722387313842773,1.1116210222244263
1789399282176623600,5.08462353515625,-4.084001541137695,-0.5589265823364258,0.87684166431427
1789399282186623700,5.094623779296875,-4.529077529907227,-0.4631354808807373,0.8481215238571167
1789399282196623600,5.10462353515625,-4.878311634063721,-0.2659590244293213,0.9232567548751831
1789399282206623700,5.114623779296875,-5.145867824554443,-0.10000848770141602,0.9473296403884888
1789399282216623600,5.12462353515625,-5.35745096206665,-0.046071529388427734,0.9247413873672485
1789399282226623700,5.134623779296875,-5.567461013793945,-0.07623696327209473,0.8872426748275757
1789399282236623600,5.14462353515625,-5.711191654205322,-0.11619114875793457,0.8207783699035645
1789399282246623700,5.154623779296875,-5.856925010681152,-0.13347721099853516,0.6234838366508484
1789399282256623600,5.16462353515625,-5.814610481262207,-0.03373289108276367,0.34937137365341187
1789399282266623700,5.174623779296875,-5.248053550720215,0.21105408668518066,0.25664442777633667
1789399282276623600,5.18462353515625,-4.73211669921875,0.4376521110534668,0.15812313556671143
1789399282286623700,5.194623779296875,-4.3192458152771,0.6470942497253418,-0.07521513104438782
1789399282296623600,5.20462353515625,-3.700209140777588,0.8476245403289795,-0.2038988471031189
1789399282306623700,5.214623779296875,-3.09342098236084,1.045682430267334,-0.28638985753059387
1789399282316623600,5.22462353515625,-2.5855607986450195,1.204698085784912,-0.37636685371398926
1789399282326623700,5.234623779296875,-2.2511510848999023,1.3326399326324463,-0.5048204064369202
1789399282336623600,5.24462353515625,-2.0248727798461914,1.442793846130371,-0.606603741645813
1789399282346623700,5.254623779296875,-1.8408823013305664,1.5045506954193115,-0.716023862361908
1789399282356623600,5.26462353515625,-1.6597070693969727,1.507688283920288,-0.8441149592399597
1789399282366623700,5.274623779296875,-1.282578468322754,1.4279406070709229,-0.9986310005187988
1789399282376623600,5.28462353515625,-0.6893110275268555,1.3293585777282715,-1.0876154899597168
1789399282386623700,5.294623779296875,-0.08049774169921875,1.2257208824157715,-1.2071932554244995
1789399282396623600,5.30462353515625,0.5974445343017578,1.0837078094482422,-1.385773777961731
1789399282406623700,5.314623779296875,1.4207496643066406,0.927349328994751,-1.5073292255401611
1789399282416623600,5.32462353515625,2.011211395263672,0.8539085388183594,-1.709628701210022
1789399282426623700,5.334623779296875,2.3801612854003906,0.9141218662261963,-1.9688128232955933
1789399282436623600,5.34462353515625,2.639303207397461,1.090634822845459,-2.160271644592285
1789399282446623700,5.354623779296875,2.756002426147461,1.308197259902954,-2.313790798187256
1789399282456623600,5.36462353515625,2.7359161376953125,1.4590849876403809,-2.4157233238220215
1789399282466623700,5.374623779296875,2.734262466430664,1.5406665802001953,-2.424881935119629
1789399282476623600,5.38462353515625,2.685452461242676,1.4936137199401855,-2.231611490249634
1789399282486623700,5.394623779296875,2.6951770782470703,1.3747787475585938,-2.0579993724823
1789399282496623600,5.40462353515625,2.953584671020508,1.3270618915557861,-2.0455729961395264
1789399282506623700,5.414623779296875,3.315108299255371,1.3426384925842285,-2.145763397216797
1789399282516623600,5.42462353515625,3.6554412841796875,1.3664319515228271,-2.29962158203125
1789399282526623700,5.434623779296875,4.127291679382324,1.3196215629577637,-2.3049001693725586
1789399282536623600,5.44462353515625,4.72634220123291,1.193673849105835,-2.03735089302063
1789399282546623700,5.454623779296875,5.248483657836914,0.8835313320159912,-1.6244449615478516
1789399282556623600,5.46462353515625,5.609714508056641,0.4441680908203125,-1.1807255744934082
1789399282566623700,5.474623779296875,5.862199783325195,0.09563851356506348,-0.9228780269622803
1789399282576623600,5.48462353515625,5.896696090698242,-0.08645081520080566,-0.7721827030181885
1789399282586623700,5.494623779296875,5.6517229080200195,-0.1413435935974121,-0.6422633528709412
1789399282596623600,5.50462353515625,5.206572532653809,-0.15317344665527344,-0.44643932580947876
1789399282606623700,5.514623779296875,4.650907516479492,-0.17661523818969727,-0.22298824787139893
1789399282616623600,5.52462353515625,3.936138153076172,-0.20374727249145508,0.016215264797210693
1789399282626623700,5.534623779296875,3.104790687561035,-0.2956104278564453,0.2182217240333557
1789399282636623600,5.54462353515625,2.2647457122802734,-0.4565112590789795,0.39782851934432983
1789399282646623700,5.554623779296875,1.4386634826660156,-0.6633865833282471,0.42538753151893616
1789399282656623600,5.56462353515625,0.6611061096191406,-0.8493149280548096,0.29160839319229126
1789399282666623700,5.574623779296875,-0.06804943084716797,-1.000535249710083,0.017389953136444092
1789399282676623600,5.58462353515625,-0.6965723037719727,-1.1246366500854492,-0.256594717502594
1789399282686623700,5.594623779296875,-1.2593679428100586,-1.262765884399414,-0.3612091541290283
1789399282696623600,5.60462353515625,-1.7472262382507324,-1.4153127670288086,-0.3452405631542206
1789399282706623700,5.614623779296875,-2.1823816299438477,-1.576578140258789,-0.3495314121246338
1789399282716623600,5.62462353515625,-2.555103302001953,-1.727473258972168,-0.4012097716331482
1789399282726623700,5.634623779296875,-2.7997570037841797,-1.8174560070037842,-0.4374188780784607
1789399282736623600,5.64462353515625,-3.0091161727905273,-1.8819212913513184,-0.4811934232711792
1789399282746623700,5.654623779296875,-3.1655702590942383,-1.8982435464859009,-0.5182228684425354
1789399282756623600,5.66462353515625,-3.2441768646240234,-1.8636853694915771,-0.48113518953323364
1789399282766623700,5.674623779296875,-3.1939268112182617,-1.806301474571228,-0.39443063735961914
1789399282776623600,5.68462353515625,-3.120115280151367,-1.7573505640029907,-0.31139832735061646
1789399282786623700,5.694623779296875,-3.1417593955993652,-1.7751085758209229,-0.16698753833770752
1789399282796623600,5.70462353515625,-3.264223098754883,-1.852337121963501,-0.008680880069732666
1789399282806623700,5.714623779296875,-3.4137983322143555,-1.9275364875793457,0.13098371028900146
1789399282816623600,5.72462353515625,-3.582735538482666,-1.9374909400939941,0.204207181930542
1789399282826623700,5.734623779296875,-3.824398994445801,-1.8669545650482178,0.23237335681915283
1789399282836623600,5.74462353515625,-4.082442283630371,-1.7271461486816406,0.22961676120758057
1789399282846623700,5.754623779296875,-4.240477561950684,-1.5878283977508545,0.24891993403434753
1789399282856623600,5.76462353515625,-4.381133079528809,-1.5099773406982422,0.27691084146499634
1789399282866623700,5.774623779296875,-4.5430755615234375,-1.42388916015625,0.3072822093963623
1789399282876623600,5.78462353515625,-4.551656723022461,-1.2467284202575684,0.32368871569633484
1789399282886623700,5.794623779296875,-4.374804973602295,-1.039308786392212,0.2921377718448639
1789399282896623600,5.80462353515625,-4.156476020812988,-0.8561515808105469,0.3123546242713928
1789399282906623700,5.814623779296875,-3.94197940826416,-0.6770503520965576,0.4026086926460266
1789399282916623600,5.82462353515625,-3.5818891525268555,-0.4888896942138672,0.48691990971565247
1789399282926623700,5.834623779296875,-3.0829010009765625,-0.3149223327636719,0.6049973368644714
1789399282936623600,5.84462353515625,-2.7069907188415527,-0.2635221481323242,0.7547976970672607
1789399282946623700,5.854623779296875,-2.4274377822875977,-0.30319786071777344,0.8584570288658142
1789399282956623600,5.86462353515625,-2.103848457336426,-0.41161227226257324,0.8897020220756531
1789399282966623700,5.874623779296875,-1.5607595443725586,-0.5150747299194336,0.8265926837921143
1789399282976623600,5.88462353515625,-0.8638172149658203,-0.5693044662475586,0.655969500541687
1789399282986623700,5.894623779296875,0.056423187255859375,-0.5884499549865723,0.5106204748153687
1789399282996623600,5.90462353515625,1.0282821655273438,-0.6012401580810547,0.37930920720100403
1789399283006623700,5.914623779296875,1.9483938217163086,-0.6877074241638184,0.4107407331466675
1789399283016623600,5.92462353515625,2.589236259460449,-0.7549927234649658,0.4837055206298828
1789399283026623700,5.934623779296875,2.9677772521972656,-0.7022089958190918,0.4985823929309845
1789399283036623600,5.94462353515625,3.04160213470459,-0.6047072410583496,0.44844090938568115
1789399283046623700,5.954623779296875,2.946833610534668,-0.5481030941009521,0.33259013295173645
1789399283056623600,5.96462353515625,2.706242561340332,-0.5620787143707275,0.23406091332435608
1789399283066623700,5.974623779296875,2.4204959869384766,-0.5332772731781006,0.13269977271556854
1789399283076623600,5.98462353515625,2.1305665969848633,-0.4303719997406006,0.037036627531051636
1789399283086623700,5.994623779296875,1.9009933471679688,-0.2657628059387207,-0.03942648321390152
1789399283096623600,6.00462353515625,1.7794294357299805,-0.11150050163269043,-0.10871927440166473
1789399283106623700,6.014623779296875,1.905655860900879,-0.003750324249267578,-0.16215981543064117
1789399283116623600,6.02462353515625,2.2870664596557617,0.12255358695983887,-0.13287848234176636
1789399283126623700,6.034623779296875,2.823784828186035,0.22811532020568848,0.07516148686408997
1789399283136623600,6.04462353515625,3.482524871826172,0.2770819664001465,0.3797205090522766
1789399283146623700,6.054623779296875,4.060070991516113,0.3029036521911621,0.6985001564025879
1789399283156623600,6.06462353515625,4.537288665771484,0.21703314781188965,0.9423165917396545
1789399283166623700,6.074623779296875,5.016145706176758,0.060782670974731445,1.0842939615249634
1789399283176623600,6.08462353515625,5.406027793884277,-0.05163240432739258,1.1941626071929932
1789399283186623700,6.094623779296875,5.74216365814209,-0.13411927223205566,1.2540353536605835
1789399283196623600,6.10462353515625,5.983933448791504,-0.23869991302490234,1.29576575756073
1789399283206623700,6.114623779296875,6.090879440307617,-0.37177300453186035,1.3323522806167603
1789399283216623600,6.12462353515625,5.887821197509766,-0.4134364128112793,1.3596428632736206
1789399283226623700,6.134623779296875,5.330106735229492,-0.4014565944671631,1.4274072647094727
1789399283236623600,6.14462353515625,4.457971572875977,-0.33008408546447754,1.4944086074829102
1789399283246623700,6.154623779296875,3.446112632751465,-0.18818879127502441,1.502535343170166
1789399283256623600,6.16462353515625,2.41402530670166,-0.01174473762512207,1.4467731714248657
1789399283266623700,6.174623779296875,1.4041318893432617,0.11917662620544434,1.3446009159088135
1789399283276623600,6.18462353515625,0.5084457397460938,0.14891958236694336,1.2417155504226685
1789399283286623700,6.194623779296875,-0.30135250091552734,0.07766914367675781,1.1571389436721802
1789399283296623600,6.20462353515625,-1.0616998672485352,-0.03242182731628418,1.0796313285827637
1789399283306623700,6.214623779296875,-1.7222905158996582,-0.10706806182861328,0.9759331941604614
1789399283316623600,6.22462353515625,-2.320972442626953,-0.14426589012145996,0.8943459987640381
1789399283326623700,6.234623779296875,-2.8598098754882812,-0.2180173397064209,0.8304908275604248
1789399283336623600,6.24462353515625,-3.3677663803100586,-0.30825185775756836,0.7893456220626831
1789399283346623700,6.254623779296875,-3.8600683212280273,-0.37940311431884766,0.7225282192230225
1789399283356623600,6.26462353515625,-4.312067985534668,-0.41347646713256836,0.6511321067810059
1789399283366623700,6.274623779296875,-4.7459869384765625,-0.41138696670532227,0.5852649211883545
1789399283376623600,6.28462353515625,-5.074029922485352,-0.3232388496398926,0.5157583951950073
1789399283386623700,6.294623779296875,-5.3642120361328125,-0.18625783920288086,0.4404764771461487
1789399283396623600,6.30462353515625,-5.580485820770264,0.0028831958770751953,0.2982826828956604
1789399283406623700,6.314623779296875,-5.589582443237305,0.19982504844665527,0.11535800993442535
1789399283416623600,6.32462353515625,-5.447089672088623,0.43764615058898926,0.008172780275344849
1789399283426623700,6.334623779296875,-5.275576591491699,0.6149623394012451,-0.11130566895008087
1789399283436623600,6.34462353515625,-4.844263553619385,0.7522783279418945,-0.24440333247184753
1789399283446623700,6.354623779296875,-4.26167106628418,0.8890011310577393,-0.3204103410243988
1789399283456623600,6.36462353515625,-3.7884740829467773,0.9729495048522949,-0.49342960119247437
1789399283466623700,6.374623779296875,-3.308882236480713,1.0270304679870605,-0.7832643985748291
1789399283476623600,6.38462353515625,-2.8050594329833984,1.038076639175415,-1.0586271286010742
1789399283486623700,6.394623779296875,-2.454360008239746,1.0242955684661865,-1.2713606357574463
1789399283496623600,6.40462353515625,-2.134220600128174,1.0153968334197998,-1.4373178482055664
1789399283506623700,6.414623779296875,-1.5561065673828125,0.9665148258209229,-1.5268197059631348
1789399283516623600,6.42462353515625,-0.9610872268676758,0.8251192569732666,-1.6331793069839478
1789399283526623700,6.434623779296875,-0.45833873748779297,0.6482579708099365,-1.8121540546417236
1789399283536623600,6.44462353515625,0.1445913314819336,0.6110467910766602,-1.957066297531128
1789399283546623700,6.454623779296875,0.6780433654785156,0.6048884391784668,-1.9338551759719849
1789399283556623600,6.46462353515625,0.9212255477905273,0.5084319114685059,-1.8491909503936768
1789399283566623700,6.474623779296875,0.9881725311279297,0.4160275459289551,-1.780572772026062
1789399283576623600,6.48462353515625,1.0532989501953125,0.4554455280303955,-1.8060836791992188
1789399283586623700,6.494623779296875,0.9569816589355469,0.6259751319885254,-1.9015281200408936
1789399283596623600,6.50462353515625,0.8341770172119141,0.8799529075622559,-1.9842853546142578
1789399283606623700,6.514623779296875,1.0060577392578125,1.212475061416626,-1.905775547027588
1789399283616623600,6.52462353515625,1.3888397216796875,1.492859125137329,-1.6951497793197632
1789399283626623700,6.534623779296875,1.6656389236450195,1.696927547454834,-1.5094988346099854
1789399283636623600,6.54462353515625,1.8333988189697266,1.8089969158172607,-1.461110234260559
1789399283646623700,6.554623779296875,2.1528539657592773,1.831963300704956,-1.4107755422592163
1789399283656623600,6.56462353515625,2.5557899475097656,1.848656415939331,-1.412879467010498
1789399283666623700,6.574623779296875,3.0053348541259766,1.9245257377624512,-1.5428277254104614
1789399283676623600,6.58462353515625,3.5955419540405273,1.9881806373596191,-1.6203153133392334
1789399283686623700,6.594623779296875,4.260376930236816,1.9799978733062744,-1.6120901107788086
1789399283696623600,6.60462353515625,4.825437545776367,1.8029687404632568,-1.5652222633361816
1789399283706623700,6.614623779296875,5.1442975997924805,1.5107462406158447,-1.5053761005401611
1789399283716623600,6.62462353515625,5.272904396057129,1.2665328979492188,-1.5267891883850098
1789399283726623700,6.634623779296875,5.186348915100098,1.0690100193023682,-1.502781629562378
1789399283736623600,6.64462353515625,4.887269973754883,0.841275691986084,-1.3442745208740234
1789399283746623700,6.654623779296875,4.520542144775391,0.5907135009765625,-1.1139405965805054
1789399283756623600,6.66462353515625,4.208234786987305,0.4004483222961426,-0.8725024461746216
1789399283766623700,6.674623779296875,3.8994693756103516,0.29607653617858887,-0.647577166557312
1789399283776623600,6.68462353515625,3.5947866439819336,0.18091845512390137,-0.4770010709762573
1789399283786623700,6.694623779296875,3.3544158935546875,0.03950190544128418,-0.3586845397949219
1789399283796623600,6.70462353515625,3.2211828231811523,-0.13652873039245605,-0.2934530973434448
1789399283806623700,6.714623779296875,2.9011716842651367,-0.3762669563293457,-0.23167258501052856
1789399283816623600,6.72462353515625,2.466893196105957,-0.6542792320251465,-0.20201104879379272
1789399283826623700,6.734623779296875,1.9950027465820312,-0.8014097213745117,-0.2060922384262085
1789399283836623600,6.74462353515625,1.4535646438598633,-0.9217841625213623,-0.2050897479057312
1789399283846623700,6.754623779296875,0.7735414505004883,-1.1074347496032715,-0.14309048652648926
1789399283856623600,6.76462353515625,0.1381053924560547,-1.3346118927001953,-0.08991289138793945
1789399283866623700,6.774623779296875,-0.41521453857421875,-1.470618724822998,-0.13133633136749268
1789399283876623600,6.78462353515625,-0.8867521286010742,-1.6347086429595947,-0.2309098243713379
1789399283886623700,6.794623779296875,-1.1982851028442383,-1.7802404165267944,-0.3127403259277344
1789399283896623600,6.80462353515625,-1.3801326751708984,-1.8954551219940186,-0.28763389587402344
1789399283906623700,6.814623779296875,-1.5801753997802734,-2.003980875015259,-0.19510018825531006
1789399283916623600,6.82462353515625,-1.902216911315918,-2.1260597705841064,-0.045882463455200195
1789399283926623700,6.834623779296875,-2.239469528198242,-2.3001160621643066,0.1516648530960083
1789399283936623600,6.84462353515625,-2.643794059753418,-2.473115921020508,0.27002716064453125
1789399283946623700,6.854623779296875,-3.0688962936401367,-2.624739646911621,0.2891099452972412
1789399283956623600,6.86462353515625,-3.5475263595581055,-2.7185142040252686,0.3022589683532715
1789399283966623700,6.874623779296875,-3.989426612854004,-2.763077735900879,0.34442782402038574
1789399283976623600,6.88462353515625,-4.3779425621032715,-2.7460873126983643,0.3985633850097656
1789399283986623700,6.894623779296875,-4.718880653381348,-2.676591396331787,0.4953041076660156
1789399283996623600,6.90462353515625,-5.032670497894287,-2.55521821975708,0.6186141967773438
1789399284006623700,6.914623779296875,-5.282046318054199,-2.3727893829345703,0.7275128960609436
1789399284016623600,6.92462353515625,-5.457263469696045,-2.124191999435425,0.7567290663719177
1789399284026623700,6.934623779296875,-5.621672630310059,-1.792574167251587,0.8214772939682007
1789399284036623600,6.94462353515625,-5.80081844329834,-1.4572129249572754,0.9252554178237915
1789399284046623700,6.954623779296875,-5.932869911193848,-1.158623218536377,1.0366127490997314
1789399284056623600,6.96462353515625,-5.948102951049805,-0.9183568954467773,1.0453424453735352
1789399284066623700,6.974623779296875,-5.678912162780762,-0.7361431121826172,0.9998536109924316
1789399284076623600,6.98462353515625,-5.103969097137451,-0.6723277568817139,0.9105695486068726
1789399284086623700,6.994623779296875,-3.8820128440856934,-0.7323553562164307,0.9269871711730957
1789399284096623600,7.00462353515625,-2.6418495178222656,-0.9783310890197754,1.0103710889816284
1789399284106623700,7.014623779296875,-1.7061386108398438,-1.2805681228637695,0.9401775598526001
1789399284116623600,7.02462353515625,-0.5902976989746094,-1.353161096572876,0.9204860329627991
1789399284126623700,7.034623779296875,0.5546789169311523,-1.2855520248413086,0.9954521656036377
1789399284136623600,7.04462353515625,1.272568702697754,-1.1597867012023926,0.9091628789901733
1789399284146623700,7.054623779296875,1.5438966751098633,-1.1188242435455322,0.8719286322593689
1789399284156623600,7.06462353515625,1.667109489440918,-1.1149225234985352,0.8740713000297546
1789399284166623700,7.074623779296875,1.6389408111572266,-1.1871883869171143,0.7973276376724243
1789399284176623600,7.08462353515625,1.5661211013793945,-1.229989767074585,0.5558508634567261
1789399284186623700,7.094623779296875,1.4191055297851562,-1.238760232925415,0.28134381771087646
1789399284196623600,7.10462353515625,1.300673484802246,-1.2029945850372314,0.042669057846069336
1789399284206623700,7.114623779296875,1.3008699417114258,-1.132845163345337,0.017360031604766846
1789399284216623600,7.12462353515625,1.4297704696655273,-0.9918811321258545,0.28207582235336304
1789399284226623700,7.134623779296875,1.7795333862304688,-0.790912389755249,0.6654685139656067
1789399284236623600,7.14462353515625,2.380436897277832,-0.5781328678131104,1.1072947978973389
1789399284246623700,7.154623779296875,3.281208038330078,-0.41817402839660645,1.547437310218811
1789399284256623600,7.16462353515625,4.426469802856445,-0.3123362064361572,1.849841594696045
1789399284266623700,7.174623779296875,5.550765037536621,-0.26633572578430176,1.9538617134094238
1789399284276623600,7.18462353515625,6.402037620544434,-0.3157944679260254,1.9791278839111328
1789399284286623700,7.194623779296875,6.9836225509643555,-0.34984588623046875,2.002146005630493
1789399284296623600,7.20462353515625,7.227948188781738,-0.35164904594421387,2.053511142730713
1789399284306623700,7.214623779296875,7.197014808654785,-0.3638805150985718,2.063096046447754
1789399284316623600,7.22462353515625,6.966423034667969,-0.3810466527938843,1.9539589881896973
1789399284326623700,7.234623779296875,6.642129898071289,-0.39392518997192383,1.7838873863220215
1789399284336623600,7.24462353515625,6.265870094299316,-0.37783539295196533,1.6648263931274414
1789399284346623700,7.254623779296875,5.851332664489746,-0.35594308376312256,1.5353825092315674
1789399284356623600,7.26462353515625,5.399435997009277,-0.3176388740539551,1.4149205684661865
1789399284366623700,7.274623779296875,4.930743217468262,-0.2528269290924072,1.2902073860168457
1789399284376623600,7.28462353515625,4.384624481201172,-0.2226477861404419,1.1831201314926147
1789399284386623700,7.294623779296875,3.745760917663574,-0.18773174285888672,1.1072463989257812
1789399284396623600,7.30462353515625,3.0459375381469727,-0.10773324966430664,1.0198144912719727
1789399284406623700,7.314623779296875,2.293394088745117,0.04006457328796387,0.9069036841392517
1789399284416623600,7.32462353515625,1.4632349014282227,0.20811820030212402,0.7974101305007935
1789399284426623700,7.334623779296875,0.5838050842285156,0.222723126411438,0.8076440691947937
1789399284436623600,7.34462353515625,-0.3132476806640625,0.12459635734558105,0.9401562809944153
1789399284446623700,7.354623779296875,-1.0998907089233398,0.06600677967071533,1.0915359258651733
1789399284456623600,7.36462353515625,-1.803339958190918,0.08902907371520996,1.2380197048187256
1789399284466623700,7.374623779296875,-2.4497251510620117,0.20137536525726318,1.4274080991744995
1789399284476623600,7.38462353515625,-3.066380500793457,0.25359511375427246,1.6428499221801758
1789399284486623700,7.394623779296875,-3.7056589126586914,0.21076512336730957,1.7901184558868408
1789399284496623600,7.40462353515625,-4.346748352050781,0.11062979698181152,1.8100104331970215
1789399284506623700,7.414623779296875,-4.985068321228027,0.014719247817993164,1.617267370223999
1789399284516623600,7.42462353515625,-5.591824531555176,-0.07193756103515625,1.3077630996704102
1789399284526623700,7.434623779296875,-6.18698263168335,-0.13505315780639648,0.9264659285545349
1789399284536623600,7.44462353515625,-6.659549236297607,-0.10303449630737305,0.5343666076660156
1789399284546623700,7.454623779296875,-6.9943671226501465,0.013006210327148438,0.20186400413513184
1789399284556623600,7.46462353515625,-7.078421115875244,0.25719118118286133,-0.021334052085876465
1789399284566623700,7.474623779296875,-6.881614685058594,0.5399549007415771,-0.20596075057983398
1789399284576623600,7.48462353515625,-6.299980163574219,0.756436824798584,-0.37485647201538086
1789399284586623700,7.494623779296875,-5.512142658233643,0.8788421154022217,-0.42416346073150635
1789399284596623600,7.50462353515625,-4.652487277984619,0.9692995548248291,-0.3236352205276489
1789399284606623700,7.514623779296875,-3.6674394607543945,1.000312328338623,-0.22256898880004883
1789399284616623600,7.52462353515625,-2.483668804168701,1.013716220855713,-0.10135918855667114
1789399284626623700,7.534623779296875,-1.4511423110961914,0.978731632232666,-0.0674237608909607
1789399284636623600,7.54462353515625,-0.4908618927001953,0.8643333911895752,-0.17017120122909546
1789399284646623700,7.554623779296875,0.2464132308959961,0.6808524131774902,-0.37802189588546753
1789399284656623600,7.56462353515625,0.6979827880859375,0.48359155654907227,-0.7672891616821289
1789399284666623700,7.574623779296875,0.9360160827636719,0.28668642044067383,-1.3650414943695068
1789399284676623600,7.58462353515625,1.0205364227294922,0.22673320770263672,-1.9739290475845337
1789399284686623700,7.594623779296875,1.0828962326049805,0.22784209251403809,-2.499854564666748
1789399284696623600,7.60462353515625,0.9368228912353516,0.21317243576049805,-2.796599864959717
1789399284706623700,7.614623779296875,0.6574382781982422,0.11467123031616211,-2.926440715789795
1789399284716623600,7.62462353515625,0.3936491012573242,0.07895255088806152,-3.0127811431884766
1789399284726623700,7.634623779296875,0.24164104461669922,0.17476820945739746,-3.056558132171631
1789399284736623600,7.64462353515625,0.1792459487915039,0.35053110122680664,-3.111741304397583
1789399284746623700,7.654623779296875,0.47858428955078125,0.5941767692565918,-3.12239408493042
1789399284756623600,7.66462353515625,1.1161537170410156,0.8650949001312256,-2.964317798614502
1789399284766623700,7.674623779296875,1.6452436447143555,1.0207428932189941,-2.6746978759765625
1789399284776623600,7.68462353515625,2.0983400344848633,1.083136796951294,-2.3673934936523438
1789399284786623700,7.694623779296875,2.690546989440918,1.1347601413726807,-2.0295491218566895
1789399284796623600,7.70462353515625,3.1607885360717773,1.2757995128631592,-1.803932547569275
1789399284806623700,7.714623779296875,3.466625213623047,1.3314955234527588,-1.6079789400100708
1789399284816623600,7.72462353515625,3.733401298522949,1.224764347076416,-1.4217597246170044
1789399284826623700,7.734623779296875,3.8476123809814453,1.0826442241668701,-1.2560744285583496
1789399284836623600,7.74462353515625,3.642210006713867,1.139618158340454,-1.141196608543396
1789399284846623700,7.754623779296875,3.324740409851074,1.0658106803894043,-1.063807725906372
1789399284856623600,7.76462353515625,2.9731597900390625,0.9220681190490723,-0.9882744550704956
1789399284866623700,7.774623779296875,2.567255973815918,0.735112190246582,-0.9301691055297852
1789399284876623600,7.78462353515625,2.1341094970703125,0.4538843631744385,-0.9033056497573853
1789399284886623700,7.794623779296875,1.7529230117797852,0.13042926788330078,-0.9183505773544312
1789399284896623600,7.80462353515625,1.5029935836791992,-0.05424165725708008,-0.9852153062820435
1789399284906623700,7.814623779296875,1.3142681121826172,-0.19122529029846191,-1.1369483470916748
1789399284916623600,7.82462353515625,1.2160491943359375,-0.34097933769226074,-1.2701712846755981
1789399284926623700,7.834623779296875,1.2690181732177734,-0.46695375442504883,-1.258190393447876
1789399284936623600,7.84462353515625,1.4119987487792969,-0.5605165958404541,-1.1072195768356323
1789399284946623700,7.854623779296875,1.5425748825073242,-0.7020881175994873,-0.920082688331604
1789399284956623600,7.86462353515625,1.5194482803344727,-0.8332520723342896,-0.8336828947067261
1789399284966623700,7.874623779296875,1.3650741577148438,-0.8778325319290161,-0.8711104393005371
1789399284976623600,7.88462353515625,1.094771385192871,-0.8843600749969482,-0.967071533203125
1789399284986623700,7.894623779296875,0.7604999542236328,-0.8971116542816162,-1.0259661674499512
1789399285004769500,7.91276953125,0.47351837158203125,-0.8894559144973755,-1.067499041557312
1789399285015459800,7.9234599609375,-0.06351089477539062,-1.022648811340332,-1.0256496667861938
1789399285026150000,7.93414990234375,-0.3665647506713867,-1.191823959350586,-1.0289498567581177
1789399285036840000,7.94483984375,-0.5952911376953125,-1.3783038854599,-1.040305256843567
1789399285047530000,7.955530029296875,-0.7839632034301758,-1.5050303936004639,-0.9889320135116577
1789399285058220000,7.966219970703125,-0.9017629623413086,-1.5423974990844727,-0.8417039513587952
1789399285068910300,7.976910400390625,-0.94635009765625,-1.5744104385375977,-0.5550684928894043
1789399285079600000,7.98760009765625,-1.1398191452026367,-1.6228657960891724,-0.23723924160003662
1789399285090290200,7.998290283203125,-1.4521045684814453,-1.6717543601989746,0.054506123065948486
1789399285100980500,8.00898046875,-1.8746662139892578,-1.6892480850219727,0.321380615234375
1789399285111670500,8.01967041015625,-2.385749340057373,-1.6510316133499146,0.5202233195304871
1789399285122360600,8.030360595703126,-2.9535279273986816,-1.5681157112121582,0.6178759336471558
1789399285133050600,8.041050537109374,-3.4758739471435547,-1.5015678405761719,0.5810312628746033
1789399285143740700,8.05174072265625,-3.8745718002319336,-1.433323860168457,0.49435627460479736
1789399285154430700,8.0624306640625,-4.21327543258667,-1.3740270137786865,0.385414719581604
1789399285165120800,8.073120849609374,-4.461125373840332,-1.2932138442993164,0.2681112587451935
1789399285175810800,8.083810791015624,-4.626410007476807,-1.178011417388916,0.19335150718688965
1789399285186500900,8.0945009765625,-4.680148601531982,-1.0113630294799805,0.1884964108467102
1789399285197191000,8.10519091796875,-4.52142333984375,-0.77512526512146,0.24989379942417145
1789399285207881200,8.115881103515624,-4.20387601852417,-0.6325182914733887,0.4997957944869995
1789399285218571300,8.1265712890625,-3.6931910514831543,-0.5186395645141602,0.6729432344436646
1789399285229261000,8.137260986328124,-2.857180595397949,-0.29984116554260254,0.8250473737716675
1789399285239951400,8.147951416015625,-2.0934829711914062,-0.06304121017456055,0.9664435386657715
1789399285250641400,8.158641357421875,-1.6045856475830078,0.007256031036376953,1.1087003946304321
1789399285261331500,8.16933154296875,-1.2584528923034668,-0.01127314567565918,1.2223494052886963
1789399285272021500,8.180021484375,-1.0455713272094727,-0.002439260482788086,1.2271555662155151
1789399285282711600,8.190711669921875,-0.9424648284912109,0.015412330627441406,1.070581078529358
1789399285293401600,8.201401611328125,-0.8271350860595703,-0.011171102523803711,0.8429444432258606
1789399285304091600,8.212091552734375,-0.5685005187988281,-0.04495549201965332,0.5974171161651611
1789399285314782000,8.222781982421875,-0.2130746841430664,-0.109771728515625,0.5029699802398682
1789399285325471700,8.2334716796875,0.11176776885986328,-0.2048170566558838,0.4314953088760376
1789399285336161800,8.244161865234375,0.6647205352783203,-0.2973332405090332,0.403253436088562
1789399285346852000,8.25485205078125,1.1537723541259766,-0.4146561622619629,0.39019638299942017
1789399285357542100,8.265542236328125,1.5229377746582031,-0.5207250118255615,0.3460380434989929
1789399285368232200,8.276232177734375,1.8076410293579102,-0.5483782291412354,0.22284743189811707
1789399285378922200,8.286922119140625,2.147512435913086,-0.42184996604919434,0.12183727324008942
1789399285411623700,8.319623779296874,4.109827995300293,-0.1480271816253662,0.1918788105249405
1789399285421623600,8.32962353515625,4.527316093444824,-0.104461669921875,0.11733734607696533
1789399285431623700,8.339623779296875,5.0806474685668945,-0.15091156959533691,0.07675760984420776
1789399285441623600,8.34962353515625,5.513370513916016,-0.21934640407562256,0.004894912242889404
1789399285451623700,8.359623779296875,5.786023139953613,-0.27924108505249023,-0.07589733600616455
1789399285461623600,8.36962353515625,5.903319358825684,-0.3106811046600342,-0.042408883571624756
1789399285471623700,8.379623779296875,5.9212188720703125,-0.3368889093399048,0.10326653718948364
1789399285481623600,8.38962353515625,5.797488212585449,-0.32731330394744873,0.3074500858783722
1789399285491623700,8.399623779296874,5.538138389587402,-0.3237879276275635,0.5810262560844421
1789399285501623600,8.40962353515625,5.248273849487305,-0.29567813873291016,0.9038885831832886
1789399285511623700,8.419623779296876,4.8349761962890625,-0.24477624893188477,1.2073078155517578
1789399285521623600,8.42962353515625,4.37306022644043,-0.18942391872406006,1.5081144571304321
1789399285531623700,8.439623779296875,3.8173675537109375,-0.15108990669250488,1.7977643013000488
1789399285541623600,8.44962353515625,3.134274482727051,-0.1583271026611328,1.9960970878601074
1789399285551623700,8.459623779296875,2.3358469009399414,-0.187302827835083,2.0879547595977783
1789399285561623600,8.46962353515625,1.435938835144043,-0.24489128589630127,2.0572028160095215
1789399285571623700,8.479623779296874,0.49770164489746094,-0.30226564407348633,1.914211392402649
1789399285581623600,8.48962353515625,-0.4295186996459961,-0.3961479663848877,1.658820629119873
1789399285591623700,8.499623779296876,-1.3225688934326172,-0.5295581817626953,1.3672040700912476
1789399285601623600,8.50962353515625,-2.136577606201172,-0.6595597267150879,1.1140376329421997
1789399285611623700,8.519623779296875,-2.8392910957336426,-0.7850562334060669,0.9013019800186157
1789399285621623600,8.52962353515625,-3.3572330474853516,-0.8456374406814575,0.7748425006866455
1789399285631623700,8.539623779296875,-3.8229284286499023,-0.8797308206558228,0.6946395635604858
1789399285641623600,8.54962353515625,-4.242245674133301,-0.8976421356201172,0.6269519329071045
1789399285651623700,8.559623779296874,-4.666195869445801,-0.8900415897369385,0.5962497591972351
1789399285661623600,8.56962353515625,-5.057194709777832,-0.8886264562606812,0.5857523679733276
1789399285671623700,8.579623779296876,-5.445877552032471,-0.8830111026763916,0.5029588937759399
1789399285681623600,8.58962353515625,-5.808305740356445,-0.9023847579956055,0.40530991554260254
1789399285691623700,8.599623779296875,-6.0846710205078125,-0.8310816287994385,0.2474549412727356
1789399285701623600,8.60962353515625,-6.176903247833252,-0.620023250579834,0.044069766998291016
1789399285711623700,8.619623779296875,-6.179069519042969,-0.2843928337097168,-0.0470084547996521
1789399285721623600,8.62962353515625,-6.126248359680176,0.057617902755737305,-0.25399458408355713
1789399285731623700,8.639623779296874,-5.75534725189209,0.37068653106689453,-0.44452428817749023
1789399285741623600,8.64962353515625,-5.346705913543701,0.5452847480773926,-0.4917779564857483
1789399285751623700,8.659623779296876,-4.793010711669922,0.5989623069763184,-0.6707161664962769
1789399285761623600,8.66962353515625,-3.8872756958007812,0.7210187911987305,-0.7501032948493958
1789399285771623700,8.679623779296875,-2.94303035736084,0.9069259166717529,-0.845470130443573
1789399285781623600,8.68962353515625,-2.049363613128662,0.9999923706054688,-0.8955146670341492
1789399285791623700,8.699623779296875,-1.1451349258422852,0.9508287906646729,-0.8896936178207397
1789399285801623600,8.70962353515625,-0.2781791687011719,0.809751033782959,-0.9217159152030945
1789399285811623700,8.719623779296874,0.3980865478515625,0.6463043689727783,-1.0660426616668701
1789399285821623600,8.72962353515625,0.8534889221191406,0.5422403812408447,-1.2914025783538818
1789399285831623700,8.739623779296876,1.0149574279785156,0.5561447143554688,-1.5539772510528564
1789399285841623600,8.74962353515625,1.0454082489013672,0.6656777858734131,-1.8448808193206787
1789399285851623700,8.759623779296875,0.9507942199707031,0.8125994205474854,-2.031555414199829
1789399285861623600,8.76962353515625,0.8642454147338867,0.9547390937805176,-2.156174898147583
1789399285871623700,8.779623779296875,0.7225198745727539,1.0653789043426514,-2.262265205383301
1789399285881623600,8.78962353515625,0.6655817031860352,1.2094359397888184,-2.3715779781341553
1789399285891623700,8.799623779296875,0.9515190124511719,1.3959755897521973,-2.3611536026000977
1789399285901623600,8.80962353515625,1.2665777206420898,1.5757954120635986,-2.261509895324707
1789399285911623700,8.819623779296874,1.5995769500732422,1.6927266120910645,-2.130929946899414
1789399285921623600,8.82962353515625,2.148378372192383,1.7392594814300537,-1.9727783203125
1789399285931623700,8.839623779296875,2.912466049194336,1.833383321762085,-1.705175518989563
1789399285941623600,8.84962353515625,3.500748634338379,1.9313254356384277,-1.45879328250885
1789399285951623700,8.859623779296875,4.010990142822266,1.9910619258880615,-1.2073924541473389
1789399285961623600,8.86962353515625,4.404057502746582,2.0957677364349365,-1.084450602531433
1789399285971623700,8.879623779296875,4.6310577392578125,2.2761504650115967,-1.123279333114624
1789399285981623600,8.88962353515625,4.672274589538574,2.5583271980285645,-1.1891181468963623
1789399285991623700,8.899623779296874,4.658185005187988,2.674525022506714,-1.0900386571884155
1789399286001623600,8.90962353515625,4.755257606506348,2.48075795173645,-0.8288319110870361
1789399286011623700,8.919623779296876,4.715012550354004,2.0408401489257812,-0.5933738946914673
1789399286021623600,8.92962353515625,4.561565399169922,1.4695818424224854,-0.5897921323776245
1789399286031623700,8.939623779296875,4.329087257385254,0.9640498161315918,-0.7555887699127197
1789399286041623600,8.94962353515625,4.072003364562988,0.7276363372802734,-0.9647351503372192
1789399286051623700,8.959623779296875,3.673421859741211,0.5518596172332764,-1.1553170680999756
1789399286061623600,8.96962353515625,3.278042793273926,0.35120105743408203,-1.260358452796936
1789399286071623700,8.979623779296874,3.046942710876465,0.11125040054321289,-1.114071249961853
1789399286081623600,8.98962353515625,2.802737236022949,-0.10128235816955566,-0.8641301393508911
1789399286091623700,8.999623779296876,2.5312442779541016,-0.2735145092010498,-0.6159110069274902
1789399286101623600,9.00962353515625,2.200863838195801,-0.4051492214202881,-0.44576263427734375
1789399286111623700,9.019623779296875,1.7037296295166016,-0.5541996955871582,-0.36582088470458984
1789399286121623600,9.02962353515625,1.0786561965942383,-0.6727306842803955,-0.37601447105407715
1789399286131623700,9.039623779296875,0.4120302200317383,-0.7828147411346436,-0.3997544050216675
1789399286141623600,9.04962353515625,-0.2897682189941406,-0.8731904029846191,-0.35567450523376465
1789399286151623700,9.059623779296874,-0.9755029678344727,-0.9962913990020752,-0.25469958782196045
1789399286161623600,9.06962353515625,-1.6756949424743652,-1.128312110900879,-0.16565465927124023
1789399286171623700,9.079623779296876,-2.3339853286743164,-1.29237961769104,-0.13208627700805664
1789399286181623600,9.08962353515625,-2.8792858123779297,-1.4368789196014404,-0.17886626720428467
1789399286191623700,9.099623779296875,-3.332789421081543,-1.593559980392456,-0.2525531053543091
1789399286201623600,9.10962353515625,-3.663416862487793,-1.761509895324707,-0.3283267021179199
1789399286211623700,9.119623779296875,-3.901848793029785,-1.901930570602417,-0.3972783088684082
1789399286221623600,9.12962353515625,-3.972214698791504,-2.0128822326660156,-0.4538518190383911
1789399286231623700,9.139623779296874,-3.903646945953369,-2.107666015625,-0.405698299407959
1789399286241623600,9.14962353515625,-3.7349557876586914,-2.2448766231536865,-0.26589202880859375
1789399286251623700,9.159623779296876,-3.5679311752319336,-2.3788580894470215,-0.11740565299987793
1789399286261623600,9.16962353515625,-3.3742785453796387,-2.451396942138672,-0.038848280906677246
1789399286271623700,9.179623779296875,-3.1407222747802734,-2.4418749809265137,0.10056495666503906
1789399286281623600,9.18962353515625,-2.9919509887695312,-2.3788435459136963,0.2079085111618042
1789399286291623700,9.199623779296875,-3.030881881713867,-2.3576436042785645,0.3170284032821655
1789399286301623600,9.20962353515625,-3.2128825187683105,-2.3693408966064453,0.4658949375152588
1789399286311623700,9.219623779296874,-3.451603889465332,-2.305527687072754,0.5690762996673584
1789399286321623600,9.22962353515625,-3.660329818725586,-2.110703468322754,0.5883708000183105
1789399286331623700,9.239623779296876,-3.865325927734375,-1.8390533924102783,0.5744059681892395
1789399286341623600,9.24962353515625,-4.058069229125977,-1.5985698699951172,0.6440657377243042
1789399286351623700,9.259623779296875,-4.180195331573486,-1.4006035327911377,0.8151477575302124
1789399286361623600,9.26962353515625,-4.057530403137207,-1.224424123764038,1.0039678812026978
1789399286371623700,9.279623779296875,-3.5224461555480957,-1.0448391437530518,1.213415265083313
1789399286381623600,9.28962353515625,-2.7827672958374023,-0.933830738067627,1.3916535377502441
1789399286391623700,9.299623779296875,-2.2029800415039062,-1.1055831909179688,1.535226821899414
1789399286401623600,9.30962353515625,-1.8139643669128418,-1.4167017936706543,1.5642979145050049
1789399286411623700,9.319623779296874,-1.5213871002197266,-1.6113853454589844,1.4098830223083496
1789399286421623600,9.32962353515625,-1.2251529693603516,-1.623847484588623,1.0212986469268799
1789399286431623700,9.339623779296875,-1.028630256652832,-1.5449740886688232,0.4275870621204376
1789399286441623600,9.34962353515625,-0.6700410842895508,-1.4964711666107178,-0.12840354442596436
1789399286451623700,9.359623779296875,-0.1537942886352539,-1.511549711227417,-0.47197669744491577
1789399286461623600,9.36962353515625,0.3680448532104492,-1.4604692459106445,-0.6607863306999207
1789399286471623700,9.379623779296875,0.8010673522949219,-1.362170696258545,-0.7363587021827698
1789399286481623600,9.38962353515625,1.1411199569702148,-1.2143957614898682,-0.7380541563034058
1789399286491623700,9.399623779296874,1.3860626220703125,-1.0375194549560547,-0.7041066288948059
1789399286501623600,9.40962353515625,1.6215829849243164,-0.8803591728210449,-0.6919729113578796
1789399286511623700,9.419623779296876,1.9880352020263672,-0.7646920680999756,-0.6774241328239441
1789399286521623600,9.42962353515625,2.5071592330932617,-0.6268749237060547,-0.682311475276947
1789399286531623700,9.439623779296875,3.176384925842285,-0.38906049728393555,-0.6318202614784241
1789399286541623600,9.44962353515625,3.813962936401367,-0.17557668685913086,-0.4802824854850769
1789399286551623700,9.459623779296875,4.3659467697143555,-0.01747727394104004,-0.27262669801712036
1789399286561623600,9.46962353515625,4.936792373657227,0.14916753768920898,-0.0683254599571228
1789399286571623700,9.479623779296874,5.420967102050781,0.31687188148498535,0.045903027057647705
1789399286581623600,9.48962353515625,5.695951461791992,0.44576120376586914,0.1336824893951416
1789399286591623700,9.499623779296876,5.903315544128418,0.47283267974853516,0.23984795808792114
1789399286601623600,9.50962353515625,6.071202278137207,0.45219850540161133,0.39429688453674316
1789399286611623700,9.519623779296875,6.03477668762207,0.45102405548095703,0.5156300067901611
1789399286621623600,9.52962353515625,5.8905744552612305,0.3942248821258545,0.581561803817749
1789399286631623700,9.539623779296875,5.782476425170898,0.29396677017211914,0.556533694267273
1789399286641623600,9.54962353515625,5.735958099365234,0.19507765769958496,0.491997092962265
1789399286651623700,9.559623779296874,5.696531295776367,0.14694523811340332,0.48500025272369385
1789399286661623600,9.56962353515625,5.709135055541992,0.14371979236602783,0.5712233781814575
1789399286671623700,9.579623779296876,5.674394607543945,0.12847483158111572,0.8618572354316711
1789399286681623600,9.58962353515625,5.393795013427734,0.13616669178009033,1.2805612087249756
1789399286691623700,9.599623779296875,4.8706254959106445,0.16456615924835205,1.727870225906372
1789399286701623600,9.60962353515625,4.181022644042969,0.21404194831848145,2.026289463043213
1789399286711623700,9.619623779296875,3.3022632598876953,0.3355194330215454,2.145416021347046
1789399286721623600,9.62962353515625,2.2562131881713867,0.4053683280944824,2.1833462715148926
1789399286731623700,9.639623779296874,1.157144546508789,0.3772960901260376,2.186044931411743
1789399286741623600,9.64962353515625,0.0741720199584961,0.26041388511657715,2.156952142715454
1789399286751623700,9.659623779296876,-1.0011539459228516,0.09328961372375488,2.1199593544006348
1789399286761623600,9.66962353515625,-2.0391321182250977,-0.09747505187988281,2.069986343383789
1789399286771623700,9.679623779296875,-2.9600563049316406,-0.21495556831359863,2.013960838317871
1789399286781623600,9.68962353515625,-3.837527275085449,-0.299999475479126,1.8650286197662354
1789399286791623700,9.699623779296875,-4.588259220123291,-0.4282665252685547,1.6395628452301025
1789399286801623600,9.70962353515625,-5.284998893737793,-0.6752147674560547,1.45597505569458
1789399286811623700,9.719623779296874,-5.901562690734863,-0.881380558013916,1.2768855094909668
1789399286821623600,9.72962353515625,-6.390984535217285,-0.9852471351623535,1.0494548082351685
1789399286831623700,9.739623779296876,-6.780601501464844,-0.972996711730957,0.7866939306259155
1789399286841623600,9.74962353515625,-7.040741443634033,-0.9153397083282471,0.6203884482383728
1789399286851623700,9.759623779296875,-7.160299301147461,-0.7753415107727051,0.5442377328872681
1789399286861623600,9.76962353515625,-7.229901313781738,-0.5931746959686279,0.5120006799697876
1789399286871623700,9.779623779296875,-7.232606410980225,-0.3323342800140381,0.4515761137008667
1789399286881623600,9.78962353515625,-7.073915004730225,0.00763249397277832,0.2678416967391968
1789399286891623700,9.799623779296875,-6.791458606719971,0.39703845977783203,0.017516374588012695
1789399286901623600,9.80962353515625,-6.316265106201172,0.5975520610809326,-0.2711830139160156
1789399286911623700,9.819623779296874,-5.617822170257568,0.7181730270385742,-0.5224727392196655
1789399286921623600,9.82962353515625,-4.554834365844727,0.8479151725769043,-0.5831117630004883
1789399286931623700,9.839623779296875,-3.349386215209961,0.853926420211792,-0.4179198741912842
1789399286941623600,9.84962353515625,-2.291271686553955,0.7068831920623779,-0.3030564785003662
1789399286951623700,9.859623779296875,-1.3720688819885254,0.4852111339569092,-0.19610321521759033
1789399286961623600,9.86962353515625,-0.6046228408813477,0.3240926265716553,-0.24707043170928955
1789399286971623700,9.879623779296875,-0.042609214782714844,0.26258015632629395,-0.5521807670593262
1789399286981623600,9.88962353515625,0.2580423355102539,0.21271848678588867,-0.9883825778961182
1789399286991623700,9.899623779296874,0.3654470443725586,0.07137870788574219,-1.3740700483322144
1789399287001623600,9.90962353515625,0.24988174438476562,-0.13165664672851562,-1.6801265478134155
1789399287011623700,9.919623779296876,0.004021644592285156,-0.18634366989135742,-1.9231189489364624
1789399287021623600,9.92962353515625,-0.16736221313476562,0.003567934036254883,-2.1884360313415527
1789399287031623700,9.939623779296875,-0.12700176239013672,0.30975794792175293,-2.4735898971557617
1789399287041623600,9.94962353515625,0.1933584213256836,0.5193603038787842,-2.6633012294769287
1789399287051623700,9.959623779296875,0.5226831436157227,0.5130252838134766,-2.6364693641662598
1789399287061623600,9.96962353515625,1.0699596405029297,0.5029246807098389,-2.484388589859009
1789399287071623700,9.979623779296874,1.9490413665771484,0.6452345848083496,-2.2280545234680176
1789399287081623600,9.98962353515625,2.975020408630371,0.8786547183990479,-1.9858579635620117
1789399287091623700,9.999623779296876,3.9465866088867188,0.9898481369018555,-1.6380062103271484
1789399287101623600,10.00962353515625,4.820998191833496,0.9542052745819092,-1.1789474487304688
1789399287111623700,10.019623779296875,5.580375671386719,1.1706757545471191,-0.8460396528244019
1789399287121623600,10.02962353515625,5.915474891662598,1.4636156558990479,-0.5762423276901245
1789399287131623700,10.039623779296875,6.392685890197754,1.59828782081604,-0.1663048267364502
1789399287141623600,10.04962353515625,6.689056396484375,1.7083632946014404,0.33868324756622314
1789399287151623700,10.059623779296874,6.906937599182129,1.6643983125686646,0.7159309387207031
1789399287161623600,10.06962353515625,6.826239585876465,1.4942283630371094,0.747029185295105
1789399287171623700,10.079623779296876,6.508818626403809,1.2396553754806519,0.4349333643913269
1789399287181623600,10.08962353515625,6.054956436157227,0.9684550762176514,-0.07263612747192383
1789399287191623700,10.099623779296875,5.482060432434082,0.6673847436904907,-0.5215954780578613
1789399287201623600,10.10962353515625,4.704610824584961,0.35085439682006836,-0.7521531581878662
1789399287211623700,10.119623779296875,3.7655744552612305,0.0021512508392333984,-0.701521635055542
1789399287221623600,10.12962353515625,3.1305017471313477,-0.17249202728271484,-0.49613380432128906
1789399287231623700,10.139623779296874,2.5649518966674805,-0.16358458995819092,-0.17086678743362427
1789399287241623600,10.14962353515625,1.9460783004760742,-0.18791913986206055,-0.06526386737823486
1789399287251623700,10.159623779296876,1.340195655822754,-0.2961411476135254,-0.09194093942642212
1789399287261623600,10.16962353515625,0.8135337829589844,-0.36164402961730957,-0.1864452362060547
1789399287271623700,10.179623779296875,0.32293033599853516,-0.39584827423095703,-0.1698669195175171
1789399287281623600,10.18962353515625,-0.14177799224853516,-0.4754643440246582,-0.02912384271621704
1789399287291623700,10.199623779296875,-0.5981359481811523,-0.6238059997558594,0.1194353699684143
1789399287301623600,10.20962353515625,-1.0518264770507812,-0.7970776557922363,0.20610612630844116
1789399287311623700,10.219623779296874,-1.4632110595703125,-0.9352368116378784,0.2342248558998108
1789399287321623600,10.22962353515625,-1.7763042449951172,-1.0176498889923096,0.25733286142349243
1789399287331623700,10.239623779296876,-2.07513427734375,-1.141988754272461,0.2682754397392273
1789399287341623600,10.24962353515625,-2.392761707305908,-1.303006649017334,0.2123510241508484
1789399287351623700,10.259623779296875,-2.6551284790039062,-1.464482307434082,0.14077162742614746
1789399287361623600,10.26962353515625,-2.9035987854003906,-1.5803210735321045,0.06640523672103882
1789399287371623700,10.279623779296875,-3.155209541320801,-1.6893506050109863,0.01288759708404541
1789399287381623600,10.28962353515625,-3.40944766998291,-1.810006022453308,-0.07090985774993896
1789399287391623700,10.299623779296875,-3.670867919921875,-1.9247771501541138,-0.11912214756011963
1789399287401623600,10.30962353515625,-3.9276647567749023,-2.023983955383301,-0.16317415237426758
1789399287411623700,10.319623779296874,-4.169151306152344,-2.0547966957092285,-0.25718438625335693
1789399287421623600,10.32962353515625,-4.371666431427002,-2.031790256500244,-0.3244880437850952
1789399287431623700,10.339623779296875,-4.600069999694824,-1.9846515655517578,-0.42684245109558105
1789399287441623600,10.34962353515625,-4.824200630187988,-1.8742916584014893,-0.5548145174980164
1789399287451623700,10.359623779296875,-4.9872331619262695,-1.7055867910385132,-0.6500704288482666
1789399287461623600,10.36962353515625,-5.072986602783203,-1.5379669666290283,-0.6913865804672241
1789399287471623700,10.379623779296875,-5.183353900909424,-1.3534003496170044,-0.6921486854553223
1789399287481623600,10.38962353515625,-5.113003253936768,-1.07194185256958,-0.6289590001106262
1789399287491623700,10.399623779296874,-4.892908573150635,-0.7229702472686768,-0.4034775495529175
1789399287501623600,10.40962353515625,-4.710495948791504,-0.4404566287994385,-0.1763210892677307
1789399287511623700,10.419623779296876,-4.404515266418457,-0.25136899948120117,-0.005850791931152344
1789399287521623600,10.42962353515625,-3.7953853607177734,-0.09990620613098145,0.11583435535430908
1789399287531623700,10.439623779296875,-3.1726274490356445,0.0028352737426757812,0.08118194341659546
1789399287541623600,10.44962353515625,-2.396974563598633,0.0718991756439209,-0.07560089230537415
1789399287551623700,10.459623779296875,-1.412734031677246,0.006395578384399414,-0.18232902884483337
1789399287561623600,10.46962353515625,-0.5088367462158203,-0.298126220703125,-0.3372468948364258
1789399287571623700,10.479623779296874,0.2837705612182617,-0.6869451999664307,-0.4539285898208618
1789399287581623600,10.48962353515625,0.8108272552490234,-0.9264171123504639,-0.5266216993331909
1789399287591623700,10.499623779296876,1.1851177215576172,-0.8873813152313232,-0.5714391469955444
1789399287601623600,10.50962353515625,1.3669633865356445,-0.737921953201294,-0.6639598608016968
1789399287611623700,10.519623779296875,1.4443559646606445,-0.5597476959228516,-0.7811760902404785
1789399287621623600,10.52962353515625,1.4612092971801758,-0.3954317569732666,-0.6890174150466919
1789399287631623700,10.539623779296875,1.562795639038086,-0.3404572010040283,-0.4809005856513977
1789399287641623600,10.54962353515625,1.7060871124267578,-0.37557554244995117,-0.2816140055656433
1789399287651623700,10.559623779296874,1.862492561340332,-0.45870494842529297,-0.19899532198905945
1789399287661623600,10.56962353515625,1.9969215393066406,-0.5433900356292725,-0.2108498215675354
1789399287671623700,10.579623779296876,2.1324825286865234,-0.5755867958068848,-0.24964553117752075
1789399287681623600,10.58962353515625,2.3840322494506836,-0.49874234199523926,-0.15916460752487183
1789399287691623700,10.599623779296875,2.668243408203125,-0.3406285047531128,0.04997897148132324
1789399287701623600,10.60962353515625,2.960921287536621,-0.24523711204528809,0.2919156551361084
1789399287711623700,10.619623779296875,3.2807321548461914,-0.22409772872924805,0.5307680368423462
1789399287721623600,10.62962353515625,3.6483592987060547,-0.18769025802612305,0.7081804275512695
1789399287731623700,10.639623779296874,4.177447319030762,-0.036911845207214355,0.7967971563339233
1789399287741623600,10.64962353515625,4.678736686706543,0.1285228729248047,0.852322518825531
1789399287751623700,10.659623779296876,5.1358442306518555,0.11277782917022705,0.9616066217422485
1789399287761623600,10.66962353515625,5.602792739868164,-0.048419833183288574,1.0899953842163086
1789399287771623700,10.679623779296875,5.961300849914551,-0.16149663925170898,1.0666821002960205
1789399287781623600,10.68962353515625,6.363716125488281,-0.19748830795288086,0.9873925447463989
1789399287791623700,10.699623779296875,6.548052787780762,-0.2861907482147217,0.9926615953445435
1789399287801623600,10.70962353515625,6.628697395324707,-0.41885459423065186,1.0293784141540527
1789399287811623700,10.719623779296874,6.569393157958984,-0.5022816061973572,1.078640341758728
1789399287821623600,10.72962353515625,6.271994590759277,-0.5500624179840088,1.1204452514648438
1789399287831623700,10.739623779296876,5.782299041748047,-0.5454100966453552,1.1988857984542847
1789399287841623600,10.74962353515625,5.143435478210449,-0.5086239576339722,1.3878898620605469
1789399287851623700,10.759623779296875,4.281890869140625,-0.46154534816741943,1.6091101169586182
1789399287861623600,10.76962353515625,3.314316749572754,-0.3968055248260498,1.79026460647583
1789399287871623700,10.779623779296875,2.3152952194213867,-0.29945576190948486,1.9150419235229492
1789399287881623600,10.78962353515625,1.2768077850341797,-0.2600797414779663,1.9510754346847534
1789399287891623700,10.799623779296875,0.2690906524658203,-0.26142799854278564,1.9471595287322998
1789399287901623600,10.80962353515625,-0.6273288726806641,-0.339117169380188,1.8895092010498047
1789399287911623700,10.819623779296874,-1.4198331832885742,-0.40313029289245605,1.7684509754180908
1789399287921623600,10.82962353515625,-2.0499753952026367,-0.45780181884765625,1.6843085289001465
1789399287931623700,10.839623779296875,-2.595371723175049,-0.5168839693069458,1.5643310546875
1789399287941623600,10.84962353515625,-3.1108226776123047,-0.6095733642578125,1.4652674198150635
1789399287951623700,10.859623779296875,-3.588770866394043,-0.7050981521606445,1.356445550918579
1789399287961623600,10.86962353515625,-4.010966777801514,-0.7366201877593994,1.2757418155670166
1789399287971623700,10.879623779296875,-4.3874406814575195,-0.7285046577453613,1.1981797218322754
1789399287981623600,10.88962353515625,-4.7751359939575195,-0.7140963077545166,1.0941232442855835
1789399287991623700,10.899623779296874,-5.14516544342041,-0.6979764699935913,0.9941737651824951
1789399288001623600,10.90962353515625,-5.484884262084961,-0.6956212520599365,0.8959843516349792
1789399288011623700,10.919623779296876,-5.7304487228393555,-0.6202971935272217,0.7587602138519287
1789399288021623600,10.92962353515625,-5.852161407470703,-0.4667673110961914,0.6331419348716736
1789399288031623700,10.939623779296875,-5.885552406311035,-0.2559328079223633,0.548911452293396
1789399288041623600,10.94962353515625,-5.90086555480957,-0.04993319511413574,0.4583725333213806
1789399288051623700,10.959623779296875,-5.814330101013184,0.10726475715637207,0.40368860960006714
1789399288061623600,10.96962353515625,-5.70147705078125,0.21881842613220215,0.42438405752182007
1789399288071623700,10.979623779296874,-5.4598069190979,0.2906811237335205,0.3894467353820801
1789399288081623600,10.98962353515625,-5.127037048339844,0.41927051544189453,0.2672736644744873
1789399288091623700,10.999623779296876,-4.73994255065918,0.5933313369750977,-0.004070758819580078
1789399288101623600,11.00962353515625,-4.254223823547363,0.7232143878936768,-0.320534348487854
1789399288111623700,11.019623779296875,-3.6132383346557617,0.7368307113647461,-0.5910738706588745
1789399288121623600,11.02962353515625,-2.816082000732422,0.6929540634155273,-0.7246841192245483
1789399288131623700,11.039623779296875,-1.90693998336792,0.6354489326477051,-0.8571981191635132
1789399288141623600,11.04962353515625,-1.1592063903808594,0.5547919273376465,-1.1244971752166748
1789399288151623700,11.059623779296874,-0.5750589370727539,0.43496084213256836,-1.4739083051681519
1789399288161623600,11.06962353515625,-0.14120197296142578,0.32838010787963867,-1.7845094203948975
1789399288171623700,11.079623779296876,0.08039283752441406,0.2724752426147461,-2.0503439903259277
1789399288181623600,11.08962353515625,0.40241241455078125,0.281574010848999,-2.2401609420776367
1789399288191623700,11.099623779296875,0.6156692504882812,0.36963748931884766,-2.3693904876708984
1789399288201623600,11.10962353515625,0.7837553024291992,0.483767032623291,-2.4981493949890137
1789399288211623700,11.119623779296875,1.119826316833496,0.5774915218353271,-2.603606700897217
1789399288221623600,11.12962353515625,1.6053199768066406,0.7279553413391113,-2.705669403076172
1789399288231623700,11.139623779296874,2.045412063598633,0.8663003444671631,-2.75924015045166
1789399288241623600,11.14962353515625,2.462763786315918,0.9721534252166748,-2.732006549835205
1789399288251623700,11.159623779296876,2.9090700149536133,1.0088653564453125,-2.5951309204101562
1789399288261623600,11.16962353515625,3.2740955352783203,1.0168343782424927,-2.3659791946411133
1789399288271623700,11.179623779296875,3.5792789459228516,1.0685887336730957,-2.089169979095459
1789399288281623600,11.18962353515625,3.949782371520996,1.1377540826797485,-1.7913076877593994
1789399288291623700,11.199623779296875,4.336954116821289,1.1630243062973022,-1.4852532148361206
1789399288301623600,11.20962353515625,4.765266418457031,1.1314036846160889,-1.211344838142395
1789399288311623700,11.219623779296874,5.22404670715332,1.0482735633850098,-0.9535136222839355
1789399288321623600,11.22962353515625,5.404422760009766,0.9207117557525635,-0.787914514541626
1789399288331623700,11.239623779296876,5.283895492553711,0.8295042514801025,-0.7555458545684814
1789399288341623600,11.24962353515625,4.747382164001465,0.9093731641769409,-0.7376965284347534
1789399288351623700,11.259623779296875,4.231537818908691,0.6841111183166504,-0.8483617305755615
1789399288361623600,11.26962353515625,3.772113800048828,0.5160802602767944,-1.0527552366256714
1789399288371623700,11.279623779296875,3.3860273361206055,0.4058109521865845,-1.2910680770874023
1789399288381623600,11.28962353515625,3.1148204803466797,0.22749745845794678,-1.3888713121414185
1789399288391623700,11.299623779296875,3.069544792175293,0.04574596881866455,-1.271581768989563
1789399288401623600,11.30962353515625,3.358340263366699,-0.04182612895965576,-0.9516319036483765
1789399288411623700,11.319623779296874,3.540740966796875,-0.05420506000518799,-0.6223556995391846
1789399288421623600,11.32962353515625,3.505824089050293,-0.1956491470336914,-0.3301522731781006
1789399288431623700,11.339623779296875,3.3239660263061523,-0.3526700735092163,-0.16532182693481445
1789399288441623600,11.34962353515625,3.2739334106445312,-0.4150770902633667,-0.14400756359100342
1789399288451623700,11.359623779296875,2.93060302734375,-0.47493553161621094,-0.10795390605926514
1789399288461623600,11.36962353515625,2.342376708984375,-0.5857234001159668,-0.048235952854156494
1789399288471623700,11.379623779296875,1.5801477432250977,-0.7174146175384521,0.10152345895767212
1789399288481623600,11.38962353515625,0.6898727416992188,-0.8022778034210205,0.08043408393859863
1789399288491623700,11.399623779296874,-0.2133951187133789,-0.8629146814346313,-0.08662217855453491
1789399288501623600,11.40962353515625,-1.0423393249511719,-0.9774758815765381,-0.24724948406219482
1789399288511623700,11.419623779296876,-1.6738042831420898,-1.1495699882507324,-0.381158709526062
1789399288521623600,11.42962353515625,-2.0867204666137695,-1.2667917013168335,-0.4330752491950989
1789399288531623700,11.439623779296875,-2.461979866027832,-1.3669828176498413,-0.4261929988861084
1789399288541623600,11.44962353515625,-2.8448853492736816,-1.506230115890503,-0.37775516510009766
1789399288551623700,11.459623779296875,-3.2190895080566406,-1.6285736560821533,-0.3343665599822998
1789399288561623600,11.46962353515625,-3.599581718444824,-1.7093663215637207,-0.28576451539993286
1789399288571623700,11.479623779296874,-3.9596638679504395,-1.7617080211639404,-0.21889495849609375
1789399288581623600,11.48962353515625,-4.277771472930908,-1.7756744623184204,-0.09521722793579102
1789399288591623700,11.499623779296876,-4.617415428161621,-1.736649513244629,0.15385174751281738
1789399288601623600,11.50962353515625,-5.037345886230469,-1.68953537940979,0.5451866388320923
1789399288611623700,11.519623779296875,-5.516315937042236,-1.6043205261230469,1.0239012241363525
1789399288621623600,11.52962353515625,-6.048694610595703,-1.3873262405395508,1.46559476852417
1789399288631623700,11.539623779296875,-6.633768558502197,-0.9245893955230713,1.9260023832321167
1789399288641623600,11.54962353515625,-7.20697021484375,-0.331132173538208,2.3535590171813965
1789399288651623700,11.559623779296874,-7.793737411499023,0.27741265296936035,2.80222749710083
1789399288661623600,11.56962353515625,-8.231616020202637,0.8259098529815674,3.1263084411621094
1789399288671623700,11.579623779296876,-8.275564193725586,1.1349937915802002,3.0928540229797363
1789399288681623600,11.58962353515625,-7.575020790100098,1.350001335144043,2.6940574645996094
1789399288691623700,11.599623779296875,-6.1523332595825195,1.5733880996704102,1.9887782335281372
1789399288701623600,11.60962353515625,-4.385446548461914,1.617095947265625,1.311530590057373
1789399288711623700,11.619623779296875,-2.3896846771240234,1.301269292831421,0.8362488746643066
1789399288721623600,11.62962353515625,-0.012340545654296875,0.8628237247467041,0.5744767189025879
1789399288731623700,11.639623779296874,1.9765634536743164,0.4705965518951416,0.32535457611083984
1789399288741623600,11.64962353515625,3.235933303833008,0.08589255809783936,-0.1354541778564453
1789399288751623700,11.659623779296876,3.8816709518432617,-0.40244579315185547,-0.6120326519012451
1789399288761623600,11.66962353515625,4.092906951904297,-0.908109188079834,-0.8798284530639648
1789399288771623700,11.679623779296875,3.917325019836426,-1.4001363515853882,-1.0540516376495361
1789399288781623600,11.68962353515625,3.3913650512695312,-1.8338079452514648,-1.2156963348388672
1789399288791623700,11.699623779296875,2.591782569885254,-2.1316356658935547,-1.3932983875274658
1789399288801623600,11.70962353515625,1.7929706573486328,-2.357088565826416,-1.5129709243774414
1789399288811623700,11.719623779296874,0.9535112380981445,-2.419534921646118,-1.49430513381958
1789399288821623600,11.72962353515625,0.3180885314941406,-2.2903761863708496,-1.280430555343628
1789399288831623700,11.739623779296876,-0.2297191619873047,-2.1304643154144287,-0.938668966293335
1789399288841623600,11.74962353515625,-0.7915239334106445,-2.004826307296753,-0.6162807941436768
1789399288851623700,11.759623779296875,-1.1889925003051758,-1.8042041063308716,-0.30522751808166504
1789399288861623600,11.76962353515625,-1.3737611770629883,-1.5272457599639893,-0.0841057300567627
1789399288871623700,11.779623779296875,-1.4294166564941406,-1.217853307723999,0.0403900146484375
1789399288881623600,11.78962353515625,-1.2849550247192383,-1.0075292587280273,0.12294220924377441
1789399288891623700,11.799623779296875,-0.8575763702392578,-0.9625837802886963,0.1787722110748291
1789399288901623600,11.80962353515625,-0.24596405029296875,-1.1735563278198242,0.16846013069152832
1789399288911623700,11.819623779296874,0.2802238464355469,-1.4237072467803955,-0.033854007720947266
1789399288921623600,11.82962353515625,0.8273162841796875,-1.6523406505584717,-0.4476499557495117
1789399288931623700,11.839623779296875,1.456857681274414,-1.891037106513977,-0.9892787933349609
1789399288941623600,11.84962353515625,2.1940183639526367,-2.2288529872894287,-1.6242403984069824
1789399288951623700,11.859623779296875,2.8868207931518555,-2.6295852661132812,-2.2786335945129395
1789399288961623600,11.86962353515625,3.652538299560547,-3.0247397422790527,-2.8991894721984863
1789399288971623700,11.879623779296875,4.4958953857421875,-3.325477123260498,-3.3803510665893555
1789399288981623600,11.88962353515625,5.279526710510254,-3.3955845832824707,-3.6069588661193848
1789399288991623700,11.899623779296874,5.781863212585449,-3.2462756633758545,-3.605269432067871
1789399289001623600,11.90962353515625,6.023251533508301,-2.963954448699951,-3.3216161727905273
1789399289011623700,11.919623779296876,6.03117561340332,-2.584818124771118,-2.6592845916748047
1789399289021623600,11.92962353515625,5.763474464416504,-2.136788845062256,-1.7808465957641602
1789399289031623700,11.939623779296875,5.323923110961914,-1.7129299640655518,-0.9444661140441895
1789399289041623600,11.94962353515625,4.636719703674316,-1.2928522825241089,-0.32034778594970703
1789399289051623700,11.959623779296875,3.722259521484375,-0.8498395085334778,0.20363855361938477
1789399289061623600,11.96962353515625,2.761373519897461,-0.5129110813140869,0.5944461822509766
1789399289071623700,11.979623779296874,1.8067684173583984,-0.22318196296691895,0.9124321937561035
1789399289081623600,11.98962353515625,0.8409309387207031,-0.059135377407073975,1.0066192150115967
1789399289091623700,11.999623779296876,-0.1991252899169922,-0.05055651068687439,0.9570527076721191
1789399289101623600,12.00962353515625,-1.1252450942993164,0.031908124685287476,0.806659460067749
1789399289111623700,12.019623779296875,-1.8826179504394531,0.14349359273910522,0.7654385566711426
1789399289121623600,12.02962353515625,-2.520315170288086,0.23479434847831726,0.8587594032287598
1789399289131623700,12.039623779296875,-3.0543899536132812,0.3222883343696594,1.0588407516479492
1789399289141623600,12.04962353515625,-3.45847749710083,0.40801048278808594,1.2831521034240723
1789399289151623700,12.059623779296874,-3.7348742485046387,0.5332211256027222,1.481128215789795
1789399289161623600,12.06962353515625,-3.7815656661987305,0.7107551097869873,1.6122846603393555
1789399289171623700,12.079623779296876,-3.6610517501831055,0.8797838091850281,1.7627270221710205
1789399289181623600,12.08962353515625,-3.3611249923706055,1.0667197704315186,1.9975862503051758
1789399289191623700,12.099623779296875,-3.0988550186157227,1.185808539390564,2.2866692543029785
1789399289201623600,12.10962353515625,-2.8672447204589844,1.3207544088363647,2.6203110218048096
1789399289211623700,12.119623779296875,-2.7289295196533203,1.4717875719070435,2.9153475761413574
1789399289221623600,12.12962353515625,-2.6932473182678223,1.598455786705017,3.070840358734131
1789399289231623700,12.139623779296874,-2.978641986846924,1.6388604640960693,3.047327995300293
1789399289241623600,12.14962353515625,-3.4620628356933594,1.6557648181915283,2.8427445888519287
1789399289251623700,12.159623779296876,-3.917740821838379,1.6705036163330078,2.4649009704589844
1789399289261623600,12.16962353515625,-4.364526271820068,1.7084791660308838,1.9878885746002197
1789399289271623700,12.179623779296875,-4.667210578918457,1.7451061010360718,1.4082151651382446
1789399289281623600,12.18962353515625,-4.829383850097656,1.8010239601135254,0.9138779640197754
1789399289291623700,12.199623779296875,-4.599994659423828,1.8531975746154785,0.5112154483795166
1789399289301623600,12.20962353515625,-3.8677358627319336,1.8365000486373901,0.3289797306060791
1789399289311623700,12.219623779296874,-3.1172475814819336,1.7126524448394775,0.14326858520507812
1789399289321623600,12.22962353515625,-2.175504207611084,1.5520058870315552,-0.05775332450866699
1789399289331623700,12.239623779296876,-1.1763906478881836,1.4030400514602661,-0.3121161460876465
1789399289341623600,12.24962353515625,-0.32422447204589844,1.281567931175232,-0.6727406978607178
1789399289351623700,12.259623779296875,0.36232471466064453,1.228286623954773,-1.0690791606903076
1789399289361623600,12.26962353515625,1.0523290634155273,1.1792815923690796,-1.3964424133300781
1789399289371623700,12.279623779296875,1.594564437866211,1.0972899198532104,-1.575275182723999
1789399289381623600,12.28962353515625,2.015191078186035,1.060731053352356,-1.7079825401306152
1789399289391623700,12.299623779296875,2.454737663269043,1.1378098726272583,-1.7326514720916748
1789399289401623600,12.30962353515625,2.830876350402832,1.2714779376983643,-1.7738590240478516
1789399289411623700,12.319623779296874,3.0930585861206055,1.5489977598190308,-1.6781132221221924
1789399289421623600,12.32962353515625,3.3607635498046875,1.900390386581421,-1.4385004043579102
1789399289431623700,12.339623779296875,3.569138526916504,2.276491165161133,-1.102907657623291
1789399289441623600,12.34962353515625,3.8099966049194336,2.507249355316162,-0.8341739177703857
1789399289451623700,12.359623779296875,3.941575050354004,2.694021701812744,-0.6672937870025635
1789399289461623600,12.36962353515625,3.899296760559082,2.652691602706909,-0.47918903827667236
1789399289471623700,12.379623779296875,3.8351850509643555,2.6728482246398926,-0.2597423791885376
1789399289481623600,12.38962353515625,3.950572967529297,2.956989049911499,-0.04221820831298828
1789399289491623700,12.399623779296874,4.41251277923584,3.081021785736084,-0.04884767532348633
1789399289501623600,12.40962353515625,5.123981475830078,2.778322696685791,-0.18977272510528564
1789399289511623700,12.419623779296876,5.673060417175293,2.043496608734131,-0.2814537286758423
1789399289521623600,12.42962353515625,5.684008598327637,1.1476917266845703,-0.5716198682785034
1789399289531623700,12.439623779296875,5.563177108764648,0.5635801553726196,-0.9387705326080322
1789399289541623600,12.44962353515625,5.333690643310547,0.41572606563568115,-1.159156322479248
1789399289551623700,12.459623779296875,4.978119850158691,0.340404748916626,-1.2760058641433716
1789399289561623600,12.46962353515625,4.450282096862793,0.07476174831390381,-1.4614323377609253
1789399289571623700,12.479623779296874,4.049552917480469,-0.1293802261352539,-1.6658909320831299
1789399289581623600,12.48962353515625,3.7738170623779297,-0.15058469772338867,-1.6835790872573853
1789399289591623700,12.499623779296876,3.6243667602539062,-0.20553195476531982,-1.4202824831008911
1789399289601623600,12.50962353515625,3.3295183181762695,-0.3919646739959717,-0.9851456880569458
1789399289611623700,12.519623779296875,2.7994747161865234,-0.6027622222900391,-0.7194048166275024
1789399289621623600,12.52962353515625,2.1632909774780273,-0.7380528450012207,-0.6976688504219055
1789399289631623700,12.539623779296875,1.507431983947754,-0.8314920663833618,-0.8915446996688843
1789399289641623600,12.54962353515625,0.8288726806640625,-0.9652019739151001,-1.1788959503173828
1789399289651623700,12.559623779296874,0.11454105377197266,-1.1130717992782593,-1.3204631805419922
1789399289661623600,12.56962353515625,-0.43115806579589844,-1.2206130027770996,-1.3363521099090576
1789399289671623700,12.579623779296876,-0.9052648544311523,-1.3294813632965088,-1.2155742645263672
1789399289681623600,12.58962353515625,-1.3872299194335938,-1.46195650100708,-1.0219755172729492
1789399289691623700,12.599623779296875,-1.9449443817138672,-1.6228259801864624,-0.9126484990119934
1789399289701623600,12.60962353515625,-2.559872627258301,-1.8281795978546143,-0.9177093505859375
1789399289711623700,12.619623779296875,-3.002683639526367,-2.021488666534424,-1.0961523056030273
1789399289721623600,12.62962353515625,-3.364381790161133,-2.193199872970581,-1.2128119468688965
