time,seconds_elapsed,z,y,x
1789483123372787000,0.040786865234375,-0.49779871500134465,-0.5505028618372977,-0.48938912550918756
1789483123382837000,0.0508369140625,-0.682431644296646,-0.295503726156801,-0.5187639077492058
1789483123392887000,0.060886962890625,-0.4734282438546419,-0.14400105917751788,-0.21776706406883894
1789483123402936300,0.070936279296875,0.03078326079845428,-0.1792968289643526,0.22776092707775533
1789483123412986000,0.080986083984375,0.41281916911303995,-0.10306655285134911,0.7032048946689814
1789483123423035100,0.09103515625,0.49568742193579673,-0.054060529880970716,1.101443019113317
1789483123433085200,0.101085205078125,0.2998328414022922,-0.17677870866358278,1.5565112112171946
1789483123443135000,0.111135009765625,-0.2609036835491657,-0.40349765240773555,1.7423264821648596
1789483123453184000,0.12118408203125,-1.1381447832405567,-0.6464733189478516,1.7849487954474985
1789483123463234300,0.131234375,-2.117824513143301,-0.8020164934895933,1.8224588802829385
1789483123473284000,0.1412841796875,-3.1171926938563583,-0.9981842316254973,1.7653842632777987
1789483123483333000,0.1513330078125,-3.6456998508542773,-1.2218769594162702,1.1597998579487203
1789483123493383200,0.161383056640625,-4.091642121890187,-1.1163090912684797,0.5499577951751649
1789483123503433200,0.17143310546875,-4.219001842868328,-0.9501818327397108,0.30501002484448253
1789483123513482000,0.18148193359375,-3.850549054226279,-0.9510872571468353,0.1614413657348603
1789483123523532000,0.191531982421875,-2.937479685306549,-0.9589368016034364,0.14629494226835668
1789483123533581000,0.2015810546875,-3.0930367422431706,-0.9601765725314617,0.84872001167126
1789483123543631000,0.211631103515625,-3.256084447196126,-1.0064435259267688,1.667801987056434
1789483123553681200,0.22168115234375,-2.5380484055548904,-0.8954039483696222,1.4456862993240356
1789483123563730000,0.23172998046875,-2.5392209564656016,-0.8714686537697911,1.1998157881252467
1789483123573780000,0.241780029296875,-1.617899892029166,-1.1619745716392993,1.3911786101974546
1789483123583830000,0.251830078125,-1.4030378286868332,-1.316338327138126,1.2633804978020489
1789483123593879300,0.26187939453125,-1.5860896262705324,-1.3095520279988646,0.9795235894929617
1789483123603929000,0.27192919921875,-1.6223738225728273,-1.247871816894412,0.8605961812954396
1789483123613979100,0.281979248046875,-1.6314911950081585,-1.1752625077575445,0.7599118474055081
1789483123624028200,0.292028076171875,-1.4291472524553537,-1.0528604091867804,0.2536646722063422
1789483123634078000,0.302077880859375,-2.369315056180954,-0.8115706499069929,-0.08998524522110819
1789483123644127200,0.312127197265625,-3.0034920803964136,-0.7899208358958363,-0.5211392585784197
1789483123654177300,0.32217724609375,-2.625409878143668,-0.8227087145149707,-1.1000777951747178
1789483123664227000,0.33222705078125,-1.45175772819221,-0.9719511814773082,-1.488348360095173
1789483123674276000,0.342276123046875,-1.7257558711141348,-1.3126780510649085,-0.9250734027072787
1789483123684326100,0.352326171875,-2.0206910036027432,-1.8117483934372662,-0.18259090207368134
1789483123694376200,0.362376220703125,-1.949417911505699,-2.3035338394984604,0.3804983234837651
1789483123704425200,0.37242529296875,-2.013009216928482,-2.8692379237294197,0.5946396713361144
1789483123714475300,0.382475341796875,-2.787230671650171,-3.292996420007944,0.2670841257497668
1789483123724524000,0.39252392578125,-4.283943393856287,-3.580983048532903,-0.23621260214596984
1789483123734574000,0.402573974609375,-5.106150588589906,-4.172510140806437,-0.3339449543625116
1789483123744624000,0.4126240234375,-5.222290996417403,-4.9079643502384425,0.09563947159051894
1789483123754673000,0.4226728515625,-4.9229246034830805,-5.226178651505708,0.6386351726680993
1789483123764723000,0.432722900390625,-4.2336756803870195,-4.932565123009681,1.0340385120779276
1789483123774773200,0.442773193359375,-3.3538416415929793,-4.904546650749444,1.1850929968982935
1789483123784822300,0.452822265625,-2.8930133515924212,-5.30519548959732,1.6367641669750213
1789483123794872000,0.4628720703125,-2.432389644253254,-5.608794990056753,2.541974639087915
1789483123804921000,0.472921142578125,-2.021929020965099,-5.39089224384427,3.068014529189467
1789483123814971100,0.48297119140625,-1.555349620091915,-4.877417528544366,3.225313461357355
1789483123825021000,0.49302099609375,-0.9459908107906579,-4.312393827793002,3.3371862748682495
1789483123835070200,0.5030703125,-0.30954993329644204,-3.749534903860092,3.5819665066123005
1789483123845120300,0.513120361328125,0.423438470543921,-3.1895839763283726,3.916551512444019
1789483123855170000,0.523170166015625,1.141394724947214,-2.8325428085386752,4.19881888653934
1789483123865219000,0.533218994140625,1.759187308333814,-2.8185844258129595,4.387271081861853
1789483123875269000,0.54326904296875,2.0796230850428343,-3.1301144270107146,4.3017105212152
1789483123885318100,0.553318115234375,2.2927957339935,-3.3751895500481126,3.965970500129461
1789483123895368200,0.5633681640625,2.7159248463273045,-3.3104034818828105,3.669240885439515
1789483123905418200,0.573418212890625,3.236580120781064,-2.7945234590068457,3.723109253749251
1789483123915467000,0.583467041015625,3.4419495486348866,-2.2870536832101642,4.073261246547102
1789483123925517000,0.59351708984375,3.421304820013046,-2.1782494634896516,4.468145530518889
1789483123935567000,0.603567138671875,3.6210914792984723,-1.787538958071172,5.287711270833015
1789483123945616100,0.6136162109375,4.745014260441065,-1.3958825501047074,6.612986060881615
1789483123955666200,0.623666259765625,5.443902534019947,-1.2595058483257888,7.779604658934473
1789483123965715200,0.633715087890625,4.604215796697139,-0.13424158944636583,8.423321080389618
1789483123975765200,0.64376513671875,5.097814721921086,1.3828183397397398,9.329657926183938
1789483123985815000,0.65381494140625,4.625771794945002,1.7234129612497984,9.204151724117994
1789483123995864000,0.663864013671875,3.2505782509952783,2.0922608866892753,9.358639690518379
1789483124005914000,0.6739140625,2.167747358697653,3.83458283880949,9.667356680122017
1789483124015964000,0.6839638671875,1.6310487119376658,5.275479565769434,9.729994630342722
1789483124026013200,0.69401318359375,1.060206241904944,6.199530347430706,9.816016378760338
1789483124036063200,0.704063232421875,0.3615525077342987,6.862294583705067,9.835006325912476
1789483124046112000,0.714112060546875,-0.274109202080965,7.3010752925485365,9.645706573849916
1789483124056162000,0.724162109375,-0.8547868374295532,7.4655673510909075,9.179852564641832
1789483124066212000,0.734212158203125,-1.288245328336954,7.580313674211502,8.964925619369744
1789483124076261000,0.74426123046875,-1.5884683381006122,7.757348987984657,8.866501485496759
1789483124086311200,0.754311279296875,-2.2205647566497326,8.011744604814051,8.390669103109836
1789483124096361200,0.764361328125,-3.2642256680756807,8.188671197515726,7.469650236490368
1789483124106410000,0.774409912109375,-4.395737296912074,8.03703569793701,6.473526736786961
1789483124116460000,0.7844599609375,-5.262765045624971,7.5255381279289715,5.594252085441351
1789483124126509300,0.79450927734375,-5.551133074682951,6.848038679337501,4.692622394424677
1789483124136559000,0.80455908203125,-5.19212089908123,6.168574652674794,3.810750127801299
1789483124146609200,0.814609130859375,-4.2863750049173825,5.293154923191667,3.0206185717642304
1789483124156658200,0.824658203125,-3.5120495052993297,4.379915458402038,2.278785474950075
1789483124166708200,0.834708251953125,-3.4829192724049087,3.5604631153345108,1.6818115154474973
1789483124176757000,0.844757080078125,-3.3718197813540693,3.0070342830479144,1.534474589845538
1789483124186807000,0.85480712890625,-2.9752696099966762,2.557083653153479,1.1522270846068858
1789483124196857000,0.864857177734375,-2.6963629445061086,1.8914641735784707,0.5881032553046941
1789483124206906000,0.874906005859375,-3.221635357366502,1.2542422287091612,-0.1313520054847002
1789483124216956200,0.8849560546875,-4.176099981991946,1.025264180926606,-1.3171388298660516
1789483124227006500,0.89500634765625,-3.9958091735541816,0.6761527101576328,-2.328324289622903
1789483124237055200,0.90505517578125,-4.467849470181763,-0.20808515308592468,-3.596915069419145
1789483124247105300,0.915105224609375,-5.257993593439459,-1.3819760436967015,-3.9361055232197044
1789483124257154300,0.925154296875,-5.17932688395977,-1.9027029220819471,-3.7299773859530685
1789483124267204400,0.935204345703125,-4.174727232334018,-1.7847452356994151,-2.7169173644959925
1789483124277254400,0.94525439453125,-1.4422633391380308,-2.2801199384242294,-2.736049350467324
1789483124287303200,0.95530322265625,-1.3882225368708372,-3.02394830070883,-2.3633739756941794
1789483124297353200,0.965353271484375,-1.1933107901453972,-3.661382865415513,-2.697559168553352
1789483124307403300,0.9754033203125,0.7711316720128059,-2.470515669029951,-3.1110353402704
1789483124317452500,0.98545263671875,1.0910615450263024,-2.9183380547240376,-4.135186080062389
1789483124327502300,0.99550244140625,-0.8727595703631639,-3.6934026822715995,-4.058373474016785
1789483124337551400,1.00555126953125,-1.7322165915608405,-3.3009798199772833,-3.6269326065421104
1789483124347601400,1.015601318359375,-1.8433952853277324,-3.125457833376527,-4.520198958361148
1789483124357651200,1.025651123046875,-0.9791869779497384,-3.444660561159253,-5.51816077940762
1789483124367700200,1.0357001953125,0.13965280084013937,-4.0227047792643305,-5.679534413668513
1789483124377750300,1.045750244140625,1.5307213747918604,-4.532927214770019,-5.152599036031961
1789483124387800300,1.05580029296875,2.19927062420845,-4.513577786655723,-4.116936137622595
1789483124397849300,1.065849365234375,2.0552296714119613,-4.0012130784243345,-2.962545152980089
1789483124407899400,1.0758994140625,1.2470908956497906,-2.8409844736695287,-1.1410077714562414
1789483124417948200,1.0859482421875,0.2891115409016609,-2.047451877017319,0.22082944731414317
1789483124427998200,1.095998291015625,-0.15230718829520046,-1.585361311995983,-0.2494973233938217
1789483124438048300,1.10604833984375,-0.5749164414733648,-0.7440455852318555,-0.027830256211757658
1789483124448097300,1.11609716796875,-1.1262614532232285,-0.12631817603595555,1.6556640977561472
1789483124458147300,1.126147216796875,-2.613275788235664,0.3726362118065357,4.215207711282372
1789483124468196400,1.1361962890625,-1.6221102032005785,0.46671150282025337,4.910053431472182
1789483124478246100,1.14624609375,0.23139124640412628,1.2142264446631073,5.211059408307075
1789483124488296200,1.156296142578125,0.9161820210475474,2.1675921681359407,6.4009793869704
1789483124498345500,1.166345458984375,1.2153075178980826,3.42700390843749,8.309363277298212
1789483124508395500,1.1763955078125,0.2718178762733936,4.468967368295789,9.96329017599821
1789483124518445300,1.1864453125,-0.8435843292832375,4.538441594277322,9.647020579057932
1789483124528494300,1.196494384765625,-1.352322955971956,3.766367965239286,6.83826839595139
1789483124538544400,1.20654443359375,-2.7879169003486632,3.1474224124252794,3.8597511823356148
1789483124548593400,1.216593505859375,-3.656207800865173,2.56620102558881,2.879660533544421
1789483124558643500,1.2266435546875,-3.076608754533529,2.4829201003119348,2.2871195880532262
1789483124568693500,1.236693603515625,-2.337042433607578,2.9953222179442642,2.139412075573206
1789483124578742300,1.2467421875,-1.412881761831045,3.601492752598226,1.9762989041686057
1789483124588792300,1.256792236328125,-0.6076257018983364,4.099605940376222,1.4004308610588312
1789483124598841300,1.26684130859375,-0.4992775553822517,3.6646442052990196,0.5272217933624983
1789483124608891100,1.27689111328125,-0.39482933891415595,2.5466958223909137,-0.6080354517430067
1789483124618941200,1.286941162109375,0.08381109576397575,1.6236556790769099,-1.417771871960163
1789483124628990500,1.296990478515625,0.8494400695741177,0.7917427906259894,-2.2651351352602243
1789483124639040300,1.307040283203125,1.5052841511964796,0.2201025943443179,-3.6520126872628924
1789483124649090300,1.31709033203125,1.6306629274904727,-0.02585603352934122,-4.951775434914231
1789483124659139300,1.327139404296875,1.4932126051306724,-0.3381377298772335,-6.129110657292604
1789483124669189000,1.337189208984375,1.6176234131753444,-0.4802051906436681,-6.710586018890142
1789483124679238400,1.34723828125,1.7336954319417475,-0.09519318912774324,-6.709144587910175
1789483124689288400,1.357288330078125,1.2711959938585757,0.5077995922729373,-6.241158827370405
1789483124699338500,1.36733837890625,0.7461936301112174,1.125596267312765,-5.547337189531326
1789483124709387300,1.37738720703125,0.5595861858725547,1.9492220966726541,-4.629338547515869
1789483124719437300,1.387437255859375,0.3552770807266235,2.2525679146319626,-3.3282442589998245
1789483124729486300,1.397486328125,-0.0715022155446466,2.2041081273674963,-1.8304378963381052
1789483124739536400,1.407536376953125,-0.13900573510825634,2.372172199177742,-0.957229413163662
1789483124749586400,1.41758642578125,-0.36281737657096236,2.641080910006165,-1.0522621510326862
1789483124759635200,1.42763525390625,-0.6103945820897817,3.0664380736529826,-1.0500906522125004
1789483124769685200,1.437685302734375,-1.3731091388911008,2.932614125096798,-0.5994266133517027
1789483124779734300,1.447734375,-0.989973160380125,2.303829315313697,-0.5651484961748123
1789483124789784300,1.457784423828125,-0.5281611200392246,2.0389035366415977,-1.3246721479803323
1789483124799834400,1.46783447265625,-0.09186696731448173,1.9070809910356998,-2.0055834508419035
1789483124809883400,1.47788330078125,0.4018371718496084,1.9025661439597605,-2.15633866045475
1789483124819933400,1.487933349609375,-0.0056529111951589585,2.3243436955541372,-2.390607435056567
1789483124829983200,1.497983154296875,-0.607389555054903,2.949695023757219,-2.7065572985231876
1789483124840032300,1.5080322265625,-0.35084472430236635,2.929150248378515,-2.5905910782188175
1789483124850082300,1.518082275390625,-0.7829045273929834,3.7896611625432968,-3.179072519186139
1789483124860131300,1.52813134765625,-1.5828952141433954,4.554484674322605,-3.4807933662921187
1789483124870181400,1.538181396484375,-1.5263164178311823,4.9930023483157155,-3.235220230604708
1789483124880231400,1.5482314453125,-0.6597860972464085,5.365507042697072,-2.8382266993939873
1789483124890280200,1.5582802734375,0.4236608811229467,5.603769855371117,-1.9593243884921072
1789483124900330200,1.568330322265625,0.8626105167925358,4.826962475809455,-0.5376166383877397
1789483124910379500,1.578379638671875,-2.1674849083691834,0.0451999086856842,2.4679613083720207
1789483124920429300,1.58842919921875,-1.5224574043154715,-10.752759468734263,1.7677872327663002
1789483124930479400,1.598479248046875,4.685250404351949,-31.21661597511768,0.7416038911681622
1789483124940528400,1.6085283203125,5.068678643807768,-35.10469191918373,0.6878997735094279
1789483124950578200,1.618578125,-2.94545957814455,-27.220092515814304,4.320287795913219
1789483124960627200,1.628627197265625,-2.744947527194023,-15.219960996401309,4.904740712016821
1789483124970677200,1.63867724609375,-0.0588245294123888,-3.6989568092674014,1.8548074907019734
1789483124980727600,1.6487275390625,1.5111710172779858,1.6881459791660307,0.11106241044346242
1789483124990776300,1.6587763671875,1.6799533203601835,4.146152879756689,-0.595659150576964
1789483125000826400,1.668826416015625,0.8502491209346801,5.017807119226456,-1.091969818977639
1789483125010875100,1.678875244140625,0.2566869426369667,4.892113285633921,-1.5789298176437616
1789483125020925200,1.68892529296875,-0.5113198753535747,4.093262416568399,-1.8504658082358538
1789483125030975200,1.698975341796875,-1.1434458122581244,2.7610242172479627,-2.134369551361352
1789483125041024300,1.709024169921875,-1.5466267999321222,1.1501461866796017,-2.0463238959006964
1789483125051074300,1.71907421875,-1.7925363279670476,-0.1710439644038677,-1.4741617215715348
1789483125061124400,1.729124267578125,-1.5623995386034248,-0.7477706701695919,-0.6828508926220238
1789483125071173400,1.73917333984375,-1.2336954075038433,-0.7787275339692831,-0.19452848302889614
1789483125081223200,1.74922314453125,-1.0813409460008143,-0.5958633679121732,0.07462687777066603
1789483125091272400,1.7592724609375,-1.1161983243703841,-0.6570031885296106,0.30408399604074654
1789483125101322500,1.769322509765625,-1.3046218781203032,-0.8414139995068312,0.22139749299306422
1789483125111372300,1.779372314453125,-1.7210650829493999,-0.9562971007496118,0.06205375712458044
1789483125121421300,1.78942138671875,-2.0183517470002172,-0.9151683870255947,-0.004675298334658145
1789483125131471400,1.799471435546875,-1.7491215491324663,-0.8302437861949205,-0.11226447970960289
1789483125141520400,1.809520263671875,-1.1405302170723677,-0.6657382836490869,0.06904153365269303
1789483125151570400,1.8195703125,-0.7886123836457729,-0.53945291390419,0.45637726540844886
1789483125161620500,1.829620361328125,-0.6610299598276614,-0.4491372676849365,0.655003246884048
1789483125171669200,1.839669189453125,-0.6333598626136779,-0.5688631327837705,0.6799499835487455
1789483125181719300,1.84971923828125,-0.5423907209217548,-0.8934528143018483,0.4485048150002956
1789483125191768300,1.859768310546875,-0.5471569854754954,-1.3615660006135701,0.18586451691687106
1789483125201818000,1.869818115234375,-0.49544542987346646,-1.8219488849341867,0.12175569042600691
1789483125211868200,1.8798681640625,-0.23291575255766508,-1.7152473365813492,0.3884577580556273
1789483125221917000,1.8899169921875,0.37854558198079463,-1.147291966292262,1.0791318916492163
1789483125231967000,1.899967041015625,0.8214272964023053,-0.9243161545991897,1.7066732772424815
1789483125242015700,1.910015625,0.7146176114998758,-0.2935685203105211,1.9166399697586893
1789483125252065800,1.920065673828125,0.14570055657178163,-0.47290568128526206,1.1746176339827477
1789483125262115800,1.93011572265625,-0.7030091529011726,-1.0069956068515777,0.17900208380147814
1789483125272165000,1.9401650390625,-1.5913889017224312,-1.2879168270349501,-0.8435317223131656
1789483125282215000,1.95021484375,-1.6155784633442758,-1.4954168371766805,-1.6545219419836996
1789483125292264000,1.960263916015625,-1.4254068968832492,-1.566000777965784,-2.337381310173124
1789483125302314000,1.97031396484375,-0.827797854347527,-0.8228431545495987,-2.2621942595027384
1789483125312363800,1.98036376953125,0.027236674232780932,-0.01900280663371086,-2.075288416839391
1789483125322413000,1.9904130859375,0.5951055352821946,0.5242588519036769,-1.7595961813956498
1789483125332463000,2.000463134765625,0.5941916353076696,0.7274597035467624,-1.2297792569734156
1789483125342511900,2.010511962890625,0.5556497232064604,0.8866367045462131,-0.7049610906865448
1789483125352562000,2.02056201171875,0.6276482069686055,1.0394751501739024,-0.14714863648824392
1789483125362612000,2.030612060546875,0.9073732031047343,1.274628890916705,0.431539943934977
1789483125372661000,2.040660888671875,0.9954416549190879,1.3417699977755546,0.9483419039614498
1789483125382711000,2.0507109375,0.7301411977156996,1.2073989367306233,1.2251254398182034
1789483125392760000,2.060760009765625,0.5576248226717114,0.9941817179858684,1.1995055531322956
1789483125402809900,2.070809814453125,0.5547618344560266,1.001381274101138,1.0801407033655792
1789483125412860000,2.08085986328125,0.5645478999331593,1.2284686127662658,0.9286617095228284
1789483125422909000,2.090908935546875,0.5515142308369279,1.532930283012986,0.7528971463378519
1789483125432958700,2.100958740234375,0.5264359036818146,1.823052462261915,0.5607413472570478
1789483125443008000,2.111008056640625,0.37989158976227044,2.05812729254961,0.35240130609460174
1789483125453058000,2.12105810546875,0.20951456483453512,2.2456197029292584,0.17304478283226488
1789483125463108000,2.131108154296875,-0.0629810645699501,2.3259107987403866,0.041309184857457874
1789483125473156900,2.141156982421875,-0.35785219191163775,2.3009815246671437,-0.05574015353098511
1789483125483207000,2.15120703125,-0.5555509390071034,2.16633573833406,-0.12504983660057187
1789483125493256000,2.161255859375,-0.7843684624657035,1.9874235247731207,-0.22233429891914128
1789483125503306000,2.171305908203125,-0.9841197581768035,1.863202686342597,-0.2661645266868174
1789483125513356000,2.18135595703125,-1.0789055355474353,1.8301356985211372,-0.24248883287124334
1789483125523404800,2.19140478515625,-1.161018293827772,1.903074678003788,-0.2185708547323942
1789483125533454800,2.201454833984375,-1.2052370825216174,2.0400638125926256,-0.2879411088827997
1789483125543504000,2.21150390625,-1.2269123232349752,2.265644838348031,-0.47522046103365717
1789483125553554200,2.22155419921875,-1.2576786328986287,2.570625564032793,-0.74901212159805
1789483125563604000,2.23160400390625,-1.4382175708785652,2.757922159579396,-0.97899065166004
1789483125573653000,2.241653076171875,-1.6086153463333843,2.7060055098593234,-1.0228731210716069
1789483125583703000,2.251703125,-1.7482964964851735,2.409194062104821,-0.8838167517546563
1789483125593751800,2.261751708984375,-1.9476804201886058,1.9402625451475382,-0.6009403789155184
1789483125603801900,2.2718017578125,-2.22979172693938,1.2304635859757662,-0.2904131250195205
1789483125613852000,2.281851806640625,-2.5849589175507424,0.27530221125781534,-0.16964688402228056
1789483125623901000,2.29190087890625,-2.9001506561264394,-0.7557996628463268,-0.2394107406001538
1789483125633951000,2.301950927734375,-3.098853319567442,-1.5582500177085399,-0.3280751124810427
1789483125644000000,2.312,-3.079449530917406,-2.098431830409169,-0.43924021611399944
1789483125654049800,2.3220498046875,-2.810750371186435,-2.420435002565384,-0.3261966783232987
1789483125664099800,2.332099853515625,-2.3985893737211823,-2.6100638404518364,0.09987122740875928
1789483125674149000,2.342149169921875,-1.9405600667893885,-2.5251994453758,0.7606170000001787
1789483125684199000,2.352198974609375,-1.7431380908086895,-2.0551737034410236,1.3363703306891024
1789483125694248000,2.362248046875,-1.768916967448592,-1.3997469704478978,1.3703662699237464
1789483125704298000,2.372298095703125,-2.077265708261728,-0.33919746806323525,1.1512328128725289
1789483125714347800,2.38234765625,-2.540229841247201,1.015574050104618,0.8130061626028269
1789483125724397000,2.39239697265625,-2.9242262359797953,2.303741052508354,0.47991263743788
1789483125734447000,2.402447021484375,-3.1491827000960706,2.9577643484443423,0.10919270758144557
1789483125744495900,2.412495849609375,-2.613940681885183,2.129600291132927,-0.4609101961303502
1789483125754546000,2.4225458984375,-1.5442352286204695,0.044990065327286714,-1.1793388903509825
1789483125764596000,2.432595947265625,-0.4654615027591586,-2.075121097448468,-1.7425566376589237
1789483125774644700,2.442644775390625,0.24598989979475736,-4.193667495125532,-2.0797046258464453
1789483125784694800,2.45269482421875,0.6339616278991103,-6.350077467250824,-1.9164716274544595
1789483125794744000,2.462744140625,0.7466212078735232,-7.7715803424328564,-0.746712977810204
1789483125804793900,2.4727939453125,1.0608101991474628,-7.213420389971136,0.3273835134876892
1789483125814843000,2.4828427734375,1.0655401502788067,-4.060002536523342,0.3177159963563084
1789483125824893000,2.492892822265625,1.2573757044292986,-0.049937458601593966,-0.537379030239582
1789483125834943000,2.50294287109375,1.8078176298595965,2.561740246787667,-1.427755213575065
1789483125844992000,2.512991943359375,2.133065775286406,3.9604070207834243,-1.9254042909726499
1789483125855042000,2.5230419921875,2.318773494206369,4.63343838405013,-2.1857991482168435
1789483125865090800,2.5330908203125,2.360765839022398,4.6700300388664004,-2.2032265222273764
1789483125875140900,2.543140869140625,2.346899810755253,4.011726289132238,-2.1268720352128145
1789483125885191000,2.55319091796875,2.559872407089174,2.8331401899099347,-1.8685602678529918
1789483125895240000,2.563239990234375,3.3786884980797764,-0.4583534243196249,-0.321730163901113
1789483125905290000,2.5732900390625,3.3139912772417066,-0.44349780049324034,-0.2556521562291309
1789483125915339000,2.583339111328125,3.3606840548336505,-1.5695283675700424,1.1648733618207274
1789483125925389000,2.59338916015625,3.1497745285093783,-1.7440069825977087,1.8615623717896639
1789483125935438800,2.60343896484375,2.9517513717651367,-1.4686831440299748,2.030609901679307
1789483125945488000,2.61348779296875,2.8762966100692746,-0.8959031300634145,2.2719024374380705
1789483125955538000,2.623537841796875,2.5480454834342003,-0.21864859614372253,2.4781986247479915
1789483125965587000,2.6335869140625,1.9454339564360676,0.2639882055610418,2.7879294675692914
1789483125975637000,2.643636962890625,1.1701732217945158,0.6170388424098491,2.9709950014173985
1789483125985687000,2.65368701171875,0.33819618206620217,0.8288976322829723,2.8608988421902057
1789483125995735800,2.66373583984375,-0.24022446813583373,0.9054951342731714,2.429892566740513
1789483126005785900,2.673785888671875,-0.7660441396154463,0.7897749976843595,1.750656795875728
1789483126015835100,2.683835205078125,-1.0342216135598719,0.38917876580655575,1.072974903389439
1789483126025885000,2.693885009765625,-0.8791185840010642,-0.09642214640080929,0.4178852933961898
1789483126035934000,2.703933837890625,-0.5428583384335041,-0.5254688122153282,-0.07637538367211819
1789483126045984000,2.71398388671875,-0.10675693180188536,-0.6948959890723228,-0.26634309812411666
1789483126056033800,2.72403369140625,0.32359475219659506,-0.6793073747962712,-0.2871110877994448
1789483126066083000,2.7340830078125,0.5331249529916793,-0.5902291614174843,-0.20186127360239625
1789483126076133000,2.744133056640625,0.5899369004726409,-0.417791112306714,-0.16552739293947816
1789483126086182000,2.754181884765625,0.5262918190360069,-0.16123510257303714,-0.16163623071983454
1789483126096232000,2.76423193359375,0.41527715672440824,0.24475860443413255,-0.18168847334124147
1789483126106282000,2.774281982421875,0.2392623451054096,0.6361953783005475,-0.21070655109807848
1789483126116330800,2.784330810546875,0.0516740000706166,1.0277414577603339,-0.25991204216331243
1789483126126380800,2.794380859375,-0.016674071425199506,1.1616875713914632,-0.40643743218667805
1789483126136430000,2.80443017578125,-0.09177337074689566,1.1385808365702628,-0.4004755281075835
1789483126146479900,2.81447998046875,-0.14061718889288605,1.0299632254630326,-0.2578033063810319
1789483126156530000,2.824530029296875,-0.11618895967695861,0.8979723375529051,-0.046560967905819414
1789483126166579000,2.834578857421875,-0.10820201604366302,0.6996633496046066,0.11385149317272007
1789483126176629000,2.84462890625,-0.19195695204045624,0.4135305322527885,0.2048787217274308
1789483126186678000,2.854677978515625,-0.31616208144519475,0.2565039872854948,0.38170302309840914
1789483126196728000,2.86472802734375,-0.4309761725723743,0.202668352201581,0.6610633506406098
1789483126206776800,2.87477685546875,-0.6469418132424354,0.18176058872938156,0.9100945178274065
1789483126216827000,2.884826904296875,-0.9301017522633075,0.20623335120677946,1.0804202509593217
1789483126226876700,2.894876708984375,-1.109932249712944,0.359047246915102,1.2442825602307914
1789483126236926000,2.904926025390625,-1.1794804177135227,0.41204760021865366,1.2477908606126904
1789483126246976000,2.91497607421875,-1.389388658040762,0.3754764036685228,1.0530565893460064
1789483126257024800,2.925024658203125,-1.5531857200562953,0.3892927475750446,0.7971199536196887
1789483126267074800,2.93507470703125,-1.710320401573181,0.40227439422309397,0.552033432405442
1789483126277124900,2.945124755859375,-1.8533546615451573,0.3307511267572641,0.2504655108388513
1789483126287173600,2.955173583984375,-1.7133797891438007,0.34067104774713514,0.0027935031760483978
1789483126297223700,2.9652236328125,-1.3789438363939523,0.2586386612266302,-0.17662512553706763
1789483126307273000,2.97527294921875,-1.0654185697257519,0.0632341625481844,-0.34720198388583956
1789483126317322800,2.98532275390625,-0.8602315127015113,0.09636135612428187,-0.3735247581440955
1789483126327371800,2.995371826171875,-0.7889005529373884,0.19693594602942466,-0.2870267705168575
1789483126337421800,3.005421875,-0.960373556408286,0.31226386843025683,-0.12853475610688328
1789483126347471600,3.0154716796875,-1.263024962362647,0.4575128818422556,0.13464527487643063
1789483126357521000,3.02552099609375,-1.5578607261300086,0.48115503871440884,0.51712403158769
1789483126367571000,3.035571044921875,-1.863791884407401,0.3393967900276184,1.1522324914343653
1789483126377619700,3.04561962890625,-1.999126237526536,0.2318640515476465,2.095450476510823
1789483126387669800,3.055669677734375,-1.9834166272193192,0.2603507258415222,3.070565967237949
1789483126397719800,3.0657197265625,-1.7655699951082466,0.5060872353971004,3.930121480374038
1789483126407768800,3.075768798828125,-1.4326350945711135,0.6290326470643282,4.473703749167919
1789483126417819000,3.08581884765625,-1.009430725044012,0.571411648222804,4.680993331429362
1789483126427868000,3.095867919921875,-0.5892296289861202,0.30516894173324105,4.570519863322377
1789483126437917700,3.105917724609375,-0.6102829384088516,-0.17441957831680774,4.379657099726796
1789483126447966700,3.115966796875,-1.016450832939148,-0.7393675834834575,4.036204896828532
1789483126458016800,3.126016845703125,-1.338510703718662,-1.3886428081095217,3.3159114316493272
1789483126468066800,3.13606689453125,-1.5560994155459105,-2.121875249838829,2.7192358705714343
1789483126478115800,3.14611572265625,-1.8952962990872562,-3.007349924868345,2.6015067322477696
1789483126488166000,3.156165771484375,-1.8956027346879243,-3.7834693221658466,2.5224714817166327
1789483126498214700,3.166214599609375,-1.8071933604814112,-3.980014223051071,2.4166744809880853
1789483126508264700,3.1762646484375,-2.222387880423665,-3.40766383267343,2.0336241349339486
1789483126518314000,3.18631396484375,-2.528006904011965,-2.5941455558300017,1.6412247996456921
1789483126528363800,3.19636376953125,-2.529039169669151,-2.232607661142945,1.339166683409363
1789483126538413800,3.206413818359375,-2.1462701247744262,-2.2642910856515166,0.9808430745936929
1789483126548462800,3.216462890625,-1.6574999348811805,-2.4879484498679636,0.43678938889577984
1789483126558513000,3.226512939453125,-1.2747666919521987,-2.5676199524760244,-0.2976085894815624
1789483126568562000,3.23656201171875,-1.0562269630104302,-2.3586089532494543,-0.9985980731233954
1789483126578612000,3.246612060546875,-1.1313893176309764,-1.8752923525869845,-1.4611610779620705
1789483126588662000,3.256662109375,-1.1353946808148174,-1.5226462048858402,-1.9071409045293926
1789483126598710800,3.266710693359375,-0.7750351091921329,-1.342410633766651,-2.2362905874393877
1789483126608760800,3.2767607421875,-0.3437555697590112,-1.260365387764573,-2.4114319041594863
1789483126618809900,3.286809814453125,-0.1133264829179272,-1.0971920106053352,-2.4216698050573466
1789483126628859600,3.296859619140625,-0.24527765987217426,-0.6987374669313431,-2.255268844153732
1789483126638909000,3.306908935546875,-0.2777858447670936,-0.30243221024572847,-2.135987654082477
1789483126648959000,3.316958984375,0.20069091464877128,0.02057575503885746,-1.8775072521574794
1789483126659008800,3.3270087890625,1.0356418556213378,0.08459726857244967,-1.6889992349945009
1789483126669057800,3.337057861328125,1.829740561723709,-0.11536474727988243,-1.7835691776573657
1789483126679107800,3.34710791015625,2.3991034607231616,-0.19984160434305667,-1.7137014223136007
1789483126689156900,3.357156982421875,2.620909936375916,-0.23165303914546964,-1.5497475623011587
1789483126699207000,3.36720703125,2.8071465014755725,-0.1681383060902357,-1.3195889994971453
1789483126709257000,3.377257080078125,2.818995929223299,0.08142565279901028,-1.2174493522323668
1789483126719305700,3.3873056640625,2.7696166890263556,-0.09403612804710865,-1.0777939210437237
1789483126729355800,3.397355712890625,2.7458102815032004,-0.5694961699903011,-0.95056557136029
1789483126739404800,3.40740478515625,1.883508684529364,-1.3905799136519432,-0.6905031609408557
1789483126749454800,3.417454833984375,1.3952330001547932,-1.768109742718935,-0.314563085283339
1789483126759504000,3.42750390625,1.2409575074613093,-1.7421382661163807,-0.14689108153060076
1789483126769554000,3.437553955078125,1.0607242744296788,-1.630554206418991,-0.0564542931497097
1789483126779603700,3.447603759765625,0.4223793168798089,-1.587664328241348,0.8707133053578436
1789483126789652700,3.45765283203125,-0.3964876275151968,-1.3284820616573094,2.075814486540109
1789483126799702800,3.467702880859375,0.09937135159522295,-1.272514090719819,2.7078926387801765
1789483126809751800,3.477751708984375,1.573908482350409,-1.7052444134831428,3.147871325236559
1789483126819801900,3.4878017578125,2.812264575141668,-1.9456921689808369,3.193212980480492
1789483126829851000,3.497850830078125,2.9972672145321964,-2.0247984389215707,2.0506712774552405
1789483126839900700,3.507900634765625,2.312712002210319,-1.5870739611327647,0.12992781790047883
1789483126849950700,3.51795068359375,2.0915356411546466,-0.8622317466080188,-1.0141751430921255
1789483126860000000,3.528,2.596718036666512,0.2878121487408876,-1.3761695493750274
1789483126870049800,3.5380498046875,2.96853007260859,1.6213853960573672,-1.3584111898444593
1789483126880098800,3.548098876953125,3.2030086905688044,2.349107549932599,-1.3970534935802221
1789483126890148900,3.55814892578125,3.3505531214416027,2.816636214354634,-1.7371762597948313
1789483126900197600,3.56819775390625,3.3004888215899464,3.3387586387515067,-2.0184328494124113
1789483126910247700,3.57824755859375,3.274151434284448,3.873684430620074,-2.2237997930482027
1789483126920298000,3.588298095703125,3.211480750837922,4.269375939321518,-2.3485841105803846
1789483126930346800,3.5983466796875,3.2588430982545016,4.504834800490737,-2.1593265902243552
1789483126940396800,3.608396728515625,3.3782436769217252,4.619990288934111,-1.8668312521032988
1789483126950445800,3.61844580078125,3.417558619222045,4.811821605300903,-1.7682833457201719
1789483126960495600,3.62849560546875,3.4017437949746845,5.1476662558048965,-1.6148600859418512
1789483126970545000,3.638544921875,3.194203452822566,5.332264698308706,-1.8228601545602081
1789483126980595000,3.648594970703125,2.782338807955384,5.414174335232377,-2.235673332323879
1789483126990645000,3.65864501953125,2.249941073259711,5.327993012338877,-2.5722826835900543
1789483127000693800,3.66869384765625,1.6232687255859375,4.932627082329988,-2.673523336188495
1789483127010743800,3.678743896484375,0.7456035552635788,4.212477994057536,-2.5750632542192933
1789483127020792800,3.688792724609375,-0.3222024941205978,3.206670720207691,-2.1941199634470046
1789483127030843000,3.6988427734375,-1.5404364208593964,2.100347308641672,-1.5393116546131669
1789483127040892000,3.708891845703125,-2.9419466015875337,0.7417255447864533,-0.6956492916576564
1789483127050941700,3.718941650390625,-4.599021735185384,-1.0563941362708806,0.5406109978981316
1789483127060991700,3.72899169921875,-6.582021598297358,-3.8748528898775576,2.249970445484668
1789483127071040800,3.739040771484375,-9.109336428391932,-7.933785751342773,4.437862620458007
1789483127081090800,3.7490908203125,-11.608697083634137,-11.200765102040767,6.741882489907741
1789483127091139800,3.759139892578125,-11.570433111691473,-12.349734061634539,7.192382862639427
1789483127101190000,3.76918994140625,-7.063085451596975,-12.448097405230998,5.189114703002572
1789483127111238700,3.77923876953125,-1.7984931905448436,-11.29242281051874,2.5647569642603396
1789483127121288700,3.789288818359375,0.06681435912251472,-6.690971217837929,0.9350221114002167
1789483127131338800,3.7993388671875,-1.1415768035158513,-0.431739558160305,-0.05530658441931009
1789483127141388000,3.809387939453125,-2.1769047708824276,4.25029188414514,-1.3518421867176889
1789483127151437800,3.819437744140625,-2.528102765601873,7.476726458486914,-2.3317419891119
1789483127161486800,3.82948681640625,-2.5181539107784627,9.599079847231506,-2.526061615163088
1789483127171537000,3.839536865234375,-1.8734236361056564,10.538522843813896,-2.1117472390562293
1789483127181585700,3.849585693359375,0.28767858548909425,9.806228559717535,-1.9237790278583764
1789483127191636000,3.859635986328125,3.532597787809372,7.1951225167363875,-2.376342616730183
1789483127201686000,3.86968603515625,4.737257654964924,3.3152970991432666,-3.220350578252971
1789483127211734800,3.87973486328125,2.738065074203908,-1.6485504663586616,-3.7109737025365233
1789483127221784800,3.889784912109375,0.5114519773006438,-6.948909621840715,-2.571185536003113
1789483127231833600,3.89983349609375,0.034931612649559976,-12.197077986836433,0.687827365860343
1789483127241883400,3.90988330078125,1.3970131615698336,-15.411453874593972,4.194901128573715
1789483127251932700,3.9199326171875,1.9230571433246135,-13.459656958997249,3.996376159787178
1789483127261982700,3.929982666015625,1.9500754986315965,-6.3760121189743275,2.543362294054031
1789483127272032500,3.940032470703125,4.186029839853942,-0.9575310264587402,0.0442567826166749
1789483127282081500,3.95008154296875,4.0208474609598515,0.9156541247159242,-2.5663550471067427
1789483127292131600,3.960131591796875,2.6346742578342557,2.0479577807128426,-4.2536505469232795
1789483127302180600,3.9701806640625,1.8418220446616411,3.143870272901654,-5.039135153937339
1789483127312230700,3.980230712890625,1.5251108414337038,3.555010695147514,-5.326958993116021
1789483127322279700,3.99027978515625,1.8959576856054365,3.3892326884478328,-5.144748322531581
1789483127332329500,4.00032958984375,2.7417747423768044,2.793680286180973,-4.561306629297137
1789483127342379500,4.010379638671875,3.8790450808703896,1.7783610876202582,-3.858089386603236
1789483127352428800,4.0204287109375,4.539183352555335,0.47410804281234736,-2.545788936679065
1789483127362478800,4.030478759765625,5.121947877180576,-0.4247591977536678,-0.9026869449846446
1789483127372527600,4.040527587890625,5.3712745201826095,-0.6323591611385345,0.2151528629824519
1789483127382577700,4.05057763671875,5.293266566872596,-0.6137438925176859,0.4627551664099097
1789483127392626400,4.06062646484375,5.061735108280182,-0.43592765749990936,0.43610257567539806
1789483127402676500,4.070676513671875,4.698477257932722,-0.1492553264439106,0.493155126979202
1789483127412726500,4.0807265625,3.999857572162151,0.026623803031444546,0.7314344523966312
1789483127422775600,4.090775634765625,3.1682781534492968,0.034010990673303605,1.2531010958500206
1789483127432825600,4.10082568359375,2.2714226910971105,0.02463525956273079,1.965762897107005
1789483127442874600,4.11087451171875,0.8924700868748128,0.17758242626190185,2.656855694504082
1789483127452924700,4.120924560546875,-0.44499286135658617,0.2900742484539747,3.1048893848612904
1789483127462973700,4.1309736328125,-1.5697310505352913,0.3878349499821663,3.300657748416066
1789483127473023700,4.141023681640625,-2.2246612321831285,0.525748798200488,3.202712922492623
1789483127483073800,4.15107373046875,-2.0064697321571408,0.5925958905488252,2.6662907545864583
1789483127493122600,4.16112255859375,-1.102637562660128,0.2703150704950094,1.63460801185444
1789483127503172600,4.171172607421875,0.013928060652688146,-0.11571546041369438,0.6055201079212129
1789483127513221400,4.181221435546875,0.914936989422515,-0.20009411779940128,-0.18320187357887624
1789483127523271700,4.191271728515625,1.1879670910298823,-0.20045301423966883,-0.5963748245656489
1789483127533320700,4.20132080078125,1.2806896522603928,0.04801204349696636,-0.9126591806836426
1789483127543370800,4.211370849609375,1.2843091579318047,0.20931085895597934,-1.3258474753700196
1789483127553419500,4.22141943359375,1.0641864706475288,0.3483937509536743,-1.4889374120295047
1789483127563469600,4.231469482421875,0.5895464398503303,0.43572716649174686,-1.628372916857153
1789483127573519600,4.24151953125,-0.025951529793068764,0.26821254525780674,-1.7938681610926985
1789483127583568600,4.251568603515625,-0.6484042870104313,-0.1326841308712959,-1.860325815732032
1789483127593618700,4.26161865234375,-0.96965401045084,-0.3512853807419538,-1.7350702274262904
1789483127603667500,4.27166748046875,-1.0908253981828688,-0.2903226702570915,-1.168489360360801
1789483127613717500,4.281717529296875,-1.009279918396473,-0.0037000235617160797,-0.3914879195317626
1789483127623766800,4.291766845703125,-0.7697557074844836,0.3208002261072397,0.31325419464185833
1789483127633816800,4.30181689453125,-0.7582990784466266,0.5762549966007471,0.8638239842355251
1789483127643866600,4.31186669921875,-0.7453472424149513,0.8352379412204026,1.2955240871682763
1789483127653915600,4.32191552734375,-0.7478232771396637,0.9518085571587085,1.4551957398168742
1789483127663965700,4.331965576171875,-0.9149217187881469,0.7270102062135935,1.3022666932962834
1789483127674014500,4.342014404296875,-1.0498083281397819,0.5696212576746941,1.109828935468942
1789483127684064500,4.352064453125,-1.1594073514997958,0.5199462494015693,0.907607011860609
1789483127694113800,4.36211376953125,-1.2725544227302075,0.46824178112745285,0.6642112202122807
1789483127704163600,4.37216357421875,-1.351819682624936,0.45873219450414177,0.32202772207558156
1789483127714212600,4.382212646484375,-1.3561422219991683,0.4702367543369531,0.032960897098481656
1789483127724262700,4.3922626953125,-1.3769044395208359,0.5303589223444461,-0.00760346074104309
1789483127734312400,4.4023125,-1.2994517820060252,0.6336258200734853,0.2789570805035531
1789483127744361700,4.41236181640625,-1.1271382360577582,0.6480360382199287,0.7443092776693403
1789483127754411800,4.422411865234375,-0.9447609767347573,0.6817506762951612,1.2676850631281733
1789483127764460500,4.43246044921875,-0.8033440888315438,0.6621802989065647,1.7426358403749762
1789483127774510600,4.442510498046875,-0.744466879383847,0.6283288827091456,2.097126300768554
1789483127784559600,4.4525595703125,-0.8522761697828769,0.5514625006496906,2.4197747850909828
1789483127794609700,4.462609619140625,-1.1288585570443421,0.48505496876239773,2.7447809384554622
1789483127804659700,4.47265966796875,-1.4733599036693572,0.5527198072344064,3.0863714391350743
1789483127814708700,4.482708740234375,-1.7660300138354301,0.563358690148592,3.4291391669005153
1789483127824758500,4.492758544921875,-1.8805273306310175,0.36727439251244065,3.8812007975995537
1789483127834807600,4.5028076171875,-1.7753221583157777,0.11803016709685325,4.339149148249626
1789483127844857600,4.512857666015625,-1.3994447726309298,-0.20589783564209937,4.4629877093642945
1789483127854906600,4.52290673828125,-0.9830139158267527,-0.5107189868509769,3.977645155832171
1789483127864956700,4.532956787109375,-0.9103642746794969,-0.732915630865097,3.101527214951813
1789483127875005700,4.543005615234375,-1.229823388376087,-1.0710621285706758,2.0145897641181945
1789483127885055500,4.553055419921875,-1.9644787025153636,-1.5387562126874923,0.8816039710760116
1789483127895105500,4.56310546875,-2.8736574937373396,-2.0437568218916655,0.07827098816037177
1789483127905154800,4.57315478515625,-3.6696015354454516,-2.6180419797241687,-0.30303499844446774
1789483127915204600,4.58320458984375,-4.309229810804128,-3.153399148747325,-0.11686916049346327
1789483127925253600,4.593253662109375,-4.009708519569039,-3.444101173710823,0.5766033716470003
1789483127935303700,4.6033037109375,-3.1149855392009016,-3.243099877938628,1.629327002711594
1789483127945352400,4.6133525390625,-1.954863901951909,-2.618453483134508,2.6418384503751993
1789483127955402500,4.623402587890625,-1.2163938518300652,-1.9941244837164878,3.3049300189077853
1789483127965451800,4.63345166015625,-0.8155500749319792,-1.8086743928194045,3.661339318534732
1789483127975501600,4.64350146484375,-0.496387240768224,-1.9710493130773306,3.5227895105004308
1789483127985551600,4.653551513671875,-0.3851403040707111,-2.108385653668642,2.6705945892602205
1789483127995600600,4.6636005859375,-0.3259814281374216,-2.046006646645069,1.1823463285386562
1789483128005650400,4.673650390625,-0.17405717474520205,-1.8397282872527836,-0.12635361267551778
1789483128015699700,4.68369970703125,-0.3068899203069508,-1.5237310775130986,-0.709073275245726
1789483128025749800,4.693749755859375,-0.3574059094488621,-1.2961404655009507,-1.3274419049546122
1789483128035798500,4.703798583984375,-0.39517592386212197,-1.0668857196688653,-1.9891480104781687
1789483128045848600,4.7138486328125,-0.7063759989857673,-0.8821370550394058,-2.573648711246252
1789483128055898600,4.723898681640625,-1.0746528465390204,-0.6867857478529215,-2.916313563159108
1789483128065947600,4.73394775390625,-0.9379238241910934,-0.3124731272667646,-2.929349570342898
1789483128075997700,4.743997802734375,0.02570953773073852,-0.2479939330935478,-2.661579800416529
1789483128086046700,4.754046630859375,1.1478209586024284,-0.7321651047587394,-2.490952307859063
1789483128096096500,4.764096435546875,2.07957939203158,-0.971759458297491,-2.4032249245673416
1789483128106145500,4.7741455078125,2.4608687197625634,-1.0711743567734957,-2.343622104258835
1789483128116195600,4.784195556640625,2.5157015491902825,-1.3345119894713162,-2.20881995832026
1789483128126244600,4.79424462890625,2.271180991295725,-1.2106225749522448,-1.9588785444207488
1789483128136294700,4.804294677734375,2.344328937353939,-0.8324328206717968,-1.7110485697172582
1789483128146344700,4.8143447265625,2.7472370994359254,-0.8097755831837654,-1.6584430609501897
1789483128156393500,4.8243935546875,2.1924235347926615,-0.8143693407148123,-1.1493667267397045
1789483128166443500,4.834443603515625,1.816447072647512,-0.7573749493390322,-0.9767125506602227
1789483128176492800,4.844492919921875,1.5067466249644756,-0.99673374055624,-0.5817910034179687
1789483128186542600,4.85454248046875,1.4272174534365534,-0.8486725923329591,0.057861091207712885
1789483128196591600,4.864591552734375,1.0756266600072384,-0.9184908094465732,0.7013290908597409
1789483128206641700,4.8746416015625,-0.008001812408864498,-1.0733271508932114,1.7550608760535715
1789483128216690400,4.8846904296875,-0.5511930360585451,-1.0509165816426276,3.13297683070451
1789483128226740500,4.894740478515625,-0.348301104234159,-1.3757500087887047,4.286925624537468
1789483128236790800,4.904790771484375,1.0674635195568203,-1.9684815084159373,4.830107788097858
1789483128246839600,4.914839599609375,2.650505156433582,-2.0963784050107,3.961558236645162
1789483128256889600,4.9248896484375,2.743828167775273,-1.7421183923721313,1.5344173067003488
1789483128266938600,4.934938720703125,2.3781743622019884,-0.8974164572358131,-0.25864436031505467
1789483128276988400,4.944988525390625,2.426346856957674,-0.036842999228835105,-1.2622216831557451
1789483128287037700,4.95503759765625,2.9423385235145685,1.1642214737832546,-1.8374411992289126
1789483128297087700,4.965087646484375,3.163126177513599,2.3370845191836356,-1.4878903871946036
1789483128307136500,4.975136474609375,3.639486383166909,2.9230203673213717,-1.4177797630056739
1789483128317186600,4.9851865234375,3.9944244411975145,3.2674598276913165,-1.647649133604765
1789483128327236600,4.995236572265625,3.991034798759222,3.4605116257637736,-1.8339824370771645
1789483128337285600,5.00528564453125,3.8244472292423244,3.795837220829725,-1.9819448011010885
1789483128347335700,5.015335693359375,3.781943135511875,4.085113596904278,-2.0559673380367456
1789483128357384700,5.025384765625,3.7346027076661583,4.20430228638649,-1.8609348875410854
1789483128367434500,5.0354345703125,3.662701839059591,4.128167141211033,-1.7719722633659838
1789483128377483500,5.0454833984375,3.568860356801748,3.96285792106688,-1.8943692473702132
1789483128387533600,5.055533447265625,3.2931171237781642,4.061457411506772,-2.15140135018304
1789483128397582600,5.06558251953125,3.053299482877552,4.359057379290461,-2.46133195336014
1789483128407632600,5.075632568359375,2.678743408924341,4.655778810673952,-2.7410768232405185
1789483128417682700,5.0856826171875,2.1179241741254926,4.802171148902177,-2.95140884193778
1789483128427731500,5.0957314453125,1.4220809673309325,4.6243075676113365,-2.9869612168341875
1789483128437781500,5.105781494140625,0.6257485108271241,4.1172985411942005,-2.774117507576942
1789483128447830800,5.115830810546875,-0.31737288200706243,3.336597661325335,-2.2600812128715217
1789483128457880600,5.125880615234375,-1.4265902614489196,2.2460645240873096,-1.6244422994099557
1789483128467929600,5.1359296875,-2.4971520392820237,0.8820213197052478,-0.8131397989198565
1789483128477979600,5.145979736328125,-3.7213597797334192,-0.6210404792666435,0.28835575409829617
1789483128488028400,5.1560283203125,-5.306290883618593,-2.7211896349877116,1.6546382618397473
1789483128498078500,5.166078369140625,-7.109620408278703,-5.947887244179845,3.38139571121186
1789483128508128800,5.176128662109375,-9.570355857050417,-8.877133354148269,5.382036152693629
1789483128518177500,5.186177490234375,-11.286931811887024,-10.395974321532249,6.629519847053289
1789483128528227600,5.1962275390625,-8.783252124401926,-10.805300972354411,6.322215062335133
1789483128538276600,5.206276611328125,-3.524229480175674,-10.875806002688407,4.986515908905863
1789483128548326700,5.21632666015625,-0.19593436777144668,-9.387904363447428,3.521656999339163
1789483128558375700,5.226375732421875,-0.643301995435357,-3.6821249169319867,2.05719556465745
1789483128568425700,5.23642578125,-1.834572804185748,1.8654075029104946,0.1463829858779907
1789483128578474500,5.246474609375,-2.5855773417100307,5.512204501351714,-1.822309388809651
1789483128588524500,5.256524658203125,-2.401879939699173,8.20337893730402,-2.957680469553172
1789483128598573600,5.266573486328125,-2.112579890488088,9.82233389134407,-2.9876193884819746
1789483128608623600,5.27662353515625,-1.9671961447805164,9.537351997593044,-2.9592192234277723
1789483128618673700,5.286673583984375,-0.8344581890195608,6.2313230775326485,-3.959191215252876
1789483128628722700,5.29672265625,1.8320552684068678,0.8589449800223111,-4.543065454685688
1789483128638772700,5.306772705078125,3.747895319959521,-4.880867668998241,-3.621259821602702
1789483128648821500,5.316821533203125,1.8355419414788483,-8.660572670194506,-1.7323076308451593
1789483128658871600,5.32687158203125,-0.9493936049714684,-10.021259549885988,0.32356516077592967
1789483128668920600,5.336920654296875,0.23847470185905695,-9.274833280062674,2.170810107269138
1789483128678970600,5.346970703125,3.0313562388777733,-5.424841275197267,2.4072379596009847
1789483128689019600,5.35701953125,2.8152307314708827,-1.1248790589541195,1.3351743989028035
1789483128699069400,5.3670693359375,3.0402409716010093,1.4710726695150136,0.05759118822515011
1789483128709118700,5.37711865234375,3.9167210237920282,2.4896628525704143,-0.6814119458600878
1789483128719168800,5.387168701171875,4.015352078413963,1.9889193162888288,-1.2725332338117061
1789483128729218800,5.39721875,3.6458398438468573,0.8435895899802446,-1.9176574762381613
1789483128739267600,5.407267578125,3.500008354371786,0.1100415064305067,-2.326719338644296
1789483128749317600,5.417317626953125,3.223348006503284,-0.6296382117420435,-2.8670427517727015
1789483128759366400,5.427366455078125,2.6229496255099773,-1.5419377653330564,-3.0715368580967186
1789483128769416400,5.43741650390625,2.3350360622212287,-1.7147639369785785,-2.658265269041061
1789483128779465700,5.4474658203125,2.529085931420326,-0.8975181640446186,-2.2372379512920975
1789483128789515500,5.457515625,2.5363512462481856,0.002699322086572647,-1.5751409467548132
1789483128799564500,5.467564453125,2.7084032186508176,0.5969938332468271,-1.041662577215582
1789483128809614600,5.477614501953125,2.855923391865194,0.795132140803337,-0.9851623260322958
1789483128819664600,5.48766455078125,3.0642019851639866,0.5468681585967541,-0.9646176237188279
1789483128829713700,5.497713623046875,3.6034827573716637,0.6120996324419975,-0.46333530438542364
1789483128839763700,5.507763671875,3.7715830695390697,0.7869722152233123,0.4437263485521078
1789483128849812500,5.5178125,3.373621862339973,0.8350503096938132,1.1644348973382264
1789483128859862500,5.527862548828125,2.8745962358921764,0.5877011042445898,1.7465730336934326
1789483128869911600,5.53791162109375,2.4153026081129907,0.17478665806353091,2.297535768127441
1789483128879961900,5.5479619140625,2.01216429053694,-0.30316227808594703,2.8789135145694016
1789483128890010600,5.5580107421875,1.2803474146939813,-0.5344155042588711,3.345658335137367
1789483128900060700,5.568060791015625,0.3879962780237198,-0.356934200283885,3.45468101991415
1789483128910109400,5.578109375,-0.38945305270329117,0.006264321091771125,3.306849296532571
1789483128920159500,5.588159423828125,-0.983516531586647,0.4623392790853977,2.9034219328820705
1789483128930209500,5.59820947265625,-1.1438368574023245,0.8782195893347263,1.986395350769162
1789483128940258600,5.608258544921875,-1.0544365724623204,0.7546563380300998,0.8409021044619381
1789483128950308600,5.61830859375,-0.6189291862010955,0.4430845435172319,-0.07975581989064812
1789483128960357600,5.628357666015625,-0.10328267982006073,0.31222061381042004,-0.6380087113328278
1789483128970407700,5.63840771484375,0.3380475673757493,0.2126975787848234,-0.9739674897357821
1789483128980456700,5.648456787109375,0.44187502159699793,0.19343232182264328,-1.0747316108636558
1789483128990506800,5.6585068359375,0.48401671175584193,0.2625906137228012,-0.9225495833180845
1789483129000555500,5.668555419921875,0.6609890432953834,0.33842999082207675,-0.9001743776418268
1789483129010605600,5.67860546875,0.6414473805446177,0.42453357230424876,-0.8111196912690997
1789483129020654600,5.688654541015625,0.5203462085045873,0.6369242770969867,-0.8184836441658436
1789483129030704400,5.698704345703125,0.2918378240603953,0.7555863123565911,-0.7391378663808107
1789483129040754400,5.70875439453125,0.08726787602119147,0.6864736131638288,-0.5215057538032531
1789483129050803700,5.7188037109375,0.03430200950913131,0.6526145981818438,-0.24871508697494862
1789483129060853800,5.728853759765625,0.1409668060481548,0.6934153951257467,0.04387099816948175
1789483129070902500,5.738902587890625,0.3097649642866105,0.7398200034260749,0.2734685660898685
1789483129080952600,5.74895263671875,0.3712731067597866,0.7726432456195353,0.40310879922062154
1789483129091001600,5.759001708984375,0.19062427866458892,0.9691063134402036,0.3825017722606659
1789483129101051600,5.7690517578125,-0.30375377770569173,0.9185352331101894,0.19453063845336435
1789483129111100700,5.7791005859375,-1.072633907932043,0.6568079582184553,0.007683832500874996
1789483129121150700,5.789150634765625,-1.69778942130208,0.38458851540684696,0.03388298037946224
1789483129131199500,5.799199462890625,-2.0773358508884905,0.2594096455991268,0.212651693816483
1789483129141249500,5.80924951171875,-2.1500258240461347,0.22168577188253402,0.3050640200540423
1789483129151299800,5.8192998046875,-1.9725994651287793,0.26420506318211556,0.3322646000601351
1789483129161348600,5.8293486328125,-1.7214157960832117,0.3049514995902777,0.39291093807220456
1789483129171398700,5.839398681640625,-1.478431215584278,0.31664193738400936,0.5744735200114548
1789483129181447400,5.849447509765625,-1.2790776870191096,0.2788268782526255,0.8291134669907391
1789483129191497500,5.85949755859375,-1.1027385388165711,0.20767302862107753,1.097638000807166
1789483129201546800,5.869546630859375,-0.8986077128469944,0.17208675145506858,1.3435954596370459
1789483129211596800,5.8795966796875,-0.7157938156723975,0.1329074182331562,1.584011066430807
1789483129221645600,5.8896455078125,-0.5807120125422254,0.07357669286429881,1.8663462450653314
1789483129231695400,5.8996953125,-0.5424486251214519,0.059733460950851434,2.143531785851717
1789483129241744600,5.90974462890625,-0.6096241822391748,0.06340250485241412,2.429782092103362
1789483129251794700,5.919794677734375,-0.750662884479761,0.06602525457143783,2.708485051715374
1789483129261844500,5.929844482421875,-1.0051835889935492,0.05702654007971286,2.9242911179095503
1789483129271893500,5.9398935546875,-1.2449158896982668,0.017099603360891343,3.1750580228477716
1789483129281943600,5.949943603515625,-1.4372826281160116,-0.14132161083519457,3.4290827605381606
1789483129291992300,5.959992431640625,-1.689950982761383,-0.41572541194856166,3.5633272725939746
1789483129302042400,5.97004248046875,-2.0808007505200803,-0.7973971631258726,3.4888659058496354
1789483129312091600,5.980091552734375,-2.5590894400179383,-1.3817647390335797,3.0747903069347142
1789483129322141400,5.990141357421875,-3.5948832713305947,-2.289281734523177,2.7893919413372874
1789483129332190500,6.0001904296875,-4.044064378157258,-3.3196856894910334,2.9308433160319924
1789483129342240500,6.010240478515625,-3.5906910803377627,-3.9375159745395183,3.4092072627231476
1789483129352289500,6.02028955078125,-2.7513153086602684,-3.7147809858649965,3.6247488327622412
1789483129362339600,6.030339599609375,-1.7405701400168239,-2.8694314004749057,3.3726439572185276
1789483129372389600,6.0403896484375,-0.977685487345606,-2.052356892454624,3.1771842212215065
1789483129382438400,6.0504384765625,-0.7683669565398246,-1.722813972443342,3.108431587512791
1789483129392488400,6.060488525390625,-0.7727262477278709,-1.8184283095926046,2.8776889412105082
1789483129402537500,6.070537353515625,-0.536890369939804,-2.171903309333324,2.2162308190986515
1789483129412587500,6.08058740234375,0.10826689797341824,-2.4855963337838647,0.9347193290613591
1789483129422636500,6.090636474609375,0.017519801534339786,-2.2999843303233383,-0.39356560258865353
1789483129432686600,6.1006865234375,-0.844627700856328,-2.26973123087883,-1.5673152215652166
1789483129442735400,6.1107353515625,-1.148414175255224,-2.3408441639780997,-2.5307965347304937
1789483129452785400,6.120785400390625,-1.137849599686265,-2.3620026873409747,-3.0383196481496095
1789483129462834700,6.130834716796875,-0.988029625096917,-2.286723282212019,-3.2984242902755736
1789483129472884500,6.140884521484375,-0.8422375908493995,-1.7774749524354934,-3.2372207567721603
1789483129482933500,6.15093359375,-0.3028840456664562,-1.1053519361853599,-2.892389666736126
1789483129492983600,6.160983642578125,0.7363689861893653,-0.5922469309806824,-2.671682676757872
1789483129503033300,6.171033447265625,1.5523755727171897,-0.40465456735789773,-2.7986273871943355
1789483129513082600,6.18108251953125,2.3706102105580267,-0.3539443708181381,-2.883103951996565
1789483129523132700,6.191132568359375,2.6794331447541713,-0.12203531108498572,-2.7862866687983274
1789483129533181400,6.201181396484375,2.539733582162857,0.02032031897306442,-2.664922388842702
1789483129543231500,6.2112314453125,2.506053430879116,0.1853010378152132,-2.396356646233052
1789483129553280500,6.221280517578125,2.6121324634194374,0.43402971492409703,-1.9885436148442326
1789483129563330300,6.231330322265625,3.014786212348938,0.5563730690449475,-1.7096049467802046
1789483129573379600,6.241379638671875,2.7318802480891344,0.17349661825299262,-1.384238289540261
1789483129583429600,6.2514296875,1.2136179573759436,-0.646517450350523,-0.7850874243900179
1789483129593478400,6.261478515625,0.6277694952607155,-1.1146569401472806,-0.17314035216122864
1789483129603528400,6.271528564453125,1.219625965619087,-1.1973621113628148,0.1139583876132965
1789483129613578500,6.28157861328125,1.5402680785551666,-0.9419693001896142,0.748075352204591
1789483129623627500,6.29162744140625,0.9487737195074558,-0.8901882595479488,1.8224477743670344
1789483129633677600,6.301677490234375,0.06782002903372049,-0.8588952956616878,3.042839755922556
1789483129643726600,6.3117265625,0.421414855761826,-0.8917027557641267,3.1251223178118464
1789483129653776400,6.3217763671875,1.8406269896581768,-1.2804518979817627,3.294068433153629
1789483129663825400,6.331825439453125,2.350196514213085,-1.3585568819254636,3.5047739613384006
1789483129673875500,6.34187548828125,2.3263611728563904,-1.451433318543434,2.5766461394965647
1789483129683924500,6.351924560546875,2.3455779145017264,-1.3628022644102573,0.7530690688386559
1789483129693974500,6.361974609375,2.292474393084645,-0.6831850930124521,-0.2456526306644082
1789483129704023600,6.3720234375,2.732338513250649,0.3018944501072168,-0.7239229077227414
1789483129714073300,6.3820732421875,2.9108766328021884,1.267370298090577,-0.849490776848048
1789483129724122600,6.39212255859375,3.1229081488937136,1.8907219769090413,-1.2024404375404119
1789483129734172700,6.402172607421875,3.272297038589418,2.349550617524981,-1.5451584809452295
1789483129744222500,6.412222412109375,3.3356481055155394,2.8028338989734647,-1.7825284364327787
1789483129754271500,6.422271484375,3.3240941535830495,3.2002193521112203,-2.0941157207757235
1789483129764321500,6.432321533203125,3.400952060075104,3.5295495061546562,-2.381689092324674
1789483129774370300,6.442370361328125,3.371381974458694,3.8567677826106546,-2.5024375784695145
1789483129784420600,6.452420654296875,3.4956139188051223,4.25993532628119,-2.547609430104494
1789483129794469600,6.4624697265625,3.571645019084215,4.782924596640467,-2.55562644008249
1789483129804519400,6.47251953125,3.357861398628354,5.323227989894152,-2.595918702982366
1789483129814568400,6.482568359375,2.993496171560883,5.571233613425493,-2.7602912267982957
1789483129824618500,6.492618408203125,2.5264731185734273,5.482642306780815,-2.925622366513312
1789483129834667500,6.50266748046875,1.9896008688122033,5.086676657313109,-2.9279163226693865
1789483129844717600,6.512717529296875,1.3016998531937598,4.447951468273997,-2.6645643691852685
1789483129854766600,6.5227666015625,0.4102428888842463,3.5744285123229025,-2.34476411390081
1789483129864816400,6.53281640625,-0.645818069909513,2.5549896034836768,-2.0078591406889257
1789483129874866400,6.542866455078125,-1.8569933103084564,1.3445230958759784,-1.3540316595859825
1789483129884915700,6.552915771484375,-3.3651693835541603,-0.17130232307910917,-0.35496012373194097
1789483129894965500,6.562965576171875,-5.177243063423037,-2.22146375131607,0.8173014486439526
1789483129905014500,6.5730146484375,-7.282178284376859,-5.179095997813343,2.667550983780622
1789483129915064600,6.583064697265625,-9.360568612754344,-8.177705566865205,4.736400161352753
1789483129925113300,6.59311328125,-10.367748928523064,-9.438913835194706,5.580317083591223
1789483129935163400,6.603163330078125,-9.630781391918658,-8.926351850825547,4.5571267132639885
1789483129945212700,6.613212646484375,-6.3435524493962525,-8.723557826417684,2.6294424946606156
1789483129955262500,6.623262451171875,-2.5785972735643385,-8.162094156235456,1.4678018311507999
1789483129965311500,6.6333115234375,-0.8438774670109153,-4.76663747870624,1.1071101780295372
1789483129975361500,6.643361572265625,-1.3421587048321961,-0.2837748560488224,0.41301176907569165
1789483129985410600,6.65341064453125,-1.9267343705326319,2.9248399839639663,-0.8201052540183067
1789483129995460600,6.663460693359375,-1.9970231277674435,5.4002042620688675,-1.6595988068565726
1789483130005510700,6.6735107421875,-1.4479641811281443,7.457305718702077,-1.6637776999764144
1789483130015559400,6.683559326171875,-1.0455854497477413,8.886313854947685,-0.9207543704643845
1789483130025609500,6.693609375,0.08278641975820064,8.475249420547485,-0.8092666107483207
1789483130035658500,6.703658447265625,2.7035721452325583,5.42489271312356,-1.7474524468764663
1789483130045708500,6.71370849609375,4.99262065552175,0.5322136103004217,-2.6447879478305576
1789483130055757600,6.723757568359375,3.442402553099394,-4.416612327158451,-3.037102965836227
1789483130065807600,6.7338076171875,0.019386545254290104,-8.167353684198856,-3.29186653919518
1789483130075856400,6.7438564453125,-1.8136963126346468,-11.408611733663081,-1.9862597416907548
1789483130085906400,6.753906494140625,-0.06746405520290136,-12.285756971764563,0.45448359714895487
1789483130095955500,6.76395556640625,1.6927493813082575,-9.177092452278732,1.2454339222230018
1789483130106005500,6.774005615234375,2.1475734624579546,-4.286146456858516,0.37298093359097834
1789483130116054500,6.784054443359375,3.7141751289263367,-0.50000820774436,-0.6310292277090251
1789483130126104600,6.7941044921875,4.983181211525202,1.3930144473224877,-1.8904513432741163
1789483130136153300,6.8041533203125,4.353248108489812,1.9844979927152393,-2.9802231407508253
1789483130146203400,6.814203369140625,3.3440757421210408,2.4304005162626505,-3.5704850353941318
1789483130156253700,6.824253662109375,2.78717689563632,2.9713211646318434,-3.9320524484366177
1789483130166302500,6.834302490234375,2.3916402852356433,2.738479792484641,-4.625484210175276
1789483130176352500,6.8443525390625,2.4279779652908444,2.231208900260925,-4.685634727494419
1789483130186401500,6.854401611328125,3.005902940930426,1.4956816255927086,-4.5147339709535235
1789483130196451300,6.864451416015625,3.5306364246085282,0.4403080645412206,-4.092764988440275
1789483130206500600,6.87450048828125,3.748976977716386,-0.5778934114575386,-2.848557539272308
1789483130216550700,6.884550537109375,3.883227919512987,-0.83613810493052,-1.1430635349422693
1789483130226599700,6.894599609375,4.214031360979378,-0.7890928606390952,0.3608491087052971
1789483130236649700,6.904649658203125,4.39080334764123,-0.9515490294396877,0.9862081087581813
1789483130246698500,6.914698486328125,4.408666336590051,-0.8428004854291677,1.2550443388722836
1789483130256748800,6.924748779296875,3.7983518339991567,-0.6524579463154078,1.7546973034381865
1789483130266797800,6.9347978515625,2.608158883613348,-0.6712210989743471,2.7779192379474638
1789483130276847600,6.94484765625,1.3408581436276434,-0.5194722021490336,4.008261243370175
1789483130286897700,6.954897705078125,0.21040815267339347,-0.21125439423918724,4.852845105084777
1789483130296946700,6.96494677734375,-0.6368373294658959,0.18875205505192277,5.2715235216200345
1789483130306996500,6.97499658203125,-1.4614906021773815,0.6185697052389383,4.971898770010471
1789483130317045800,6.985045654296875,-2.277342728795856,0.9644219550162553,3.9872491427406667
1789483130327095800,6.995095703125,-2.3287831393063065,1.0374275699943303,2.68253111076951
1789483130337144600,7.00514453125,-1.716611026149988,0.9034072220832109,1.3728878973558545
1789483130347194600,7.015194580078125,-0.8342318329177796,0.564895398196578,0.21449629876986145
1789483130357244000,7.025243896484375,0.04949979783669114,0.3343342459410429,-0.4253011956758797
1789483130367293700,7.035293701171875,0.7005439318314194,0.41231238863468167,-0.545832239677757
1789483130377342700,7.0453427734375,1.1696553354002535,0.6238607973843813,-0.5135274684004485
1789483130387392800,7.055392822265625,1.257437517619133,0.5372884293466806,-0.5787064814060926
1789483130397441500,7.065441650390625,1.1202408777594566,0.5766425346136093,-0.507230414082855
1789483130407491600,7.07549169921875,0.6715059072650968,0.7030021386384964,-0.45541620182394976
1789483130417540900,7.085540771484375,0.3129974434018135,0.7886813572287559,-0.05124094241559505
1789483130427590700,7.095590576171875,-0.008634484289214015,0.8645628199040889,0.19485621714591977
1789483130437640700,7.105640625,-0.27433132039904595,0.815341400617361,0.3476834107272327
1789483130447689700,7.115689697265625,-0.407087931984663,0.6847369986295699,0.5444558367580175
1789483130457739500,7.125739501953125,-0.4014261798959225,0.6474766507714986,0.729683517076075
1789483130467788800,7.135788818359375,-0.4164320989131927,0.6965624609798192,0.8372646247424185
1789483130477838800,7.1458388671875,-0.41315534226484596,0.7687520833998918,0.9020197132475674
1789483130487887600,7.1558876953125,-0.3623077465483919,0.7991951524585486,0.8168933062344789
1789483130497937700,7.165937744140625,-0.32591775178406385,0.7631085245549678,0.5013702898778021
1789483130507986700,7.175986572265625,-0.3818213887810707,0.8064654357224702,0.07097118654102087
1789483130518036500,7.186036376953125,-0.799473969399929,0.7782903115957975,-0.37592780069783327
1789483130528085800,7.196085693359375,-1.4091151027739046,0.7811532998114824,-0.853793150217086
1789483130538135800,7.2061357421875,-1.9839847824960946,0.7368839499741793,-1.2567751081876457
1789483130548184600,7.2161845703125,-2.26230780287981,0.6147445939928293,-1.4473608084075151
1789483130558234600,7.226234619140625,-2.2170283992171287,0.40956747384071346,-1.4214346322514115
1789483130568284000,7.236283935546875,-1.99548174354434,0.19256079968512058,-1.201198036263883
1789483130578333700,7.246333740234375,-1.5837918707221745,-0.055174774733185765,-0.7954125651799142
1789483130588383700,7.2563837890625,-1.114581536823511,-0.28418519041538237,-0.29958982642665505
1789483130598432800,7.266432861328125,-0.8522136259406805,-0.3360749521285295,0.206056094943732
1789483130608482600,7.276482666015625,-0.9378384839951992,-0.15128770905435085,0.76938497447595
1789483130618531600,7.286531494140625,-1.1336159807045012,0.15419687449932098,1.4222951946035027
1789483130628582000,7.296581787109375,-1.2355233535833656,0.4306973556309938,2.1284267173089084
1789483130638630700,7.306630615234375,-1.1621235516559332,0.6185410636663436,2.7742472714364528
1789483130648680700,7.3166806640625,-0.9817494488488883,0.5989426292270421,3.3790023863345384
1789483130658729700,7.326729736328125,-0.848736305218935,0.4013742305129766,3.887851487660408
1789483130668779500,7.336779541015625,-0.8152233271956443,0.12838146524131297,4.199585486997663
1789483130678828800,7.346828857421875,-0.7489619257807731,-0.10054594833254814,4.275703388777375
1789483130688878800,7.35687890625,-0.8230431341011076,-0.29451836838126183,4.1454795105397695
1789483130698927600,7.366927734375,-1.198855564790964,-0.5569985074669123,3.7733056555479765
1789483130708977700,7.376977783203125,-1.6668915942132472,-0.9682143330365419,3.2605981252282854
1789483130719026700,7.387026611328125,-2.159968979781121,-1.3607242890924214,2.7589044486150143
1789483130729076700,7.39707666015625,-3.134288205564022,-2.053224322938919,2.242527582132816
1789483130739126800,7.407126708984375,-3.49323082306087,-2.992922755587101,2.047137404240668
1789483130749175800,7.41717578125,-2.9680531027466057,-3.9049621969372033,2.5830659434109924
1789483130759225600,7.4272255859375,-2.520792734849453,-4.2998809677004814,3.1889018392831083
1789483130769274600,7.437274658203125,-2.299125813797861,-3.9625136376738546,3.298035583218932
1789483130779324700,7.44732470703125,-1.9469401232153176,-3.090302348843217,3.013825258362293
1789483130789373700,7.457373779296875,-1.4471348906971513,-2.455584641879797,2.6486656660467385
1789483130799423700,7.467423828125,-1.0706880345612764,-2.446877019289136,2.3066566476941106
1789483130809472800,7.47747265625,-0.714750444099307,-2.7353233742803336,1.8994959427341818
1789483130819522600,7.4875224609375,-0.2569787651903927,-2.8897943895459175,1.099540619558096
1789483130829571800,7.49757177734375,0.118009635765478,-2.6793653402149675,0.02024213917031884
1789483130839622000,7.507621826171875,0.06599661299884318,-2.2481723100215194,-0.808806445890665
1789483130849670700,7.517670654296875,-0.163842654722929,-1.9892016403615473,-1.7675310660481451
1789483130859720700,7.527720703125,-0.6159813692461699,-1.8160837922930717,-2.628769125443697
1789483130869769700,7.537769775390625,-1.21160106459558,-1.5550070902645587,-3.226637403437495
1789483130879819500,7.547819580078125,-1.6419968069314956,-1.1837947737812995,-3.6164977217674252
1789483130889869600,7.55786962890625,-1.4314227961719035,-0.7024556106716394,-3.539809034362435
1789483130899918800,7.5679189453125,-0.2409703180670738,-0.2946931404262781,-3.1509868269085883
1789483130909968600,7.57796875,1.2020435471773148,-0.07033084281086921,-2.9891116728663443
1789483130920017700,7.588017578125,2.3203835597515106,0.006502221500873566,-3.0265041226714846
1789483130930067700,7.598067626953125,2.8237372785314916,0.18199673557281493,-3.104550362165272
1789483130940116700,7.60811669921875,2.7963457059979437,0.4015975178748369,-2.965169364003837
1789483130950166800,7.618166748046875,2.4666274294197557,0.6895353388220071,-2.4050481944717466
1789483130960215800,7.6282158203125,2.1589489890836178,0.9363976375371217,-1.764114535602927
1789483130970265600,7.638265625,2.456031216603517,0.8280237720578908,-1.365140790360421
1789483130980314600,7.648314697265625,2.6496441556900736,0.11505085902512073,-1.2741513365328312
1789483130990364700,7.65836474609375,1.1566916628003119,-1.6329086605906487,-0.3432482047587633
1789483131000413700,7.66841357421875,1.3036907347500324,-1.6611597725629805,-0.3226107826605439
1789483131010463700,7.678463623046875,0.535759173952788,-1.7765175055801867,0.32275501343682406
1789483131020512500,7.688512451171875,0.05472498513907194,-1.8596008624583482,0.70042629680112
1789483131030562600,7.6985625,-0.1470256676957011,-1.3481237507164479,1.964790106552094
1789483131040612600,7.708612548828125,-0.1764329639658332,-0.767065737748146,3.4590012212008237
1789483131050662000,7.718661865234375,0.9840651053801178,-0.6062094053596258,4.355068894176185
1789483131060711700,7.728711669921875,2.102283245140314,-0.5988526128560304,5.080009600639343
1789483131070760700,7.7387607421875,2.764441039954126,-0.5567804808020591,4.18535208672285
1789483131080810800,7.748810791015625,2.2842808574959634,-0.3101291944891214,2.015193575230241
1789483131090859800,7.75885986328125,1.6351602389097213,0.014575053319334983,0.4618818907067179
1789483131100909800,7.768909912109375,2.1055533528521657,0.5876672019749879,-0.2592375039026141
1789483131110958800,7.778958740234375,2.8032091620266435,1.0422013602674007,-0.50232539864555
1789483131121008600,7.789008544921875,2.9776375081717967,1.43926240375638,-0.3497458962149918
1789483131131057700,7.7990576171875,3.186832631793618,1.6168284634053707,-0.727726099397987
1789483131141107700,7.809107666015625,3.4233953625515103,1.6879250298917292,-1.1381738632045686
1789483131151156700,7.81915673828125,3.579752045433223,1.9505811100661754,-1.4490556296266615
1789483131161206800,7.829206787109375,3.709625502797961,2.2990461726903915,-1.8353157315075397
1789483131171255600,7.839255615234375,3.6992104917675253,2.6950667672157285,-2.114331556461006
1789483131181305600,7.8493056640625,3.682907591742277,3.2070670260488985,-2.3537971690535544
1789483131191355600,7.859355712890625,3.65369611030519,3.733501468425989,-2.4755501560658213
1789483131201405000,7.869405029296875,3.56023982797265,4.2339685258537525,-2.547932086187601
1789483131211454700,7.879454833984375,3.3900410822212694,4.812827567473054,-2.623723532491922
1789483131221503700,7.889503662109375,3.1318378898024557,5.283347230404615,-2.745713835391402
1789483131231553500,7.899553466796875,2.730726986400783,5.385566664907336,-2.9146283865511418
1789483131241602600,7.9096025390625,2.135720235317945,5.100319982740283,-3.004410948807001
1789483131251652600,7.919652587890625,1.2874971403181552,4.402990629041195,-2.8181740914463997
1789483131261701600,7.92970166015625,0.3476686515495181,3.4347482389539477,-2.4085788528159258
1789483131271751700,7.939751708984375,-0.7008993211403489,2.371442131337523,-1.90922077954337
1789483131281800400,7.949800537109375,-1.8850018456965685,1.215379414090514,-1.310423842397332
1789483131291850500,7.9598505859375,-3.2120632269009946,-0.08237842347919941,-0.48487668958604335
1789483131301899800,7.969899658203125,-4.766305762533843,-1.6480618060588836,0.7468535553246736
1789483131311949800,7.97994970703125,-6.583652414369583,-3.5367759502768514,2.424696167141199
1789483131321998600,7.98999853515625,-8.173737832278013,-5.592302120417356,4.112552223449946
1789483131332048600,8.000048583984375,-9.100693687731027,-7.48035224776864,5.14896447892189
1789483131342098700,8.0100986328125,-9.34707317136526,-8.239207206532358,4.648801372876763
1789483131352147500,8.0201474609375,-8.037752321773768,-8.005354611516,2.8835832599461075
1789483131362197800,8.03019775390625,-4.833423488517106,-7.494746099302172,1.6352746590696274
1789483131372246500,8.04024658203125,-1.984662535627186,-4.9485178944230075,1.452676450472325
1789483131382296600,8.050296630859375,-1.7500646752014755,-0.8657833016097545,0.9495805058456956
1789483131392345600,8.060345703125,-2.1625658644065258,2.403071779832244,-0.583364536345005
1789483131402395600,8.070395751953125,-2.07056708740592,5.103486337816715,-1.4875043104864656
1789483131412444700,8.080444580078124,-1.5959785676002503,6.986504316219687,-1.870275547338277
1789483131422494700,8.09049462890625,-1.292814535948634,7.966808900022507,-1.5440791612759233
1789483131432543500,8.10054345703125,-0.9174147046476602,7.13780722284317,-1.2682071873061358
1789483131442593500,8.110593505859375,0.6489636744588613,3.2776562275350094,-1.48095006653741
1789483131452642600,8.120642578125,2.0974542175486683,-2.531665426519513,-0.664326371024549
1789483131462692600,8.130692626953126,2.4612735011711715,-7.817804917991161,0.9386936395198107
1789483131472742700,8.14074267578125,1.4403560442119836,-11.834026764976977,1.3804695846565067
1789483131482791700,8.150791748046874,0.6908417452454566,-13.135158462893962,1.5913124754853545
1789483131492841700,8.160841796875,2.739533685451746,-8.537937055128813,2.050976544012129
1789483131502890500,8.170890380859374,3.425558970326185,-2.586999775728583,0.020637568228691814
1789483131512940500,8.1809404296875,3.1205665542036294,0.6545002657979726,-3.0166496681332586
1789483131522989600,8.190989501953124,4.182071749877929,2.4810481689602133,-4.0495103686034675
1789483131533039600,8.20103955078125,4.662287169654667,2.9320927315711973,-4.250725307126343
1789483131543088600,8.211088623046875,4.13292748748064,2.2673370292186736,-4.469786867985129
1789483131553138700,8.221138671875,3.828105751749873,1.9739479571282863,-4.187619154872
1789483131563187700,8.231187744140625,3.9239471756532787,1.4657915142416953,-3.9699943488180636
1789483131573237800,8.24123779296875,3.9458264145061372,0.6183604464024305,-3.6141304081141947
1789483131583286500,8.25128662109375,4.165329581652581,-0.4121463844180107,-2.976752542030811
1789483131593336600,8.261336669921874,4.403835847693681,-0.7783902648389339,-2.038572697252035
1789483131603386600,8.27138671875,4.430981336511671,-0.7755062338352203,-0.8225428564287721
1789483131613435400,8.281435302734375,4.151030130404234,-0.5490221217602491,0.16793007016703485
1789483131623485400,8.2914853515625,3.435174939933419,-0.3657382689863443,0.6283019216369837
1789483131633534700,8.30153466796875,3.3638734985247254,-0.5853893201708793,0.6471832207828759
1789483131643584800,8.311584716796874,3.7343937410905954,-0.5173766911745071,0.6557345568332821
1789483131653633500,8.321633544921875,3.532436459767818,-0.23963117841780185,0.9435714746892452
1789483131663683600,8.33168359375,2.9956594870746134,0.21702771694362163,1.4047108764655887
1789483131673732600,8.341732666015625,2.1255308497369287,0.5072960266649723,1.8175065185725687
1789483131683782700,8.35178271484375,1.380886933285743,0.5815922659754753,2.2478011386215684
1789483131693831700,8.361831787109375,0.9647921035028993,0.6085077454298734,2.664243466667831
1789483131703881500,8.371881591796875,0.2140133375585079,0.5639882202237844,2.8004695079296824
1789483131713930500,8.381930419921876,-0.6548654458485543,0.4621750284343958,2.545343823260069
1789483131723980500,8.39198046875,-1.3774093203030526,0.22397300603687761,1.8354399424090981
1789483131734030800,8.40203076171875,-1.7234943559229372,0.09253332226872443,1.0843030106768012
1789483131744079600,8.41207958984375,-1.5518025951348244,-0.017343933510780334,0.4130044625520706
1789483131754129700,8.422129638671874,-1.0396611742652953,-0.1667927367001772,-0.14350538461506365
1789483131764178400,8.432178466796875,-0.31780455142259595,-0.22320903592705726,-0.342846784351021
1789483131774228500,8.442228515625,0.4232651598036289,-0.13283026134371756,-0.4459273657277226
1789483131784277800,8.45227783203125,0.9433670381583272,0.10755611935555934,-0.346781055060029
1789483131794327600,8.46232763671875,1.1916938564680517,0.37793490273654456,-0.23002982185781
1789483131804376600,8.47237646484375,1.3101602230250835,0.6544166791677475,-0.18595292585268616
1789483131814426600,8.482426513671875,1.111300177065283,0.950181248217821,-0.23163696479350326
1789483131824475600,8.4924755859375,0.771817900711298,1.0893132400542498,-0.25658158256635066
1789483131834525700,8.502525634765625,0.4950641754709184,1.0700351236104964,-0.14008593156039714
1789483131844574700,8.51257470703125,0.2582102066814899,1.0817366673201323,-0.007092296348512172
1789483131854624500,8.52262451171875,0.1271031158685684,1.0910106916218996,0.02773103362098336
1789483131864674600,8.532674560546875,0.07201192776560783,1.1116893225133417,0.058112143359333276
1789483131874723600,8.5427236328125,0.007511215880326926,1.1456517978698015,0.10377850051298737
1789483131884773600,8.552773681640625,0.005962123274803161,1.11725046377182,0.018246727569401263
1789483131894822700,8.56282275390625,-0.030517924393154677,0.7970400202512741,-0.18435162813588976
1789483131904872700,8.572872802734375,-0.2531435709416866,0.8419166883319615,-0.20696093482896685
1789483131914921500,8.58292138671875,-0.7010474974393844,0.981284242489934,-0.25095453646481036
1789483131924971500,8.592971435546875,-1.220961598137021,0.8908195431888103,-0.5623794698528946
1789483131935020800,8.603020751953125,-1.7683955739229917,0.7727946367889642,-0.8477914255842566
1789483131945070600,8.613070556640626,-2.346578908237815,0.4558288742780685,-1.0260122958801685
1789483131955120600,8.62312060546875,-2.8891245274603365,-0.08915595479011536,-1.0806741526551544
1789483131965169700,8.633169677734376,-3.174644765871763,-0.6223235048145055,-0.9709522335678339
1789483131975219700,8.6432197265625,-3.371273837909102,-0.9285743965655565,-0.6751514241605997
1789483131985268500,8.6532685546875,-3.361264485070109,-0.954894248214364,-0.1530783918634057
1789483131995318500,8.663318603515625,-3.244927093365788,-0.7005980001062154,0.574922432822734
1789483132005367600,8.673367431640624,-3.0085727446615693,-0.3300982158064842,1.4781307713329792
1789483132015417600,8.68341748046875,-2.501165074315667,0.0349608387440443,2.411536825838685
1789483132025466600,8.693466552734375,-1.7615877936042845,0.38892800591588017,3.2215511862143873
1789483132035516400,8.703516357421876,-0.8468290102928876,0.6882032134354115,3.829280348487198
1789483132045565700,8.713565673828125,0.06118183312825858,0.8545137195765972,4.3379093773216
1789483132055615700,8.72361572265625,0.7335450878750532,0.7207336101621389,4.663603512950242
1789483132065665800,8.733665771484375,0.9718296009242534,0.36071021169126033,4.781600654560327
1789483132075714600,8.743714599609374,0.6935427478324622,-0.32506197520494456,4.655711006134748
1789483132085764600,8.7537646484375,-0.1309909170873463,-1.1761778690367937,4.273184099432826
1789483132095813600,8.763813720703125,-1.4903700751811264,-1.9084329901665449,3.526985793146491
1789483132105863700,8.77386376953125,-3.107387339156866,-2.378395603737235,2.458309098407626
1789483132115912700,8.78391259765625,-4.835957098647952,-2.7458792550861832,1.376270963922888
1789483132125962500,8.79396240234375,-5.585329943317174,-3.149273008728027,0.44127625198625026
1789483132136011500,8.804011474609375,-5.4480251669079065,-3.6496126403838396,0.36078875682018696
1789483132146061600,8.8140615234375,-4.675969365787505,-3.9631905140221115,1.4725715297706425
1789483132156110600,8.824110595703125,-3.4908535725355145,-3.8059856898784634,2.9614737243562934
1789483132166160600,8.83416064453125,-2.202417105540633,-3.1636399722546336,3.5994881347775456
1789483132176210700,8.844210693359376,-0.9998159244805573,-2.093956146299839,3.6925972111076115
1789483132186259500,8.854259521484375,-0.3594032207459211,-1.248492579141259,3.6447014874666928
1789483132196309500,8.8643095703125,-0.1591764895427972,-0.9064870679199695,3.6692923233658075
1789483132206358800,8.87435888671875,-0.17077749548740684,-1.0008546198785304,3.498771506053209
1789483132216408800,8.884408935546874,-0.03798698163218796,-1.2958978889167307,2.659393980810046
1789483132226457600,8.89445751953125,0.5502729255389421,-1.6575070952743292,1.0061188240170478
1789483132236508200,8.904508056640625,0.7121697799563408,-1.5603712476462124,-0.40329438492059705
1789483132246557000,8.914556884765625,-0.2262602036586031,-1.4170990872651337,-1.372985074120015
1789483132256607000,8.92460693359375,-1.5380220531940458,-1.4503677351385353,-2.4551325141981244
1789483132266657000,8.934656982421876,-2.2825030341684815,-1.3257149350315331,-3.095788671299815
1789483132276706000,8.9447060546875,-1.232177988678217,-1.2472680057823657,-3.0508763473838565
1789483132286756000,8.954756103515624,0.5597557702858,-1.3338754451334476,-2.790757384471595
1789483132296805000,8.96480517578125,2.0069360344946383,-1.442024269685149,-2.6939547143205997
1789483132306855000,8.97485498046875,2.94478854701519,-1.4152566742688417,-2.817313382963836
1789483132316904200,8.984904296875,2.988287497001886,-1.571383055526018,-3.17266411344856
1789483132326954200,8.994954345703125,2.8078105183422566,-1.903731096085906,-3.76130659019649
1789483132337003000,9.0050029296875,2.788081735521555,-2.053100404298305,-4.1006192090719935
1789483132347053000,9.015052978515625,2.9292320814430712,-1.6198685617536306,-3.6957603513136505
1789483132357103000,9.02510302734375,2.6675170815110203,-0.6835784762442112,-2.8410125307202336
1789483132367151900,9.03515185546875,2.274813064187765,-0.558088056269288,-2.2309809367239475
1789483132377202000,9.045201904296874,1.4920043983846902,-0.6223387023836374,-1.0977842774100601
1789483132387251200,9.055251220703125,1.4084709596514702,-0.658520607355237,-0.40604061488881704
1789483132397301000,9.065301025390625,1.7611223680496215,-0.5319119970053434,-0.010360212103277444
1789483132407350000,9.07535009765625,1.377230310474336,-0.4045031761884689,1.1815062244527041
1789483132417400000,9.085400146484375,0.2750184258803725,-0.5589765295416116,2.448716655806452
1789483132427449000,9.095448974609376,0.18532412642985582,-0.7920657389700412,2.9644688145190474
1789483132437499100,9.1054990234375,1.66664375693202,-1.1900783840954303,3.4890845170363782
1789483132447549200,9.115549072265624,2.972655335845053,-1.5748697285979985,4.439148860876262
1789483132457598000,9.125597900390625,3.6752562002062796,-1.916724433171749,4.207197423306107
1789483132467648000,9.13564794921875,3.5236557719409465,-1.8606576780349016,2.5846885761767626
1789483132477697000,9.145697021484375,3.1661195141106844,-0.9947019424676895,0.4120663049191236
1789483132487747000,9.1557470703125,3.179914815229177,0.12438508908152579,-0.7685385867796838
1789483132497796000,9.165796142578126,3.4105724135965105,1.325849375066161,-1.1036243817403912
1789483132507846100,9.17584619140625,3.460794534358382,2.4737340465545654,-1.1055442438870668
1789483132517895000,9.18589501953125,3.593191080459952,3.0827918270826338,-1.4842277730338274
1789483132527945000,9.195945068359375,3.7179654611200093,3.5871184825479983,-1.8695469408027827
1789483132537995000,9.2059951171875,3.686820381271839,4.00644279577136,-2.126853184381872
1789483132548044000,9.2160439453125,3.6718133662760257,4.349979169821739,-2.382646685310453
1789483132558094000,9.226093994140625,3.7312852536812424,4.448812469017505,-2.6230104157865046
1789483132568143000,9.23614306640625,3.7984243147134777,4.5046910081058735,-2.560582308924198
1789483132578193200,9.246193115234375,3.826960965628922,5.0305672320783135,-2.6140415119111537
1789483132588242200,9.2562421875,3.7209082365736363,5.392685557001829,-2.7196590644195675
1789483132598292200,9.266292236328125,3.5567794583857055,5.650645588314533,-2.98760886708796
1789483132608341000,9.276341064453124,3.2875364010363817,5.717374022719263,-3.1626728807881475
1789483132618391000,9.28639111328125,2.9183249029815195,5.580961811235547,-3.263852158588171
1789483132628441000,9.296441162109375,2.365185701291263,4.980055188459158,-3.304290259699523
1789483132638489900,9.30648974609375,1.4731556132689116,3.7567046493589875,-3.2273943592846392
1789483132648540000,9.316539794921875,0.3061722735568881,2.010624367618561,-3.0822330241560936
1789483132658589200,9.326589111328126,-1.1698331761851906,0.021389409509301183,-2.696266790655255
1789483132668639200,9.33663916015625,-2.948939821475744,-2.5383114404052494,-1.725050353193283
1789483132678688000,9.34668798828125,-5.483190588313341,-6.315623993507027,0.5697459800329059
1789483132688738000,9.356738037109375,-9.000586130815744,-9.612818449726701,3.9703579214334486
1789483132698788000,9.3667880859375,-11.96237140533924,-10.441903713536261,6.04894114203453
1789483132708837000,9.376837158203125,-11.083969445174931,-9.698351537844538,5.904351469314098
1789483132718887200,9.38688720703125,-7.634768902498483,-8.5314143753618,4.330098119048774
1789483132728936000,9.39693603515625,-3.9012496061548587,-7.000581941410899,1.200612637591362
1789483132738986000,9.406986083984375,-1.6694491697415708,-4.324977415034175,-0.32093298564143474
1789483132749035000,9.417034912109376,-1.374460845761001,-0.6642477528303862,-0.6771534116327762
1789483132759085000,9.4270849609375,-1.7509245069012045,2.21913326254189,-1.1009642226204275
1789483132769134000,9.437134033203124,-2.582966574689746,4.2250393694669,-1.794093640411645
1789483132779184000,9.44718408203125,-2.4401599859938026,5.67952155418694,-2.2258932581961153
1789483132789234200,9.457234130859375,-1.572586001574993,6.648134531152248,-2.21664349155277
1789483132799283000,9.467282958984375,-0.8486100484907627,6.913988530585169,-1.8103149996332824
1789483132809333000,9.4773330078125,0.5731693055450916,6.388238563340902,-1.5687915777280925
1789483132819382300,9.48738232421875,3.3133129395887253,5.473632486373186,-1.5392739529512822
1789483132829432000,9.49743212890625,6.068330902159214,3.8559903684973715,-1.8976419854305684
1789483132839481000,9.507481201171874,4.6388507644876835,0.2507563835442066,-3.0077526604503393
1789483132849531100,9.51753125,0.18419892179220915,-3.9801843189209696,-3.2084342227488754
1789483132859581000,9.527580810546874,-1.5150199477910995,-8.280577327796816,-1.9138966623999176
1789483132869630200,9.537630126953125,-0.7445274504646658,-13.967433462655544,1.276584993420541
1789483132879680300,9.54768017578125,1.266920800757408,-17.586043646532296,4.194572919532656
1789483132889729000,9.55772900390625,1.8878487595602869,-14.477653267812729,4.005668888789415
1789483132899779000,9.567779052734375,2.42590188966915,-6.51517392142713,2.845779014469683
1789483132909828000,9.577828125,3.846211317282915,-1.124085862749815,-0.07116875493973493
1789483132919878000,9.5878779296875,3.21552184292227,1.5594704994142055,-2.5932828015208242
1789483132929927200,9.59792724609375,1.799167436544597,3.7332536311447617,-4.101608804631233
1789483132939977200,9.607977294921875,1.0125003417477012,5.5369046428442,-4.865843702867627
1789483132950027000,9.618027099609375,0.7411246562838554,6.597690292072296,-5.329867574039102
1789483132960076000,9.628075927734375,2.688624459208548,5.81236525953412,-5.295797546654939
1789483132970126000,9.6381259765625,2.6778043745085593,5.831513612118363,-5.18650773537457
1789483132980175000,9.648175048828126,3.8759213958919045,3.846898715025186,-4.387431825381517
1789483132990225200,9.65822509765625,4.613199898141622,1.8085533967882395,-2.9574925457656382
1789483133000274200,9.668274169921874,5.106810513803363,0.26657763753235336,-1.2364292163819073
1789483133010324000,9.678323974609375,5.5144788760244845,-0.9128513422548771,-0.16790705461762845
1789483133020374000,9.6883740234375,5.420636224722862,-1.8348831853091716,0.5313954257853329
1789483133030423000,9.698423095703125,5.112777897775173,-2.2244646866977216,1.0949623518571256
1789483133040473000,9.70847314453125,4.771656768172979,-2.1092910780757665,1.3875149731233716
1789483133050522000,9.718522216796876,3.9892005690693852,-1.9822031597763299,1.877042703385651
1789483133060572200,9.728572265625,2.8049136278569695,-1.8098937054812907,2.659425544992089
1789483133070621000,9.738620849609376,1.0408766875348985,-1.1634943285524844,3.707841834251582
1789483133080671000,9.7486708984375,-0.7469464943051338,-0.08706862712204456,4.4579830329447985
1789483133090721000,9.758720947265624,-2.1055380091525615,1.0517074397593735,4.686533137638866
1789483133100770000,9.76877001953125,-3.4367689311265943,1.8370207818597555,4.471885301569104
1789483133110820000,9.778820068359375,-4.147281007003784,2.072508284601569,3.66046545830965
1789483133120869000,9.788869140625,-4.17091790317893,1.587284389013052,2.2745001988463103
1789483133130919000,9.7989189453125,-3.312943814015388,0.6768108818054199,0.8282163720205425
1789483133140968200,9.80896826171875,-1.5152642779409884,-0.08494973527193068,-0.15704159640595317
1789483133151018200,9.819018310546875,0.42818106196112926,-0.7005711120992899,-0.6463555377870798
1789483133161068000,9.829068115234374,1.737004994881153,-0.8805155913174152,-0.7296905313387513
1789483133171117000,9.839116943359375,2.520477093029022,-0.5476549250602721,-0.6356020885825157
1789483133181167000,9.8491669921875,2.777542805850506,-0.2277560317069292,-0.8939327067732811
1789483133191215900,9.8592158203125,2.585951727980375,0.2851858918905258,-0.8842284743607044
1789483133201266200,9.86926611328125,2.192900504654646,0.8386988953292369,-0.8159291373774409
1789483133211315200,9.879315185546876,1.7347978402256965,1.2283166370749472,-0.8572083654880523
1789483133221365000,9.889364990234375,1.1388741934936493,1.312937871044874,-0.8574068106696009
1789483133231414000,9.8994140625,0.42195583077073096,1.1691817265391349,-0.8702877734221518
1789483133241464000,9.909464111328125,-0.13228314885497092,0.8543190737873315,-0.8936908608414232
1789483133251513900,9.919513916015624,-0.6252957986235618,0.5790414124488831,-0.7741501430511474
1789483133261563100,9.929563232421875,-1.1263327648937702,0.31618951744139195,-0.5457571286149323
1789483133271613200,9.93961328125,-1.7006138310730456,0.10338380210697651,-0.25102599426582456
1789483133281662000,9.949661865234376,-2.3383926791727543,0.137773562964797,0.1011202410891652
1789483133291712000,9.9597119140625,-2.825067942613363,0.31216391518712044,0.4458556156657636
1789483133301761000,9.969760986328126,-2.865784568405151,0.4814356092214584,0.7234238721594214
1789483133311811000,9.97981103515625,-2.520059159877896,0.5872843401372433,0.9220692524552345
1789483133321861000,9.989861083984374,-2.0402613809913395,0.5023644154816865,0.9917438233144581
1789483133331910100,9.99991015625,-1.6470938378095625,0.39813305663466453,0.8872752947106957
1789483133341960000,10.0099599609375,-1.2838736891239881,0.4014735992342233,0.7917237936645746
1789483133352009000,10.020009033203126,-1.0501637174487113,0.3947065893173218,0.6609918197743594
1789483133362059000,10.03005908203125,-0.9084598292976618,0.3417804702937603,0.41965646778717636
1789483133372108000,10.04010791015625,-0.8341676816403866,0.1968120273888111,0.13811930766254663
1789483133382158000,10.050157958984375,-0.9056073624759912,0.053284430941939354,-0.007585486692935228
1789483133392208100,10.0602080078125,-1.2062070965975522,-0.04800795184373855,0.03021583617404103
1789483133402257000,10.0702568359375,-1.5647095691114663,0.07544307125806808,0.33940110087655484
1789483133412307000,10.080306884765625,-1.865190645289421,0.34485154830217357,0.8480009036164731
1789483133422356200,10.090356201171875,-2.0501275259673593,0.6135369717687368,1.4830955541335045
1789483133432406300,10.10040625,-2.1257401085734364,0.8416215047776698,2.343065347158909
1789483133442455000,10.110455078125,-2.1575462826788425,1.007230000129342,3.2569711669027805
1789483133452505000,10.120505126953125,-1.9642285271465778,1.0973837337851524,4.243574558588862
1789483133462555100,10.13055517578125,-1.5145552528887987,1.1745365315705538,5.056682501065731
1789483133472604200,10.140604248046875,-0.9691016372650861,1.0531833575308323,5.260488332864642
1789483133482654200,10.150654296875,-0.8232973280578851,0.629997108182311,4.775338087034225
1789483133492703000,10.160702880859375,-1.2314518663607537,-0.05608545983731746,3.6443273934572935
1789483133502753000,10.1707529296875,-2.013877816456556,-0.8567845871180295,2.286398288041353
1789483133512802000,10.180802001953126,-2.9051632235914466,-1.6544593981415032,0.9395717375285922
1789483133522852000,10.19085205078125,-3.68045902954638,-2.2579081066161395,-0.27603688220791517
1789483133532902000,10.20090185546875,-3.9579596276313063,-2.8335879336774346,-0.48545054395124315
1789483133542951200,10.210951171875,-3.8949300477445123,-3.6135932324975726,0.5682311915557832
1789483133553001200,10.221001220703124,-3.2801962674066423,-4.396872438421846,2.371234041544795
1789483133563050000,10.231050048828125,-1.7171039242334663,-4.228853374797105,3.7407279125481843
1789483133573100000,10.24110009765625,-0.008598390062525867,-3.111510556566715,4.280371965110302
1789483133583149000,10.251149169921876,0.8721089974999428,-1.865181292939186,4.424917798689007
1789483133593199000,10.26119921875,0.9157371268242597,-1.3141320492655038,4.190848053790629
1789483133603249200,10.271249267578124,0.7098264317005872,-1.4561346281021832,3.365938322100043
1789483133613298200,10.281298095703125,0.5840921199671923,-1.8692799604296684,1.8579232846349476
1789483133623348000,10.291347900390624,0.4669529103606939,-2.144180605149269,-0.01738426552116871
1789483133633397000,10.30139697265625,-0.0476707192460075,-1.873085197931528,-1.742511337212473
1789483133643447000,10.311447021484375,-1.3995295283049345,-1.1631646582067012,-2.867780710658431
1789483133653497000,10.3214970703125,-2.5296990948826075,-1.3595552453130484,-3.90327059058845
1789483133663546000,10.331546142578125,-2.0344868892431256,-2.1126187611937524,-4.2394530947446825
1789483133673596200,10.34159619140625,-0.8151601988315582,-2.9228841737210747,-3.804395790338516
1789483133683645000,10.35164501953125,0.3159446027696132,-3.288577434521913,-3.1675700051799414
1789483133693695000,10.361695068359374,1.1893347991865129,-3.3128596428632733,-2.9429858815073966
1789483133703744300,10.371744140625,1.7066623174570499,-3.3301316801816223,-2.540895903940499
1789483133713794000,10.3817939453125,1.7716649509824811,-2.9201936194628475,-1.9321818222835658
1789483133723844000,10.391843994140626,2.1259528745412823,-2.1979215476870535,-1.3278392337091267
1789483133733893000,10.40189306640625,2.298742367438227,-1.0284621732503174,-1.1405310938552022
1789483133743943000,10.41194287109375,2.806210389669239,-0.15341887586414812,-1.0761056756958365
1789483133753992200,10.4219921875,3.337836555470526,0.5117530060738325,-0.6049696344316006
1789483133764042200,10.432042236328124,2.831856872101128,0.8090858473539352,-0.20558380125686526
1789483133774091000,10.442091064453125,1.6256275636717676,0.27562369829714295,0.26416122404038905
1789483133784141000,10.45214111328125,2.082840585784614,-0.12659984252154827,0.20643895678147672
1789483133794191000,10.462191162109375,1.9566170292295515,-0.08946633591353893,0.6036582595720886
1789483133804240000,10.472239990234375,0.4242886576324701,-0.2047469120413065,1.6848931148499249
1789483133814290000,10.4822900390625,-0.12984890744537114,-0.6447633001595735,2.588296245279908
1789483133824339200,10.492339111328125,-0.08534370302557945,-0.7606161232173443,4.4315901160597795
1789483133834389000,10.502388916015626,1.9985037217140196,-1.2265069573044776,4.56256861205697
1789483133844439000,10.51243896484375,3.7465851141437887,-1.7870348079413174,3.162270437467098
1789483133854488000,10.522488037109374,3.1762714902907607,-1.4043278684973717,1.1905799038767815
1789483133864537900,10.532537841796875,2.3802263262957335,-0.8741688526391983,-0.538189615970105
1789483133874587100,10.542587158203125,2.3427058661967513,-0.40409108825623985,-1.5960687301017342
1789483133884637200,10.55263720703125,2.953345362958312,0.43069092589020724,-2.1619034549750387
1789483133894686000,10.56268603515625,3.1355536954551932,1.3192536300629376,-1.9686223781913519
1789483133904736000,10.572736083984376,3.2417636608988043,1.7310609917849302,-1.7949771452479064
1789483133914786000,10.5827861328125,3.50626741476655,1.869828826484084,-1.5863433087706564
1789483133924835000,10.5928349609375,3.821549754235148,2.0890198589414357,-1.3880319827347993
1789483133934885000,10.602885009765625,4.311586603063344,2.5334791979432105,-1.267037559004873
1789483133944934100,10.61293408203125,4.608090007781982,3.148240743070841,-1.2485175674520432
1789483133954984200,10.622984130859376,4.454407512545585,3.55727454842627,-1.5238400908455252
1789483133965033000,10.633032958984375,4.393279966887832,3.8681671285033223,-1.8720793818898498
1789483133975083000,10.6430830078125,4.40765248337239,4.3336178176075215,-2.0845449054844676
1789483133985133000,10.653133056640625,4.124003591790795,4.691644489303231,-2.4297036200396716
1789483133995182000,10.66318212890625,3.5856536706924436,4.865027710309624,-2.8976775440111755
1789483134005232000,10.673232177734375,2.8069916031748057,4.862829908004403,-3.3240883083641526
1789483134015281000,10.683281005859374,1.8744462571516631,4.449969237837196,-3.60039414370656
1789483134025331000,10.6933310546875,0.7686264111936092,3.632852644240856,-3.5324709465593096
1789483134035381000,10.703381103515625,-0.38934623132795093,2.55019126329124,-3.2481901868149636
1789483134045430300,10.71343017578125,-1.4277128357380628,1.2605296384155749,-2.8187895929962394
1789483134055480000,10.72347998046875,-2.4793627000913023,0.003805237501859665,-2.084365895655751
1789483134065529000,10.733529052734376,-3.4992458455666897,-1.1884534132421016,-0.9165672940380871
1789483134075579100,10.7435791015625,-4.463197844983637,-2.1078736124932766,0.6001484978854655
1789483134085628200,10.753628173828124,-4.90854594951868,-2.6009014598309994,2.1084658792980013
1789483134095678200,10.76367822265625,-4.705071249370277,-2.795444373244047,3.070297087168693
1789483134105728300,10.773728271484375,-4.578587726704776,-2.5488082845002413,3.117363374248147
1789483134115777000,10.783777099609376,-5.079765270489454,-1.9838357294142246,2.7569500996768475
1789483134125827000,10.7938271484375,-5.642701935833692,-1.7230197241485117,2.5790280661970377
1789483134135876000,10.8038759765625,-5.62920415635705,-2.1691537183642384,2.464523150616884
1789483134145926000,10.81392578125,-5.123317996490002,-3.39901057061851,2.386174713306129
1789483134155976000,10.823975830078124,-4.210730565868317,-4.518990167093277,2.8788129768043755
1789483134166025200,10.834025146484375,-3.521798453636467,-4.203937544727325,3.490727315807342
1789483134176075000,10.844074951171875,-2.9527699011579154,-2.2384049492448566,2.8104619096338745
1789483134186124000,10.8541240234375,-2.750600146128237,0.9277163184314966,1.5337836849719284
1789483134196174000,10.864174072265625,-2.9497216195031997,3.906076295658946,0.9905724414475262
1789483134206223000,10.87422314453125,-3.223562526036799,6.1665849401623,0.8480763800054788
1789483134216273200,10.884273193359375,-0.7689780011102557,7.056938619405031,0.36083792972415685
1789483134226323200,10.8943232421875,4.63717903188318,5.540161014291644,-0.7524686187274754
1789483134236371500,10.904371337890625,5.595363846075535,1.5432798275917767,-2.7534377076417207
1789483134246421200,10.914421142578124,4.035018901914358,-2.5844734721213576,-4.77797778788805
1789483134256470500,10.924470458984375,3.5284319003015754,-6.84274466458261,-6.311703605192899
1789483134266520600,10.9345205078125,2.0289917989581823,-11.911229247123002,-6.9219982340395445
1789483134276570600,10.944570556640626,-1.5132351102009414,-15.361602340710162,-4.637255311989784
1789483134286619400,10.954619384765625,-3.788792855276167,-13.57657302737236,-0.7819302024681121
1789483134296669400,10.96466943359375,1.128685173238814,-6.552348929089307,0.9244554169394076
1789483134306718500,10.974718505859375,5.558800832831859,0.32614860139787194,0.828339925334975
1789483134316768500,10.9847685546875,4.552163537898659,3.261276170620322,-0.7303633160337806
1789483134326817500,10.994817626953125,3.573161268866062,3.267512434661388,-2.63478736281991
1789483134336867300,11.004867431640625,4.579179555118084,3.795676477310061,-2.7775770003810525
1789483134346917400,11.01491748046875,4.823349838270246,3.9518782618910073,-2.277355588277429
1789483134356966400,11.02496630859375,5.195417602539062,3.657938570180535,-1.9111562776505946
1789483134367016400,11.035016357421876,5.38470098798871,2.833012764137983,-1.5509192364290356
1789483134377065500,11.0450654296875,5.171417133748531,1.705568238610029,-0.9601705811820924
1789483134387115500,11.055115478515624,5.1732314896941185,0.6443167254358529,-0.7732087705478071
1789483134397165600,11.06516552734375,5.1666988730549805,-0.20897534339129922,-0.700896617726609
1789483134407214300,11.07521435546875,4.493694105534256,-0.7635404862314462,-0.2327875230681151
1789483134417264400,11.085264404296876,3.6949990115523335,-1.2660790892362594,0.35667883728332817
1789483134427313700,11.095313720703125,3.209587484437227,-1.5579022271841763,0.8372029576830565
1789483134437363500,11.105363525390626,2.6467525259017943,-1.3388549871116875,1.3929557028725743
1789483134447412500,11.11541259765625,1.7875675996437668,-0.7904565502077341,1.7526489926062523
1789483134457462500,11.125462646484374,0.49750426209941506,-0.1147515838176012,2.075726662126183
1789483134467512300,11.13551220703125,-0.8963000204265117,0.5719833106309176,2.387264408238977
1789483134477561600,11.1455615234375,-1.8730698542319237,0.8923404691457748,2.5522633933901786
1789483134487611600,11.155611572265625,-1.7911095100343226,1.0908388421863318,2.4746266114801165
1789483134497660400,11.165660400390625,-1.3166509002186357,1.007245197698474,1.9304918233700095
1789483134507710500,11.17571044921875,-1.0291254594646393,0.4735808040678501,1.0432355256207286
1789483134517760500,11.185760498046875,-0.5685571355745196,-0.015517887127399444,0.2567923027075827
1789483134527809300,11.195809326171876,-0.06064999127388,-0.3352075216442346,-0.37045652967989445
1789483134537859300,11.205859375,0.25833193336501714,-0.6320610549747944,-0.8258756541132927
1789483134547908600,11.21590869140625,0.4810137305475771,-0.3335352045178413,-0.9194960409663617
1789483134557958400,11.22595849609375,0.593632393989712,0.07538169645965098,-0.9824538707911967
1789483134568008400,11.236008544921875,0.5975345159947871,0.45730303848385806,-0.9151176797516644
1789483134578057500,11.246057373046876,0.7162624560974538,0.7512000600963831,-0.720481681227684
1789483134588107300,11.256107177734375,0.8397931933719665,0.9956728333264588,-0.5309095419645309
1789483134598156500,11.266156494140626,0.7749404166460037,1.078361637929082,-0.3030263767465949
1789483134608206600,11.27620654296875,0.5850678331315518,1.011581181076169,-0.08457637191489338
1789483134618255400,11.28625537109375,0.270336770870164,0.8982137450933456,0.13114844573661685
1789483134628305400,11.296305419921875,-0.08440846800208092,0.8195031964719295,0.38497590728923675
1789483134638355500,11.30635546875,-0.49110352821163833,0.671902066975832,0.6340552975319326
1789483134648404500,11.316404541015626,-0.9173509917616843,0.5873264257133006,0.7704137330017984
1789483134658454500,11.32645458984375,-1.3322469671487807,0.5451438190221786,0.7768985649764537
1789483134668503600,11.336503662109376,-1.6176947248458862,0.6391092199206352,0.7347929690442979
1789483134678553300,11.34655322265625,-1.8093349025547503,0.7619961793988943,0.6537970859646797
1789483134688603400,11.356603271484374,-1.9131518353819845,0.8282967437803744,0.5422969051584601
1789483134698652400,11.36665234375,-2.034600286489725,0.7603934203773737,0.44575960794538255
1789483134708702500,11.376702392578125,-2.1432231582939623,0.6618529666483401,0.32022958661243317
1789483134718751500,11.38675146484375,-2.1327450188994406,0.6447486871123314,0.2030006528958678
1789483134728801500,11.396801513671875,-1.9407851077169178,0.5914180789411068,0.14007029559984802
1789483134738851600,11.4068515625,-1.601993297845125,0.518234769308567,0.13364829972833395
1789483134748900400,11.416900390625,-1.1359902355551719,0.4066822737932205,0.14325389407202602
1789483134758950400,11.426950439453124,-0.7482090615868568,0.26214696160852907,0.15914996686205268
1789483134768999400,11.43699951171875,-0.5673644186586141,0.10649638116955756,0.18714725020378828
1789483134779049500,11.447049560546875,-0.6435223601877689,0.09005436493456363,0.31382359202764926
1789483134789098500,11.457098388671875,-0.8617097685605287,0.2042231804281473,0.6018203766204416
1789483134799148500,11.4671484375,-1.1574883661359547,0.3321627471208572,1.1212442826483398
1789483134809198300,11.4771982421875,-1.3505454249054192,0.39766660816669464,1.9047993098393081
1789483134819247400,11.487247314453125,-1.3877964204132556,0.45827334482073784,2.8201529903039333
1789483134829297700,11.497297607421874,-1.2669412590235472,0.36977263906896113,3.693100484454632
1789483134839346400,11.507346435546875,-0.9542091885596513,0.3528285185307264,4.366888511307537
1789483134849396500,11.517396484375,-0.5455336220573633,0.3265694571584463,4.865488898080587
1789483134859446500,11.527446533203126,-0.3257685891043395,0.04486790025234222,5.1267234210193156
1789483134869495300,11.537495361328125,-0.48806065338440235,-0.4428729465931654,4.969208215752244
1789483134879545300,11.54754541015625,-0.9206126969713717,-1.004617187282443,4.109779836127162
1789483134889594600,11.5575947265625,-1.6940082953281699,-1.3961632667422295,2.961504119494557
1789483134899644400,11.56764453125,-2.849361841392517,-1.7777473396360872,1.7416279785066842
1789483134909694500,11.577694580078125,-3.915235169148445,-2.3059236572444437,0.549771698018536
1789483134919743500,11.587743408203124,-4.424194160589575,-2.9496126061707733,0.016539046868681906
1789483134929793300,11.597793212890625,-4.2157431333333255,-3.3709634567856788,0.5491491822060197
1789483134939842600,11.607842529296875,-3.3899376218467947,-3.6899773839980363,1.7173469392091034
1789483134949892600,11.617892578125,-2.1114200529284775,-3.653069502839446,2.6183915238142013
1789483134959941400,11.62794140625,-1.0797978082120419,-3.2343560149908064,3.036198418211937
1789483134969991400,11.637991455078126,-0.5780512323677539,-2.9456548084557053,3.1493396442234514
1789483134980041500,11.64804150390625,-0.21614684245586394,-3.019488690951466,2.9300179711237546
1789483134990090500,11.658090576171874,-0.04751059678085148,-3.1796167090654373,2.146441974209994
1789483135000140500,11.668140625,0.2655312702845782,-3.1591888380646704,0.8138564227566123
1789483135010189600,11.678189453125,0.6597475188016891,-2.987398439207673,-0.546185729290545
1789483135020239400,11.6882392578125,0.3748457776147872,-2.2842034083455798,-1.442644885801524
1789483135030289400,11.698289306640625,-0.6188280639141798,-1.4042664936989544,-2.328178159150481
1789483135040338400,11.70833837890625,-1.4326888705849647,-0.6600602380126714,-3.1188860537707805
1789483135050388200,11.71838818359375,-1.4250889169752596,-0.15101590637564657,-3.4494109705567357
1789483135060437500,11.7284375,-0.3711819213449955,0.049941550254821776,-3.3254578431516886
1789483135070487600,11.738487548828125,0.8927426932711153,-0.19915537564456462,-2.9484225196033713
1789483135080537600,11.74853759765625,1.7560650846600532,-0.51517070556283,-2.5827953097760674
1789483135090586400,11.75858642578125,2.112199074476957,-0.7950777802675962,-2.515157943832874
1789483135100636400,11.768636474609375,2.0630480900779364,-1.1454963150471449,-2.5464506154581903
1789483135110685400,11.778685546875,1.9549698465444147,-1.315211661195755,-2.4524220861956474
1789483135120735500,11.788735595703125,1.986100021084398,-1.0917267309367655,-2.0389020753368734
1789483135130785500,11.79878564453125,1.9251580611266195,-0.3052729866296053,-1.1550916802577673
1789483135140834300,11.808834228515625,2.333638324252516,0.3797644562512636,-0.6166571496158838
1789483135150884400,11.81888427734375,2.7386615787923336,0.41767303888499735,-0.34375980754271146
1789483135160933400,11.828933349609375,2.4692706374049185,-0.08870645745694637,0.20988690527826545
1789483135170983700,11.838983642578125,2.4071549574926494,-0.3784381760835647,0.5716475028052925
1789483135181032400,11.849032470703126,2.2060247746437787,-0.6270072787165641,1.0111077183455228
1789483135191082500,11.85908251953125,1.784271772968769,-0.699252430716157,1.461088451117277
1789483135201132500,11.869132568359374,0.8625479729503392,-0.8280354624956846,2.2647103339768946
1789483135211181300,11.879181396484375,1.1524597243189811,-1.0928513510525226,2.3432329588107765
1789483135221231400,11.8892314453125,1.5630232234597206,-1.249977264741063,2.915539948438108
1789483135231281200,11.89928125,1.2946119407594203,-1.1822633264303206,4.000858858159185
1789483135241331200,11.909331298828125,3.1984038271218536,-1.381594643163681,3.972901176175475
1789483135251381000,11.919381103515626,3.599114625290036,-1.2714227883517741,2.9456027860075236
1789483135261430000,11.929429931640625,2.99452843721807,-0.9243120629459619,1.0594587845385075
1789483135271480000,11.93947998046875,2.8474004781916737,-0.3548848665386438,-0.20852862253710627
1789483135281528800,11.94952880859375,2.900620903986692,0.5129419235974549,-0.9392232163518667
1789483135291579100,11.9595791015625,2.997321867328882,1.5206050544470548,-1.0939235103286802
1789483135301629200,11.969629150390626,2.956780598104,2.0395698915958405,-1.0087873125739395
1789483135311678000,11.979677978515625,3.0199317585438488,2.3400176500260828,-1.1047918180845677
1789483135321728000,11.98972802734375,3.145321348492801,2.754554144451022,-1.1232136099599301
1789483135331777000,11.999777099609375,3.1552389313951132,3.012945552918315,-1.1458411829620598
1789483135341826800,12.009826904296874,3.2656635919243096,3.072731620839238,-1.3043436457008122
1789483135351876900,12.019876953125,3.4355873201265927,3.1652930001586674,-1.4101207726851104
1789483135361926100,12.029926025390624,3.506469074818492,3.3662264913916586,-1.4593736100234092
1789483135371976000,12.039975830078125,3.5799040211245416,3.663274670511484,-1.619393199326843
1789483135382025000,12.05002490234375,3.522759407623112,4.056358627063036,-1.891375910773128
1789483135392075000,12.060074951171876,3.3128128811120985,4.352485015162825,-2.3191131014242767
1789483135402124800,12.070124755859375,2.913933390024304,4.429163181173801,-2.7909669355690476
1789483135412174000,12.080174072265624,2.260809088754654,4.073197533661127,-3.168895408564806
1789483135422224100,12.09022412109375,1.455866917076707,3.403385716962814,-3.3662130473881957
1789483135432273000,12.10027294921875,0.5395525748863816,2.5422166311502457,-3.175705673101544
1789483135442323000,12.110322998046875,-0.2993579173669219,1.6857926940381527,-2.7330437389105557
1789483135452373000,12.120373046875,-1.2250082431793212,0.9252887990236282,-2.2814244451515373
1789483135462422000,12.130422119140626,-2.2116034515589473,0.2827414213478565,-1.8268154680572448
1789483135472472000,12.14047216796875,-3.306603797338903,-0.4179840045303106,-1.2945659096606075
1789483135482521000,12.15052099609375,-4.352815854552388,-1.4277338785260916,-0.5460436904713512
1789483135492571000,12.16057080078125,-5.276912813442945,-2.724995457011461,0.5606731043264269
1789483135502620000,12.170619873046874,-6.439282521879672,-3.9765141059756277,2.0608695769950747
1789483135512670000,12.180669921875,-7.703595185965299,-5.158579279485345,3.4581413895010944
1789483135522720000,12.190719970703125,-7.636471030241251,-6.065053487923741,3.930596988931298
1789483135532769000,12.20076904296875,-5.7865983655929565,-6.8420181038737296,3.7661826718002556
1789483135542819000,12.210819091796875,-3.3516201661512253,-7.640106171873211,3.1929484843254086
1789483135552867800,12.220867919921876,-2.1497814938962456,-6.462219745352864,2.4378702676214274
1789483135562918000,12.23091796875,-2.5002920908734203,-2.601066295003891,1.6986602127872406
1789483135572968000,12.240968017578124,-3.2436768010437484,1.4266630344241857,0.6294102482050656
1789483135583017000,12.251016845703125,-3.3028830232501027,4.454035172101855,0.06255728619992733
1789483135593067000,12.26106689453125,-2.896971733829379,6.507030362460017,-0.20930004530102014
1789483135603116000,12.271115966796875,-2.8128286387652155,7.652481084799766,-0.08951061344668268
1789483135613166000,12.281166015625,-2.7762016203746196,7.24981915256381,-0.057865475121885536
1789483135623215900,12.2912158203125,-1.2064680856212973,4.5100101573020215,-0.4905918523624539
1789483135633265000,12.301264892578125,1.3899398621827364,0.10970306825637817,-0.3785916130796075
1789483135643315200,12.311315185546874,3.2915552812889217,-4.527901203301549,1.081744266104698
1789483135653364000,12.321364013671875,5.818758759963512,-8.84385769201219,2.2402271962359546
1789483135663414000,12.3314140625,6.344952963843942,-12.466233950424193,2.4352868269994854
1789483135673464000,12.341464111328126,3.9932811163812874,-12.898489056891203,1.0380275817140936
1789483135683512800,12.351512939453125,1.7414932462111115,-8.445300857007503,-0.738081635326147
1789483135693563000,12.36156298828125,1.651865582256019,-2.651173849475384,-2.628101016923785
1789483135703612200,12.371612060546875,1.58668203920573,1.0721090072751045,-4.52208053432405
1789483135713662000,12.381661865234374,2.6555697463467713,3.2833120613396165,-5.918934705939889
1789483135723712000,12.3917119140625,2.8785540336072444,3.9775487097203728,-6.64083852892518
1789483135733761000,12.401760986328124,2.173906758110225,3.524837675201893,-6.679792236697673
1789483135743810800,12.411810791015625,2.6766768317833542,3.4996208163589237,-6.193028125929832
1789483135753860000,12.421860107421875,3.3338688208833336,2.9759260280787942,-5.598702635109424
1789483135763910100,12.43191015625,4.348819478392601,2.119279388126731,-4.76806458889991
1789483135773960000,12.4419599609375,5.315403579878807,0.966828431636095,-3.945977513414621
1789483135784009000,12.452009033203124,5.541107355231047,-0.47077919065058227,-2.843203318762779
1789483135794059000,12.46205908203125,5.200409419476985,-1.4924942277282476,-1.3284171797275544
1789483135804108000,12.47210791015625,4.668042956702411,-1.8461539363861084,-0.1920829530403018
1789483135814158000,12.482157958984375,4.031590096509456,-2.0710335358738896,0.25667422928586603
1789483135824208100,12.4922080078125,3.753450908260047,-1.970468298318982,0.5879435346983373
1789483135834257000,12.5022568359375,3.2946865650519728,-1.579412048202753,1.2814642898947
1789483135844307000,12.512306884765625,2.7139658212140203,-1.0220879620432852,2.252536496580392
1789483135854356000,12.52235595703125,2.016275671378523,-0.25645254935920236,3.35835356605947
1789483135864405800,12.53240576171875,1.4288989767827094,0.467894575124979,4.299895580747723
1789483135874455800,12.542455810546874,0.7299464057959616,0.9289619345784187,4.957156543430686
1789483135884505000,12.552505126953125,-0.42424715657830236,1.1594698953419924,4.806989070577919
1789483135894555100,12.56255517578125,-1.6982498784206808,1.0029203202366828,3.845073253163695
1789483135904604000,12.57260400390625,-2.0993441229484975,0.8761299235790967,2.5754528380587693
1789483135914654000,12.582654052734375,-1.9825253774680196,0.8086573928087949,1.4145086323805152
1789483135924704000,12.5927041015625,-1.6118506749927997,0.3787847975641489,0.28315263249725103
1789483135934753000,12.6027529296875,-0.6972000282309949,0.19574410589635372,-0.5369860853992402
1789483135944803000,12.612802978515624,0.022830255967378615,0.1756628563761711,-0.8904359506987035
1789483135954852000,12.62285205078125,0.5830581007443368,0.2498544662684202,-0.8088485314667224
1789483135964902000,12.63290185546875,1.3975380622267721,0.43685237112939357,-0.635573447009921
1789483135974952000,12.642951904296876,1.9253554833948612,0.4903992523998022,-0.5392386866316199
1789483135985001000,12.6530009765625,1.922319476699829,0.6144535020917654,-0.3610908815719187
1789483135995051000,12.663051025390626,1.3341314657211303,0.762459120735526,-0.3389908395752311
1789483136005100000,12.67310009765625,0.6455833843708038,0.870040374532342,-0.1046833403982222
1789483136015150000,12.683150146484374,-0.08228431545495986,1.044593808361888,0.03926686537489295
1789483136025199900,12.693199951171875,-0.9257107507627457,1.0344283881783485,0.09950725293457507
1789483136035249000,12.703248779296874,-1.55148008518219,0.9139601802796125,0.30202582140192386
1789483136045299000,12.713298828125,-1.8647230277776716,0.6690408323258161,0.6792806329198181
