time,seconds_elapsed,z,y,x
1789482450431377400,0.04937744140625,0.7133557748705148,-0.4157534689992666,-0.1318186000831425
1789482450441428500,0.059428466796875,0.7198720248967408,-0.3235682295158505,-0.09241583336889743
1789482450451478500,0.069478515625,0.5772539445102215,-0.22161504473388194,-0.09806231482326984
1789482450461528300,0.0795283203125,0.28971067583858967,-0.18381021473556755,-0.14104951589554549
1789482450471579400,0.089579345703125,-0.02551262691915035,-0.1687052923232317,-0.1946604023128748
1789482450481629400,0.09962939453125,-0.28854747727811336,-0.10393091459572315,-0.24096257315203545
1789482450491680300,0.10968017578125,-0.4735539160609245,-0.05654460178166627,-0.27906740901023147
1789482450501730600,0.11973046875,-0.5415045857369899,0.002537701784074306,-0.3125435621544719
1789482450511781400,0.129781494140625,-0.47631987364292144,0.03595394143462181,-0.2990326309353113
1789482450521831400,0.13983154296875,-0.38558337166309353,0.014848901824653147,-0.2551945121221244
1789482450531881200,0.149881103515625,-0.25921441528797146,-0.0027568974927067755,-0.18771818195953965
1789482450541932300,0.159932373046875,-0.11604220815002918,0.003949614408612251,-0.09046630673632025
1789482450551982300,0.169982421875,-0.008666706058382987,0.028252281016111373,0.05455415861681103
1789482450562033400,0.180033447265625,0.0765922412931919,0.07970657392144202,0.1866559595555067
1789482450572083500,0.19008349609375,0.08527414492070674,0.08999065204858779,0.2896342496015131
1789482450582134500,0.200134521484375,0.01433423030078411,0.02307487837821245,0.2973242195822298
1789482450592184300,0.210184326171875,-0.026685762351751324,-0.017840777117013932,0.2320598663806915
1789482450602234400,0.220234375,-0.026470658296346664,-0.08860358160436153,0.139700147113204
1789482450612285400,0.230285400390625,0.03087269264757633,-0.1448816414043307,0.11121654155924916
1789482450622335500,0.24033544921875,0.11195698466300964,-0.16726356908231974,0.13388853822499514
1789482450632386600,0.250386474609375,0.08841828816533089,-0.14205197093635796,0.1737010547839105
1789482450642436600,0.2604365234375,0.041030514046549796,-0.08782967462241649,0.20357187691256404
1789482450652487200,0.270487060546875,-0.004050152173638344,-0.0364791343525052,0.23255174155086278
1789482450662537200,0.280537109375,-0.03166939598321915,0.010582184290885924,0.22468773017749188
1789482450672587500,0.29058740234375,-0.024546996757388112,0.007325228321552277,0.26112127182260153
1789482450682638300,0.300638427734375,-0.021105331870913506,-0.0006073182433843612,0.26200521505028007
1789482450692688400,0.3106884765625,-0.06887304521799087,0.004095744881033897,0.3140485598899424
1789482450702739500,0.320739501953125,-0.11524199768304824,0.04550532137304544,0.3104227706082165
1789482450712789200,0.330789306640625,-0.16044307541251182,0.10557254432290791,0.29598347249776125
1789482450722839300,0.34083935546875,-0.3268786692380905,0.07613894456773995,0.3273163300029933
1789482450732890400,0.350890380859375,-0.324673268148303,0.07116641685217619,0.3280059197023511
1789482450742940400,0.3609404296875,-0.3725672382235527,0.05931494327783584,0.2866583025306463
1789482450752991500,0.370991455078125,-0.3152022599697113,0.04212298545837402,0.2558418701149523
1789482450763041500,0.38104150390625,-0.2068114433556795,0.023349603666365144,0.2746390711739659
1789482450773092600,0.391092529296875,-0.1037760162949562,0.02847059994190931,0.28604908459112044
1789482450783142400,0.401142333984375,-0.015144377639889716,0.013327683606743811,0.29265184385702014
1789482450793192400,0.4111923828125,0.052343935221433636,-0.018051497258245945,0.2781396266408264
1789482450803243500,0.421243408203125,0.11175240200161933,-0.054720893485844135,0.24281112362816928
1789482450813293600,0.43129345703125,0.0774818836092949,-0.05943564704805612,0.2174009341701865
1789482450823344400,0.441344482421875,-0.022444471520185468,-0.04005991544872522,0.18445888790264725
1789482450833394200,0.451394287109375,-0.10231938774585723,-0.02081277866512537,0.14287205514758824
1789482450843445200,0.4614453125,-0.20227847610116004,0.03621083880513906,0.16193316783979533
1789482450853495300,0.471495361328125,-0.19988310539722443,0.12806143950670956,0.21374036583602427
1789482450863545300,0.48154541015625,-0.09090776689350605,0.1781114185720682,0.26621581848263737
1789482450873596400,0.491596435546875,-0.009043138155341147,0.14386194296777247,0.3132200001113117
1789482450883646500,0.501646484375,-0.051689855226874346,0.055854573690891265,0.2797480847507715
1789482450893697500,0.511697509765625,-0.18295768955945968,0.04583616076260805,0.22533085038661954
1789482450903747300,0.521747314453125,-0.25889643537998197,0.07723141597956419,0.1999579241991043
1789482450913797400,0.53179736328125,-0.28233751672208307,0.08087532543987035,0.142798843780905
1789482450923848400,0.541848388671875,-0.3229097656071186,0.10256313337385654,0.15529431434720753
1789482450933898500,0.5518984375,-0.33150515999495983,0.14062602978646754,0.12391118795946239
1789482450943949600,0.561949462890625,-0.2295294711202383,0.1318672615304589,0.10703618713468313
1789482450953999400,0.571999267578125,-0.11161387031376362,0.050177112576365465,0.1918210872337222
1789482450964050200,0.58205029296875,-0.15854045666158198,-0.05918430263549089,0.22137056845352052
1789482450974100200,0.592100341796875,-0.2879746458262205,-0.10930647015422582,0.14607085118889807
1789482450984150500,0.602150634765625,-0.31086803015768527,-0.1174614272981882,0.030016660340130327
1789482450994201300,0.612201416015625,-0.2997217822432518,-0.07654197241067887,0.004949585231393576
1789482451004251400,0.62225146484375,-0.29713001218438145,-0.06535246987640857,0.057859337642043825
1789482451014302500,0.632302490234375,-0.3208493259459734,-0.09657119948267937,0.12527122426629067
1789482451024352300,0.642352294921875,-0.24477906270027158,-0.09758563722223043,0.1320657067120075
1789482451034403300,0.6524033203125,-0.1540524975925684,-0.064381871278584,0.10105652820318936
1789482451044453400,0.662453369140625,-0.1100455980837345,-0.039099838244915,0.06967807799056172
1789482451054503400,0.67250341796875,-0.06965104385316372,-0.08489858960658311,0.07537219797894358
1789482451064554500,0.682554443359375,-0.04808744682073593,-0.12427519896626471,0.11116320393681525
1789482451074604500,0.6926044921875,-0.12469137855172156,-0.0999482747003436,0.08115136590227484
1789482451084655400,0.7026552734375,-0.18699439772963522,-0.0446902055978775,0.01555924205109477
1789482451094705400,0.712705322265625,-0.18979133497178555,0.006350245809555053,-0.0200467627286911
1789482451104755500,0.72275537109375,-0.11213175670802593,-0.00017155717462301253,-0.05597323163449764
1789482451114806500,0.732806640625,-0.01596679993867874,-0.016420096664130687,0.009608224692195654
1789482451124856600,0.742856689453125,0.02544423785805702,-0.06036123746037483,0.050892421238869424
1789482451134907400,0.752907470703125,-0.03715454939603805,0.08347352523952722,-0.026956103725731373
1789482451144957200,0.762957275390625,-0.18142039698958395,0.12487579520791768,-0.057896600912511344
1789482451155008300,0.77300830078125,-0.06585925035476684,0.09703209499269723,-0.016817717679589984
1789482451165058300,0.783058349609375,0.3218839296907186,-0.013984686210751532,0.11261924796402453
1789482451175108400,0.7931083984375,0.3215501676917076,-0.021784546306729314,0.09230842747166752
1789482451185159400,0.803159423828125,1.0572937154591082,0.1276741937547922,0.2534710493303835
1789482451195209500,0.81320947265625,1.0835416709154844,0.4124894987672567,0.6043317749194801
1789482451205260500,0.823260498046875,0.8917249675959348,0.6840197902709245,0.8419013446323573
1789482451215310300,0.833310302734375,1.0432540841907263,0.7318719670310616,1.0880671855159103
1789482451225360400,0.8433603515625,1.542068698236346,1.3205705578804015,1.673545060753077
1789482451235411500,0.853411376953125,1.587218922561407,1.2511527382612229,1.7587290431722997
1789482451245461500,0.86346142578125,0.6683996118128299,1.247992812925577,2.267493534954637
1789482451255512600,0.8735126953125,0.7352858671277761,1.162622514154017,2.4021616792500016
1789482451265562400,0.883562255859375,-1.1591782189190387,1.532561157439649,2.8975489491954445
1789482451275613200,0.89361328125,-2.1507278348356484,0.248728384847939,3.1434178529590366
1789482451285663500,0.90366357421875,-3.1060932076930996,-1.6414003023430703,2.7530735505044457
1789482451295713500,0.913713623046875,-3.5589842749536036,-3.053214434942603,1.7936387362509965
1789482451305764400,0.923764404296875,-4.013369964686036,-3.5951895608007907,0.7635340564906596
1789482451315814400,0.933814453125,-3.9218063642323013,-3.289439896570146,-0.006506605415046215
1789482451325865500,0.943865478515625,-4.43110554741323,-4.140874354831874,-1.2176117031872271
1789482451335915300,0.953915283203125,-5.886787755572795,-4.215763007077575,-2.116785817745328
1789482451345965300,0.96396533203125,-5.023398655623197,-2.3310718347653747,-1.2721312288820743
1789482451356016400,0.974016357421875,-4.345122377440333,-1.3695476470172405,-0.08908727346807718
1789482451366066400,0.98406640625,-3.9757612417817114,-1.2445403343841432,0.41314708589315413
1789482451376117500,0.994117431640625,-3.3344325922459364,-1.5653063659608364,0.16169015286415814
1789482451386167300,1.004167236328125,-1.146831363043189,-1.008188616028428,0.3059799658551812
1789482451396217300,1.01421728515625,0.6266232478350401,-0.3747092186883092,-0.4128676844298839
1789482451406268400,1.024268310546875,2.702027838400006,0.8357502746567129,-2.964417961114645
1789482451416318700,1.034318603515625,4.697537054473162,2.008680247813463,-2.686999780616164
1789482451426369800,1.044369873046875,1.1615198136091232,1.0698279106006026,-0.9147671127483248
1789482451436419800,1.054419921875,-1.4967916326612234,2.1296680956721303,0.48385406854003665
1789482451446470700,1.064470703125,-0.3757487908691168,2.503007487311959,1.6115078529044984
1789482451456520400,1.0745205078125,1.1887743157595396,1.2184236040920018,1.8436700106158852
1789482451466570500,1.084570556640625,0.22266426152586935,0.6740089761272072,0.9167840055286883
1789482451476621600,1.09462158203125,0.25413959624171256,0.8489046475231647,-0.24783669670522213
1789482451486671600,1.104671630859375,0.041297640550136565,1.2167515792265533,-0.47016938818916676
1789482451496722700,1.11472265625,0.10429156460165977,0.3477820487961173,-0.25009806576594706
1789482451506772700,1.124772705078125,1.2398071683824061,-0.47222646684944625,-0.2715415435500443
1789482451516822500,1.134822509765625,2.487382632678747,-0.7345227738007902,-0.5730395416855811
1789482451526873600,1.14487353515625,3.1589082675576208,-1.1811918978065252,-0.6202357387550175
1789482451536923600,1.154923583984375,2.9943554187387225,-1.0919710610866546,-0.7301917588591575
1789482451546974700,1.164974609375,1.8110516433447599,-0.7127759291559458,-1.0911425013080238
1789482451557024800,1.175024658203125,1.1517962919741869,-0.6868269566461443,-1.345846453434229
1789482451567074600,1.185074462890625,1.37741881878376,-1.1657549669608473,-1.7574230751402675
1789482451577125600,1.195125732421875,1.4265835394471882,-1.621848629654944,-2.1080914930276573
1789482451587175700,1.20517578125,2.115678148764372,-1.4873597874492406,-1.8729228469766674
1789482451597226500,1.2152265625,1.6575854212075471,-0.7335144735410809,-0.8953047257788479
1789482451607276800,1.22527685546875,1.257248717048764,0.54936552837044,0.9125779321409762
1789482451617327600,1.23532763671875,1.9861235480904578,1.0614178096517919,1.8844373436816035
1789482451627377700,1.245377685546875,2.000353148972988,1.213840952476859,2.176415233799815
1789482451637427500,1.255427490234375,2.100721402651071,1.0933248137831688,2.2790467562347647
1789482451647478500,1.265478515625,2.1010417206466196,1.089961767090857,2.2731427928879855
1789482451657528600,1.275528564453125,2.173046049627662,0.35178836182802914,1.397373665445298
1789482451667579600,1.28557958984375,1.7063614348143339,-0.19725597176402807,0.08779453024379909
1789482451677629700,1.295629638671875,1.0726631340265274,-0.45058951231986283,-0.7067958318330347
1789482451687679500,1.305679443359375,0.5090460852026939,-0.4735603458017111,-0.7721312044441699
1789482451697730600,1.31573046875,0.3937771995127201,-0.08572364225387573,-0.5678926072511822
1789482451707780600,1.325780517578125,0.42496728754639623,0.21894904039502142,-0.0483876718763262
1789482451717831700,1.335831787109375,0.7940794168800115,0.4170779956012964,0.22608875608183443
1789482451727881700,1.3458818359375,0.9728688808441162,0.40794454881399866,0.38476343358233567
1789482451737931800,1.355931884765625,1.0139280364632606,0.3206029499694705,0.5501147393025457
1789482451747982800,1.36598291015625,1.01525314758718,0.2620122293129563,0.6970141502700745
1789482451758032600,1.37603271484375,0.5931348197311163,0.17659399974644183,0.8208982310269027
1789482451768083500,1.38608349609375,-0.3991214831501245,0.026249124500155447,0.3852211872871965
1789482451778133500,1.396133544921875,-1.3549527199536562,-0.06534019491672516,-0.03595971358828246
1789482451788183800,1.406183837890625,-1.8228280058562754,-0.03741699972450733,-0.08703260596059262
1789482451798234600,1.416234619140625,-1.5749954008042812,0.20252777468711136,0.13714206012822686
1789482451808284700,1.42628466796875,-1.5646271515250205,0.10021569346487522,-0.5187914533432573
1789482451818335500,1.43633544921875,-1.892417674911022,-0.4991606510043144,-1.0403114548675716
1789482451828385500,1.446385498046875,-1.6352467481493949,-0.436954077938199,-0.4470874955482781
1789482451838436600,1.4564365234375,-1.4072972396969794,-0.4497062997445464,-0.07001231491360813
1789482451848486700,1.466486572265625,-1.7469968120634556,-0.8140715268120169,-0.21582557461224494
1789482451858536700,1.47653662109375,-1.9943845959573983,-0.471704781062901,-0.0532638265453279
1789482451868587800,1.486587890625,-1.841342736712098,0.3386556162714958,0.36381855297014115
1789482451878637600,1.496637451171875,-0.91553137511909,1.3682929707810283,0.8245214630253612
1789482451888688600,1.506688720703125,-0.47715457090139385,1.805387333972752,1.4264490994125605
1789482451898738700,1.51673876953125,-0.3962853829413652,1.193079611738026,1.5121690884046255
1789482451908788700,1.526788818359375,-0.327392463979125,0.4529045112639665,1.1405834085643292
1789482451918839800,1.53683984375,0.09654606504142284,-0.233038063763082,0.8398691081523895
1789482451928889900,1.546889892578125,0.38413609546422955,-1.3385285316362976,1.0923966660875826
1789482451938940700,1.556940673828125,0.21786241420209407,-1.2277733239784836,0.5723140769552439
1789482451948990500,1.566990478515625,-0.29399405224621294,-0.46765053723603484,0.41018882060945033
1789482451959040800,1.577040771484375,-1.116737838074565,-0.1983762079656124,-0.30867329659238457
1789482451969091600,1.587091552734375,-1.0461942292958497,-0.4090840742379427,-1.0864091891758143
1789482451979141600,1.5971416015625,-0.8495786012619734,-0.5338754060328006,-1.6613916816227137
1789482451989192700,1.607192626953125,-0.7497241423249245,-1.3299202777668833,-0.8767210213400423
1789482451999242500,1.617242431640625,-0.9524445169746876,-1.1805664593845606,-0.31143706221729517
1789482452009292500,1.62729248046875,-1.58738141964674,-0.8286299212574958,-0.3105509270325303
1789482452019343600,1.637343505859375,-2.091778802260756,-1.0293573685243724,-0.030684038207679985
1789482452029393700,1.6473935546875,-2.136885187444091,-0.6773489342048764,0.07413257318139076
1789482452039444700,1.65744482421875,-2.42402338244617,-0.5084580561816692,-0.10104147676452994
1789482452049494800,1.667494873046875,-2.612895849007368,-0.6339359089359641,0.3177344087958336
1789482452059544600,1.677544677734375,-2.8702397942483424,-0.6168199389621615,0.41309550183638927
1789482452069595600,1.687595703125,-2.847652699387073,-0.8350438799530268,0.18209961142539977
1789482452079645700,1.697645751953125,-1.1154495518296956,-1.5201090876236556,0.5744529156148434
1789482452089696800,1.70769677734375,-1.0810112756550312,-1.4871432220891116,0.3932824017331004
1789482452099746800,1.717746826171875,-9.35375250299871,-2.1977900302618743,1.2910928267225623
1789482452109796900,1.727796875,-4.638132094824313,-0.9519181550130248,4.040053973472118
1789482452119847400,1.737847412109375,5.315103720149398,1.3591001950219272,-0.28363340175151824
1789482452129897500,1.7478974609375,1.3597785326749086,-2.892930349484086,2.1860677360251546
1789482452139948500,1.757948486328125,0.4510018925130367,-0.9693319388896227,3.220111216539144
1789482452149998600,1.76799853515625,-0.6522668076574802,-0.671343410179764,2.1585770870313046
1789482452160048600,1.778048583984375,-1.4372680150687693,-1.3620309877768157,1.1427765346944332
1789482452170099700,1.788099609375,-2.688825826999545,-0.8894703205369412,0.32458383629918097
1789482452180149500,1.7981494140625,-2.9206857868939635,-1.53155709496364,0.3831979378312826
1789482452190200600,1.80820068359375,-2.1265198607742786,-1.0355239283300937,0.2064490397840738
1789482452200250600,1.818250732421875,-1.866414049604535,-1.063196363631636,1.2692141723915933
1789482452210300700,1.82830078125,-0.9601455928713083,-1.1122997094966471,1.8756901197329163
1789482452220351700,1.838351806640625,0.49123278061449527,-1.4790877797968685,2.1238827902689574
1789482452230401800,1.84840185546875,1.167557340207696,-2.0499498313128948,1.68893099206388
1789482452240452600,1.85845263671875,0.9172685741752385,-2.062918033957481,1.2544362899765371
1789482452250502700,1.868502685546875,-0.24181261411011218,-1.7654929843492806,1.3432324715435504
1789482452260552700,1.878552734375,-2.135498701521754,-1.3196912908278404,1.7880217731520534
1789482452270603800,1.888603759765625,-3.451259228771925,-0.6584846592590212,1.4401692894682288
1789482452280653800,1.89865380859375,-3.8080899686813354,-0.4041749671474099,0.8451280515938997
1789482452290704600,1.90870458984375,-4.051619908103347,-0.9803631821222603,0.44508916133791204
1789482452300754400,1.91875439453125,-3.961201970553398,-1.0080329870752989,0.29723902551680803
1789482452310804500,1.928804443359375,-5.368333206033706,-1.7169795672014354,-0.7536801864743232
1789482452320855600,1.93885546875,-4.346723382896185,-2.157707318459451,-1.0709680205464363
1789482452330905600,1.948905517578125,-2.85731952239871,-2.8329604494288563,-1.4131389514625072
1789482452340956700,1.958956787109375,-1.4201467843979596,-2.766206880582869,-2.0660469796329735
1789482452351006700,1.9690068359375,-0.45303895129859445,-2.8531396063655614,-2.0164526353806256
1789482452361056500,1.979056396484375,-0.39945173801779743,-3.8162382038235663,-1.9819167440503835
1789482452371107600,1.989107666015625,-0.7148147415071725,-3.9275533834517,-2.313777293354273
1789482452381157600,1.99915771484375,-0.9692986211419105,-3.230202986964583,-2.2732944763183593
1789482452391208700,2.009208740234375,-1.0374503663480281,-3.824726046183705,-1.8802409149050712
1789482452401258800,2.0192587890625,-2.1646447165071963,-4.230500557482243,-1.705027555862069
1789482452411308800,2.029308837890625,-3.2618110081493854,-3.8614579862535,-1.6573124494850635
1789482452421359900,2.03935986328125,-3.17164792214334,-3.0416388557001945,-0.9618027124285697
1789482452431410000,2.049409912109375,-3.031944560159743,-2.5331632638618347,0.17988602702915668
1789482452441460700,2.059460693359375,-2.4763541659250854,-2.595012401792407,1.1765630689620972
1789482452451510800,2.0695107421875,-0.9634446344166994,-2.382034837022424,2.146069779896736
1789482452461560800,2.079560791015625,0.6574822042182088,-1.9839612554900348,3.055864072668552
1789482452471611600,2.089611572265625,1.769754295055568,-1.9542149365238843,3.276350990155339
1789482452481661700,2.09966162109375,2.199851638966799,-2.2134895575664935,3.4729894145429134
1789482452491711700,2.109711669921875,2.0780074665397406,-1.0659081068083642,3.7449984294742342
1789482452501762800,2.1197626953125,1.2652113664910196,0.2674902223326266,3.8245740704923867
1789482452511812600,2.1298125,1.4072490166410803,0.5105126506239176,3.7957390211522575
1789482452521863700,2.13986376953125,2.0793594656705854,-2.3262511366106566,2.3692992740899324
1789482452531913700,2.149913818359375,3.2183576508700846,-3.3643098441153763,1.2918401379585265
1789482452541963800,2.1599638671875,5.694860577616095,-3.6624566321268675,1.6523966203927993
1789482452552014800,2.170014892578125,7.859177377343177,-3.2140093925327062,3.256656694126129
1789482452562065000,2.18006494140625,7.191113281095028,-1.227269173848629,4.9202439860969776
1789482452572115700,2.19011572265625,4.760440962153673,0.7075907816030085,5.080315890109539
1789482452582165800,2.200165771484375,2.142274479267001,1.0711638353794812,4.907811205503344
1789482452592215800,2.2102158203125,2.153090033922344,1.2797975257262586,4.965673611885309
1789482452602267000,2.220266845703125,0.7738187191396951,1.4366449147343634,4.77642938940227
1789482452612317000,2.23031689453125,1.36807523637712,1.5312451064050197,4.521602979940176
1789482452622367700,2.24036767578125,2.705074074228108,1.2834917040690779,4.737751575961709
1789482452632417800,2.250417724609375,3.6061166130065914,1.0882184305548668,4.357262312567234
1789482452642467800,2.2604677734375,4.375906222760677,0.710723965062201,3.492240642979741
1789482452652518700,2.2705185546875,4.994804429301619,0.7231067690342664,3.2935061230957507
1789482452662568700,2.280568603515625,5.165433967685699,1.0027321041882038,3.2917887977838514
1789482452672619800,2.290619873046875,4.702241871163249,1.2985881509140134,3.2128917866796254
1789482452682669800,2.300669921875,4.348922354245186,1.7214523287013173,3.4915479845404622
1789482452692719600,2.3107197265625,4.546221872889995,2.02699068826884,3.8029830009311434
1789482452702770700,2.320770751953125,4.284289430814981,2.2663772442758083,4.2253614410281175
1789482452712820700,2.33082080078125,4.088376398092508,3.047893532180786,4.501771321266889
1789482452722870800,2.340870849609375,3.699472357574105,2.991666033524275,4.330146926626563
1789482452732921900,2.350921875,3.7338638719975945,2.8983167186975476,3.7784839349687096
1789482452742971600,2.3609716796875,3.3264053531348705,1.6932605457007883,5.361033112153411
1789482452753022700,2.371022705078125,0.9876391644746064,0.9600129064023494,5.420716304221749
1789482452763072800,2.38107275390625,-0.31093729600161313,2.246528049945831,3.280724382933974
1789482452773122800,2.391122802734375,-1.4969550065293906,2.734421457004547,2.6926702274680134
1789482452783174000,2.401173828125,-1.5001169776916503,2.4949971993356943,1.2199410229176282
1789482452793224000,2.411223876953125,1.296285426929593,2.4566034635335208,1.1725403893172741
1789482452803274800,2.421274658203125,2.9987346567362545,2.8522733449250457,1.2256284209042787
1789482452813324800,2.43132470703125,3.67600146561563,3.286497121116519,0.6836854437500238
1789482452823374800,2.441374755859375,2.509939916923642,3.331486601921916,0.6713263129144906
1789482452833425700,2.45142578125,0.1394321438267827,3.18017025129497,0.8420978901177644
1789482452843475700,2.461475830078125,1.3367080382108687,2.643763865479827,1.5127105018049478
1789482452853525800,2.47152587890625,0.8419692953020333,2.1883786433160304,1.5923533628404138
1789482452863576800,2.481576904296875,0.10390461111068724,0.6290647957682609,1.6793752282112835
1789482452873626600,2.491626708984375,0.17080606399476528,-0.17265519899278878,2.1249662015914916
1789482452883677700,2.501677734375,0.2243435929149389,-0.43236119718998667,1.9877485189437865
1789482452893727700,2.511727783203125,-0.15196809253394603,-1.2715455379486083,1.8303665846675634
1789482452903777800,2.52177783203125,-0.8899743245363235,-2.163811480553448,1.520920111745596
1789482452913828900,2.531828857421875,-2.2402409325003623,-2.633060392896831,-0.14167641562223435
1789482452923878700,2.541878662109375,-6.007913550597429,-1.537411812341213,-5.86005406242609
1789482452933929700,2.5519296875,-7.202672785985469,-1.815075784294307,-6.62929422160387
1789482452943979800,2.561979736328125,-7.227031566694379,-2.562704415644705,-7.112808975186944
1789482452954029800,2.57202978515625,-6.18141250693798,-3.688313834699988,-5.172340678334236
1789482452964081000,2.582080810546875,-3.760944478885829,-4.706139755384624,-3.1225743868947027
1789482452974131000,2.592130859375,-1.285168405109644,-4.530198082067072,-0.9268038797616958
1789482452984180700,2.6021806640625,1.0255470164559781,-3.9314889693349597,1.8728630796134471
1789482452994231800,2.612231689453125,1.4363105682134627,-3.0230197876870633,2.5873592566907404
1789482453004281900,2.62228173828125,1.208812895181775,-1.2066633159324527,2.126658976984024
1789482453014332700,2.632332763671875,1.7023896085739134,-0.1588943846657872,1.5269389336436987
1789482453024382700,2.6423828125,2.6064836438775063,-0.33820553441643714,-0.6326777255684137
1789482453034432800,2.652432861328125,2.6455489953309295,-0.3775789289057255,-1.8587772711157797
1789482453044483600,2.662483642578125,1.607133583343029,-0.5681476779907941,-1.9113748888373374
1789482453054533600,2.67253369140625,0.8879396038383245,-0.6687421416401863,0.011346738922595977
1789482453064584700,2.682584716796875,1.2574381021410226,0.4879238021969795,3.2797406325936316
1789482453074634800,2.692634765625,2.3353186785548923,2.735077875086665,6.722410312196612
1789482453084684800,2.702684814453125,2.430608021533489,5.052385680654645,9.700378075236081
1789482453094736000,2.71273583984375,-0.4922270523488521,9.388877007871866,11.267376047545671
1789482453104785700,2.72278564453125,-0.6079460198938846,9.24647461606264,11.217962905079126
1789482453114835700,2.732835693359375,-0.7744628622621298,9.015808249866962,11.14536879351139
1789482453124886800,2.74288671875,-3.863771523892879,8.721040875160694,9.113131729021667
1789482453134936800,2.752936767578125,-9.055938015681505,6.694874070495366,4.682555173918605
1789482453144988000,2.76298779296875,-11.987210078519581,3.0001152974396943,-1.0271879155308008
1789482453155038000,2.773037841796875,-9.635694882923364,-2.12399458008036,-5.834505195149779
1789482453165087700,2.783087646484375,-4.083482780832052,-6.267473418322205,-7.849901599475741
1789482453175138800,2.793138916015625,4.4939305446386335,-4.666536059270799,0.10338789376020431
1789482453185188900,2.80318896484375,2.7867729910105465,-3.595095745037496,-0.49869361801445483
1789482453195239000,2.813239013671875,1.3931272600471973,-3.3633544430866835,-1.9664251604080198
1789482453205289700,2.823289794921875,-0.3193301535546779,-2.7676047646820545,-1.5650544370263815
1789482453215339800,2.83333984375,-2.230312243682146,-0.1383838038176298,0.23917525134384632
1789482453225390600,2.843390625,-1.2285960385382175,1.7870210716769097,-3.908112185400724
1789482453235440600,2.853440673828125,-1.1430103434503078,1.714417900019884,-3.9276141737282275
1789482453245490700,2.86349072265625,-1.0553531027853489,1.5882488501310348,-3.9611265672296283
1789482453255541800,2.873541748046875,-0.9476268144946545,1.4231392442122102,-4.00142584439218
1789482453265591800,2.883591796875,-0.7303587859891355,0.060147594709694385,-3.437899980983138
1789482453275641600,2.8936416015625,2.077027223330736,-1.8864862390354276,-3.7531162694782014
1789482453285692700,2.903692626953125,1.8388205247581004,-1.5916558820955455,-2.5944518453001972
1789482453295742700,2.91374267578125,0.19344510823898017,0.04489113499745726,-0.6434989793121815
1789482453305793800,2.923793701171875,-1.219992972300574,1.3244853932365774,0.12954466380178928
1789482453315843800,2.93384375,-1.451696353393793,2.465387366230786,1.0777899755209683
1789482453325894000,2.943893798828125,-2.1659949620723724,3.860146903654933,4.027780767354369
1789482453335944700,2.95394482421875,-2.9088977339446545,6.026630526027083,7.941648155280947
1789482453345994800,2.963994873046875,-0.12910093862228095,2.1733210671767593,3.764975634098053
1789482453356044800,2.974044921875,0.2010475460667163,2.383511047054827,1.1006693313270806
1789482453366096000,2.984095947265625,-0.21829422974810003,5.185333430898189,1.9346961431920526
1789482453376146000,2.99414599609375,2.650216402620077,6.239425135445594,2.6136656643360854
1789482453386196700,3.00419677734375,3.028859161365032,4.362625593166053,1.8052812432497738
1789482453396246800,3.014246826171875,2.6826456770598885,1.8422019838899373,-0.7785323036581278
1789482453406296800,3.024296875,1.7883038049638271,-1.6472037279248237,-2.1243670666545627
1789482453416347400,3.034347412109375,1.010195279675722,-3.5970857498109337,-4.507892434495687
1789482453426397400,3.0443974609375,-0.5408803528914228,-3.8360608024075624,-5.012636438590288
1789482453436447500,3.054447509765625,-0.7621615990936755,-4.080914976170659,-5.229902640464902
1789482453446498300,3.064498291015625,-1.4209306282520293,-4.036917721273005,-5.042615981790423
1789482453456548000,3.074548095703125,-0.5742624345440417,-2.472592767564952,-4.8668327139049765
1789482453466599200,3.08459912109375,0.5718821883440017,-1.579670553008467,-5.878800263950228
1789482453476649200,3.094649169921875,0.44722354301810263,-3.0980183300480246,-6.808433814179897
1789482453486699300,3.10469921875,0.6416285092651843,-4.381020204773545,-6.847787919446826
1789482453496750300,3.114750244140625,2.507601244843006,-4.833183250020444,-6.04219049873054
1789482453506800400,3.12480029296875,3.66027958034873,-5.331748565480113,-4.474884483385086
1789482453516850200,3.13485009765625,4.068219745248556,-4.911644500055909,-3.828368786600232
1789482453526901200,3.1449013671875,3.428910618841648,-3.6955703816995022,-2.4927216556191443
1789482453536951300,3.154951416015625,1.8807833512187002,-2.962456305652857,-2.1111264768093823
1789482453547001300,3.16500146484375,0.7310732178688049,-2.797896442571282,-1.2658154698640107
1789482453557052400,3.175052490234375,0.9152923056662082,-1.3555278894931078,3.7455654157072304
1789482453567102200,3.185102294921875,1.1165839626871048,0.42421325430870055,7.594235816580056
1789482453577153300,3.1951533203125,0.1402653797805309,2.0794299005582926,10.93350298937559
1789482453587203300,3.205203369140625,1.0256417090021073,2.4635695031538605,11.308808128130435
1789482453597253400,3.21525341796875,-0.31409276435784994,2.2807637892857193,13.513989437687396
1789482453607304400,3.225304443359375,-2.0071838717758657,3.5542560773879286,13.885720809608697
1789482453617354500,3.2353544921875,-2.1681787358522415,4.688299270528555,10.479387933278083
1789482453627404300,3.245404296875,-3.2031858007013794,5.385334025195241,7.917064333644509
1789482453637455000,3.255455078125,-4.047140716862678,4.918657009166479,7.104082647895813
1789482453647505400,3.26550537109375,-5.061788299772143,3.1048399927616117,5.455276160949468
1789482453657556200,3.27555615234375,-6.572563449600339,1.123323061683774,3.4813743810504674
1789482453667606300,3.285606201171875,-5.033883809280395,-2.0923644931942222,0.9915046077311038
1789482453677656300,3.29565625,-1.7358372662760315,-5.094063260433077,-3.2475095110744236
1789482453687707400,3.305707275390625,-1.888751553618908,-5.78024928882718,-6.978658278894424
1789482453697757200,3.315757080078125,-1.476490018388629,-5.419548429486155,-9.60700187240243
1789482453707807200,3.32580712890625,0.20404314768612383,-3.7377521116077896,-10.104759670871495
1789482453717858300,3.3358583984375,0.5262257680624723,-0.873964269977808,-8.193816159188748
1789482453727908400,3.345908447265625,0.6574281359434128,1.190528465950489,-7.218475335273146
1789482453737959400,3.35595947265625,1.2099369307756422,2.4976135193139313,-6.811465144699811
1789482453748009200,3.36600927734375,2.9277953266382215,3.139797324374318,-5.949847730597853
1789482453758059300,3.376059326171875,3.2820307893574237,3.93421108777523,-4.942745740762352
1789482453768110300,3.3861103515625,2.829303388226032,4.530061011683941,-4.452418384554982
1789482453778160400,3.396160400390625,2.515987964916229,4.807245967948436,-3.7689118045032024
1789482453788210400,3.40621044921875,2.2117525046408173,4.3523447299093005,-1.9632202268868684
1789482453798261500,3.416261474609375,-0.23260109711792318,5.334918427687883,-2.046473095113039
1789482453808311300,3.426311279296875,-0.4595066860079765,5.609014770287275,-1.484943958479166
1789482453818361300,3.436361328125,-1.6070061575710772,5.300187306046485,-0.9244552708089351
1789482453828412400,3.446412353515625,-2.6073452291429042,5.309686371275783,-0.01799538315683603
1789482453838462500,3.45646240234375,-2.0877777499258516,5.179407547980547,1.0289438192874192
1789482453848513300,3.46651318359375,-0.9359890567362308,4.030476582309603,2.1513038811579346
1789482453858563300,3.476563232421875,-1.2818190946817398,2.5079449437141417,2.7306100820228454
1789482453868613000,3.486613037109375,-2.7483950372993946,1.9217068977594374,2.4430229742094873
1789482453878664200,3.496664306640625,-3.3049592450022693,2.159671604269743,1.7509189539432524
1789482453888714200,3.50671435546875,-2.4790210470467806,2.2956103530228136,1.8210865690164266
1789482453898764300,3.516764404296875,-2.0762129843384027,4.03033454349041,2.415467004894465
1789482453908815400,3.5268154296875,-0.8609878840267657,4.365677089691162,3.007362492088973
1789482453918865200,3.536865234375,1.2912328197151421,3.022387919524312,4.5569612935692065
1789482453928916200,3.546916259765625,3.7305519709706303,-0.7386462834715842,5.892154251042008
1789482453938966300,3.55696630859375,1.8034113577246664,-6.98435386018753,4.346174224580824
1789482453949016300,3.567016357421875,2.060679899641871,-16.9991193718791,1.0225665393404662
1789482453959067400,3.5770673828125,2.5202017832189796,-23.394558075857162,-2.436957828951627
1789482453969117400,3.587117431640625,0.9390775242708623,-20.610999370718,-3.17628230394572
1789482453979167200,3.597167236328125,-1.2602362084269523,-10.433432822310923,2.8140193098545074
1789482453989218300,3.60721826171875,2.8337241272777316,0.07549509370625018,3.971061978049576
1789482453999268400,3.617268310546875,7.117554708409309,-0.1718079345136881,-1.7842086446046828
1789482454009318400,3.627318359375,7.7261238286376,-3.326635070237517,-6.50786272163093
1789482454019369500,3.637369384765625,4.614204106748104,-0.7134820315986872,-5.711153540769219
1789482454029419500,3.64741943359375,2.4825182415127753,1.667116050618887,-5.005108381173014
1789482454039470000,3.657469970703125,-7.630238857853413,2.0613941853910682,-7.202696166861057
1789482454049520000,3.66752001953125,-7.188652443939447,2.545104753807187,-7.378771111169457
1789482454059570400,3.6775703125,-0.6374526118200272,3.2627205242097377,-4.859989131620526
1789482454069621200,3.687621337890625,2.4191560686707496,2.2707670036673546,-3.978312972091138
1789482454079671300,3.69767138671875,3.238559896421432,1.3606816189944744,-3.5487513424918053
1789482454089721000,3.70772119140625,2.1562463059961794,0.8570768480628729,-2.7913477515801786
1789482454099772200,3.717772216796875,0.28782676178812977,0.011343231791257858,-2.0356421967580913
1789482454109822200,3.727822265625,-1.7897031503677368,-0.6346686071246862,-0.8130814928613602
1789482454119872300,3.737872314453125,-3.1034570139706132,-0.7312234399944544,0.4510302418246865
1789482454129923300,3.74792333984375,-2.837442855539918,-0.9784428815841674,0.7752154341951012
1789482454139973400,3.757973388671875,-1.7117624170750378,-0.9874708221703767,0.48718569718077775
1789482454150024400,3.7680244140625,-0.9457955804795026,-0.9253928439199924,0.14240809089764953
1789482454160074200,3.77807421875,-0.4642851524561643,-0.8425105625718832,0.20317440202757714
1789482454170124300,3.788124267578125,-0.49839492732882495,-0.5069868145853281,0.7801128508478402
1789482454180175400,3.79817529296875,-0.6984861225187778,-0.35376784520745275,1.1029247090384364
1789482454190225400,3.808225341796875,-0.6130851363480091,-0.34064299069643017,0.9692813777461647
1789482454200275500,3.818275390625,-0.8116928149819373,-0.5939981585621833,0.3874327989220619
1789482454210326300,3.828326171875,-1.3181857085704802,-0.7704495349675416,-0.2630601309306919
1789482454220376300,3.838376220703125,-1.827914515340328,-1.3715578177958727,-0.5947565757140517
1789482454230426400,3.84842626953125,-2.255114676505327,-1.5094225661754608,-0.7333839790292084
1789482454240477400,3.8584775390625,-2.4232290171980857,-1.1670301014631985,-0.5124802974350751
1789482454250527500,3.868527587890625,-2.441775896757841,-1.025365376278758,0.11929127307385205
1789482454260578300,3.878578369140625,-2.0767640423499047,-1.5704279467582702,0.5707673589698969
1789482454270628000,3.888628173828125,-1.2458185376264155,-1.7923709082722663,1.045247157704085
1789482454280678400,3.898678466796875,-0.4510733503140509,-2.325138645324111,1.362146138589084
1789482454290729200,3.908729248046875,0.3251240806557238,-2.552572605469823,2.3295278201937673
1789482454300779300,3.918779296875,-0.04457797739505768,-2.569528416445851,2.997814619281888
1789482454310829300,3.928829345703125,-0.389763872218132,-2.2657354392409323,2.441462300764024
1789482454320880400,3.93888037109375,0.006041764382272959,-1.4216221176475285,1.302369130757451
1789482454330930200,3.94893017578125,0.8881672751143574,-0.2754956880033016,0.6567465834200382
1789482454340980200,3.958980224609375,1.4099766880393028,0.6713041010826826,0.17779621514305471
1789482454351031300,3.96903125,1.4463716512396931,1.113764959743619,-0.7077863041751087
1789482454361081300,3.979081298828125,1.2092463181629776,1.2721195384442805,-1.1000900701344012
1789482454371131400,3.98913134765625,1.0504413653463125,1.2305834129631519,-0.8928760373272001
1789482454381182200,3.99918212890625,1.0860659286960959,1.0661188269495963,-0.17762509635984897
1789482454391232300,4.009232177734375,1.254231415054202,0.7227449499845504,0.4710283431060612
1789482454401283300,4.019283447265625,1.0197650720536708,0.47018940806388854,0.9749838271714747
1789482454411333400,4.02933349609375,0.6286950856730341,0.4621978247880935,1.2410150828674436
1789482454421383700,4.0393837890625,0.4005854182228446,0.5234814377903938,1.1229537899799644
1789482454431434800,4.049434814453125,0.13659721266180275,0.7214192543387412,1.0723343404635786
1789482454441484800,4.05948486328125,-0.08495295014232397,1.107792899596691,0.987276468642056
1789482454451534800,4.069534912109375,-0.04104483483284711,1.3692699991196393,0.7341568630978464
1789482454461585700,4.079585693359375,0.18861878406107424,1.6049936487048864,0.3996962142981589
1789482454471635500,4.089635498046875,0.44806087062507866,1.8460674271464346,0.06615384938716888
1789482454481685800,4.099685791015625,0.6103931207850575,2.0515666188597677,-0.30269992127120493
1789482454491736600,4.109736572265625,0.5126444019556046,2.158955564954877,-0.7005380866125226
1789482454501786600,4.11978662109375,0.1661529774919152,2.102165756240487,-0.9631060501120984
1789482454511836700,4.129836669921875,-0.2310194174170494,1.861093146842718,-1.0465952113121748
1789482454521887700,4.1398876953125,-0.5469935385420918,1.6094512126356362,-1.0117829872585833
1789482454531937500,4.1499375,-0.8330512448310852,1.4035118759393692,-0.8230950834840536
1789482454541988600,4.159988525390625,-1.1301178363904356,1.33301269082427,-0.5850723631761968
1789482454552038700,4.17003857421875,-1.4095494025379418,1.3516536784082651,-0.31541458754613994
1789482454562088700,4.180088623046875,-1.5811197289034724,1.4804191745311022,-0.048347266800701616
1789482454572139800,4.190139892578125,-1.7395181467458605,1.6294897920578717,0.1605691860102117
1789482454582189800,4.20018994140625,-1.9101266423419117,1.7082663916528225,0.3276115135572851
1789482454592239600,4.210239501953125,-1.9363196527406572,1.7399691053837536,0.46300271143019195
1789482454602290700,4.220290771484375,-1.860673752386868,1.6595330481439827,0.554982783730328
1789482454612340700,4.2303408203125,-1.6722390927210449,1.521315248543024,0.6335391647033393
1789482454622390800,4.240390869140625,-1.5552484978049992,1.3018798859357834,0.7229726212605834
1789482454632441900,4.25044189453125,-1.534001127114892,0.9921358913719653,0.7562061978206038
1789482454642491600,4.26049169921875,-1.5937842724263667,0.6487468168377876,0.8578805656611919
1789482454652541700,4.270541748046875,-1.593509839399159,0.303699453702569,0.986676603052765
1789482454662592800,4.2805927734375,-1.5736740890726446,0.07106675586998462,1.0721382333695888
1789482454672642800,4.290642822265625,-1.7034204129263757,-0.096443189188838,1.0256732731841505
1789482454682692900,4.30069287109375,-1.900168727429211,-0.17717384546101092,0.8824752009525895
1789482454692743700,4.31074365234375,-2.1972519778624178,-0.2358469837039709,0.7333382401913404
1789482454702793500,4.32079345703125,-2.496178225813806,-0.3319365371495485,0.6205214238286018
1789482454712843800,4.33084375,-2.720936829270422,-0.45689095055162904,0.5323372366800904
1789482454722894600,4.34089453125,-2.903169127164781,-0.6222486860126256,0.3651904258452356
1789482454732944600,4.350944580078125,-2.930233951961994,-0.6736784289985894,0.1703539363130927
1789482454742995700,4.36099560546875,-2.730155908514559,-0.42885669620037076,-0.09447188911587
1789482454753045800,4.371045654296875,-2.4863553354576227,0.07941723558604717,-0.2563708624251187
1789482454763095600,4.381095458984375,-2.2302760033249855,0.6495902819246053,-0.2925814089693129
1789482454773146600,4.391146728515625,-1.9383818459674715,1.1283365059316157,-0.2907856115937233
1789482454783196700,4.40119677734375,-1.6195345074936747,1.4659645327210427,-0.3607043664723634
1789482454793246700,4.411246826171875,-1.1922750173568726,1.693680816939473,-0.579376197361201
1789482454803297800,4.4212978515625,-0.7292877957567572,1.6260089642047881,-1.0222766164831816
1789482454813347600,4.43134765625,-0.48462914456576106,0.9141244309306145,-1.879318247102201
1789482454823397600,4.441397705078125,-0.8333955282241106,-0.5601923350721597,-2.9766566804409025
1789482454833448700,4.45144873046875,-1.331036130054295,-2.4132027132242917,-3.717524147093296
1789482454843498800,4.461498779296875,-1.2064607790976762,-3.9690053377807137,-3.562661502161622
1789482454853548800,4.471548828125,-0.5799360232010483,-4.944880414703488,-2.6887217821031806
1789482454863599900,4.481599853515625,-0.0987459131732583,-5.023976747772097,-1.7508188545696437
1789482454873649700,4.491649658203125,0.041431203801929946,-4.075807423898578,-1.0186046499721706
1789482454883699700,4.50169970703125,-0.08386369360089302,-2.078618291914463,-0.5013711666606366
1789482454893750800,4.511750732421875,0.5187094010829926,0.06433657083213329,0.03862783681899309
1789482454903800800,4.52180078125,1.6751590718209743,1.5956237628132104,0.2976290477477014
1789482454913851000,4.531850830078125,2.3225205717802044,2.735156201019883,0.24387802220731972
1789482454923901700,4.541901611328125,2.5149068916812536,3.410100119909644,0.02046571879312396
1789482454933951700,4.55195166015625,2.4823946151331064,3.344688613322377,-0.6218472656048833
1789482454944001800,4.562001708984375,2.460728434509039,2.7525404665410518,-1.5778009597443043
1789482454954052600,4.572052490234375,2.4523572042658923,1.9225451021492481,-2.673937469947338
1789482454964102700,4.5821025390625,2.383485035830736,1.0155208586126565,-3.2524586579143997
1789482454974153700,4.59215380859375,2.532437287674844,0.21879531113803385,-3.152156162948906
1789482454984203500,4.60220361328125,2.8489000690996646,-0.23786709135472772,-2.515368956235051
1789482454994253600,4.612253662109375,3.0143910755515098,-0.446226933196187,-1.79462073302567
1789482455004304600,4.6223046875,3.0755636293947695,-0.3449690372020006,-1.0100079404100775
1789482455014354700,4.632354736328125,3.3113001384615894,-0.0682487758398056,-0.25717735650241375
1789482455024404700,4.64240478515625,3.5142648432612416,0.009316109877824783,0.4028418188475072
1789482455034455800,4.652455810546875,3.288206847643852,0.10110124412775039,0.9035019146293402
1789482455044505600,4.662505615234375,2.696934899175167,0.202972303584218,1.4908314090825616
1789482455054555600,4.6725556640625,2.193146003848314,0.040597383326292036,2.01376339629665
1789482455064606700,4.682606689453125,1.5574001228809355,-0.4337392075449228,2.5326737267792225
1789482455074656800,4.69265673828125,1.0889397305667399,-0.903231865516305,2.82902807841599
1789482455084706800,4.702706787109375,0.9695838678240776,-1.0632242745518683,3.331096725821495
1789482455094758000,4.7127578125,0.09517901447191834,-1.4582587806493044,3.9113784937202927
1789482455104807700,4.7228076171875,-0.9037081777911633,-1.823243016397953,4.2677442464664574
1789482455114857700,4.732857666015625,-0.9528932836554944,-1.229549978262186,4.514086612960696
1789482455124908800,4.74290869140625,-0.28513087376765905,-0.5950462063103914,4.054027553766965
1789482455134958800,4.752958740234375,-0.5454758274555206,-0.3985241017788648,2.753778483903408
1789482455145009000,4.7630087890625,-0.34843474055118856,-0.009586158990859985,1.2914670668624342
1789482455155059500,4.7730595703125,-0.18354812973327933,0.2268979535728693,0.01742898144572973
1789482455165109800,4.78310986328125,-0.17925182077884674,0.5689478884577751,-0.6076191260270773
1789482455175159800,4.793159912109375,-0.04117964019365609,0.6827817729085683,-1.0987893627993761
1789482455185210600,4.803210693359375,0.1208510697364807,0.6431073496460914,-1.361276516147703
1789482455195260700,4.8132607421875,0.10980828219652175,0.726017103523016,-1.1834325163401662
1789482455205310500,4.823310546875,-0.027227102686837312,0.7839467299222945,-1.0700298629134892
1789482455215361500,4.833361572265625,-0.22027356699705122,0.6847101106226444,-0.8289069846332072
1789482455225411600,4.84341162109375,-0.3836743231713772,0.6363841788709164,-0.5360604949869215
1789482455235462700,4.853462646484375,-0.6193605633556842,0.549134349963069,-0.31246187522038815
1789482455245512700,4.8635126953125,-0.7363713242769241,0.34894437057375904,0.05413958646655082
1789482455255562800,4.873562744140625,-0.7973463097214698,0.2642541630208492,0.6849344208978116
1789482455265613800,4.88361376953125,-0.9034346946120262,0.09803250420689583,1.2721177848786114
1789482455275663600,4.89366357421875,-1.1058359203100203,-0.15442133090496063,1.7313965073496103
1789482455285713700,4.903713623046875,-1.1653776580810546,-0.3299187675863504,2.0434761052541432
1789482455295764700,4.9137646484375,-1.077307744961977,-0.3105804453879595,2.1905048416897652
1789482455305814800,4.923814697265625,-1.0916004742085934,-0.10960545310080051,2.1183955910295245
1789482455315864800,4.93386474609375,-1.0505693756401537,0.21406243739724157,1.7748508875422178
1789482455325915600,4.94391552734375,-1.069172369301319,0.5649304695099592,1.2687955085881053
1789482455335965700,4.953965576171875,-1.0368903943777084,0.8904062862128019,0.7489622180417179
1789482455346015700,4.964015625,-0.9781821848213672,0.9839888252735137,0.12336086060032248
1789482455356066800,4.97406689453125,-0.8894073383033275,0.8483797468662262,-0.5510268857114017
1789482455366116900,4.984116943359375,-0.9687392336934805,0.905406286945939,-1.0046275625459848
1789482455376166700,4.994166748046875,-1.0487503435194492,0.44878655455112454,-1.6924645730175076
1789482455386217500,5.004217529296875,-1.204403773502633,0.10275310298800468,-2.089837897326052
1789482455396267800,5.014267822265625,-1.4476906248837709,-0.09810673848688602,-2.090684577283263
1789482455406317800,5.02431787109375,-1.6066718110501765,-0.2735176659286022,-1.814912848817557
1789482455416368600,5.03436865234375,-1.7015595874905585,-0.40322015064060684,-1.2296744814246892
1789482455426418400,5.04441845703125,-1.8362123880863188,-0.47458092102110383,-0.4117543163605034
1789482455436468500,5.054468505859375,-1.970944099137187,-0.5765361516296863,0.35269510140940546
1789482455446519600,5.06451953125,-2.0604297242730856,-0.640668724322319,1.263635641606897
1789482455456569600,5.074569580078125,-2.0948720921009776,-0.8099462635755539,2.2924042504578828
1789482455466619600,5.08461962890625,-1.9625601555429397,-1.1859691952109337,3.257899972185492
1789482455476670700,5.094670654296875,-1.76664551538527,-1.4477823948204516,4.237953503836692
1789482455486720500,5.104720458984375,-1.5163327839553356,-1.4550824887007474,5.180754286414385
1789482455496770600,5.1147705078125,-1.1789047367174177,-1.2322107219040392,5.878832412654161
1789482455506821600,5.124821533203125,-0.9049994597107172,-0.9947954659700393,6.134722067433596
1789482455516871700,5.13487158203125,-0.8654203135162591,-0.9311474619239568,5.76094720698595
1789482455526921700,5.144921630859375,-1.122788370285183,-1.3336053960204124,4.792347089502215
1789482455536972800,5.154972900390625,-1.184516146858409,-2.336781736844778,3.362386182576418
1789482455547022600,5.165022705078125,-1.0986515617638826,-3.4133044689089056,2.0598507553413508
1789482455557072600,5.17507275390625,-1.0525894832909106,-4.240332800188661,1.0333651428610087
1789482455567123700,5.185123779296875,-1.2657685619823633,-4.584497535270453,0.048715807852149004
1789482455577173800,5.195173828125,-1.7878880637697874,-4.355191351512074,-1.0013808357097207
1789482455587224800,5.205224853515625,-2.498003395414352,-3.6281577644228933,-1.6618030389025806
1789482455597274600,5.215274658203125,-2.8204718469947574,-2.8481933821350336,-1.7954966390773652
1789482455607324700,5.22532470703125,-2.4601111793935297,-2.470593994963169,-1.716043601525575
1789482455617375500,5.23537548828125,-1.5250573576807975,-2.3738883554458616,-1.3284727093070745
1789482455627425800,5.24542578125,-0.44511056945212185,-2.2282933050751685,-0.7469272050827741
1789482455637475800,5.255475830078125,0.3430850500863045,-1.8247452376544475,-0.3628175592340529
1789482455647526700,5.265526611328125,0.8140332406282424,-1.3378519475489854,-0.28165669485107064
1789482455657576400,5.275576416015625,0.9722504566848278,-0.894742269590497,-0.5703446035131812
1789482455667626500,5.28562646484375,0.8413561318397521,-0.3584492810219526,-1.013445732839033
1789482455677677600,5.295677490234375,0.4983937582850456,0.325641236397624,-1.4655493760488927
1789482455687727600,5.3057275390625,0.002832599927287083,0.7513210561275482,-1.92685858143419
1789482455697777700,5.315777587890625,-0.35256493569109587,0.9602817864716052,-2.4508881546266377
1789482455707828700,5.325828857421875,-0.14392678836490957,1.0761766951054335,-2.8657173483878373
1789482455717878500,5.33587841796875,0.6173533882517367,1.0697586447566747,-3.0555533992841837
1789482455727928600,5.345928466796875,1.5777122585475445,0.9158563692897558,-3.0707927617311475
1789482455737979600,5.355979736328125,2.0800584077201782,0.9387409857928752,-2.972607405050099
1789482455748029700,5.36602978515625,2.3747722986735402,0.9708891052037477,-2.7414985557839273
1789482455758079500,5.37607958984375,2.8013199872791765,0.548190347111225,-2.4543805267870424
1789482455768130600,5.386130615234375,3.2596447700262066,0.43105859015882014,-2.0163867305375636
1789482455778180600,5.3961806640625,2.7585852996632454,-0.16379238584041594,-1.8773215203270315
1789482455788230700,5.406230712890625,1.4216189027771353,-1.1671329773157835,-1.7347341273397205
1789482455798281700,5.41628173828125,0.5791515948250889,-1.788654518097639,-1.2162261671129613
1789482455808331800,5.426331787109375,0.20948124708682297,-1.7407324909716844,0.14506466982103883
1789482455818381600,5.436381591796875,0.22135259440541266,-1.502211904144287,1.727053217448294
1789482455828432600,5.4464326171875,0.4476467368662357,-1.8331202672898768,2.650807646511495
1789482455838482700,5.456482666015625,0.8736389835461974,-1.9810762015730141,3.7398818171128627
1789482455848532700,5.46653271484375,1.012080947291851,-2.0707488737136126,4.3932840585410595
1789482455858583800,5.476583740234375,1.2723393186748027,-2.1890794850617645,3.787544024258852
1789482455868633900,5.4866337890625,1.6842621234700084,-2.2094103254288435,2.3185065138332543
1789482455878683600,5.49668359375,1.784460281278193,-1.7088550051957367,1.0969786601155995
1789482455888734500,5.506734375,1.7821394371151924,-1.0624088665157556,0.36959414069689805
1789482455898784500,5.516784423828125,2.05186121789217,-0.5033429051250219,-0.08384805764034389
1789482455908835600,5.526835693359375,2.5629759260624647,0.14573124397099016,-0.23128932039961217
1789482455918885600,5.5368857421875,2.7103222040146586,0.8978601093500852,-0.29691527345515784
1789482455928935400,5.546935302734375,2.662534616923332,1.523929814955592,-0.5650969121180475
1789482455938986500,5.556986572265625,2.7875919061779975,1.9945079300761221,-0.9555846416313201
1789482455949036500,5.56703662109375,2.9848180673256515,2.4321441450595853,-1.2575190584227443
1789482455959086600,5.577086669921875,3.234363906036317,2.7701678931683302,-1.433152688704431
1789482455969137700,5.5871376953125,3.4540140804380175,3.0923446683257816,-1.353749773904681
1789482455979187700,5.597187744140625,3.493734388668835,3.491429326596856,-1.2440116343349217
1789482455989237500,5.607237548828125,3.477393494720757,3.8818729977726933,-1.227769962977618
1789482455999288600,5.61728857421875,3.466891097667813,4.323076549848914,-1.2346575305342673
1789482456009338600,5.627338623046875,3.3239918622523543,4.900820908224582,-1.1329228108085692
1789482456019388700,5.637388671875,3.013743425297737,5.451287383574247,-1.0517385655499993
1789482456029439700,5.647439697265625,2.5975992034152147,5.732762145987152,-1.0280275081600994
1789482456039489800,5.65748974609375,2.1171289320945736,5.606121386933326,-1.021424821959436
1789482456049539600,5.66753955078125,1.4867840333878992,5.138088280120492,-0.9525896245338022
1789482456059590700,5.677590576171875,0.7170490764304995,4.419988525593281,-0.9176737209100275
1789482456069640700,5.687640625,-0.10073387212008238,3.558875553882122,-0.8165736458260565
1789482456079690800,5.697690673828125,-0.946074689681828,2.598199799656868,-0.6574256517253816
1789482456089741800,5.707741943359375,-1.7857833465754984,1.4839613771826028,-0.4606164008155465
1789482456099792000,5.7177919921875,-2.641309165804088,0.2748001069545746,-0.067530471502617
1789482456109841700,5.727841552734375,-3.4970790229216218,-1.109952707979083,0.5679542012453079
1789482456119892500,5.737892578125,-4.272330405212939,-2.5936533883988857,1.428197112123668
1789482456129942500,5.747942626953125,-4.6168879390046,-4.1292432460099455,2.047958949756622
1789482456139992800,5.757992919921875,-4.788144377115368,-5.385294277706742,2.2599543716214594
1789482456150043600,5.768043701171875,-5.225303037714958,-5.783460067567229,1.9272572253629565
1789482456160093400,5.778093505859375,-5.8471115787446495,-5.340700518220663,0.9538237694386392
1789482456170143500,5.7881435546875,-5.760320599520206,-5.391778963550925,-0.3845536632891744
1789482456180194600,5.798194580078125,-4.599693350836635,-5.8876446646630765,-1.4036648745439946
1789482456190244600,5.80824462890625,-2.881711913116276,-5.337326073351502,-1.5334315105333924
1789482456200295700,5.818295654296875,-1.5414359532907604,-3.0804093158602712,-1.3081458144627511
1789482456210345700,5.828345703125,-1.2253814604058861,0.09802081376910209,-1.2827093215197325
1789482456220395500,5.8383955078125,-1.368621472083032,2.6765941219359637,-1.5235941532604396
1789482456230446600,5.848446533203125,-1.2028861354812979,4.297004535481333,-1.5697896488547325
1789482456240496600,5.85849658203125,-0.7607444257721304,5.424826077628135,-1.2354486809119583
1789482456250546700,5.868546630859375,-0.7356298582598566,5.9141433800101275,-0.678691434855014
1789482456260597800,5.87859765625,-1.1488000327676533,5.482696082794666,-0.3454726028099656
1789482456270647800,5.888647705078125,-0.8386760989755392,3.7885032246798276,-0.9214842921741306
1789482456280697600,5.898697509765625,0.29800679501891136,1.3165192366629839,-1.6225376348324119
1789482456290748700,5.908748779296875,0.626403175343573,-1.4542816937118768,-2.2610855676084753
1789482456300798700,5.918798828125,-0.2661944834336638,-3.7234775025397537,-3.243514303958416
1789482456310848800,5.928848876953125,-0.703593967051804,-5.52289832932353,-3.490287755346298
1789482456320899800,5.93889990234375,0.09551175355762243,-6.762078890240192,-1.8323269249550997
1789482456330949600,5.94894970703125,1.8599170888006686,-7.254378423303366,-0.30919447092227637
1789482456340999700,5.958999755859375,1.6330878165498375,-6.481994705402851,0.1402606305401772
1789482456351050500,5.969050537109375,0.7144783491596579,-4.191100859507918,0.35476971572637556
1789482456361100800,5.979100830078125,1.952288206245005,-1.3865800303608178,0.9380511038325726
1789482456371150800,5.98915087890625,3.3322479416832325,0.5983358955055474,1.0017276763860137
1789482456381201700,5.99920166015625,3.7092590075731273,1.8985335274428128,0.6794815623193979
1789482456391251500,6.00925146484375,3.5971678751364347,2.861499438431859,0.0016441870104521512
1789482456401301500,6.019301513671875,3.195441177923977,3.419481111717224,-1.1523076755624264
1789482456411352600,6.0293525390625,2.7890131711527704,3.555347964277863,-2.4620365944981573
1789482456421402400,6.03940234375,2.75757904523015,3.297968363201618,-3.742279818165302
1789482456431452400,6.049452392578125,2.801768900090456,2.74665082398057,-4.634873677550256
1789482456441503200,6.059503173828125,2.765686363840103,2.1312907284379006,-4.753039161464572
1789482456451553300,6.06955322265625,2.891692916643619,1.5954799704283475,-4.272323683211207
1789482456461603300,6.079603271484375,3.1963118232786654,0.8983779957443475,-3.1896997116625307
1789482456471654400,6.089654296875,3.652140697556734,-0.016942951494455336,-1.838116175881028
1789482456481704400,6.099704345703125,4.1596354616642,-0.7903753016650676,-0.5029334475412964
1789482456491755500,6.109755615234375,4.188547083371877,-1.390766376134753,0.3767334179922938
1789482456501805300,6.119805419921875,3.6608757926762103,-1.7167554030567407,0.9978210974015295
1789482456511855400,6.12985546875,2.714600319725275,-1.7003712544888256,1.9410636323973536
1789482456521906400,6.139906494140625,1.5634943481028079,-1.712489562305808,2.943607228276133
1789482456531956500,6.14995654296875,0.5573603265166283,-1.5941595354795455,3.9311905709102746
1789482456542006500,6.160006591796875,-0.18602189943566919,-1.312076285779476,4.883913028043509
1789482456552057600,6.1700576171875,-0.8737433207035065,-0.6966109762966632,5.34493947096467
1789482456562107400,6.180107421875,-1.3698176961302757,0.05538169548213481,4.772799508467316
1789482456572157400,6.190157470703125,-1.3667349276840686,0.2750719096332788,3.071642948819697
1789482456582208500,6.20020849609375,-0.9738871179759502,0.254758020401001,1.4224742044322192
1789482456592258600,6.210258544921875,-0.36971944757699965,0.3794780405253172,0.30102395088300105
1789482456602308600,6.22030859375,0.1401600197099149,0.3690682901918888,-0.4770500876136124
1789482456612359200,6.230359130859375,0.7073918980300427,0.2879039186775684,-1.0447907922387123
1789482456622409200,6.2404091796875,1.0321158003870397,0.2863970212459564,-1.286613635481894
1789482456632459500,6.25045947265625,1.1808112279258667,0.37731472501158714,-1.2959189317047595
1789482456642510300,6.26051025390625,1.0981822637517005,0.4727010986238718,-1.1716983124699443
1789482456652560400,6.270560302734375,0.6665081720430404,0.590104658254981,-1.0488402868252247
1789482456662610200,6.280610107421875,0.15840886617116628,0.8109048794746399,-0.6923191243216394
1789482456672661200,6.2906611328125,-0.20788294504471122,0.9199041833758353,-0.23035846929028628
1789482456682711300,6.300711181640625,-0.5567676943857223,0.8942354891121387,0.18688918378949165
1789482456692761300,6.31076123046875,-0.7110674447376281,0.7388742470085621,0.6579819704338907
1789482456702812400,6.3208125,-0.7023977430045605,0.553145923691988,1.1894611289799213
1789482456712862500,6.330862548828125,-0.689599051707983,0.2606944247126579,1.5658827045440673
1789482456722912300,6.340912353515625,-0.7823603375136852,0.11999182255864142,1.8200944892391562
1789482456732963300,6.35096337890625,-0.9410007474184036,0.15498714809417724,2.013977185177803
1789482456743013400,6.361013427734375,-1.1344938595175742,0.4182669131249189,2.0704463836356997
1789482456753064400,6.371064453125,-1.0640613098978995,0.6882347776174544,1.7797465506292878
1789482456763114500,6.381114501953125,-0.9448346264928579,0.6283709682852029,1.1322234303675591
1789482456773164500,6.39116455078125,-1.0141665213942528,0.4101291993767023,0.4674254963085055
1789482456783215400,6.40121533203125,-1.2313619961202145,0.23313363309204577,0.020745120256394148
1789482456793265400,6.411265380859375,-1.430754103130102,0.1601338633328676,-0.23389234250485896
1789482456803315500,6.4213154296875,-1.6976801157087087,-0.020357728374004364,-0.2585084589757025
1789482456813366500,6.431366455078125,-1.8939578900903462,0.06800327664613723,-0.04096124820262193
1789482456823416600,6.44141650390625,-1.8971973104029893,0.15427110877931116,0.22745398002043365
1789482456833466400,6.45146630859375,-1.7472651076108217,0.12113222476541995,0.4373908619202673
1789482456843517200,6.46151708984375,-1.528693083834648,0.09979600674808024,0.5422543811909855
1789482456853567500,6.4715673828125,-1.3574112190216778,-0.04460954157710075,0.4602297395855188
1789482456863617500,6.481617431640625,-1.3695663517177104,-0.17140110727846622,0.46034401361495253
1789482456873668400,6.49166845703125,-1.470760534825921,-0.2918243069916963,0.5236208462610841
1789482456883718400,6.501718505859375,-1.6127970159322023,-0.43338498727977276,0.7118415709152818
1789482456893768200,6.511768310546875,-1.7154792456410823,-0.4484568842053413,1.1611144476786255
1789482456903819300,6.5218193359375,-1.8870535175293683,-0.4367313750982284,1.7546083099804817
1789482456913869300,6.531869384765625,-2.1124147630542516,-0.6044704527378082,2.3768175407655536
1789482456923919400,6.54191943359375,-2.3615479293107984,-0.8821662811338901,3.0855244669169184
1789482456933970400,6.551970458984375,-2.512191495242715,-1.186786941334605,3.7095349019050596
1789482456944020500,6.5620205078125,-2.520035779002309,-1.418202664592862,4.149994942137599
1789482456954070300,6.5720703125,-2.4670810184061525,-1.5087258160829544,4.286742376925051
1789482456964121300,6.582121337890625,-2.327978252664208,-1.6347423057585955,3.835651929345727
1789482456974171400,6.59217138671875,-2.3668040962733325,-1.8827450066804885,2.9204326889157293
1789482456984221400,6.602221435546875,-2.7990333376467227,-2.0218629699915645,1.7507061879754064
1789482456994272500,6.6122724609375,-3.269861043614149,-2.163399684882164,0.39438130288571116
1789482457004322300,6.622322265625,-3.7154268825531003,-2.633670341488719,-0.5430363253489137
1789482457014373400,6.632373291015625,-3.8406525141119956,-3.437800612261891,-0.6810464735485613
1789482457024423400,6.64242333984375,-3.081830873095989,-4.13953024674654,-0.10936769882217048
1789482457034473500,6.652473388671875,-1.7124952613942324,-4.2633465960294,0.6561310818701982
1789482457044524500,6.662524658203125,-0.45448213584423064,-3.9118057792216536,1.2946825217776
1789482457054574600,6.67257470703125,0.16528174761533737,-3.651269759941101,1.691451304321736
1789482457064624400,6.682624267578125,0.08465031393393874,-3.6471903816729783,1.697307629134506
1789482457074675200,6.69267529296875,-0.27157003899216653,-3.7143110302656885,1.1330432223178446
1789482457084725500,6.7027255859375,-0.0032230536997318268,-3.5293443389713763,0.19160189152508972
1789482457094775600,6.712775634765625,0.23063706703595815,-2.846795205774903,-0.5717129692569375
1789482457104826400,6.722826416015625,0.035306291180849075,-1.9182810149639844,-1.3034908282637596
1789482457114876400,6.73287646484375,-0.3462766126692295,-0.9470634084582328,-2.10646783734858
1789482457124926200,6.74292626953125,-0.803746824413538,-0.009945639953017234,-2.8211715196967124
1789482457134977300,6.752977294921875,-0.4563280559718609,0.5602157159477472,-3.2741566949814556
1789482457145027300,6.76302734375,0.5342155977725982,0.6843985604554415,-3.5281486994460223
1789482457155077400,6.773077392578125,1.4773404977381228,0.5930184998750686,-3.5712063354060053
1789482457165128400,6.78312841796875,2.208364615768194,0.5748503904998302,-3.5082059816136955
1789482457175178200,6.79317822265625,2.1722810566045343,0.26829671640992164,-3.65992477556169
1789482457185228300,6.803228271484375,2.1591715457931158,-0.30490532236099244,-3.7385429697245356
1789482457195279400,6.813279296875,1.6591104388177393,-0.33397768758833407,-3.421564055471122
1789482457205329400,6.823329345703125,2.2780779112026095,-0.40060675327181816,-2.8739152678906916
1789482457215379500,6.83337939453125,3.4397508695468306,-0.047639703053236004,-2.3118540702067314
1789482457225430500,6.843430419921875,3.491746429722011,0.31768823156654835,-1.3376592014558613
1789482457235480300,6.853480224609375,2.2366636585354804,0.0066296472728252405,-0.3916142493251711
1789482457245531400,6.863531494140625,1.0057318705260754,-0.25686989798843857,0.20358298282846807
1789482457255581400,6.87358154296875,1.21422176848799,-0.300305135089159,1.2938142145104705
1789482457265631500,6.883631591796875,0.9779618200689554,-1.0005173507481813,2.1588900985032318
1789482457275682600,6.8936826171875,1.5876082141399384,-1.7918425004839895,3.5431557144418355
1789482457285732600,6.903732666015625,1.565944956125319,-2.350681667381525,4.840490942685306
1789482457295782400,6.913782470703125,1.4698454658076165,-2.7325305286914108,5.262623591327667
1789482457305833200,6.923833251953125,1.8819757758736608,-2.7650363754987715,4.691241169199348
1789482457315883500,6.933883544921875,2.594766025815904,-2.1863994521975516,2.3576050369039177
1789482457325933600,6.94393359375,2.57906985951215,-1.1912450897872446,0.8900566690575331
1789482457335984400,6.953984375,2.7927593719437716,-0.5149404039382934,-0.22811602412573992
1789482457346034200,6.9640341796875,2.9106013229921457,0.27348084104955195,-0.788025669799
1789482457356084200,6.974084228515625,3.4420170609131455,1.381480661395192,-0.9640605743579566
1789482457366135300,6.98413525390625,3.7098464520722625,2.341777645435929,-1.296381434649974
1789482457376185300,6.994185302734375,3.592072305563092,2.965626167860627,-1.7405026277385651
1789482457386235400,7.0042353515625,3.631037703773379,3.399396939587593,-1.9943001325443386
1789482457396286500,7.014286376953125,3.7471260891526934,3.7367192614287137,-1.8723197665169835
1789482457406336300,7.024336181640625,3.8859699116975066,3.8437557408243417,-1.5976307187214493
1789482457416386300,7.03438623046875,4.006145858651399,3.7970337371379137,-1.4209103161163628
1789482457426438000,7.04443798828125,3.96060166657269,3.848173557266593,-1.2383707058385014
1789482457436488000,7.054488037109375,3.7827898154690858,4.147217294117808,-1.0821222325716167
1789482457446538000,7.0645380859375,3.4131168373823164,4.563476959073543,-1.0557497008875012
1789482457456589000,7.074589111328125,3.032464492380619,4.938306297010183,-1.2709218530923128
1789482457466638800,7.084638916015625,2.6218583231419323,5.112525968840718,-1.507918883614242
1789482457476689000,7.09468896484375,2.1337544882029293,4.995889886450767,-1.6744591068580745
1789482457486740000,7.104739990234375,1.591603421255946,4.50663746599853,-1.8677384300760924
1789482457496790000,7.1147900390625,0.8906070694819093,3.6830052068978545,-1.9528782810926437
1789482457506840800,7.1248408203125,0.03453179967701435,2.5942817494302988,-1.9095485501930116
1789482457516891000,7.134890869140625,-0.9282882731005548,1.3345873927950858,-1.8069412854164837
1789482457526941000,7.14494091796875,-1.9906281660333274,0.035944004562497134,-1.5439255781494081
1789482457536991700,7.15499169921875,-3.076585958179831,-1.3884212743133306,-1.079548728821799
1789482457547041800,7.165041748046875,-4.0339083103239535,-2.8640497074365614,-0.40906668471172447
1789482457557091800,7.175091796875,-4.51133819103539,-4.075633236375451,0.35577209770195184
1789482457567143000,7.185142822265625,-4.482125832815468,-4.8591807378470895,1.0518303354866803
1789482457577192700,7.195192626953125,-4.574781904681027,-4.752551085686683,1.371402334973216
1789482457587242800,7.20524267578125,-5.160644395321607,-3.891765446233749,1.2161805013403295
1789482457597293800,7.2152939453125,-5.7694555076122285,-3.057301996517181,0.5695143632341176
1789482457607343900,7.22534375,-5.6681379903852935,-3.014848171669245,-0.2881717758335173
1789482457617394000,7.235393798828125,-4.7373871265634895,-3.793644094699621,-0.5702139628708363
1789482457627445000,7.245445068359375,-3.148851568445563,-4.4488130535393955,0.025061887476965784
1789482457637494800,7.255494873046875,-2.0487126907333733,-3.5217853018939493,1.0145015255022793
1789482457647544800,7.265544921875,-2.3845547108888625,-1.0052765279740095,1.389040721385926
1789482457657596000,7.275595947265625,-3.0676670309260485,1.7959885142475365,1.1216828201960771
1789482457667646000,7.28564599609375,-2.7666239369511603,4.009074897840619,1.3571952381834387
1789482457677696000,7.295696044921875,-2.488456691651046,5.707790786337852,2.0085639279574155
1789482457687747000,7.3057470703125,-3.1615383238002654,6.877285232087969,2.6916598813816903
1789482457697796900,7.315796875,-2.0593568343445656,7.066132564207911,2.8084508620724082
1789482457707847000,7.325846923828125,1.6021584252789616,5.66700694052875,2.112426015100628
1789482457717898000,7.33589794921875,3.4634845040947195,2.225755311030149,0.5639751415465026
1789482457727948000,7.345947998046875,2.236027114197612,-2.2587504026591776,-2.400827800297737
1789482457737998800,7.355998779296875,2.383721767196059,-6.501282174196839,-4.414136584694683
1789482457748049000,7.366048828125,3.923152225883305,-11.300846939992905,-3.9219872737571593
1789482457758099000,7.376098876953125,3.687680797493458,-14.785845941281318,-3.130351450636983
1789482457768149800,7.386149658203125,0.6039677639126777,-14.012717542493343,-3.722193600209057
1789482457778199800,7.39619970703125,-0.017106325362622736,-7.919028327193856,-3.038238399606943
1789482457788249900,7.406249755859375,2.7432383851885795,-1.2908598947495222,-2.29427472050488
1789482457798301000,7.416301025390625,4.159316312712431,1.8780799374789,-2.7736840845957396
1789482457808350700,7.426350830078125,4.133556725294888,3.982436481761932,-3.1218063251316543
1789482457818400800,7.43640087890625,3.4788194358706472,5.773875077620148,-3.030274873381853
1789482457828451800,7.446451904296875,3.0313503936588764,6.5622033836275335,-2.9739129346907136
1789482457838502000,7.456501953125,3.353543535429239,6.593079583406448,-2.906427252177894
1789482457848552000,7.466552001953125,4.3176828741118305,5.522608990988135,-2.9338965661227703
1789482457858603000,7.47660302734375,5.073611424034834,3.6616806793183088,-3.085849461087584
1789482457868652800,7.48665283203125,5.438107584005594,1.9854402420014141,-3.2704937885597345
1789482457878702800,7.496702880859375,5.408599749970436,0.5545318250924348,-3.198469001312554
1789482457888754000,7.50675390625,4.620267936831713,-1.0233160425335168,-2.8925130008548496
1789482457898804000,7.516803955078125,3.94916900293231,-2.4701725546807047,-1.9645456302717328
1789482457908854000,7.52685400390625,3.3136429021954537,-2.9735137062400576,-0.750985540562868
1789482457918904800,7.53690478515625,2.8053356526613236,-2.7107775465667245,0.47351913700848813
1789482457928955000,7.546954833984375,2.4507002308391033,-2.2447914354115723,1.7129703315600753
1789482457939006000,7.557005859375,1.6771674890339374,-1.8978204107373953,3.1699197831764816
1789482457949056000,7.567055908203125,0.38336817983165383,-1.166102465224266,4.608980234619975
1789482457959106000,7.57710595703125,-0.834933405315876,-0.09838029473125934,5.472539430439472
1789482457969156900,7.587156982421875,-1.3866098409771919,0.670132134693861,5.417587358546257
1789482457979207000,7.59720703125,-1.1877147237040102,0.9016022184878587,4.451833862665295
1789482457989257000,7.607257080078125,-0.7883165425043552,0.7507131533622742,2.8883728323101994
1789482457999307800,7.617307861328125,-0.5087877265274524,0.4875403558373451,1.3788679946787654
1789482458009357800,7.62735791015625,-0.3653006082214415,0.2800187183856964,0.3141059891656041
1789482458019408000,7.637407958984375,-0.10368249279260634,0.057063364958763116,-0.3993412633806467
1789482458029459000,7.647458984375,0.35635618120022117,-0.0816074391067028,-1.0209445641618222
1789482458039508700,7.6575087890625,0.9546704493958502,-0.054042555832862854,-1.2538485532164574
1789482458049558800,7.667558837890625,1.1305530860025435,0.05530103146135807,-1.3271964057609438
1789482458059609900,7.67760986328125,1.1494821698129176,0.2741355055660009,-1.0782395459193737
1789482458069660000,7.687659912109375,1.0479307707648724,0.5440151072531938,-0.7594119350593537
1789482458079710000,7.6977099609375,0.6517758092701434,0.6095569622218608,-0.3916981282163411
1789482458089760800,7.7077607421875,0.16442834565639494,0.6522399196505546,-0.044433308227360246
1789482458099810800,7.717810791015625,-0.18763503372073173,0.41961189799308773,0.0647896483618766
1789482458109860900,7.72786083984375,-0.4070178624231368,0.3126549135744571,0.20773411115854978
1789482458119912000,7.737911865234375,-0.7628256890255958,0.15235095437169074,0.27994273054003715
1789482458129962000,7.7479619140625,-1.2205717220366001,0.15377484969496727,0.4744361787881702
1789482458140011800,7.75801171875,-1.4907903464198111,0.32212358366549015,0.7217026013247668
1789482458150062800,7.768062744140625,-1.681304734969139,0.4743815990567207,0.9123472651902585
1789482458160113000,7.77811279296875,-1.9461153628289698,0.5736538741916418,1.0892322107072918
1789482458170164000,7.7881640625,-2.088702463555336,0.637302462759614,1.150908110962808
1789482458180214000,7.798214111328125,-2.0094179144382474,0.557032409736514,1.0927701025098562
1789482458190264000,7.80826416015625,-1.8410054675817489,0.3810965816378593,0.9356934347905218
1789482458200315000,7.81831494140625,-1.589524276894331,0.22764321898221967,0.6347958137009293
1789482458210365000,7.828364990234375,-1.2809423118472099,0.18934300668239593,0.29495566381998356
1789482458220415000,7.8384150390625,-0.9689911626279354,0.12718319536745548,0.0530612897105515
1789482458230465800,7.8484658203125,-0.7367290516734123,0.22015958522856235,-0.08233297690227627
1789482458240515800,7.858515869140625,-0.6825684224188328,0.2829290528744459,-0.11982260347157717
1789482458250566000,7.86856591796875,-0.7227396892875433,0.3272615310758352,-0.09704626964852213
1789482458260616700,7.87861669921875,-0.8149918565273284,0.4165069177150726,-0.022645693180710077
1789482458270666800,7.888666748046875,-0.9761556474298239,0.4617565107613802,0.20402502750754356
1789482458280716800,7.898716796875,-1.2141665311694145,0.46495501454174515,0.5784833401747047
1789482458290768000,7.908767822265625,-1.3872171592205762,0.17690613443553446,1.049127067877352
1789482458300818000,7.91881787109375,-1.594796664339304,-0.3469178331822157,1.6383903068721293
1789482458310867700,7.92886767578125,-1.800726648685336,-0.7328285371035337,2.3679854150123893
1789482458320918800,7.938918701171875,-1.9960697725653647,-0.9110147744774818,3.084904289191961
1789482458330968800,7.94896875,-2.0920295621514318,-0.875208132559061,3.7012247541993855
1789482458341019000,7.959018798828125,-2.01646374129653,-0.7112286997139453,4.252032882593572
1789482458351070000,7.969070068359375,-1.8714882841289042,-0.621574732273817,4.639618533989787
1789482458361120000,7.9791201171875,-1.5302327144920824,-0.6461193909436463,4.729755316510796
1789482458371171000,7.989171142578125,-1.1652864726662635,-0.7669301286697388,4.4084822121948
1789482458381220900,7.999220947265625,-0.9660941260121763,-0.9871078340768813,3.7547915092140434
1789482458391271000,8.00927099609375,-1.0401635708294807,-1.0085749849975107,2.9340280835479495
1789482458401322000,8.019322021484374,-1.717948412233591,-1.015730701971054,1.783112519931048
1789482458411372000,8.0293720703125,-2.8908745859980582,-1.1137485931307076,0.2376043487653136
1789482458421421600,8.039421630859374,-4.142130492372811,-1.3787638036519287,-1.015172337435931
1789482458431472600,8.04947265625,-4.833559974378347,-2.1161633019328114,-1.4657090966552495
1789482458441522700,8.059522705078125,-4.573438381117582,-3.43923912063241,-1.004661903207004
1789482458451572500,8.069572509765624,-3.63769423905313,-4.624142732438445,0.299602978169173
1789482458461623600,8.07962353515625,-2.2446897286027667,-4.819620880874991,1.7431553342044352
1789482458471673600,8.089673583984375,-0.9341682710498571,-4.3864024823337795,2.8186019614696503
1789482458481723600,8.0997236328125,-0.26054018399901685,-3.735089029878378,3.6643627580091356
1789482458491774500,8.1097744140625,-0.05045943664908409,-3.1983968128591775,3.8651515800744294
1789482458501824500,8.119824462890625,0.217019533637166,-2.7434745320320126,3.045850628176331
1789482458511874600,8.12987451171875,0.8014525759965181,-2.4930495723992583,1.9144784078106283
1789482458521925400,8.13992529296875,1.2038602412104606,-2.039135591831803,0.8358197596963495
1789482458531975400,8.149975341796875,1.3069500288069247,-1.110461826545,-0.3922529856201261
1789482458542025500,8.160025390625,0.9780839851438998,-0.15081190823614596,-1.4072344035938382
1789482458552076500,8.17007666015625,0.5248702618002892,0.4411550367593765,-2.4642221218436955
1789482458562126600,8.180126708984375,0.6695920364677905,0.4651911613851785,-3.5320144349634646
1789482458572176400,8.19017626953125,0.979853990491107,-0.0938636940896511,-4.589077848798036
1789482458582227500,8.2002275390625,0.9222200591027736,-0.9233505244374275,-5.773542484664917
1789482458592277500,8.210277587890625,0.6581633183501661,-1.6728870352357625,-6.9220695457100865
1789482458602328600,8.22032861328125,0.06234641992822289,-2.418649872714281,-7.827963323912024
1789482458612378600,8.230378662109375,0.3635471886828541,-2.553703655326366,-7.653643114316463
1789482458622428400,8.240428466796875,5.2525137007236475,-0.7860977704763412,-5.626383253717422
1789482458632479500,8.2504794921875,6.695571989631652,0.5521756173551082,-3.1922967424184083
1789482458642529500,8.260529541015625,-1.8652676560483872,0.7170674888700247,-2.4238768135823308
1789482458652579600,8.27057958984375,-0.7344733817011118,1.3848784871399402,-1.1620138076711446
1789482458662630700,8.280630615234376,-0.38901714550405736,0.3847369839668274,-0.20583565712608395
1789482458672680700,8.2906806640625,1.4998641719743608,-0.22513795816302298,0.8138822878502309
1789482458682730500,8.30073046875,2.9759572999998927,-0.9338567208826541,2.1708377259284255
1789482458692781600,8.310781494140626,1.850507163159549,-1.9709861847132444,3.940703080143034
1789482458702831600,8.32083154296875,1.676523053650558,-2.5349796656340358,5.595768919745088
1789482458712881700,8.330881591796874,0.8445929218038916,-3.314818375715613,6.592066022449732
1789482458722932500,8.340932373046876,1.9145318915635345,-3.6959652262359857,6.230968857267499
1789482458732982500,8.350982421875,3.0556878393188116,-3.46109673217535,3.946854588510096
1789482458743032600,8.361032470703124,3.1228435592249033,-1.9430664966523645,1.3774118045210837
1789482458753083400,8.37108349609375,2.90843946878314,-0.5631862561911344,-0.07406747205592691
1789482458763133400,8.381133544921875,3.0353415091216562,0.2578063020557165,-0.8676134396463632
1789482458773184500,8.3911845703125,3.459711415296793,1.17849725189507,-1.2568743307784198
1789482458783234600,8.401234619140626,3.3710143101900814,1.9389432792425154,-1.7382557255946098
1789482458793284400,8.411284423828125,2.971381370386481,2.4993922194242475,-2.4417612837105986
1789482458803335400,8.42133544921875,2.980630260246992,2.9079870488405226,-2.994271539847553
1789482458813385500,8.431385498046875,3.188093445509672,3.488497949320078,-2.703335413867235
1789482458823435500,8.441435546875,3.4353824452042576,3.8254151974916457,-2.128461934752762
1789482458833486600,8.451486572265624,3.6373131307810542,3.645420449391007,-1.612578258614987
1789482458843536600,8.46153662109375,3.8827369211256504,3.6213369784921405,-0.9273676511242985
1789482458853586400,8.47158642578125,4.085609855988621,3.8546716871142386,-0.3761125096149742
1789482458863637500,8.481637451171874,4.031491896831989,4.200620967525244,-0.1385964236550033
1789482458873687600,8.4916875,3.855784324531257,4.533149625349044,-0.33046441877037286
1789482458883737600,8.501737548828125,3.5045579805001617,4.727281035351753,-0.7698024692356586
1789482458893788700,8.51178857421875,3.00822699996382,4.85462848137021,-1.1761639866419136
1789482458903838700,8.521838623046875,2.4485063740566373,4.787797171112895,-1.4835792459972201
1789482458913889500,8.5318896484375,1.8308152052178979,4.395407626566291,-1.7219633469633757
1789482458923939600,8.541939697265626,1.0671174825981258,3.6271781057357786,-1.8895703226558862
1789482458933989600,8.55198974609375,0.19753508096635342,2.6301813303291794,-1.9124603459864853
1789482458944040400,8.56204052734375,-0.7361983057975768,1.5415426285356282,-1.8676403765290974
1789482458954090500,8.572090576171876,-1.825788901488483,0.4481605316072702,-1.6609598660767078
1789482458964140300,8.582140380859375,-2.939636863340437,-0.7210106735378503,-1.2966010687500238
1789482458974191400,8.59219140625,-4.088975825290381,-1.906338063713908,-0.638291254601255
1789482458984241400,8.602241455078126,-5.027613642969727,-2.9668834744453427,0.2410748013548553
1789482458994291500,8.61229150390625,-5.353938769978284,-3.7092046470373865,1.3394354173481464
1789482459004342500,8.622342529296875,-5.345961215227842,-4.14053796248436,2.2280643186248836
1789482459014392600,8.632392578125,-5.5654784108996385,-4.384863436198234,2.464659344217181
1789482459024442400,8.6424423828125,-5.975970598369837,-4.188398030290007,2.432659547235817
1789482459034493400,8.652493408203124,-5.87460164321661,-4.401566733717918,1.978948541894555
1789482459044543500,8.66254345703125,-4.97025977063179,-5.346929767999053,1.3305091835707425
1789482459054593500,8.672593505859375,-3.371709014455974,-5.648178905940055,0.9527616931650787
1789482459064644600,8.68264453125,-1.9617478162467479,-3.94017964079082,0.8536234196733683
1789482459074694700,8.692694580078125,-1.9319313546538353,-0.5122404973298311,0.7871057054098695
1789482459084745500,8.702745361328125,-2.248224916991591,2.6334400398641824,0.6069706720557063
1789482459094795500,8.71279541015625,-1.9537100557416676,4.749805586370825,0.4170603138141334
1789482459104845600,8.722845458984375,-1.9192770402640102,6.09849573879838,0.5083347951281816
1789482459114896600,8.732896728515625,-2.3422034696325658,6.5772554068088525,0.6113583856206387
1789482459124946700,8.74294677734375,-1.2619599634796381,6.2143596677720545,0.2593943018995225
1789482459134996500,8.75299658203125,1.977600342155993,4.721806987854838,-0.6156261260677128
1789482459145047600,8.763047607421875,3.697286537967622,1.6344138044565915,-2.2259435270786283
1789482459155097600,8.77309765625,1.1509671476736665,-1.7813719598740339,-4.107158547712862
1789482459165147600,8.783147705078125,0.03302577902823686,-4.75162403396964,-5.337867340621352
1789482459175198500,8.793198486328125,1.437591547934711,-7.898222855052351,-4.484731923660636
1789482459185248500,8.80324853515625,2.9933892040550707,-10.55149338454604,-2.7265546691522
1789482459195298600,8.813298583984375,1.6473273543044924,-11.110233182722329,-2.506812724813819
1789482459205349400,8.823349365234375,-0.2791445658996701,-8.054090877634286,-1.7111900240145623
1789482459215399400,8.8333994140625,1.7214391769587993,-3.2535143044471737,-0.14142331764400004
1789482459225450500,8.843450439453125,3.4922564250707624,-0.38935587593913074,-0.10029314261525869
1789482459235500500,8.85350048828125,3.5077062153980134,1.7521856128782032,-0.4033601436331868
1789482459245550600,8.863550537109376,3.339584275920689,3.523020981168747,-0.6610046061906963
1789482459255601400,8.873601318359375,3.038677083285153,4.5021454152762885,-1.1448751144088805
1789482459265651500,8.8836513671875,2.6117159915730355,4.760513442867994,-1.870682812964916
1789482459275701500,8.893701416015626,2.717240897361934,4.470432180151343,-2.7414211066335437
1789482459285752600,8.903752685546875,3.376104619066417,3.601072773620486,-3.482525596912205
1789482459295802600,8.913802734375,3.98983506758064,2.5883114428490397,-3.560494094994664
1789482459305852400,8.923852294921875,4.489367474506795,1.6575971116453407,-3.1465286784559487
1789482459315903500,8.933903564453125,4.921218384087085,0.6601046616762876,-2.289486901706457
1789482459325953500,8.94395361328125,4.996935011589527,-0.5554144531458616,-1.3531541460990906
1789482459336003600,8.954003662109375,4.605438324229419,-1.6538777988612652,-0.5439845659844577
1789482459346054700,8.9640546875,4.096956010389328,-2.145592810034752,0.3561212764658034
1789482459356104700,8.974104736328124,3.4872283677756784,-2.0710212609142062,1.3653395278029143
1789482459366155500,8.984155517578126,2.386193856398016,-1.8083201725542544,2.3075256856136024
1789482459376205600,8.99420556640625,0.9674972708083689,-1.7290514055281876,3.3289529917910694
1789482459386255600,9.004255615234374,-0.819342891343683,-1.1166086587369441,4.508410905411839
1789482459396306400,9.014306396484375,-2.529474053955078,-0.5712070655614138,5.08969571287334
1789482459406356500,9.0243564453125,-3.4671664074778556,-0.040189387047290796,4.390091692240536
1789482459416406500,9.034406494140624,-1.0225577715121208,0.6832008751034736,3.3251120984539386
1789482459426457300,9.044457275390625,0.6170014330089092,0.5437661009281873,1.8115021635912358
1789482459436507400,9.05450732421875,0.09291428441032767,0.5724731399744749,1.1429159431651235
1789482459446557200,9.06455712890625,-0.12999196917787192,0.4565624492496252,0.10263897508904338
1789482459456608300,9.074608154296875,0.03863338977694511,0.03350947089195251,-0.8441628598235547
1789482459466658300,9.084658203125,0.679551266554743,-0.18932605554759502,-1.2568091565877197
1789482459476708400,9.094708251953126,1.0722190435208379,0.03359071943461895,-1.3360244398608803
1789482459486759400,9.104759521484375,1.149783856173232,0.22138298954367636,-1.3472460910990833
1789482459496809500,9.1148095703125,0.8868682482797652,0.407313557434082,-1.1355179418683052
1789482459506860500,9.124860595703124,0.6021216976545751,0.6717559365034103,-0.7312597534168511
1789482459516910300,9.134910400390625,0.2603774677179754,0.7593108858376741,-0.34684864040352403
1789482459526960400,9.14496044921875,-0.12551204728484153,0.7298901455640793,0.03637275136858225
1789482459537011500,9.155011474609376,-0.41717217669077217,0.6706149497747421,0.48570254595093426
1789482459547061500,9.1650615234375,-0.4891665687996894,0.43264673613309856,0.8712314109478145
1789482459557111600,9.175111572265624,-0.5084429316777735,0.1965419782757759,1.1160331969365478
1789482459567162600,9.18516259765625,-0.5908125142633914,0.07140987021923065,1.2977381099559366
1789482459577212400,9.19521240234375,-0.6289911460101604,0.08657236803770064,1.4441069211781024
1789482459587262500,9.205262451171874,-0.6895815160512924,0.17754677042663097,1.5014444269031286
1789482459597313300,9.215313232421876,-0.7962461664598435,0.39932138963639735,1.4356065115973353
1789482459607363600,9.225363525390625,-0.8525088094949722,0.735086545163393,1.2905781551986932
1789482459617413400,9.235413330078124,-0.8140133668839931,0.9686100543558597,1.115458684984222
1789482459627464200,9.245464111328126,-0.8549193777680396,1.200511515304446,0.9537538460075855
1789482459637514200,9.25551416015625,-0.8862661176681518,1.338074650388956,0.7792004121780395
1789482459647565300,9.2655654296875,-0.8162684523344039,1.2968605964690445,0.5934728925790638
1789482459657615400,9.275615478515626,-0.9645499653100967,1.1399988866746424,0.4537346784777939
1789482459667665400,9.28566552734375,-1.052486607438326,0.9451777408421039,0.38070341760180887
1789482459677716500,9.295716552734374,-1.0962661279320716,0.6776683754175901,0.2533607208237052
1789482459687766300,9.305766357421875,-1.202706979522109,0.3830956465005874,0.055729924397915596
1789482459697816300,9.31581640625,-1.3338666773051022,0.16915654322206974,-0.14098653366193176
1789482459707867400,9.325867431640624,-1.5472463931351899,-0.07475275090634823,-0.2837012062907219
1789482459717917400,9.33591748046875,-1.7958464754283427,-0.35075814199745653,-0.228643189805001
1789482459727967500,9.345967529296875,-2.003292709556222,-0.5829214687526225,0.019439298354834315
1789482459738018600,9.3560185546875,-2.1419062304764984,-0.6895844386607408,0.4102440579280257
1789482459748068400,9.366068359375,-2.2314082222253084,-0.6447901881664991,1.0563485435634852
1789482459758119400,9.376119384765625,-2.182614088439941,-0.47304538201689716,1.9609772702656685
1789482459768169500,9.38616943359375,-2.005899092662334,-0.33120880739688874,2.976648497134447
1789482459778219500,9.396219482421875,-1.666940109530091,-0.41288989626169204,3.8606475466534493
1789482459788270600,9.4062705078125,-1.2345067238867282,-0.5952011046111584,4.515806568621099
1789482459798320400,9.4163203125,-0.921299364061281,-0.9639701195955276,4.74636625957191
1789482459808370400,9.426370361328125,-0.8005810538589954,-1.4197627535164354,4.490106017914414
1789482459818421200,9.436421142578125,-0.8769734617311506,-1.7631559197038411,3.7306601075202224
1789482459828471300,9.44647119140625,-1.3617964483685792,-2.0004735604822637,2.5077906299352644
1789482459838521600,9.456521484375,-2.466371408832073,-2.312430554920435,1.049614997524768
1789482459848572400,9.466572509765625,-3.7709085312783714,-2.8375854788810013,-0.3481441601067781
1789482459858622200,9.476622314453126,-4.950740246647596,-3.872486745268106,-1.4428342708937822
1789482459868672300,9.48667236328125,-5.912639989709854,-5.033431973859668,-1.763777704863995
1789482459878723300,9.496723388671874,-5.550570180103183,-5.467219696721434,-0.9031859805479645
1789482459888773400,9.5067734375,-3.5448926212370395,-4.836335284310579,0.693823099143803
1789482459898824400,9.516824462890625,-1.569773866763711,-3.996851376083493,2.3203952501893044
1789482459908874500,9.52687451171875,-0.34649639289975165,-3.356961819440126,3.630304421062767
1789482459918924300,9.53692431640625,0.21467728135995565,-3.050166737809777,4.182932750621438
1789482459928975400,9.546975341796875,0.4427648100435734,-2.913551697230339,3.8016400618895885
1789482459939025400,9.557025390625,0.7016168217599391,-2.8460125309646127,2.6901822100445627
1789482459949075500,9.567075439453125,1.3592577236711978,-2.400861702567339,1.1725346902288496
1789482459959126500,9.57712646484375,1.3044377537250518,-1.6923521986842154,-0.05043481366448104
1789482459969176300,9.58717626953125,1.1167372535526752,-1.0494973624944686,-1.1149633026827126
1789482459979226400,9.597226318359375,0.5556476408472284,-0.35577217076718803,-2.055762609244883
1789482459989277400,9.60727734375,0.11723759194705635,0.08577800278961659,-3.0937136185914276
1789482459999327500,9.617327392578124,0.13552264223285018,0.3156505882591009,-4.093360616245866
1789482460009378600,9.627378662109376,0.6534405276119709,0.1124725329697132,-5.152834013831615
1789482460019428600,9.6374287109375,1.26769573065266,-0.16480419323146342,-6.157483349817991
1789482460029478400,9.647478515625,1.1690122151911257,-0.2988789016783237,-6.952068378132581
1789482460039529200,9.657529296875,1.0241619918383658,-0.21946166609227655,-7.19987409517765
1789482460049579300,9.667579345703125,1.6423909208156167,0.28478432535231113,-6.642746992895007
1789482460059629600,9.677629638671876,2.7370389460265634,0.9433417575865983,-5.1442713526695965
1789482460069680400,9.687680419921875,3.4304724613308903,1.1043009658277034,-3.3972868155658245
1789482460079730400,9.69773046875,3.4721222763195634,0.9888818580120802,-1.7625000861436129
1789482460089780200,9.7077802734375,2.730200916700065,0.6896656872034073,-0.4044160093616694
1789482460099831300,9.717831298828125,1.3958558082282542,-0.10206979689896106,0.6772897513635456
1789482460109881300,9.72788134765625,0.8791554088801145,-1.0475427212953567,2.1110110337361694
1789482460119932400,9.737932373046876,0.9575099836707115,-2.0701690279990435,3.365177274599671
1789482460129982500,9.747982421875,0.9564195580855012,-2.723317294666171,4.166226530492305
1789482460140032300,9.7580322265625,1.4813178769364952,-3.1025463288664814,5.195056368011236
1789482460150083300,9.768083251953126,2.506506435343623,-2.9662200421005487,5.739018868294358
1789482460160133400,9.77813330078125,3.738486271101236,-2.683122646921873,4.892578565058112
1789482460170183400,9.788183349609374,3.5688206093132493,-2.0526813021034003,3.2067703811898824
1789482460180234500,9.798234375,2.9042905324101445,-1.1157400592088698,1.2950298739105461
1789482460190284500,9.808284423828125,2.8139088352173567,-0.34413960064053534,-0.15232289732098578
1789482460200335600,9.818335693359375,3.2525095113188027,0.4006201972752809,-0.7617449811168014
1789482460210385400,9.828385498046876,3.4302561882317066,1.177834988594055,-0.7241855772469192
1789482460220435500,9.838435546875,3.3338176752179858,1.8829963510930536,-1.0646650479447095
1789482460230486300,9.848486328125,3.4731115796178575,2.460630819353461,-1.6356128049828111
1789482460240536600,9.85853662109375,3.476262737125158,2.9875936695188283,-1.7862778520941733
1789482460250586600,9.868586669921875,3.367139514583349,3.392751510223746,-1.8182050222307442
1789482460260637200,9.87863720703125,3.507359886178374,3.4479975966274736,-1.6666107314452527
1789482460270687200,9.888687255859375,3.7422079219728706,3.5137130545973774,-1.2716343852758407
1789482460280737300,9.8987373046875,3.8166374322742223,3.8247126021802424,-0.8327159484621137
1789482460290788400,9.908788330078124,3.7012130637615916,4.342637574887275,-0.5973842938691377
1789482460300838400,9.91883837890625,3.5118969450861215,4.804844167503714,-0.7345012926213443
1789482460310889500,9.928889404296875,3.240390034458041,5.070583600646257,-1.0685407203342765
1789482460320939300,9.938939208984374,2.878397966262698,5.043460031399131,-1.379663967362046
1789482460330989300,9.9489892578125,2.3464900609105825,4.677508411923051,-1.6618309498228132
1789482460341040400,9.959040283203125,1.5839938230350612,3.946780061969161,-2.0047972689002753
1789482460351090400,9.96909033203125,0.6317647023767232,2.942754410839081,-2.273433008006215
1789482460361140500,9.979140380859375,-0.42702217424958944,1.7488427321910858,-2.2584426518842577
1789482460371191600,9.989191650390625,-1.4876494180455804,0.3193330761641264,-1.964273681462556
1789482460381241300,9.999241455078124,-2.5012466151192783,-1.211218787279725,-1.2484095770329235
1789482460391292400,10.00929248046875,-3.5347058660045265,-2.709866276940703,-0.26358276656530794
1789482460401342500,10.019342529296875,-4.31815049162358,-4.134176026237011,0.5516824270106852
1789482460411392500,10.029392578125,-4.658621925145387,-4.855732643219828,1.3114232286982237
1789482460421443600,10.039443603515625,-4.361411541201174,-4.346123078915476,1.9490742126345633
1789482460431494000,10.049493896484375,-4.19013727517277,-3.0625866589218376,1.8211951439574359
1789482460441544000,10.0595439453125,-4.298153120994567,-1.8607570467561483,1.2299147199213505
1789482460451594800,10.0695947265625,-4.339138919116556,-1.4094365898132324,0.3399688177619129
1789482460461644800,10.079644775390625,-4.1624280149921775,-1.722888791245222,-0.5928896127983927
1789482460471696000,10.08969580078125,-3.587055061922967,-2.4765017577022315,-0.9429197327822446
1789482460481746000,10.099745849609375,-2.5802485479027033,-3.033548195964098,-0.6434191920742393
1789482460491795700,10.109795654296875,-1.5773054313123225,-2.6151462582826612,-0.08100845030024648
1789482460501846800,10.1198466796875,-1.153461594837904,-0.940162543028593,0.29684651906788345
1789482460511896800,10.129896728515625,-1.2615703796401618,1.1033628081947564,0.31339864461384714
1789482460521947000,10.13994677734375,-1.2047583590939641,2.6737200278043747,0.08665595466792583
1789482460531998000,10.149998046875,-0.8638687001600861,3.8944484017074106,-0.14539273273162542
1789482460542048000,10.160048095703125,-0.6972080654069781,4.782575637072324,-0.2013135765917599
1789482460552099000,10.17009912109375,-0.8781596758410334,5.132880774605274,-0.27448154252469537
1789482460562148900,10.18014892578125,-0.7748378330543637,4.57308883702755,-0.8438990943208337
1789482460572199000,10.190198974609375,0.06379676486700774,2.9698814872175454,-1.90976570007503
1789482460582250000,10.20025,0.5975979366198182,0.3337175753474235,-2.8970865923807025
1789482460592300000,10.210300048828126,-0.47450697900205846,-2.4899054291546343,-3.3023014239698645
1789482460602350000,10.22035009765625,-0.9761074243739247,-5.192210330930352,-3.4378315919220443
1789482460612401000,10.23040087890625,-0.15188479816466569,-7.936957367116213,-2.5982556214973327
1789482460622451000,10.240450927734376,2.0463363169908524,-9.979750312411785,-1.12907475707829
1789482460632501800,10.250501708984375,3.028189591540396,-9.587018822559713,-0.7987315535347909
1789482460642551800,10.2605517578125,1.2885115780577063,-5.868003560125827,-0.4028808356836438
1789482460652601900,10.270601806640625,1.0966408064633608,-1.5868202786326406,0.095575028052181
1789482478138859000,27.75685888671875,-0.7068751806795597,0.6699675917819142,0.9672901308637112
1789482478148909000,27.766908935546876,-0.721958768042922,0.7220785950303077,0.9947284651484339
1789482478158959000,27.776958984375,-0.6549889260977506,0.6557242546349763,0.9316004663884639
1789482478169009200,27.787009033203127,-0.5954150396227836,0.5023296364292502,0.8655700241852551
1789482478179059000,27.797058837890624,-0.6107575701832771,0.34665362928807736,0.8662582256451249
1789482478189109000,27.80710888671875,-0.5777735844701528,0.24613982965946196,0.7085646681364626
1789482478199159000,27.817158935546875,-0.5630231745839118,0.32588468976467844,0.558589868311584
1789482478209210000,27.827210205078124,-0.5573556503415107,0.32783407026678324,0.4183305529456585
1789482478219260200,27.83726025390625,-0.48844753381013867,0.26332155834585425,0.31110768413245676
1789482478229310000,27.84731005859375,-0.3713169459015131,0.23447452630698679,0.19471885450184345
1789482478239360000,27.857360107421876,-0.25459727688133715,0.23712650212049483,0.04555405588559806
1789482478249410000,27.86741015625,-0.13441431566476822,0.20325959609299896,0.00030972353629767893
1789482478259460000,27.877460205078126,-0.0019265841484069823,0.05648819541931152,0.0585983925063163
1789482478269510100,27.88751025390625,0.14104454745948314,-0.07669833201617002,0.09983370840996503
1789482478279560200,27.897560302734377,0.20330606558322906,-0.14436682374998927,0.05504391489513218
1789482478289610200,27.9076103515625,0.16211773062646387,-0.12111717332676053,0.04498210121653974
1789482478299660300,27.917660400390623,0.3151239340364933,-0.06601663287356495,0.08519611124843358
1789482478309710300,27.92771044921875,0.6128712013363837,-0.0015846388429403304,0.32461788469925523
1789482478319760100,27.937760009765626,0.29151509491205213,-0.01470788591876626,0.38321876142360267
1789482478329810200,27.94781005859375,0.09027414516508579,0.01258797115534544,0.23232290123105048
1789482478339860200,27.957860107421876,0.031245033091306683,0.08167758173346519,0.16837810619547963
1789482478349911300,27.967911376953126,-0.0751285984814167,0.07198211714923382,0.19971140209212898
1789482478359961000,27.977961181640627,-0.16016776560246943,-0.012786416336894035,0.1736369035065174
1789482478370011100,27.98801123046875,-0.2470581135481596,-0.03624532559663057,0.1298891663905233
1789482478380061200,27.998061279296873,-0.21881284679472446,0.0059396191820502275,0.15769918353185056
1789482478390111200,28.008111328125,-0.21809505391418932,0.03331979353874922,0.14788118854649365
1789482478400161000,28.0181611328125,-0.27476035946607585,0.045459144143760205,0.14279796699807046
1789482478410211000,28.028211181640625,-0.22901626090109348,0.11434154171198606,0.16570384548492728
1789482478420261000,28.03826123046875,-0.20781740552783012,0.13454349500238894,0.15870843363963066
1789482478430311200,28.048311279296875,-0.21605624156296252,0.10433657278716564,0.12797624544128774
1789482478440360400,28.0583603515625,-0.18451777848303316,0.053368894354999065,0.08901450049281119
1789482478450410500,28.068410400390626,-0.07004676517248153,0.050237026070058345,0.07939458536282182
1789482478460460500,28.07846044921875,0.0615431407213211,0.040894028185307976,0.106383203118667
1789482478470510600,28.088510498046876,0.06322890185117722,0.06117781454026699,0.12619688774384558
1789482478480560600,28.098560546875,0.03135024703145027,0.08271890747994184,0.1159323180347681
1789482478490610700,28.108610595703126,0.04914952309429645,0.18811229584366082,0.06551540535315871
1789482478500661500,28.11866162109375,0.05929156240224838,0.19301906484663486,-0.020764774804934858
1789482478510711600,28.128711669921874,-0.0778694216221571,0.11123480786830187,0.03324928558580577
1789482478520761600,28.13876171875,-0.1467716929346323,0.051908758674561975,0.05249722608700394
1789482478530811600,28.148811767578124,-0.20460954939723014,0.05620645586848259,0.12660218060910702
1789482478540861700,28.15886181640625,-0.2436322307527065,0.06335311275273561,0.15406316511705517
1789482478550911500,28.168911376953126,-0.2299690315812826,0.16609803243428467,0.1925327426344156
1789482478560961500,28.17896142578125,-0.34634032555520533,0.2960679359108209,0.06480952210612595
1789482478571011600,28.189011474609377,-0.2940413985192776,0.39707214940488333,-0.26995829294659196
1789482478581061600,28.1990615234375,-0.27111469644010067,0.5639113555952906,-0.3501069115471095
1789482478591111400,28.209111328125,-0.37698973084092136,0.6495046494677662,-0.37141857964508235
1789482478601161500,28.219161376953124,-0.23276947595477102,0.838129863269627,-0.33468627424910663
1789482478611211500,28.22921142578125,-0.21624621117711065,1.0088888732522725,-0.20689561450779437
1789482478621261600,28.239261474609375,-0.495834136930108,0.9763348033890128,-0.21235146876089273
1789482478631311400,28.249311279296876,-0.8454302494108676,0.8643117677524685,-0.3839534689063206
1789482478641362400,28.259362548828125,-0.5569985074669123,0.43968028803169723,-0.3584341930506751
1789482478651412500,28.26941259765625,0.6218558873027563,-0.4952148359879851,-0.33385804326403884
1789482478661462500,28.279462646484376,0.8499901046723127,-1.5869325068354605,-0.5561000242572277
1789482478671512600,28.2895126953125,1.0847481240957975,-2.040293821956217,0.05863429950333666
1789482478681562400,28.299562255859374,0.7433516846835613,-1.6008508498117326,1.4334424654312432
1789482478691612400,28.3096123046875,0.4657341822206974,-1.747267737959325,0.9684640700139104
1789482478701662500,28.319662353515625,0.44041678561270237,-1.4716478390544652,-0.505122555083409
1789482478711712500,28.32971240234375,0.8125631680756806,-1.518452552588284,-0.8931041469946503
1789482478721762300,28.33976220703125,1.0368161600977182,-1.4651234057217835,-0.8802315136790275
1789482478731812400,28.349812255859376,0.9203554342746734,-1.7435992785796521,-0.5427632805611938
1789482478741862700,28.359862548828126,-0.18493688067793845,-2.108197437620163,0.07084945985749364
1789482478751912700,28.36991259765625,-1.1004127262175083,-1.7803510923936963,0.5645687965907156
1789482478761962500,28.37996240234375,-1.5601783554226158,-1.5769269533887504,0.8476613694638013
1789482478772012500,28.390012451171874,-1.5976736810803411,-1.463005975176394,1.57992116676867
1789482478782063400,28.4000634765625,-1.6020599333405494,-1.1265116285920143,1.5988232895068824
1789482478792113700,28.41011376953125,-1.794904226142168,-0.9047940002664923,0.973572352938354
1789482478802163700,28.420163818359374,-1.4136457319408655,-0.13296733172684908,0.99608565191105
1789482478812213500,28.430213623046875,-0.9229407745927571,0.6975760219365358,0.4203954495862126
1789482478822263600,28.440263671875,-0.7881225543022156,1.8541022650420664,-0.4049889138787985
1789482478832313600,28.450313720703125,0.769391550347209,2.2677494094118473,0.6590272417031228
1789482478842363600,28.46036376953125,0.7714595887929201,2.2537679380714892,0.6337436012342572
1789482478852413400,28.470413330078124,0.7780652706682681,2.236341586974263,0.6292531579472124
1789482478862463500,28.48046337890625,1.13153617875576,0.6604717414230108,0.8709295784570277
1789482478872513500,28.490513427734374,1.0138438653111457,0.19503624988794327,0.49591991551741954
1789482478882563600,28.5005634765625,0.776877522188425,0.231853822414577,0.09470701304599642
1789482478892613400,28.51061328125,0.48491059185564517,0.11976385902166366,-0.01687660825997591
1789482478902663400,28.520663330078126,0.25219489191472527,-0.035117198349535465,0.022516659973561764
1789482478912713500,28.53071337890625,0.16155717413425444,-0.07919570178985595,-0.016066899312287566
1789482478922763500,28.540763427734376,0.11680559373795986,0.07835340574681758,-0.22841610305085777
1789482478932813300,28.550813232421874,-0.21702771694362163,0.3354787398010492,-0.3702322194047272
1789482478942864400,28.560864501953127,-0.6278992591202258,0.6971756244421005,-0.4830975510843098
1789482478952914400,28.57091455078125,-1.0186714315980672,0.8270584341570735,-0.3275510155417025
1789482478962964500,28.580964599609374,-1.3347440446615217,0.7693965187832713,0.2095348769702017
1789482478973014500,28.5910146484375,-2.142375601553917,0.625427900570631,0.7396003693260252
1789482478983064300,28.601064208984376,-3.5915596798658367,0.35664427742660043,0.43882557089850305
1789482478993114400,28.6111142578125,-1.7832377537459134,0.4421043003082275,0.41265506459251045
1789482479003164400,28.621164306640626,-1.0635399163722992,0.6042226154565811,0.181280403997004
1789482479013214500,28.63121435546875,0.7630237688809632,0.9082792120337486,-0.39143852743208407
1789482479023264500,28.641264404296876,1.7946271627664565,1.0082108278602362,-0.7346709500998259
1789482479033314600,28.651314453125,1.5754980896294115,0.6206769066512584,-0.8104989290222525
1789482479043364600,28.661364501953123,0.8325707678377627,0.012867080357670783,-0.7476312616989016
1789482479053414700,28.67141455078125,0.5428069005072117,-0.39458179389387366,-0.6625365649983287
1789482479063464400,28.68146435546875,0.8038941239297389,-0.5058966812610626,-0.30665888803005215
1789482479073514500,28.691514404296875,1.0483078604489564,-0.5588792066469789,0.06048910162374377
1789482479083564500,28.701564453125,1.113210832992196,-0.6420607632026076,0.6048933543249965
1789482479093615600,28.71161572265625,0.8491542383700609,-0.7042977314069867,1.5828887844026087
1789482479103665700,28.721665771484375,0.5620084445834159,-0.5237956183061003,1.7445184392511843
1789482479113715500,28.731715576171876,-0.35320085897445674,-0.21588497664928435,1.143729597635567
1789482479123765500,28.741765625,-1.1210206299602985,0.30910657344311476,0.6725463562287389
1789482479133815600,28.751815673828126,-1.3056693413466214,0.5810284946128725,0.32179303653687236
1789482479143865600,28.761865478515624,-1.2817641496241092,0.6287871478706598,0.3201560829848051
1789482479153915400,28.771915283203125,-0.7972492790877819,0.4772019171744585,0.18845964797660708
1789482479163965400,28.78196533203125,0.1611152755856514,0.6594003127992153,-0.0984286639176309
1789482479174015500,28.792015380859375,1.3884516694515943,0.8446946286126971,-0.1667104652442038
1789482479184065500,28.8020654296875,2.3001427357554434,0.7005909858435392,-0.12316811450719832
1789482479194115600,28.812115478515626,2.4797499458432197,0.34471769278943537,-0.07709858338013291
1789482479204165400,28.822165283203127,2.048211463212967,-0.12469050176888703,0.04050181399732828
1789482479214215400,28.83221533203125,1.5317863736748694,-0.7195011457577347,0.2667670226246118
1789482479224265500,28.842265380859374,1.0886129828304052,-1.2097519295975565,0.5632537684693932
1789482479234315500,28.8523154296875,0.24127777658104896,-1.0866685707643629,0.27590193071663377
1789482479244365600,28.862365478515624,-0.6065747315406799,-0.8030822230249642,-0.23844153024181722
1789482479254416400,28.87241650390625,-1.975091866466403,-0.47225072450786826,-0.738180711786449
1789482479264466400,28.882466552734375,-3.536467322719097,-0.002779401585459709,-1.6004707644529639
1789482479274516500,28.8925166015625,-2.8360125304758546,0.3785580030709505,-1.419694948977232
1789482479284566500,28.90256640625,-0.7187748773097992,0.7423612123414873,-0.20588015385493635
1789482479294616600,28.912616455078126,0.6208779821813106,1.1108148777663707,0.10017755341157317
1789482479304666600,28.92266650390625,1.1812994498342275,0.9421011098757386,0.593600537546724
1789482479314716700,28.932716552734377,0.9661673373788595,0.45817105349004267,0.6040712242871522
1789482479324766700,28.9427666015625,-0.20272329725921154,0.03919803792238235,0.15614844695851207
1789482479334816500,28.95281640625,-1.4219973807007074,-0.3596969429954886,-0.18790318313762544
1789482479344866600,28.962866455078125,-1.8333821330964564,-0.5604924870625138,-0.33175504310280085
1789482479354916600,28.97291650390625,-1.3856038788050413,-0.41327071227282286,-0.3341688262462616
1789482479364966700,28.982966552734375,-0.49866965261697765,-0.18567659312933682,-0.1487903392806649
1789482479375016400,28.993016357421876,0.3264566444337368,-0.055088850015401834,0.1162320316337049
1789482479385066500,29.00306640625,0.9310293885022402,0.03284340819865465,0.19037278812155126
1789482479395116500,29.013116455078126,1.11523620133996,0.07218436172306537,0.22251900783628223
1789482479405167600,29.023167724609376,1.1946709725826978,0.04299187724739313,0.37408728739768266
1789482479415217700,29.0332177734375,0.9990776733338832,-0.02672521757930517,0.33997181343659755
1789482479425267500,29.043267333984375,0.7299427525341511,-0.22834259942322968,0.20223419856801628
1789482479435317500,29.0533173828125,0.3785457281112671,-0.35744039624035356,-0.04608589773997664
1789482479445367300,29.0633671875,-0.06990823348462581,-0.3383750457644462,-0.18957593865543604
1789482479455417300,29.073417236328126,-0.34334523539245126,-0.17137772640287874,-0.2501053722895682
1789482479465467400,29.08346728515625,-0.5833674589544534,-0.059168520544469354,-0.10985672444812952
1789482479475517400,29.093517333984376,-0.6481394985944032,0.012344225527346134,-0.024422931986302136
1789482479485567200,29.103567138671874,-1.6737158872753382,0.18181407248228787,0.20857969513721764
1789482479495617300,29.1136171875,-0.5980161620318889,0.13936755415797233,0.22301439013779162
1789482479505667300,29.123667236328124,0.2908586768299341,0.16474632556438445,0.04166355125308036
1789482479515717600,29.133717529296874,0.8864736229389906,0.2230649512812495,0.1689659160207957
1789482479525767400,29.143767333984375,1.4396955344766378,-0.10312427438795566,-0.041746772557124494
1789482479535817500,29.1538173828125,0.9741256029069423,-0.28274492847919463,-0.22621698557138442
1789482479545867500,29.163867431640625,0.40129941171109673,-0.41947891926318404,-0.25331585876867174
1789482479555917600,29.17391748046875,0.16009879201948643,-0.43019612811058755,-0.45286615201495584
1789482479565968600,29.18396875,-0.14785890364944934,-0.2363087559968233,-0.3782245333328843
1789482479576018400,29.194018310546873,-0.42058688050508497,0.09524462705403566,0.073568436492607
1789482479586068500,29.204068359375,-0.47320671005845066,0.43328649534136054,0.5079389276783913
1789482479596118500,29.214118408203124,-0.5296130724132061,0.5240548537641764,0.6912826208807528
1789482479606168600,29.22416845703125,-0.5823802014827728,0.38376463180333376,0.6577451660033315
1789482479616218400,29.23421826171875,-0.6466641653448343,0.05780366193205118,0.5593751734703779
1789482479626268400,29.244268310546875,-0.5680781198859215,-0.21725538821965454,0.26567747382223605
1789482479636318500,29.254318359375,-0.2032961287111044,-0.28519202937036753,-0.07033833199758083
1789482479646368500,29.264368408203126,0.03844342016279697,-0.2711816241964698,-0.28504060166832057
1789482479656418300,29.274418212890627,0.15556640928685664,-0.22318185565918683,-0.3140142192289233
1789482479666468400,29.28446826171875,0.11515841105282305,-0.10914309628605842,-0.33618608435280617
1789482479676518400,29.294518310546874,0.0015945757150650024,-0.026834523172676563,-0.2852554134627804
1789482479686568400,29.304568359375,0.01019289271235466,-0.04923953946530819,-0.199095900542289
1789482479696618500,29.314618408203124,0.10619009169936179,-0.0624821751371026,-0.15819942467156797
1789482479706668300,29.324668212890625,0.2660369547843933,-0.1113680788591504,-0.11063187353909015
1789482479716719400,29.33471923828125,0.46022447888851165,-0.1072486608415842,-0.011845811018534004
1789482479726769400,29.344769287109376,0.4701724569290876,-0.03455634959638119,0.08389993395805359
1789482479736819500,29.3548193359375,0.39615269647240636,0.0588853196889162,0.1935264298468828
1789482479746869200,29.364869140625,0.17218319756686687,0.12651450232565403,0.263994525703974
1789482479756919300,29.374919189453124,-0.06313187121748924,0.12554478051066398,0.2412200550444424
1789482479766969300,29.38496923828125,-0.19158231004178522,0.09048574208915233,0.18201595172993837
1789482479777019400,29.395019287109374,-0.20736381654143332,0.1314689098626375,0.31411523191798474
1789482479787069400,29.4050693359375,-0.10333937844336032,0.18315613474100828,0.4517392303442582
1789482479797119500,29.415119384765624,-0.0017816227197647093,0.2721557299256325,0.4480610532881692
1789482479807169500,29.42516943359375,-0.09693009592294692,0.31093086626082655,0.43818862470183517
1789482479817219600,29.435219482421875,-0.21099954269528387,0.18393237981051205,0.4313267395757138
1789482479827269600,29.44526953125,-0.19471242476105688,0.06040419981926679,0.33762652895208445
1789482479837319400,29.4553193359375,-0.22402853561639785,-0.019663316369056702,0.16389931681361047
1789482479847369500,29.465369384765626,-1.2146657128632068,-0.21470131982266902,0.05886084283478558
1789482479857419500,29.47541943359375,-0.19420505976080893,-0.4123082969814539,-0.16421357039455323
1789482479867469600,29.485469482421873,1.0183628040403128,-0.3228782014250755,-0.4297177700091153
1789482479877520400,29.495520263671875,1.0179571458488703,-0.1964157215476036,-0.27272925549726934
1789482479887570400,29.5055703125,0.990648283162713,-0.20321341886371372,-0.13559402696862816
1789482479897620500,29.515620361328125,0.5995674831271172,-0.11476210521161556,0.07664440987184644
1789482479907670500,29.52567041015625,0.24211715001463888,-0.13066402322053908,0.14071177184116093
1789482479917720600,29.535720458984375,0.11740648224055766,-0.13465835355371236,0.16795494887996465
1789482479927770400,29.545770263671876,0.035551205852627756,-0.0555368860438466,0.2793794341014698
1789482479937820400,29.5558203125,-0.02894260136783123,-0.003280629105865955,0.235173285693489
1789482479947870500,29.565870361328123,-0.06891922244727611,-0.03597293839603662,0.19360965115092693
1789482479957920500,29.57592041015625,-0.05459726710617542,0.016463935805857182,0.12838880829755217
1789482479967970300,29.58597021484375,-0.11514262896180152,0.06364888082891702,0.15718937084618956
1789482479978020400,29.596020263671875,-0.06121113228797912,0.019061843344569205,0.1577851813148707
1789482479988070400,29.6060703125,0.0962292541772127,0.02610825472474098,0.2497781861618161
1789482479998120400,29.616120361328125,0.2140267815619707,0.0029445290192961692,0.26335867548584935
1789482480008170200,29.626170166015626,0.14915361963510512,-0.061013271628320216,0.04049998736642301
1789482480018221300,29.63622119140625,-0.06438508614897727,-0.14273790737390518,-0.059485477539151906
1789482480028271400,29.646271240234373,-0.3324935865104198,-0.05953092411607504,-0.10576930900402366
1789482480038321400,29.6563212890625,-0.3297627002418041,-0.06669453213512896,-0.10137297374121844
1789482480048371500,29.666371337890624,-0.3459738303303718,0.010948094993829727,-0.0063680006619542835
1789482480058421200,29.676421142578125,-0.18317337813675402,0.06029664779156446,-0.014118833984434604
1789482480068471600,29.686471435546874,0.0019189853638410567,0.06473872189223766,-0.0050895782239735125
1789482480078521600,29.696521484375,0.05011982943117618,-0.02009557030647993,0.08864376748427748
1789482480088571600,29.706571533203125,0.015465864679217338,-0.09978723891973496,0.25497465882636605
1789482480098621400,29.716621337890626,-0.03101823859810829,-0.10650777934640646,0.26446846335865554
1789482480108671500,29.72667138671875,-0.09679682493209839,-0.03745031747221946,0.12489018905945122
1789482480118721500,29.736721435546876,-0.16671674885451793,-0.027169746476411818,0.013438085178658365
1789482480128771600,29.746771484375,-0.14234277057647704,-0.09789835643321275,0.018185864227637648
1789482480138821400,29.7568212890625,0.041088966235518457,-0.11346358983367681,0.09846022809967397
1789482480148871400,29.766871337890624,0.20091420201063154,-0.06651742200255394,0.13649192565642296
1789482480158921500,29.77692138671875,0.20084464390575885,-0.04017214365154505,0.11849398521631956
1789482480168972500,29.78697265625,0.0752332278996706,-0.10106441924870013,0.13334252171479163
1789482480179022600,29.797022705078124,-0.07419277893602848,-0.06718932991474866,0.020575316647440195
1789482480189072400,29.807072265625,-0.11309387973845005,0.012434826420247553,-0.11952062485031782
1789482480199122400,29.817122314453126,-0.09260580298304558,0.06636807665973901,-0.19672979246545583
1789482480209172500,29.82717236328125,0.05232756860852241,0.07245821022838354,-0.09844371535629033
1789482480219222500,29.837222412109377,0.1919838765799999,-0.014263503152132033,0.09188468563426286
1789482480229272300,29.847272216796874,0.1627840855807066,-0.0927329364940524,0.19857089028749614
1789482480239322400,29.857322265625,0.013191490006446838,-0.1286123513877392,0.15558526011779902
1789482480249372400,29.867372314453124,-0.18692367058098316,-0.14037614667862652,0.08342124706301837
1789482480259422500,29.87742236328125,-0.3050707420557737,-0.187520759691298,-0.0033885464597493407
1789482480269472300,29.88747216796875,-0.31231530635654925,-0.22622516887784003,0.07756598169617354
1789482480279522300,29.897522216796876,-0.275976164996624,-0.2105649506703019,0.21065960668381303
1789482480289572400,29.907572265625,-0.18037176471948624,-0.08438274903893471,0.21908910645283758
1789482480299623400,29.91762353515625,-0.0720785632610321,0.026330665303766727,0.13309592654258012
1789482480309673500,29.927673583984376,0.042191374519467355,0.014965806202590465,0.04995225431192666
1789482480319723300,29.93772314453125,0.11129998205900192,-0.009453472521901131,-0.025044278755038975
1789482480329773300,29.947773193359374,0.2130155586928129,-0.037172377313673496,-0.04436400585081428
1789482480339823400,29.9578232421875,0.4887959088563919,-0.10758329962342977,0.09442246048357338
1789482480349873700,29.967873779296873,0.7474474295645952,-0.18143091838359832,0.2744106327129528
1789482480359923500,29.97792333984375,0.7154121228784323,-0.21029256346970795,0.20435509971212595
1789482480369973500,29.987973388671875,0.4861643913090229,-0.21698767719417808,0.07656820283047855
1789482480380023600,29.9980234375,-0.046482934233546255,-0.2479574004754424,0.1737860296536237
1789482480390073600,30.008073486328126,-0.5823749407857656,-0.26386136431097984,0.26605295607112345
1789482480400123400,30.018123291015623,-0.9257166690468788,-0.10716332064568995,0.24391572386920451
1789482480410173400,30.02817333984375,-0.9052975658744573,0.048268940867483616,0.04238134413361549
1789482480420223500,30.038223388671874,-0.7125175704807043,0.20907675793915986,-0.03091886987686157
1789482480430274600,30.048274658203123,-0.532410594177246,0.20524901634454726,-0.16913528123833238
1789482480440324600,30.05832470703125,-0.48006958156526086,0.10448153421580791,0.007535510071367025
1789482480450375200,30.068375244140626,-0.5760282021075487,0.042510523471236225,0.18335238796547054
1789482480460425200,30.07842529296875,-0.7632879727751016,0.037753099811077113,-0.0005956278055906295
1789482480470475000,30.08847509765625,-1.0623737952023744,0.10670447096228598,-0.11781769338995218
1789482480480525000,30.098525146484373,-2.088183408117294,0.019547288773953914,-0.11760909214057028
1789482480490575000,30.1085751953125,-2.2491069605231284,0.13863807083964347,-0.2795455479159951
