time,seconds_elapsed,z,y,x
1789483059346433800,0.056433837890625,-1.415384684562683,0.2741878202751279,-1.4484065180681645
1789483059356483800,0.06648388671875,-0.8045838597595691,0.31661563389897346,-0.4269588997550308
1789483059366534000,0.076533935546875,-0.34563305406868455,0.3691191435962915,-0.1076712701678276
1789483059376584000,0.086583984375,-0.08697861075103283,0.12956380689367653,0.18523805558159948
1789483059386634000,0.096634033203125,-0.1537555604726076,0.18051234223395585,0.26146365551948547
1789483059396684000,0.10668408203125,-0.5242728804290294,0.3891683905430138,0.23717180256694553
1789483059406734000,0.116734130859375,-0.8209142323136329,0.13777312457337976,-0.0360240840613842
1789483059416784000,0.126783935546875,-1.5029899027794598,-0.02766542103886604,-0.08789192620366812
1789483059426834000,0.136833984375,-1.9078087207883596,0.20526041452139615,0.01135419157668948
1789483059436884000,0.146884033203125,-2.114126243147254,0.3145933342911303,0.028242928665876386
1789483059446934000,0.15693408203125,-2.075330356284976,0.3088512835077941,0.06039309390336275
1789483059456983800,0.16698388671875,-2.2014555670320988,0.03395385365858674,0.2411288696296513
1789483059467033900,0.177033935546875,-2.6004016936153174,-0.40917438286989927,0.45233226433396334
1789483059477083000,0.187082763671875,-3.34097163862586,-0.4611424705162644,0.5789915819577872
1789483059487132700,0.197132568359375,-4.196183277338743,-0.4839385319530964,0.5215294269397854
1789483059497182700,0.2071826171875,-4.646230061084032,-0.48599926387518644,0.46164135994911193
1789483059507233000,0.21723291015625,-4.538288741803169,-0.2179255425661802,0.5787529508963227
1789483059517283000,0.227282958984375,-4.372753311687708,0.1338324241235852,0.48964638820588585
1789483059527332900,0.237332763671875,-3.8556039995282885,0.18445698820650577,0.38158436515480276
1789483059537383000,0.2473828125,-2.8761329439401626,-0.14479396312087772,0.32665479735434055
1789483059547433000,0.257432861328125,-1.9808780486524105,-0.6759522191494702,0.48942280858308074
1789483059557483000,0.26748291015625,-1.4122902256786822,-1.2809414350643753,0.25438684900104996
1789483059567532800,0.27753271484375,-1.4044552942693234,-1.8006062371760605,-0.22562398811429737
1789483059577582800,0.287582763671875,-2.0826251894682644,-2.1766747615188358,-0.8880211446419358
1789483059587633000,0.2976328125,-3.072944386807084,-2.0140318379744886,-1.2708625241205096
1789483059597683000,0.307682861328125,-3.5147587642580267,-1.470794144834578,-1.3442565538942812
1789483059607732700,0.317732666015625,-3.719223352226615,-1.189909457269311,-1.579432214207947
1789483059617782800,0.32778271484375,-3.9439854628145694,-1.1318781240612268,-1.7484718530520795
1789483059627831800,0.337831787109375,-4.0032314325094225,-0.8865703613117337,-1.3586071508079767
1789483059637882000,0.347882080078125,-3.7223511288583278,-0.41273938187509773,-0.7831973728597164
1789483059647932000,0.357931884765625,-3.3468975215435024,-0.2118091055124998,-0.47753947856575246
1789483059657982000,0.36798193359375,-3.2748429236799477,-0.505248738746345,-0.41879590543508527
1789483059668032000,0.378031982421875,-3.2796190520405766,-1.2453712322503327,-0.29190877040475605
1789483059678082000,0.38808203125,-3.3663930801302193,-2.259111344926059,0.3956494231253862
1789483059688131800,0.3981318359375,-3.3575539401143786,-2.6977453387752175,1.1154387381747364
1789483059698182000,0.408181884765625,-3.258659850642085,-2.4272727396309373,1.5738807175606488
1789483059708232000,0.41823193359375,-2.9984178458720443,-2.164484557509422,1.8516408433645963
1789483059718282000,0.428281982421875,-2.741758375763893,-2.191242216053605,2.1817560103058815
1789483059728331800,0.438331787109375,-2.300516829764843,-2.245215213781595,2.7347335916936397
1789483059738381800,0.4483818359375,-1.4969266572177409,-2.1965178183689713,3.2632705593079327
1789483059748432000,0.458431884765625,-0.4693582179367542,-2.0236162433996796,3.7668303220540285
1789483059758482000,0.46848193359375,0.5771826328396796,-1.70722652721107,4.357906455689668
1789483059768531000,0.478531005859375,1.5711211897194384,-1.306796884071827,4.819425066041946
1789483059778581000,0.4885810546875,2.3010604351222512,-0.9974401352599263,4.745535653966665
1789483059788631000,0.498631103515625,2.4121143334656954,-0.9240557500973343,4.209631956976652
1789483059798680800,0.508680908203125,1.9330185653686522,-1.2840690655656157,3.5547219413340088
1789483059808731000,0.51873095703125,2.1013713909924028,-1.1311353428699076,3.408933998739719
1789483059818781000,0.528781005859375,0.6786328365355729,-1.848947220366448,2.0119436335235834
1789483059828831000,0.5388310546875,0.8246946276351809,-1.6943071321442722,1.8943401674062013
1789483059838880800,0.548880859375,0.319815014462173,-1.890306674106419,1.4318039044439792
1789483059848930800,0.558930908203125,-0.14581366155743597,-2.0751947472065684,1.0817933659434318
1789483059858980900,0.56898095703125,-0.4133309180274605,-2.104675254843384,0.7205091537564993
1789483059869031000,0.579031005859375,-0.6188800863623619,-2.254715594185144,0.36743045985698697
1789483059879080700,0.589080810546875,-0.8027972686037421,-2.542363053883612,0.08670680807232856
1789483059889130800,0.599130859375,-0.9557043955534696,-2.785906729570031,-0.02226151616871357
1789483059899180800,0.609180908203125,-0.9743988668903708,-2.937610033687949,0.0394487978130579
1789483059909230000,0.61922998046875,-0.7984677149668336,-2.9522023304030296,0.36005087099969385
1789483059919279900,0.62927978515625,-0.4549786871895194,-2.8653961536094545,0.7501140184253454
1789483059929330000,0.639329833984375,-0.08328881632238626,-2.708758315698802,1.3001865260213612
1789483059939380000,0.6493798828125,0.25662717527374623,-2.5756483606308698,1.8810539848536252
1789483059949430000,0.659429931640625,0.7270270112179219,-2.5696418136924506,2.2619401386111972
1789483059959479800,0.669479736328125,1.163040155044198,-2.610318399734795,2.5974299843281505
1789483059969529900,0.67952978515625,1.639086472442746,-2.3566838304057716,2.770665321296453
1789483059979580000,0.689579833984375,2.0172306340157986,-1.9805551003083586,2.8767987143725153
1789483059989630000,0.6996298828125,2.3394757982343433,-1.6705661910727618,3.016947774296999
1789483059999679700,0.7096796875,2.656441560745239,-1.3497826238393782,3.3810809461742637
1789483060009729800,0.719729736328125,3.014605010563135,-0.8218487366847693,3.844827169448137
1789483060019779800,0.72977978515625,3.3856934084057806,-0.30977643552869555,4.4358419282853605
1789483060029830000,0.739829833984375,3.89996979547739,0.21788521055579185,5.100041750320792
1789483060039879000,0.74987890625,4.424181885629892,0.9391700248599052,5.803639516764879
1789483060049929000,0.759928955078125,4.69899309850037,1.6230378394395113,6.325576647722721
1789483060059979000,0.76997900390625,4.4964685386836525,2.0834891128212214,6.370304847243428
1789483060070028800,0.78002880859375,3.91556133236289,2.4663036042928694,6.096630529448389
1789483060080078800,0.790078857421875,3.3806361250162125,2.8522657461404797,5.9878925068318845
1789483060090129000,0.80012890625,3.1085832709431647,3.0074592304617163,5.583260151305795
1789483060100179000,0.810178955078125,2.9183915384769437,3.091855423504114,4.967607210296392
1789483060110228700,0.820228759765625,2.765899129807949,3.424699138626456,4.552026175254583
1789483060120278800,0.83027880859375,2.7508734101116654,3.8524388134956356,4.212539368855953
1789483060130328800,0.840328857421875,2.8174855246603485,4.091378210256994,3.9835038187325
1789483060140379000,0.85037890625,2.8427660963892936,4.071163689745962,3.819101192039251
1789483060150428700,0.8604287109375,2.8266929134666916,4.063141419070959,3.5635002910733222
1789483060160479200,0.870479248046875,2.656945418614149,3.987324253803491,3.3793039996296166
1789483060170528500,0.880528564453125,2.431205402904749,3.8156615729793906,3.291681830278039
1789483060180578300,0.890578369140625,2.2380045517504215,3.6145965643212197,3.2131250109136102
1789483060190628400,0.90062841796875,1.9429320566177366,3.488923188994825,2.9769910269618034
1789483060200678400,0.910678466796875,1.5483949786484241,3.441531323222816,2.7368934000760317
1789483060210728400,0.920728515625,1.1285364124178885,3.477944698862731,2.6314982581466433
1789483060220778200,0.9307783203125,0.7623685198426247,3.494657056471705,2.6726012529075143
1789483060230828300,0.940828369140625,0.43995559784173965,3.390932770363986,2.820771122202277
1789483060240878300,0.95087841796875,0.40625323472619057,3.255634073080122,2.949628388261795
1789483060250928400,0.960928466796875,0.5348924375882372,3.202060303802788,3.0331425377726555
1789483060260978200,0.970978271484375,0.7532873877644538,3.2640053033232688,3.4591263088852164
1789483060271028200,0.9810283203125,0.768729287046194,3.4337434458255767,3.5574008051544426
1789483060281078300,0.991078369140625,0.5590683360109105,3.5743607077836987,3.3407080192536114
1789483060291128300,1.00112841796875,0.37673487929701804,3.9852445249199864,3.0294220559448
1789483060301177300,1.01117724609375,0.12014734191391617,4.502181655633449,2.737146498054266
1789483060311227400,1.021227294921875,-0.18633973321318625,4.938593297258019,2.4871827261924744
1789483060321277400,1.03127734375,-0.3368447674572468,5.269709750196338,2.172701766234636
1789483060331327200,1.0413271484375,-0.525650014001131,5.412073563560843,1.9363345580488442
1789483060341377300,1.051377197265625,-0.612846651417017,5.32513236221075,1.9063029924005268
1789483060351427300,1.06142724609375,-0.6366565660715103,5.332832269063592,1.9103093054324387
1789483060361477400,1.071477294921875,-0.7682698528409003,5.091059402441978,2.0921330225259065
1789483060371527200,1.081527099609375,-0.8846493301212787,5.132673269334435,1.965180713304877
1789483060381577200,1.0915771484375,-0.9902209976613521,5.345593550959229,1.9001263495922087
1789483060391627300,1.101627197265625,-1.0257610975980758,5.406645693293213,1.9563561863362788
1789483060401677300,1.11167724609375,-0.8664531636953353,5.192428942117095,1.7893197040081024
1789483060411727000,1.12172705078125,-0.8101356486678123,4.711454812927544,1.3992624018013478
1789483060421776400,1.1317763671875,-0.8022235603690147,4.345632372789085,1.2319780821919442
1789483060431826400,1.141826416015625,-0.7252759297668934,4.023854241560399,1.1741495780795812
1789483060441876500,1.15187646484375,-0.7439619255363941,3.753523681235313,1.0344915165424347
1789483060451926300,1.16192626953125,-0.7836147214889526,3.566633620662987,1.0259165804207324
1789483060461976300,1.171976318359375,-0.7824468467533588,3.341528980247676,1.1743471464782953
1789483060472026400,1.1820263671875,-0.6183107620418071,3.0806583221852777,1.3616238682806492
1789483060482076400,1.192076416015625,-0.36537995706796644,2.7865345060795543,1.5978443614721298
1789483060492126200,1.202126220703125,-0.09716861738655716,2.5702783580303192,1.8469202445834874
1789483060502176300,1.21217626953125,0.15698504391312598,2.4315768665656448,2.0314415301978586
1789483060512226300,1.222226318359375,0.32251930498480796,2.276547340634465,2.2002368388921023
1789483060522276400,1.2322763671875,0.46722471303939817,2.120470351476967,2.433167058366537
1789483060532326100,1.242326171875,0.5974830780684948,1.9767323271498083,2.5551059233397244
1789483060542375400,1.25237548828125,0.650354325099662,1.8812980227425693,2.6058967839002607
1789483060552425500,1.262425537109375,0.7084429414529353,1.8283476460605859,2.6240684004068373
1789483060562475300,1.272475341796875,0.851727888250351,1.7830647352665663,2.679680982035398
1789483060572525300,1.282525390625,1.084424956556037,1.751784923122823,2.7456740879029033
1789483060582575400,1.292575439453125,1.3486439751982688,1.7983236791968344,2.8275638510823247
1789483060592625400,1.30262548828125,1.589223832643032,1.8763050367608665,3.0760727479606866
1789483060602675200,1.31267529296875,1.6205284869670866,1.7291186255455016,3.0357378149628635
1789483060612725200,1.322725341796875,1.861511810646206,1.7827555231869219,3.5227941866755486
1789483060622775300,1.332775390625,1.7939713292062283,1.5892822848320007,3.576134147197008
1789483060632825300,1.342825439453125,1.6720575986742972,1.3566029713787138,3.5410733552098272
1789483060642875100,1.352875244140625,1.5039561174631118,1.0022735467657446,3.408966147443652
1789483060652925200,1.36292529296875,1.3711223489880562,0.5488055564001202,3.2060148866474627
1789483060662975200,1.372975341796875,1.2706523885011671,0.1494895735912025,2.9629268457740543
1789483060673024500,1.3830244140625,1.3070388761341571,-0.21535437690392134,2.7571920917391775
1789483060683074300,1.39307421875,1.481279006230831,-0.6372810546454042,2.518184598177671
1789483060693124400,1.403124267578125,1.5762719966113568,-1.0878989162769168,2.302795880612731
1789483060703174400,1.41317431640625,1.569753408497572,-1.4087562063336372,2.313067683780193
1789483060713224400,1.423224365234375,1.6202502545475959,-1.7490335785880684,2.2204525284469128
1789483060723274200,1.433274169921875,1.5340835447013377,-2.2969247966222466,1.7832453525304792
1789483060733324300,1.44332421875,1.3294108669400215,-2.6310212882846593,1.4513304426908493
1789483060743374300,1.453374267578125,1.1437024173676966,-2.7830536782264708,1.3360937057048081
1789483060753424400,1.46342431640625,1.1486135702848435,-3.0200387260496613,1.3490116394668816
1789483060763474200,1.47347412109375,1.0724737489342688,-2.913702211616933,1.2704442987084388
1789483060773524200,1.483524169921875,1.1115711029611528,-2.999673983412981,0.9141016345769166
1789483060783573500,1.493573486328125,1.0657096616268158,-3.1584067477762696,0.5121113179922103
1789483060793623300,1.503623291015625,1.0891020815216004,-3.193495012292266,0.24876667103171346
1789483060803673300,1.51367333984375,1.170148379614204,-3.3175811184272166,0.20528525670170783
1789483060813723400,1.523723388671875,1.2919722399055957,-3.6015737088799473,0.021267244434356687
1789483060823773400,1.5337734375,1.3101532087624073,-3.869005332893133,-0.43071079963445663
1789483060833823200,1.5438232421875,1.2248935307584703,-4.147321046753228,-0.8367559445679187
1789483060843873300,1.553873291015625,1.2003507717847823,-4.466850814533234,-1.1172674149066208
1789483060853923300,1.56392333984375,1.158145953261852,-4.790962357145547,-1.5313964975744485
1789483060863973400,1.573973388671875,1.057956563282013,-5.065775323581695,-1.883249449071288
1789483060874023200,1.584023193359375,0.939946269929409,-5.481636929130554,-1.8497154282599686
1789483060884073200,1.5940732421875,0.810686268287897,-5.912912376910448,-1.6358698484838008
1789483060894123300,1.604123291015625,0.7854864336449653,-6.261712955099344,-1.5652555125564336
1789483060904172300,1.61417236328125,0.8018039467174559,-6.435455072546005,-1.7034236277967691
1789483060914222300,1.624222412109375,0.8593722655236721,-6.4225558434844014,-1.8115572547793388
1789483060924272400,1.6342724609375,0.9046856445211917,-6.279371361386776,-1.8074504039824009
1789483060934322400,1.644322509765625,0.837292535662651,-6.109513976418972,-1.804376403364539
1789483060944372500,1.65437255859375,0.6742964147664606,-6.049007777529955,-1.8273562969356774
1789483060954422300,1.66442236328125,0.46020811227560043,-6.075840839397907,-1.7425503540486096
1789483060964472300,1.674472412109375,0.18936178444810212,-6.132154847294092,-1.43392864151299
1789483060974522400,1.6845224609375,-0.07322181501202285,-6.238838275468349,-1.0642296522021293
1789483060984572400,1.694572509765625,-0.41509230167679484,-6.548357813626527,-0.6705570821076631
1789483060994622200,1.704622314453125,-0.7866401337247342,-7.088491111010312,-0.37872634537518024
1789483061004672300,1.71467236328125,-1.0934815387148409,-7.669701684191822,-0.31068975098133084
1789483061014721300,1.72472119140625,-1.3972434631943702,-8.116340120798348,-0.40498540674746036
1789483061024771300,1.734771240234375,-1.5118085845291613,-8.215130165374278,-0.42536768504083156
1789483061034821400,1.7448212890625,-1.1851895160753279,-7.868624420124292,-0.2592120772004127
1789483061044871400,1.754871337890625,-0.6407097139198332,-7.299208329632878,-0.0734422528296709
1789483061054921500,1.76492138671875,-0.21458266187906264,-6.6714581235945225,0.18807693226933478
1789483061064971300,1.77497119140625,0.020982143882662056,-5.956667932006717,0.4304898503601551
1789483061075021300,1.785021240234375,0.1052443352818489,-5.20649896852374,0.6318249081313609
1789483061085071400,1.7950712890625,0.0505972376845777,-4.4399984634429215,0.7578291228473186
1789483061095121400,1.805121337890625,-0.16754837737306952,-3.6689117996156213,0.7954618111491203
1789483061105171200,1.815171142578125,-0.40418402723670005,-2.965606878638267,0.8026619517862796
1789483061115220200,1.82522021484375,-0.6865406870506704,-2.3087797773279246,0.6994055754512548
1789483061125270300,1.835270263671875,-0.9481180320776998,-1.7604694570988415,0.6090653793126344
1789483061135320000,1.845320068359375,-1.161861101327464,-1.356115041731298,0.612251608133316
1789483061145370400,1.855370361328125,-1.2691758862078188,-0.9663384561620653,0.8640449335098266
1789483061155420400,1.86542041015625,-1.264650371607393,-0.5750591744123026,1.1240583902209997
1789483061165469700,1.8754697265625,-1.2228054724380373,-0.1979890535452403,1.3526561334490774
1789483061175519700,1.885519775390625,-1.1346586946904658,0.03004705547839403,1.4209727138280868
1789483061185569500,1.895569580078125,-1.0001379960417747,-0.30748777660224585,1.3869044400095938
1789483061195619600,1.90561962890625,-0.9530430673897266,-0.6347918681781739,1.4172165761649609
1789483061205669600,1.915669677734375,-0.9254828602910041,-0.5125555546283722,1.4306079726576804
1789483061215719700,1.9257197265625,-0.6019805356182157,-1.2069877986464648,1.4767606520235537
1789483061225768400,1.9357685546875,-0.39914778663516043,-1.3956871736630796,1.4504554134219885
1789483061235818800,1.94581884765625,-0.22642054531946776,-1.4916682982981204,1.396294784167409
1789483061245868800,1.955868896484375,-0.026212153490632772,-1.5256152838245034,1.3052303654074668
1789483061255918800,1.9659189453125,0.21907880425453186,-1.4435627312988042,1.2775509158432483
1789483061265968600,1.97596875,0.5111830972313881,-1.2458951099939644,1.281782854324579
1789483061276018700,1.986018798828125,0.8118765009857714,-0.993109997101128,1.2354536493480204
1789483061286068700,1.99606884765625,1.0675941601991652,-0.7250069035671651,1.1295716006845236
1789483061296118800,2.006118896484375,1.2615839697740971,-0.5000201904430985,1.0745482171207665
1789483061306168600,2.01616845703125,1.2543056493341922,-0.36973303771093485,1.1010405027270316
1789483061316218600,2.026218505859375,1.6115046380341052,-0.1618842141315341,1.1447896280825138
1789483061326268700,2.0362685546875,1.724556870587915,-0.042683688081055875,1.0899100369036197
1789483061336317400,2.0463173828125,1.7720749930880964,0.06872954509407281,0.9369669618576765
1789483061346367500,2.056367431640625,1.8275673093378544,0.23551789788007735,0.7095499528467655
1789483061356417500,2.06641748046875,1.8380748209573328,0.4179927723586559,0.4561187971353531
1789483061366467800,2.0764677734375,1.8033074589587748,0.5564832514211535,0.3151771255284548
1789483061376517600,2.086517578125,1.7745197558917105,0.6633940586104988,0.302487155303359
1789483061386567700,2.096567626953125,1.8124189861752091,0.7133969836637377,0.30563539020121094
1789483061396617700,2.10661767578125,1.8669769441843032,0.820960701803863,0.3464642441958189
1789483061406667800,2.116667724609375,1.9401229905463755,1.0733280276760457,0.3851221838921308
1789483061416717600,2.126717529296875,1.9673849453508854,1.3729992487758398,0.3697416594088077
1789483061426767600,2.136767578125,1.8755270381256937,1.7465303635954856,0.27157237707972526
1789483061436816600,2.146816650390625,1.704052281089127,2.1045590811178085,0.1833048955619335
1789483061446866700,2.15686669921875,1.5173253021240234,2.3610054929971693,0.19023089543282984
1789483061456916500,2.16691650390625,1.3272143798090517,2.5942837952569127,0.30646833389401434
1789483061466966500,2.176966552734375,1.168764450975135,2.7967975414186714,0.3546452125638723
1789483061477016600,2.1870166015625,0.9998305375277996,3.006859803263843,0.33949966588020325
1789483061487066600,2.197066650390625,0.7709959168039262,3.1640324787035583,0.4101338755518198
1789483061497116700,2.20711669921875,0.46984804728031154,3.2628771760761737,0.4826116672635078
1789483061507166700,2.217166748046875,0.4464693636499345,3.366414122918248,0.5339484712690115
1789483061517216800,2.227216796875,-0.012200287012010811,3.6583687782913445,0.7431313199311494
1789483061527266800,2.237266845703125,-0.14000811708383262,3.8095664709746835,1.1685218013256788
1789483061537315600,2.247315673828125,-0.21769575239829717,3.8855341506287453,1.4821487748026847
1789483061547365600,2.25736572265625,-0.12322174439057706,3.8841424040094017,1.5993109268933534
1789483061557415700,2.267415771484375,0.029672669208049774,3.940319926044345,1.6587866136908531
1789483061567465500,2.277465576171875,0.1282337273336947,3.983587405362725,1.6698153727054594
1789483061577515500,2.287515625,0.17852949785366654,3.961273866745829,1.7333640080302952
1789483061587565600,2.297565673828125,0.199900641053915,3.9299990230381487,1.8655086251974105
1789483061597615600,2.30761572265625,0.18556115005612372,3.9257513024657964,1.9419015445262193
1789483061607665700,2.317665771484375,0.17525953627228735,3.9818905383169647,1.9761527736961841
1789483061617715700,2.3277158203125,0.08316928159594536,4.205188421571254,2.289484563618898
1789483061627765800,2.337765869140625,0.057932037552073594,4.472176977992057,2.553836341795325
1789483061637814500,2.347814453125,-0.0024750118114054203,4.667575631451607,2.6443478028476237
1789483061647864600,2.357864501953125,-0.1191991378109902,4.816075755614042,2.7358213869303465
1789483061657914600,2.36791455078125,-0.2577928580522537,4.946887078350782,2.799886739605665
1789483061667964700,2.377964599609375,-0.4576186803042888,4.9908197435796255,2.958853897246718
1789483061678014500,2.388014404296875,-0.731722037166357,4.866003277343511,3.3646856916904446
1789483061688064500,2.398064453125,-0.7543384311873466,4.867878423565626,3.363568085837364
1789483061698114600,2.408114501953125,-1.0941945092897862,4.5184109059005975,4.0120243952959775
1789483061708164600,2.41816455078125,-1.3701660711765289,3.9441549741625783,4.733805468684435
1789483061718214700,2.428214599609375,-1.47121003215909,3.1578122890144584,5.3923102939486505
1789483061728263700,2.438263671875,-1.3588660940051078,2.3754981287300585,5.9920554717302315
1789483061738313700,2.448313720703125,-1.079485600457713,1.8000848436504602,6.437821801677345
1789483061748363800,2.45836376953125,-0.6522459109999239,1.4542805246680974,6.694453799256682
1789483061758413600,2.46841357421875,-0.12594561639651655,1.4282073412567375,6.8059051724851125
1789483061768463600,2.478463623046875,0.38936062517948444,1.7522177615821362,6.625589521867036
1789483061778513700,2.488513671875,0.9041805445432662,2.394124503266811,6.133145027375221
1789483061788563700,2.498563720703125,1.2701952923834323,3.1962071938604115,5.4815252854496235
1789483061798613500,2.508613525390625,1.3950352856256067,4.047014460134506,4.732046642318368
1789483061808663600,2.51866357421875,1.3627601788341999,4.726570256733894,3.9289720180779693
1789483061818713600,2.528713623046875,1.211401742631197,5.181151176777481,3.158525405719876
1789483061828762600,2.5387626953125,1.0441653538167477,5.371003302025795,2.499951022350788
1789483061838812700,2.548812744140625,0.8895440433602779,5.334151534968615,2.0107757587879895
1789483061848862700,2.55886279296875,0.7408803261339664,5.006725753241777,1.6391379103690384
1789483061858912800,2.568912841796875,0.5705097309470176,4.483061067838967,1.3286609253555535
1789483061868962600,2.578962646484375,0.4205108926594257,3.884534618197381,1.1404384471356868
1789483061879012600,2.5890126953125,0.3893278188884258,3.156285517838597,1.1236690986424684
1789483061889062700,2.599062744140625,0.4528139103710651,2.4453315434128045,1.119969659602642
1789483061899112700,2.60911279296875,0.5209762500364333,1.7836966034293174,1.179409106042981
1789483061909162500,2.61916259765625,0.5833283690530806,1.066626776471734,1.3191554303854702
1789483061919211500,2.62921142578125,0.7149463319975883,0.2786415848135948,1.537712256592512
1789483061929261600,2.639261474609375,0.8259563181340694,-0.45765608970522875,1.8111790691167116
1789483061939311600,2.6493115234375,0.9841934079349041,-1.1335633006691932,2.0765262880712747
1789483061949361700,2.659361572265625,1.351181969243288,-1.611587055620551,2.2187428019195794
1789483061959411700,2.66941162109375,1.8868541955649851,-1.8900088602036236,2.410574118286371
1789483061969461800,2.679461669921875,2.210280824653059,-2.1099194391071796,2.721736162954569
1789483061979511800,2.68951171875,2.2533681250989437,-2.3255339282520113,2.968630025851726
1789483061989561600,2.6995615234375,2.398462824732065,-2.4293963076561687,3.1636738745242354
1789483061999611600,2.709611572265625,2.4594798957526685,-2.3468685388341544,3.124834148520231
1789483062009660700,2.71966064453125,2.3956641339242455,-2.1409771329328415,2.9437586194455623
1789483062019710500,2.72971044921875,2.2887772921323775,-1.9373709153592584,2.734853418681025
1789483062029760500,2.739760498046875,2.129926454347372,-1.8414274923861025,2.644770412173867
1789483062039810600,2.749810546875,1.969604959487915,-1.8103123692847787,2.5376661282390356
1789483062049860600,2.759860595703125,1.794267243412882,-1.7944626198545097,2.3952462007731197
1789483062059910700,2.76991064453125,1.6181120734751224,-1.829066754115373,2.193686686596274
1789483062069960700,2.779960693359375,1.4634605870760977,-1.9950791540928183,1.9310884740889072
1789483062080010800,2.7900107421875,1.3462414441011845,-2.2863357441991567,1.7120540934979915
1789483062090060800,2.800060791015625,1.2537817715905606,-2.6091587083056567,1.5214152017861604
1789483062100109600,2.810109619140625,1.18465650517717,-2.918349452900886,1.3039485089033842
1789483062110159600,2.82015966796875,1.1363035392880438,-3.217693049481511,1.0646972697138786
1789483062120209700,2.830209716796875,1.0870878190897404,-3.654398997877538,0.49254035608172414
1789483062130259500,2.840259521484375,1.069781587240845,-3.9406811605721708,0.16941607094109057
1789483062140309500,2.8503095703125,1.0999684895813464,-4.204781009814143,-0.2096738470494747
1789483062150359600,2.860359619140625,1.115831244623661,-4.411224496640265,-0.5937088202267885
1789483062160409300,2.870409423828125,1.160567042928934,-4.562712404441833,-0.9197159673273563
1789483062170459400,2.88045947265625,1.2137537125848232,-4.70901969473511,-1.3062684762835501
1789483062180509400,2.890509521484375,1.2570246990345417,-4.8267134694844485,-1.6840777068138122
1789483062190558500,2.900558349609375,1.2584158611319958,-4.9169560504674905,-2.0147645361632107
1789483062200608500,2.9106083984375,1.229562837743759,-5.014073193395138,-2.3133108448863027
1789483062210658600,2.920658447265625,1.1822457907736301,-5.166287369644642,-2.2797341539770364
1789483062220708600,2.93070849609375,1.0080078526340424,-5.225258029529452,-2.84482419796288
1789483062230758400,2.94075830078125,0.8657469151221215,-5.319001896631717,-3.048348290210962
1789483062240808400,2.950808349609375,0.8153003379546105,-5.435920887616277,-3.0180858384162184
1789483062250858500,2.9608583984375,0.6816915665190667,-5.501884767389297,-3.187306679046154
1789483062260908500,2.970908447265625,0.4982863523878157,-5.639658914875984,-3.470156821465492
1789483062270958300,2.980958251953125,0.45508178223781287,-5.744840121793747,-3.5838545123159884
1789483062281007600,2.991007568359375,0.40014724600128826,-5.840352167612314,-3.6437872952312227
1789483062291057700,3.0010576171875,0.35901334464550017,-5.963138004803657,-3.569203471150994
1789483062301107500,3.011107421875,0.33407522967867553,-6.140916830420494,-3.404223336830735
1789483062311157500,3.021157470703125,0.3055576487898826,-6.3407052432715885,-3.249304577797651
1789483062321207600,3.03120751953125,0.2279377449493855,-6.499363188832998,-3.15613061953783
1789483062331257600,3.041257568359375,0.17092472193837166,-6.578612082114815,-3.0663579941540955
1789483062341307400,3.051307373046875,0.08046754835657775,-6.61084846433103,-2.961502365928888
1789483062351357400,3.061357421875,0.011663476721569895,-6.6021291513025755,-2.8152403760820626
1789483062361407500,3.071407470703125,-0.07257314184494316,-6.567481031769514,-2.584329095214605
1789483062371456500,3.08145654296875,-0.12723518128301947,-6.467942799174785,-2.2529876013487575
1789483062381506600,3.091506591796875,-0.21799042449593542,-6.454537374156713,-1.9503923094958067
1789483062391556600,3.101556640625,-0.22266543056964874,-6.345624579495191,-1.9855922176927328
1789483062401606700,3.111606689453125,-0.6481178712844848,-6.711486182600259,-1.254007543170452
1789483062411656700,3.12165673828125,-1.0521090062975882,-6.884476604896784,-0.6977975557327271
1789483062421706500,3.13170654296875,-1.561286024403572,-7.183799743211269,0.14716215355694293
1789483062431756500,3.141756591796875,-2.1419582529246806,-7.4995257347941395,1.084734095570445
1789483062441806600,3.151806640625,-2.5872376761376854,-7.810753245913982,2.1160107417196032
1789483062451855400,3.16185546875,-2.6730302919745443,-8.07731977753043,3.3323212991803883
1789483062461905400,3.171905517578125,-2.181703549466282,-8.10306036798656,4.458402135139703
1789483062471955500,3.18195556640625,-1.310556528866291,-7.815625820386409,5.163229735639691
1789483062482005500,3.192005615234375,-0.575938916388899,-7.18500970352292,5.4501709467649455
1789483062492055300,3.20205517578125,-0.01640168422460556,-6.286570332980156,5.200350967288017
1789483062502105600,3.212105712890625,0.3261887872777879,-5.294401708382368,4.774935351452231
1789483062512155600,3.22215576171875,0.3472114093013108,-4.444575269839167,4.3676323154121635
1789483062522205700,3.232205810546875,0.29948198213800786,-3.7523371017992493,3.8991836135357616
1789483062532254500,3.24225439453125,0.18483853486999868,-3.122303460998833,3.4378467894911764
1789483062542304500,3.252304443359375,0.04824395255669951,-2.5204537121534347,2.9907728840768337
1789483062552354600,3.2623544921875,-0.08086728826388716,-1.9502084773615,2.532142980903387
1789483062562404400,3.272404296875,-0.08503492933735252,-1.366458887221664,2.1206080063819885
1789483062572454400,3.282454345703125,0.07252981415987014,-0.7567148779951035,1.7598901959061621
1789483062582504400,3.29250439453125,0.2651882290005684,-0.07150193241685629,1.5148825851470231
1789483062592554500,3.302554443359375,0.41715588314309715,0.5939493509843945,1.4538812962174414
1789483062602604300,3.312604248046875,0.40013928189054127,0.8328728195242583,1.5012679012924433
1789483062612653600,3.322653564453125,0.6863667917884886,1.6812174950771033,1.7487766812175511
1789483062622703600,3.33270361328125,0.6782583041347563,1.889842271465063,1.8016104457825421
1789483062632753700,3.342753662109375,0.7362263628482818,2.2273110160395504,2.0027818374246356
1789483062642803500,3.352803466796875,0.6998832759656012,2.4054411393120883,2.204161318859458
1789483062652853500,3.362853515625,0.6345603244446217,2.3777160970404743,2.415489947378635
1789483062662903600,3.372903564453125,0.54031099203825,2.114883198994398,2.5590754114925858
1789483062672953600,3.38295361328125,0.3275672360241413,1.6993299287423491,2.5985177795648573
1789483062683003400,3.39300341796875,0.15330153309479355,1.317464408558607,2.498351185938716
1789483062693052400,3.403052490234375,0.18769947725906966,0.9989669064357877,2.307860762786865
1789483062703102500,3.4131025390625,0.25757439299598334,0.7246677347406745,2.117212518724799
1789483062713152500,3.423152587890625,0.40130817953944203,0.5536003894612193,2.0117443115592
1789483062723202600,3.43320263671875,0.6620552112221717,0.5370090278834104,1.9114824408650397
1789483062733252600,3.443252685546875,0.9342436743736267,0.6361272815003991,1.8096558050721883
1789483062743302700,3.453302734375,1.18758013753891,0.8167892613381147,1.6996832722246646
1789483062753352400,3.4633525390625,1.3650630489490925,0.9542126956909894,1.4801245754987
1789483062763402500,3.473402587890625,1.38260835025087,1.0380910023391245,1.2157885794132948
1789483062773451500,3.483451416015625,1.3555306659720838,1.1141790935024618,0.9669184480071067
1789483062783501600,3.49350146484375,1.298176355242729,1.1892726206704973,0.7009434525430203
1789483062793551400,3.50355126953125,1.2137537125848232,1.2571218757987022,0.4371417094647884
1789483062803601400,3.513601318359375,1.1482920832455157,1.337486913628876,0.22320143714249133
1789483062813651500,3.5236513671875,1.1675791136480866,1.4394132104039192,0.11798574343323708
1789483062823701500,3.533701416015625,1.2072950379647314,1.564053735551238,0.1551753641426563
1789483062833751600,3.54375146484375,1.2856360226213932,1.7299430936709046,0.27048107471168037
1789483062843801600,3.553801513671875,1.356630736168474,1.975733379240334,0.43173020581007
1789483062853850600,3.5638505859375,1.3857633071504531,2.2652684062510726,0.44469899297654625
1789483062863900400,3.573900390625,1.3669747277893125,2.5375968623951075,0.45846272991299625
1789483062873950500,3.583950439453125,1.319068336623907,2.727464769734442,0.433078697809577
1789483062884000500,3.59400048828125,1.286061554557085,2.8985294846653935,0.3803694364070892
1789483062894050600,3.604050537109375,1.2588191812358795,3.0774621564924716,0.3953945715814829
1789483062904100400,3.614100341796875,1.2763539611436425,3.2139737366974352,0.527263294416666
1789483062914150400,3.624150390625,1.3020552425026892,3.34934549921751,0.6629927843332291
1789483062924200400,3.634200439453125,1.3163291209183632,3.4940585060566662,0.7337497436016798
1789483062934249500,3.64424951171875,1.2490426142394542,3.6344086415112016,0.8135521791130303
1789483062944299500,3.654299560546875,1.2028443421661854,3.7601527439862488,0.8826303915143012
1789483062954349600,3.664349609375,1.1616961930893361,3.7653105651408434,0.9225883078932762
1789483062964399600,3.674399658203125,1.1005423439465463,3.7956934284448622,1.0219862552344798
1789483062974449400,3.684449462890625,1.047326594326645,3.865605169060826,1.1609411369383333
1789483062984499500,3.69449951171875,0.957642231748253,3.928032691401243,1.2785872731536625
1789483062994549500,3.704549560546875,0.8528817344605922,3.939496334701776,1.3992641553670166
1789483063004599600,3.714599609375,0.8005600110709666,3.990257384645939,1.5296242272049188
1789483063014648300,3.7246484375,0.7171043137490749,4.018187009578943,1.681763584652543
1789483063024698400,3.734698486328125,0.6193314833916723,4.0449259634226555,1.8809452637821436
1789483063034748700,3.744748779296875,0.5392950929939746,4.055169125017524,2.112726897743344
1789483063044798700,3.754798828125,0.4706560026623308,4.149708526411652,2.246378996863961
1789483063054848500,3.7648486328125,0.3605107435964048,4.344181881719828,2.3736457788616416
1789483063064898600,3.774898681640625,0.07169292494431137,4.68329108697772,2.9588913066476583
1789483063074948600,3.784948486328125,-0.11461904347911477,4.816530513644218,3.3800708923488854
1789483063084997400,3.794997314453125,-0.3342271323047578,4.886803488788009,3.8508483294337985
1789483063095047400,3.80504736328125,-0.506201801687479,4.925381933507323,4.089767560189962
1789483063105097500,3.815097412109375,-0.5604771433629095,4.92335598063767,4.080692273330688
1789483063115147500,3.8251474609375,-1.175191926739365,4.6712996204107995,4.424563578423857
1789483063125197300,3.835197265625,-1.5126514650940894,4.128748740491271,4.7865293431341644
1789483063135247400,3.845247314453125,-1.7481927438497542,3.402141854381561,5.148954542049765
1789483063145297400,3.85529736328125,-1.8504186080932616,2.7199814282417294,5.418574031496048
1789483063155347700,3.86534765625,-1.7387924628198146,2.24209152880311,5.6857660015344615
1789483063165397000,3.87539697265625,-1.455737737739086,2.0203841296106577,5.942105153647065
1789483063175447000,3.885447021484375,-1.442222422605753,1.967566147136688,5.906538750225305
1789483063185497000,3.8954970703125,-0.39342188326902683,2.2540730584979056,5.907676814344525
1789483063195547100,3.905547119140625,0.22572825220637022,2.6517577868431803,5.633917156353593
1789483063205597000,3.915596923828125,0.6773731918632984,2.9103450101435184,5.213617276096343
1789483063215647000,3.92564697265625,0.674985858335346,2.8398522547692058,5.166888842669129
1789483063225697000,3.935697021484375,1.2891419849157333,3.139049720877409,4.264562986081838
1789483063235745800,3.945745849609375,1.5463924066543577,3.1081559854418037,3.7515591031640767
1789483063245795800,3.9557958984375,1.8114345051825045,3.1319010181665417,3.191843737953901
1789483063255846100,3.96584619140625,1.9395473826155065,3.1250439918786284,2.7077731040537354
1789483063265896200,3.975896240234375,1.9686428364574908,3.095428313554823,2.269094686540961
1789483063275946000,3.985946044921875,1.9931892486929892,3.073832567818463,1.8888263724207877
1789483063285996000,3.99599609375,1.9438427417218684,2.9893773380652067,1.5388830539375542
1789483063296046000,4.006046142578125,1.8087994805037975,2.8453955681100487,1.3085580485254524
1789483063306095000,4.01609521484375,1.6157365765154361,2.6213129642188546,1.2231857039272784
1789483063316145000,4.026144775390625,1.4484861591756344,2.2849983581155535,1.2995131568044422
1789483063326195000,4.03619482421875,1.3381366097092628,1.8290642698973416,1.4926643235981463
1789483063336245000,4.046244873046875,1.2638988225877283,1.277378189624846,1.7458651776850223
1789483063346295000,4.056294921875,1.2373007385194301,0.6569368452951312,2.057280904853344
1789483063356344800,4.0663447265625,1.3095055585086346,0.004459317496418953,2.4123802909255025
1789483063366395000,4.076394775390625,1.4491232880353926,-0.6448293511331081,2.7915345063239334
1789483063376445000,4.08644482421875,1.7309844194173811,-1.2406798595637083,3.074061408138275
1789483063386494000,4.096493896484375,1.9587527260839939,-1.788057721248269,3.251671306928992
1789483063396544000,4.1065439453125,2.167166343939304,-2.2427048383958637,3.366697031512856
1789483063406594000,4.116593994140625,2.4196155028760433,-2.543584412372112,3.3673324068069457
1789483063416644000,4.12664404296875,2.5564824723899364,-2.7513249532714483,3.3934412460535763
1789483063426694000,4.13669384765625,2.628033796906471,-2.9087188702464104,3.35600378806293
1789483063436744000,4.146743896484375,2.5794974372744557,-3.038648733973503,3.2828362605214116
1789483063446794000,4.1567939453125,2.3293289366208016,-3.0526059476554392,3.3525217911660667
1789483063456843000,4.166843017578125,2.0743300932012496,-3.049549482694268,3.155793934929371
1789483063466893000,4.17689306640625,1.7634135477267205,-2.9554475959345696,2.713213249281049
1789483063476943000,4.186943115234375,1.4236603454768657,-2.813663336023688,2.239102283859253
1789483063486993200,4.1969931640625,1.0822469549298286,-2.6443741063326596,1.7552917621999977
1789483063497043000,4.20704296875,0.8142528747282922,-2.5520246161982416,1.3543670290201901
1789483063507093000,4.217093017578125,0.8232195866465568,-2.758888958784938,1.354932261687517
1789483063517143000,4.22714306640625,0.6751239516317844,-2.5603280419021845,0.848835089418292
1789483063527192000,4.237192138671875,0.7798891250945628,-2.691697583043575,0.6733277158647776
1789483063537241900,4.247241943359375,0.9598504093170166,-2.840602196353674,0.49311961727440357
1789483063547292000,4.2572919921875,1.1376491817433387,-3.0530890549972654,0.2541559628546238
1789483063557342000,4.267342041015625,1.3006700717546045,-3.3119156400114296,-0.036652445092797276
1789483063567392000,4.27739208984375,1.3238009181037544,-3.529662903401255,-0.005552957952022552
1789483063577442000,4.287442138671875,1.4069569018267094,-3.7754704323664305,-0.2869324432969093
1789483063587492000,4.2974921875,1.436602829158306,-4.036936718234419,-0.5710024829000234
1789483063597541000,4.307541015625,1.4659269771896302,-4.3056291559636595,-0.8894453322261572
1789483063607591000,4.3175908203125,1.4590215817153454,-4.571494553573429,-1.1840104623585939
1789483063617641000,4.327640869140625,1.4679004692196844,-4.80399368815422,-1.46846862449646
1789483063627691000,4.33769091796875,1.5034394001126288,-4.991349320411682,-1.7518997816741466
1789483063637741000,4.347740966796875,1.5263082345247267,-5.1967643409729005,-2.0258786353737115
1789483063647790800,4.357790771484375,1.5308312649071216,-5.402925795987248,-2.3037328692018986
1789483063657841000,4.3678408203125,1.4995244186259806,-5.583325617757439,-2.595831316959858
1789483063667890200,4.37789013671875,1.3831122081197798,-5.6988861798703665,-2.8371353970259428
1789483063677940000,4.38793994140625,1.2255005567409099,-5.776322470772266,-3.0276176368713377
1789483063687990000,4.397989990234375,1.080694391725585,-5.866500169825554,-3.182863728162646
1789483063698040000,4.4080400390625,0.9605599458258598,-5.934863511955737,-3.32731954537034
1789483063708090000,4.418090087890625,0.8344271362941712,-5.991925707870721,-3.453178214135766
1789483063718140200,4.42814013671875,0.7628315342444926,-6.034015375581383,-3.606817454752326
1789483063728190000,4.43818994140625,0.6884205825131386,-6.099052788159251,-3.754098850774765
1789483063738239000,4.448239013671875,0.6392063236195594,-6.206114986518025,-3.826443956017494
1789483063748289000,4.4582890625,0.5879051023840904,-6.3290405244410035,-3.8718221438795326
1789483063758338800,4.4683388671875,0.4668576698252931,-6.478297604450583,-3.8651697002530097
1789483063768388900,4.478388916015625,0.3333657297024503,-6.626115591567754,-3.8264638297617433
1789483063778439200,4.488439208984375,0.24080201229546216,-6.757054924598336,-3.706247550797462
1789483063788489200,4.4984892578125,0.13428221371769905,-6.83405223956108,-3.5658757880330083
1789483063798539000,4.5085390625,0.044563948869705196,-6.767019269251823,-3.471430494663119
1789483063808588000,4.518588134765625,-0.04526194107122719,-6.620213089525699,-3.4298826787441965
1789483063818638000,4.52863818359375,-0.18772972626686096,-6.527919421231746,-3.341208369991183
1789483063828688000,4.53868798828125,-0.36523262101914733,-6.573579348644614,-3.1392180631816387
1789483063838738000,4.548738037109375,-0.5632335659315809,-6.674802757847309,-2.7781138837367294
1789483063848788000,4.5587880859375,-0.8288952941954135,-6.818730751788616,-2.1945050172418354
1789483063858838000,4.568838134765625,-1.08340080114007,-7.035685988017916,-1.4339847556143999
1789483063868887800,4.5788876953125,-1.2976070309221743,-7.30243079881072,-0.5468307491958141
1789483063878937000,4.58893701171875,-1.4565186589837074,-7.652325601977109,0.4851783028811216
1789483063888987100,4.598987060546875,-1.5329541022799908,-7.994339881026744,1.5851877089947461
1789483063899037200,4.609037109375,-1.4787760834991932,-8.23594089821279,2.540210552024841
1789483063909087000,4.6190869140625,-1.1747744319796563,-8.392313947707414,3.28556247061491
1789483063919137000,4.629136962890625,-0.8507458914756775,-8.392938801607489,3.9959290005415675
1789483063929187000,4.63918701171875,-0.5169745401144027,-8.212384666058421,4.676690665799379
1789483063939237000,4.649237060546875,-0.13103702125139532,-7.8665002675771705,5.210399483093619
1789483063949286000,4.659285888671875,0.29469482092671095,-7.253246788924932,5.5349733825206755
1789483063959336000,4.6693359375,0.727191992521286,-6.305302505978942,5.6411769182235
1789483063969386000,4.679385986328125,1.1146703841507435,-5.148860434025526,5.562974903646111
1789483063979436000,4.68943603515625,1.3965256703138351,-3.8808167667180298,5.366767271891236
1789483063989486000,4.699486083984375,1.5583119770288467,-2.4641549018263817,5.104115283370017
1789483063999536000,4.7095361328125,1.419820036661625,-0.2202018169350922,4.099609155246615
1789483064009586200,4.719586181640625,1.3990214326523243,0.08183277229517698,4.153696134743094
1789483064019635000,4.729635009765625,0.9058102646369487,1.7687777051083742,3.1987469414710996
1789483064029685000,4.73968505859375,0.6335515127282589,2.458592299263179,2.857895860981941
1789483064039735000,4.749735107421875,0.4001578404605388,2.956652003288269,2.635954653033614
1789483064049784800,4.759784912109375,0.1912345195174217,3.255742209629714,2.5819021603286263
1789483064059835000,4.7698349609375,0.06383103246279061,3.4019267503261563,2.6705262001991272
1789483064069885000,4.779885009765625,-0.04711830952763557,3.379539854212105,2.843315546965599
1789483064079935000,4.78993505859375,-0.09670337449498474,3.176942813681066,3.0482004061728714
1789483064089984000,4.79998388671875,-0.1427941676057875,2.7071614018961787,3.1371167069882153
1789483064100034000,4.810033935546875,-0.21584990533590315,2.0162325628891584,3.0923487599790094
1789483064110084000,4.820083984375,-0.2593534584324807,1.3153902326330542,3.0663638393729924
1789483064120134100,4.830134033203125,-0.22647052194103598,0.6540355708956718,2.979654693213105
1789483064130184000,4.840183837890625,-0.06521737225465477,0.08408376609236001,2.749662280756235
1789483064140234000,4.85023388671875,0.22010179062671958,-0.29027912337630984,2.5157185003250837
1789483064150284000,4.860283935546875,0.5504770698089152,-0.48199236632138487,2.2545208022654055
1789483064160333000,4.8703330078125,0.8870061954457312,-0.5976324234113097,1.9088216972231864
1789483064170383000,4.880383056640625,1.1784055550236254,-0.6165849611625075,1.5384668743520975
1789483064180433200,4.89043310546875,1.4147662604033946,-0.5753197615772485,1.126208261731267
1789483064190483200,4.900483154296875,1.6604010631501673,-0.48642070415765043,0.7682903111070394
1789483064200533200,4.910533203125,1.8106594291567801,-0.3254103502511978,0.46718087389767166
1789483064210583300,4.920583251953125,1.849285804671049,-0.15188684399127958,0.21132161425650117
1789483064220633000,4.930633056640625,1.7184160297453404,0.07578530882447958,-0.04983282918334007
1789483064230682000,4.94068212890625,1.4575285666786133,0.3317562121465802,-0.22019757915139196
1789483064240732200,4.950732177734375,1.2005354807019233,0.5865814525648951,-0.3987070571303367
1789483064250782200,4.9607822265625,1.1687445772308855,0.6689364951685071,-0.36606793933212756
1789483064260832000,4.97083203125,0.6534732608377933,0.923897929187119,-0.5841986490815878
1789483064270882000,4.980882080078125,0.46230172355398536,1.106939205376804,-0.5967261222213507
1789483064280932000,4.99093212890625,0.3056545332930982,1.3514210386961698,-0.5925941369831562
1789483064290982100,5.000982177734375,0.159381583660841,1.6965034731447695,-0.6160796419888734
1789483064301031200,5.01103125,0.03954407488107681,2.0516516667947173,-0.6809761847913265
1789483064311081200,5.021081298828125,-0.048989948618412014,2.35889712254107,-0.641871670371294
1789483064321131300,5.03113134765625,-0.09245733442306518,2.688883694666624,-0.4598369408756494
1789483064331181000,5.04118115234375,-0.07242927639484405,3.0522672172203658,-0.28863223295211793
1789483064341231000,5.051231201171875,-0.08577953715957701,3.3658833770424126,-0.049964346608519554
1789483064351281200,5.06128125,-0.05045943664908409,3.5227181988298892,0.18727087658345698
1789483064361331200,5.071331298828125,0.025946926683187484,3.671619889530539,0.40914135738313195
1789483064371380000,5.0813798828125,0.112421168108657,3.8553637610316276,0.5359715015292167
1789483064381430300,5.09143017578125,0.17953480243869124,4.0164088939905165,0.6302829393863678
1789483064391480300,5.101480224609375,0.21614107030220328,4.078429589095712,0.7682762825816869
1789483064401530000,5.111530029296875,0.2339642386972904,4.103184675645828,0.9749339966803788
1789483064411580200,5.121580078125,0.27739896434135736,4.204491086956859,1.28491413808763
1789483064421630200,5.131630126953125,0.3099098526500165,4.31694842235744,1.6632926929384468
1789483064431680300,5.14168017578125,0.33045813516005873,4.423209825727343,2.0634937880188224
1789483064441729000,5.15172900390625,0.2551578333735466,4.620053417298197,2.4923896471858025
1789483064451779000,5.161779052734375,0.1615617041788995,4.7773061722368,2.940696893787384
1789483064461829000,5.1718291015625,0.04076236462965607,4.859866966545582,3.35693551595509
1789483064471879200,5.181879150390625,-0.14841471090130506,5.002267604789138,3.707802963545918
1789483064481929000,5.191928955078125,-0.2769148340862244,5.1180309959977865,3.989128088355064
1789483064491979000,5.20197900390625,-0.37615152645111083,5.142893050053716,4.144747689133882
1789483064502029000,5.212029052734375,-0.5043607038654386,5.072153041920066,4.176030131626129
1789483064512078000,5.222078125,-0.5215243123732507,5.085139949265122,4.1843367722004645
1789483064522128100,5.232128173828125,-0.5882979010939597,4.994373636668921,4.18111956371963
1789483064532178200,5.24217822265625,-0.6537584344547241,4.88404045381546,4.135891013461351
1789483064542228200,5.252228271484375,-0.7323088971436024,4.736591300010681,4.212332448107004
1789483064552278000,5.262278076171875,-0.825789144873619,4.48056369806528,4.595197208461165
1789483064562328000,5.272328125,-0.8732545142732561,4.007176370742917,5.168339625999331
1789483064572378000,5.282378173828125,-0.8450247373498976,3.3412504555672404,5.755602923348546
1789483064582427100,5.29242724609375,-0.7416355284154414,2.5950942348569632,6.232357681277394
1789483064592477200,5.302477294921875,-0.5751788918018341,1.9312188224703073,6.554381311699748
1789483064602527200,5.31252734375,-0.34649631983451545,1.4983739334166049,6.647393941918015
1789483064612577300,5.322577392578125,0.023750147291272877,1.390341428720951,6.520792345830798
1789483064622627000,5.332626953125,0.41216297022663057,1.7562766815841198,6.046158817839622
1789483064632677000,5.342677001953125,0.8080652721345424,2.4643635761409994,5.433327948513627
1789483064642727200,5.35272705078125,1.1181551575265825,3.1307272982120513,4.899079032993316
1789483064652777200,5.362777099609375,1.267978785377741,3.555661268010735,4.386443398866057
1789483064662826000,5.372825927734375,1.3938789551973343,3.8284494506210085,3.896984642186761
1789483064672876000,5.3828759765625,1.526754663117975,3.9694051507532593,3.4377743087768553
1789483064682926000,5.392926025390625,1.657050583678484,3.988723599207401,2.9573633664280172
1789483064692976000,5.40297607421875,1.7530244017899035,3.9408442421793937,2.4434248330086468
1789483064703026200,5.413026123046875,1.7584113555252552,3.7590848224937914,1.958735774949193
1789483064713076200,5.423076171875,1.751960571950674,3.4499171665132042,1.5906600029259919
1789483064723126300,5.433126220703125,1.7237772645175455,3.01402721067518,1.3286182552576065
1789483064733175000,5.443175048828125,1.663187040606886,2.6044746421426535,1.182434006822109
1789483064743225000,5.45322509765625,1.6204092445015907,2.1360484443590044,1.1995751112371682
1789483064753275100,5.463275146484375,1.6067852082967757,1.5714146197080612,1.3777034809440374
1789483064763325200,5.4733251953125,1.645766973119974,0.95385730638206,1.7432283994406461
1789483064773375000,5.483375,1.774640167400986,0.30550825669020415,2.1477210542351006
1789483064783425000,5.493425048828125,1.931489456105232,-0.3202677266657352,2.5759616643637417
1789483064793475000,5.50347509765625,2.178781962931156,-0.900522022035718,2.9322271716058252
1789483064803524000,5.513524169921875,2.4667864193737508,-1.3856418727278708,3.1261241883307695
1789483064813574100,5.52357421875,2.6918472206473347,-1.8303347282245754,3.1915187437832353
1789483064823624200,5.533624267578125,2.8482266998827455,-2.2150649901896715,3.158053696554899
1789483064833674200,5.54367431640625,2.924043865150213,-2.533515730561316,3.0706244194269177
1789483064843724300,5.553724365234375,2.9533143832981583,-2.7259944049209355,2.9030121830374003
1789483064853774000,5.563774169921875,2.8984780467391014,-2.8490193115651605,2.6064865664869545
1789483064863824100,5.57382421875,2.823492071598768,-2.955422169232368,2.3464415455937386
1789483064873873200,5.583873046875,2.7045196552157402,-2.975535567456484,2.2122411649405955
1789483064883923000,5.5939228515625,2.598653388643265,-2.812016737860441,2.110904358491301
1789483064893973000,5.603972900390625,2.4220342544555664,-2.5746710400313138,1.9966963800311088
1789483064904023300,5.614023193359375,2.263704810196161,-2.3918622574232518,1.9087264201551675
1789483064914073300,5.6240732421875,2.1257669965803623,-2.3491849990829823,1.9047160154700278
1789483064924123100,5.634123046875,1.9358102419137952,-2.3324413695529103,1.8741840990841387
1789483064934173200,5.644173095703125,1.7209890951037405,-2.355650103443861,1.7766186278671026
1789483064944223200,5.65422314453125,1.3631003705739975,-2.2435810367085036,1.3425982652932404
1789483064954272000,5.66427197265625,1.1742518694102764,-2.398713292361796,1.0656190607339142
1789483064964322000,5.674322021484375,0.9858815071523189,-2.663771172980964,0.8118038741409778
1789483064974372000,5.6843720703125,0.870142665863037,-2.90970846580565,0.6000830314338207
1789483064984422100,5.694422119140625,0.7829775926291942,-3.141784698799252,0.3497229537308216
1789483064994472000,5.704471923828125,0.7370493696689605,-3.398358536450565,0.08059563171565533
1789483065004522000,5.71452197265625,0.6790987004816532,-3.6273774277001616,-0.20936989566683767
1789483065014572000,5.724572021484375,0.6364051485937088,-3.846067232637107,-0.5389098930686712
1789483065024621300,5.734621337890625,0.5601929926592857,-4.047161759650707,-0.8911813622385263
1789483065034671000,5.744671142578125,0.48288178944177923,-4.250595835527777,-1.2185206347256898
1789483065044721200,5.75472119140625,0.4011597109794616,-4.437257640302181,-1.5538146656095981
1789483065054771200,5.764771240234375,0.3421685928285122,-4.595241047602892,-1.8498206422001122
1789483065064821200,5.7748212890625,0.29475678024701774,-4.75462789196074,-2.1552245617330072
1789483065074871000,5.78487109375,0.2520293991547078,-4.952849786147475,-2.3838334108769894
1789483065084921000,5.794921142578125,0.20297062308378516,-5.157067121356725,-2.6103140158206224
1789483065094970000,5.80497021484375,0.1314789197999984,-5.345736758822202,-2.813192211380601
1789483065105020200,5.815020263671875,0.1163198560476303,-5.487131434893608,-2.771855992385745
1789483065115070200,5.8250703125,0.09570618015117943,-5.573603849688172,-3.193473969504237
1789483065125120300,5.835120361328125,0.08871756337285042,-5.617922299364209,-3.3145559253871437
1789483065135170300,5.84517041015625,0.06480002362541853,-5.670412949579954,-3.38867856169641
1789483065145220000,5.85522021484375,0.05143792629241943,-5.76260783367455,-3.3658465521633625
1789483065155270100,5.865270263671875,-0.0018260098507627844,-5.947312659162282,-3.2948832566678523
1789483065165320200,5.8753203125,-0.0577660333354026,-6.200459737235307,-3.140043408089876
1789483065175369200,5.885369140625,-0.06015672786422074,-6.250341081735491,-3.1212761637777087
1789483065185419000,5.8954189453125,-0.15119710816144943,-6.746587891119718,-3.091394820255041
1789483065195469000,5.905468994140625,-0.19415603298731146,-6.8797817250788205,-3.0814287220358847
1789483065205519000,5.91551904296875,-0.158687062058039,-6.955911025035381,-3.08305953810811
1789483065215569200,5.925569091796875,-0.1324491165390238,-6.984911494070291,-3.036241088309884
1789483065225619200,5.935619140625,-0.17701310194134712,-7.048572942119836,-2.8550094918906685
1789483065235669200,5.945669189453125,-0.25392325007729233,-7.1552832583010195,-2.5377292566031215
1789483065245718300,5.95571826171875,-0.36715346954651173,-7.254322309201956,-2.1996336123019455
1789483065255768000,5.96576806640625,-0.5244388481130823,-7.449024212568998,-1.8058593353986738
1789483065265818000,5.975818115234375,-0.7652467056274413,-7.71830877097249,-1.2286422157675028
1789483065275868200,5.9858681640625,-1.004546533199027,-8.044399504703282,-0.5027934545487165
1789483065285918200,5.995918212890625,-1.198473287475109,-8.431383975335955,0.3295686389744282
1789483065295968000,6.005968017578125,-1.360150873118639,-8.770555724436043,1.1533593035072087
1789483065306018000,6.01601806640625,-1.4322434649050235,-9.020576779443026,1.838636400362849
1789483065316068000,6.026068115234375,-1.3381260883152484,-9.14749927804768,2.450774026727676
1789483065326117400,6.036117431640625,-0.9569955313425511,-9.07045753942132,3.000429185694456
1789483065336167200,6.046167236328125,-0.4766132305663079,-8.777545437192916,3.384941713255644
1789483065346217200,6.05621728515625,-0.1252815995298326,-8.293679970476031,3.5222318766176697
1789483065356267300,6.066267333984375,0.2805005105532706,-7.608809116333723,3.5281115823060274
1789483065366317300,6.0763173828125,0.6187948922969401,-6.766843328163027,3.486950135356188
1789483065376367000,6.0863671875,0.905673486514762,-5.793762850394844,3.38761531637907
1789483065386417200,6.096417236328125,1.0710802487492561,-4.7459661543384195,3.322710005748272
1789483065396466200,6.106466064453125,1.060744732695818,-3.7092160452142355,3.2043735491812226
1789483065406516000,6.116515869140625,0.9423042312324047,-2.6925819646626707,3.0914398284405467
1789483065416566000,6.12656591796875,0.7126222729641943,-1.746207122990489,2.8740292496591806
1789483065426616000,6.136615966796875,0.4245302843686193,-0.9126471249196678,2.5670927137315274
1789483065436666400,6.146666259765625,0.15535905014649032,-0.13553586704060436,2.3200310930520294
1789483065446716200,6.156716064453125,-0.06946107423901557,0.5165327876962721,2.1058669488459825
1789483065456766200,6.16676611328125,-0.09660875501409172,0.7748832796312868,2.150216962704062
1789483065466816300,6.176816162109375,-0.26480375972762704,1.2592647330462932,2.028605429989099
1789483065476865300,6.186865234375,-0.3252525293409824,1.546646819806844,2.0550883632451296
1789483065486915000,6.1969150390625,-0.2917876282431185,1.649609327761829,2.20471661465466
1789483065496965000,6.206965087890625,-0.21778467279076574,1.5744275377884507,2.5119085866481066
1789483065507015200,6.21701513671875,-0.06632803691029548,1.4440081369787454,2.833591440808773
1789483065517065200,6.227065185546875,0.07261267013773322,1.2784849818229675,3.075449063104391
1789483065527115000,6.237114990234375,0.2006194568477571,0.9884633403390646,3.29429055147171
1789483065537165000,6.2471650390625,0.42315059351325035,0.5951400220736861,3.3740450561881064
1789483065547214300,6.25721435546875,0.5847204809986054,0.1604880835980177,3.393409681871533
1789483065557264100,6.26726416015625,0.7420178057312965,-0.21815993584394452,3.3782068520426747
1789483065567314200,6.277314208984375,0.9569020809054374,-0.48599020378589625,3.188468708562851
1789483065577364200,6.2873642578125,1.170688623970747,-0.6089882224231958,2.879406851044297
1789483065587414300,6.297414306640625,1.3638368681550026,-0.5419537908092141,2.4998884785085913
1789483065597464000,6.307464111328125,1.4768961149714885,-0.34325784936994314,2.1357845327258107
1789483065607514000,6.31751416015625,1.5732745683610438,-0.06677899554818868,1.7992717737019062
1789483065617564200,6.327564208984375,1.5795207692742346,0.2728457580164075,1.435520879140496
1789483065627613200,6.33761328125,1.445941150867939,0.689418142183125,1.0880775607794522
1789483065637663200,6.347663330078125,1.3363831901706755,1.08392277918756,0.8165408395349979
1789483065647713300,6.35771337890625,1.24170218834877,1.3875158499062061,0.6355617565721273
1789483065657763300,6.367763427734375,1.094808184208721,1.5770593475967645,0.5044114111393689
1789483065667813000,6.377813232421875,0.9343607248820364,1.7640253960147498,0.3670680562853813
1789483065677863200,6.38786328125,0.7586382472731172,1.9674886979863047,0.20893734946846962
1789483065687913200,6.397913330078125,0.6028184477470815,2.1112451347529886,0.06456687245666981
1789483065697962200,6.407962158203125,0.4967209297019988,2.195518578198552,-0.010686229187250137
1789483065708012000,6.418011962890625,0.4327544342912733,2.2531085973799225,-0.06400339335501194
1789483065718062000,6.42806201171875,0.4097568589329719,2.321947448067367,-0.05303951627016067
1789483065728112000,6.438112060546875,0.4659551314949989,2.4196309927061197,0.04153086478412151
1789483065738162200,6.448162109375,0.5568905170477927,2.6170629055589436,0.09913666605651378
1789483065748212200,6.458212158203125,0.641087388125807,2.8232454033613203,0.2071773540586233
1789483065758262300,6.46826220703125,0.7638929529309272,2.99426657141149,0.4059545440405607
1789483065768312300,6.478312255859375,0.8389923253178596,3.2318063305079936,0.5870920324355363
1789483065778361000,6.488361083984375,0.8759528134465218,3.466242278370261,0.67994391913414
1789483065788411100,6.4984111328125,0.8832920702934265,3.681553254523873,0.7832236763447523
1789483065798461200,6.508461181640625,0.8619348825532942,3.879484641331434,0.9051222093075514
1789483065808511200,6.51851123046875,0.8972387625813484,3.9917584368586536,1.0701274780690668
1789483065818561000,6.52856103515625,0.9582828677393496,4.043083550426363,1.2065087098926306
1789483065828611000,6.538611083984375,1.0391371503911913,4.046535736706852,1.2954232571423052
1789483065838661000,6.5486611328125,1.1527155987761915,3.9438095217257736,1.4235598077118397
1789483065848711200,6.558711181640625,1.2992111051179467,3.8435704473853107,1.5876228271871804
1789483065858760200,6.56876025390625,1.421697520971298,3.816346924895048,1.680872188770771
1789483065868810200,6.578810302734375,1.4740496394991873,3.8369390465468167,1.8242840498834847
1789483065878860300,6.5888603515625,1.5901427010536193,3.7514562273114915,2.234520801287889
1789483065888910000,6.59891015625,1.6377908796742557,3.781975284215808,2.401706336697936
1789483065898960100,6.608960205078125,1.6869934481300413,3.8946459701061245,2.6028724676430226
1789483065909010200,6.61901025390625,1.732548746124655,4.0686014380425215,2.835582906886935
1789483065919060200,6.629060302734375,1.7352387158609925,4.316918611741066,2.9994343294382095
1789483065929109000,6.63910888671875,1.7313992838285863,4.593445396357774,3.1932325619637965
1789483065939159000,6.649158935546875,1.697098370297998,4.763603810098767,3.4393069251716133
1789483065949209000,6.659208984375,1.6099205837130546,4.905698158872127,3.652888301053643
1789483065959259400,6.66925927734375,1.5183866477452217,5.063351895827054,3.7453491426080463
1789483065969309200,6.67930908203125,1.323815677281469,5.15392590072155,3.895166194587946
1789483065979359200,6.689359130859375,1.0406677209593356,5.013426127663254,4.304229810559749
1789483065989409300,6.6994091796875,0.6700479635417461,4.566272727271914,4.908587450572848
1789483065999459300,6.709459228515625,0.3611316519737243,3.891238207489252,5.460565499529242
1789483066009508000,6.719508056640625,0.24879341290816664,3.1170565002560613,6.0336582327067845
1789483066019558100,6.72955810546875,0.24163082780241965,2.4086148009121415,6.573551291593909
1789483066029608200,6.739608154296875,0.24863676104173063,2.365942949399352,6.540073969405889
1789483066039658000,6.749657958984375,0.6800817201696336,1.8959657227814197,7.155097964861989
1789483066049708000,6.7597080078125,0.9020670595206319,2.268242453625798,7.1593111986428495
1789483066059758000,6.769758056640625,1.1991361352980137,2.994095306497812,6.979191362857819
1789483066069808000,6.77980810546875,1.3854140553213654,3.7425270709246394,6.634770022666454
1789483066079857200,6.789857177734375,1.4374680676855145,4.3106414311677215,6.193427938902378
1789483066089907200,6.7999072265625,1.376123664406687,4.731019052836299,5.7455380409300325
1789483066099957200,6.809957275390625,1.274473992615938,4.976348735156655,5.211700628820061
1789483066110007300,6.82000732421875,1.1591139945764093,5.041760826265811,4.575358535525202
1789483066120057000,6.83005712890625,1.044384184199199,4.854544894739985,3.8244641803771255
1789483066130107100,6.840107177734375,0.8555410898629575,4.563342519038915,3.012365122681856
1789483066140157200,6.8501572265625,0.6683714086316526,4.124482899740338,2.3308184445261952
1789483066150207200,6.860207275390625,0.6059493661839515,3.6384237223714586,1.9118711479216812
1789483066160256300,6.87025634765625,0.6200001033682376,3.0607363548800346,1.609591497889161
1789483066170305500,6.880305419921875,0.697439901401475,2.4048279758498072,1.4416560208946465
1789483066180355300,6.890355224609375,0.7896271136462688,1.6786986441239713,1.4549679224103689
1789483066190405400,6.9004052734375,0.9757985045552253,0.9147969233646989,1.603786026480794
1789483066200455400,6.910455322265625,1.198351633856818,0.1374535372301936,1.8608511547803879
1789483066210505500,6.92050537109375,1.4982476766884325,-0.6341606576025486,2.131943054866791
1789483066220555300,6.93055517578125,1.8432348340690135,-1.3164014555022119,2.396729717329144
1789483066230605300,6.940605224609375,2.1987889781713483,-1.8932468192115426,2.6533640529960394
1789483066240654600,6.950654541015625,2.500195352500677,-2.418855039897561,2.8271500095844266
1789483066250704600,6.96070458984375,2.509691495120525,-2.6586814486265182,2.755766442850232
1789483066260754400,6.97075439453125,2.9111832145333287,-3.231716314136982,2.9328689766407012
1789483066270804500,6.980804443359375,2.927507741868496,-3.433115961576998,2.845223426413536
1789483066280854500,6.9908544921875,2.848290997290611,-3.535387126266956,2.7410072651356456
1789483066290904600,7.000904541015625,2.7564205228447913,-3.5242204200863836,2.5360101777255535
1789483066300954400,7.010954345703125,2.589200500643253,-3.3838433966249224,2.374545942571759
1789483066311003400,7.02100341796875,2.359626021337509,-3.1683962268710135,2.4123411279588938
1789483066321053400,7.031053466796875,2.2175825259685515,-3.006715718618035,2.2909476219087836
1789483066331103200,7.041103271484375,2.1027169603824616,-2.793646383911371,2.161031202185154
1789483066341153300,7.0511533203125,2.004786162984371,-2.604937583479285,2.111667744079232
1789483066351203300,7.061203369140625,1.9118834228813648,-2.52265356028527,2.0478356156378985
1789483066361253400,7.07125341796875,1.7509902656137941,-2.5422411810696124,1.9666379263758658
1789483066371303400,7.081303466796875,1.6153718348562716,-2.674617853426933,1.8090233523875474
1789483066381353500,7.091353515625,1.6549661786198615,-2.876456769067049,1.8084727327674626
1789483066391402500,7.101402587890625,1.4226666582643985,-3.037416269569099,1.2416162636309862
1789483066401452500,7.11145263671875,1.4719792629659174,-3.250132845315337,1.25113929425776
1789483066411502300,7.12150244140625,1.423910666976124,-3.5004493761375546,0.8845388554841279
1789483066421552400,7.131552490234375,1.3991795458234846,-3.7817502432882786,0.5696598361194133
1789483066431602400,7.1416025390625,1.4077110811948776,-4.075597872801125,0.24926000750660895
1789483066441652500,7.151652587890625,1.4271065404079855,-4.306848176364601,-0.058359834510087964
1789483066451702300,7.161702392578125,1.4343559270143509,-4.5302854680895805,-0.3342611807048321
1789483066461751600,7.17175146484375,1.4205224858425556,-4.7472874660700555,-0.6230272691696882
1789483066471801600,7.181801513671875,1.3927964206576346,-4.921264561316371,-0.952624549716711
1789483066481851400,7.191851318359375,1.3635362777732312,-5.0777971852868795,-1.272144672885537
1789483066491901400,7.2019013671875,1.385134507727623,-5.18990146946609,-1.7388351329177616
1789483066501951500,7.211951416015625,1.3336089031517504,-5.198672220420837,-2.1265005715519187
1789483066512001500,7.22200146484375,1.2345358038507401,-5.270016039666533,-2.392292027142644
1789483066522051300,7.23205126953125,1.1161034856937826,-5.428971506869793,-2.640406956267357
1789483066532101400,7.242101318359375,0.9970001364074647,-5.57817773347497,-2.8575778810739516
1789483066542150400,7.252150390625,0.8544926767885684,-5.765993968981504,-3.0988597493082284
1789483066552200200,7.2622001953125,0.7753542581439018,-5.904993274348974,-3.3252696271032094
1789483066562250500,7.27225048828125,0.7344063078142702,-6.031421851956844,-3.5376509795457123
1789483066572300500,7.282300537109375,0.7248492287874221,-6.1110302262008185,-3.741976451304555
1789483066582350600,7.2923505859375,0.7678010662853717,-6.1235951087415215,-3.897418941950798
1789483066592400400,7.302400390625,0.7630980762261896,-6.152438925909996,-3.958861544907093
1789483066602450400,7.312450439453125,0.7589280970651656,-6.2497863704621786,-3.9527106210619207
1789483066612500500,7.32250048828125,0.7497569486159831,-6.4088078886389725,-3.8553631765097376
1789483066622549500,7.332549560546875,0.7706734799165278,-6.547566955509781,-3.7370290580302474
1789483066632599300,7.342599365234375,0.7665865028638392,-6.584178484070301,-3.652049512141943
1789483066642649300,7.3526494140625,0.7238754153192043,-6.594034692174196,-3.520288341334462
1789483066652699400,7.362699462890625,0.652100730375573,-6.617468174731731,-3.3554251113921403
1789483066662749400,7.37274951171875,0.5408686989862471,-6.69708765489161,-3.1094653144747015
1789483066672799200,7.38279931640625,0.3947182066898793,-6.812056096330284,-2.865695721077919
1789483066682849300,7.392849365234375,0.19588497567176819,-6.973147991040348,-2.528179922491312
1789483066692898600,7.402898681640625,0.03183298904709518,-7.191330723237991,-2.1117653592348096
1789483066702948400,7.4129482421875,-0.19512392817139623,-7.46826667317748,-1.6456190890818834
1789483066712998400,7.422998291015625,-0.5339818620819599,-7.769068651872873,-0.9662684596657752
1789483066723048400,7.43304833984375,-0.8979963760156184,-8.160224855232238,-0.09337211118042468
1789483066733098500,7.443098388671875,-1.1516881554245948,-8.556282859158516,0.8090262261211871
1789483066743148300,7.453148193359375,-1.4234569318592547,-8.912871022483706,1.7075813319981097
1789483066753198300,7.4631982421875,-1.5373007531821727,-9.148484781953693,2.5433295608282087
1789483066763248400,7.473248291015625,-1.3860884474515913,-9.198946556690334,3.2694401878535744
1789483066773297400,7.48329736328125,-1.1261865613561124,-9.103277859005331,3.871933203038573
1789483066783347500,7.493347412109375,-0.8941581860922276,-8.7346824470222,4.235098406666517
1789483066793397500,7.5033974609375,-0.4710965129714459,-8.119908042412996,4.355829649415612
1789483066803447600,7.513447509765625,-0.1136836623251438,-7.421544669491052,4.3368981544524425
1789483066813497600,7.52349755859375,-0.008524594173952937,-6.012504385519027,4.18893345234096
1789483066823547400,7.53354736328125,-0.10495207433700561,-4.825810383164883,4.04601785031259
1789483066833597400,7.543597412109375,-0.32158414302654564,-3.4034371548891067,3.957365168869495
1789483066843646500,7.553646484375,-0.27418175586052235,-3.0612627168416977,3.986181513509154
1789483066853696300,7.5636962890625,-0.6628102673731744,-1.7187796023607254,3.883170051845908
1789483066863746300,7.573746337890625,-0.9766343708574772,0.15419132154136894,3.355516881328821
1789483066873796400,7.58379638671875,-0.6136335640110075,0.9557518879570066,3.077552757385373
1789483066883846400,7.593846435546875,-0.1386029995262623,1.5863235811568797,2.742782458114624
1789483066893896400,7.603896484375,0.24809213277101516,2.0126357074409724,2.433342414933443
1789483066903946500,7.613946533203125,0.5296760546468198,2.105002002579719,2.2418068666428326
1789483066913996500,7.62399658203125,0.70348027754426,1.9163129297614097,2.2071628387629985
1789483066924045300,7.63404541015625,0.7163233925044536,1.533001302422583,2.255989705774188
1789483066934095400,7.644095458984375,0.69628130595088,1.0040475707009433,2.3019927475363016
1789483066944145400,7.6541455078125,0.7101927807949483,0.4472510155469179,2.303631162393093
1789483066954195500,7.664195556640625,0.7385305481374264,-0.03822042506188154,2.207036582034826
1789483066964245200,7.674245361328125,0.6414546140030026,-0.4047437069460749,2.0190531732678414
1789483066974295300,7.68429541015625,0.7006112979792058,-0.6502905391484498,1.7334399958759545
1789483066984345300,7.694345458984375,0.7277775373242795,-0.7902773942485452,1.4616267957776785
1789483066994394600,7.70439453125,0.8427179217122495,-0.804658678561449,1.4238514841347931
1789483067004444400,7.7144443359375,0.9598949791111051,-0.5533592741817236,1.5809750597357748
1789483067014494500,7.724494384765625,1.240573038188368,-0.3588879647001624,1.6347247701019048
1789483067024544500,7.73454443359375,1.494989697805792,-0.2227455100685358,1.5835118847370147
1789483067034594600,7.744594482421875,1.7930935234583913,0.07949731508493423,1.640658836326003
1789483067044644400,7.754644287109375,1.9143337386429309,0.25293577340990303,1.5045213501304386
1789483067054694400,7.7646943359375,1.902622111930698,0.3698451197832823,1.2318372124165295
1789483067064744400,7.774744384765625,1.8566870208382606,0.5783174820885062,0.9118097242474555
1789483067074793200,7.784793212890625,1.8004386255241929,0.8795134285375475,0.7365197928369045
1789483067084843500,7.794843505859375,1.7447604313135145,1.2115417356237768,0.6751052469313145
1789483067094893600,7.8048935546875,1.6118356235541402,1.5537053600162267,0.5825783544033766
1789483067104943600,7.814943603515625,1.5815104817867278,1.6897835172399878,0.650946957230568
1789483067114993400,7.824993408203125,1.174577886494249,2.1559388474822043,0.6449100151538848
1789483067125043500,7.83504345703125,1.0009865756951273,2.4001105919390917,0.7117313885390758
1789483067135093500,7.845093505859375,0.8797555667303502,2.6461089673012492,0.7739069819450378
1789483067145142300,7.855142333984375,0.8158230466544628,2.8878099377304314,0.8065916924506426
1789483067155192300,7.8651923828125,0.7659739239234477,3.129001205071807,0.7558230437219142
1789483067165243000,7.875242919921875,0.6907317089997231,3.393030911687016,0.779714206919074
1789483067175293000,7.88529296875,0.656956865169853,3.5933880643367764,0.8337000641286373
1789483067185343000,7.895343017578125,0.5945476091384887,3.7957290842801332,0.8006821761459112
1789483067195393000,7.90539306640625,0.5208136798858642,4.001238212865591,0.8503291273683309
1789483067205442800,7.91544287109375,0.4519079745072871,4.221066958704591,0.968559200951457
1789483067215492900,7.925492919921875,0.3037890316821635,4.395839588242769,1.1367501140117644
1789483067225542100,7.935542236328125,0.22451142376251518,4.5354123095840215,1.3462515271037816
1789483067235592000,7.945592041015625,0.2100842544812709,4.658049093693495,1.5365554877728222
1789483067245642000,7.95564208984375,0.26524551214575764,4.767524782934784,1.7738912487298248
1789483067255692000,7.965692138671875,0.37138416591882706,4.808181787493825,2.153833399635553
1789483067265742000,7.9757421875,0.5523918904542923,4.864261402112246,2.5049480999857185
1789483067275792100,7.985792236328125,0.7445172213315964,5.03352140570879,2.816577177643776
1789483067285842000,7.995842041015625,0.862617531055212,5.19715655516088,3.0835961292028427
1789483067295891000,8.005890869140625,0.8853661000885069,5.333769257652759,3.2975346479594707
1789483067305941000,8.01594091796875,0.8643513691104948,5.474730803003907,3.4907395907670256
1789483067315991000,8.025990966796876,0.869919451566413,5.522603730291128,3.5364047788769004
1789483067326041000,8.036041015625,0.7717372366905212,5.6608846582561725,3.6230139717936516
1789483067336091100,8.046091064453124,0.670243047722429,5.7869105002820485,3.650433893638849
1789483067346141200,8.05614111328125,0.6310241131424903,5.869679968905449,3.7621675909399985
1789483067356191000,8.06619091796875,0.6702629214666783,5.932488599517941,3.920916137394309
1789483067366240000,8.076239990234376,0.7839069824337959,6.000228841313719,4.172322509279847
1789483067376290000,8.0862900390625,0.9204888513959943,6.055467328932881,4.540794587144255
1789483067386339800,8.09633984375,0.9721769530571996,6.075093820422888,5.162647551837563
1789483067396390000,8.106389892578125,0.9437444931685924,5.853871574398875,5.961802956807613
1789483067406440000,8.11643994140625,0.7792528730176389,5.284564789500832,6.722089409679174
1789483067416490000,8.126489990234376,0.4769862285971641,4.473157805722952,7.3722151136547325
1789483067426539800,8.136539794921875,0.3553074758648872,3.6493431757926937,7.890912239778041
1789483067436590000,8.146590087890624,0.24223288534879683,2.901797546550631,8.292647120296955
1789483067446639000,8.15663916015625,0.20888693445548415,2.435755905815959,8.523153327494859
1789483067456689200,8.166689208984375,0.36987609944343564,2.285915472960472,8.400423019883036
1789483067466739000,8.176739013671876,0.6938464069541543,2.468672671511769,7.908346774181723
1789483067476789000,8.1867890625,0.9572750058710574,2.942106760585308,7.239236968272924
1789483067486839000,8.196839111328124,1.1882932542443274,3.3221576325625177,6.670046503230929
1789483067496889000,8.20688916015625,1.1745967373251913,3.3908290177285667,6.215324128890037
1789483067506939000,8.21693896484375,1.170259584903717,3.270340351563692,5.660462048929929
1789483067516988200,8.22698828125,1.0958090318143368,3.0938685168921944,5.055283740183711
1789483067527038200,8.2370380859375,1.023139005466178,2.886193734705448,4.43914330791831
1789483067537088000,8.247087890625,0.9784346982777118,2.637218973881006,3.807420691117644
1789483067547138000,8.257137939453125,1.0066284540396182,2.3533383193701503,3.2332425007909533
1789483067557188000,8.26718798828125,1.117472655155137,2.064002614323795,2.7999136276125904
1789483067567238100,8.277238037109376,1.2320073082864285,1.6413775059893727,2.4544588527202604
1789483067577288000,8.287287841796875,1.3726467820763588,1.1426695671886204,2.220060314258933
1789483067587337000,8.2973369140625,1.4572890588343144,0.5651712925285101,2.1047510965585707
1789483067597387000,8.307386962890625,1.5285153891801833,-0.12072802787870168,2.0525404323279854
1789483067607436800,8.317436767578124,1.58016374335289,-0.790954562857747,2.0764280883938073
1789483067617486800,8.32748681640625,1.1074212167400865,-1.5132111448034644,2.571389534142613
1789483067627537000,8.337536865234375,1.1737492536503822,-2.2926716692224143,1.7968740649104118
1789483067637587000,8.3475869140625,2.158382148981094,-2.2698460894301533,1.690672282773256
1789483067647637000,8.357636962890625,2.377713466691971,-2.3941923078060148,2.2232225776821375
1789483067657686000,8.36768603515625,1.884770959550142,-3.2264757831349966,2.449912441462278
1789483067667736000,8.377736083984376,2.10730779530406,-3.865556361483037,2.728994171258807
1789483067677786000,8.3877861328125,2.0903028844892977,-3.977018840627372,2.860331563696265
1789483067687836000,8.3978359375,1.7456430593669414,-3.979338808007538,2.5526386564433574
1789483067697886000,8.407885986328125,1.590799703657627,-4.06316743029505,2.2800001114368436
1789483067707936000,8.41793603515625,1.3305050919175148,-4.1701749758571385,2.169168331411481
1789483067717986000,8.427986083984376,1.1489842302281408,-4.279495182275772,2.0792864004343747
1789483067728035000,8.43803515625,1.046958126340434,-4.371122495615482,1.9238100075185298
1789483067738085000,8.448085205078126,0.9155565095603465,-4.342994425500929,1.6855775899827479
1789483067748135200,8.45813525390625,0.7846236062705516,-3.9995062745064494,1.3027443938106298
1789483067758185000,8.46818505859375,0.7564496511876583,-3.988030063985288,1.1239034919202326
1789483067768235000,8.478235107421876,0.7089478953003883,-4.022461618158221,0.9264823927223682
1789483067778285000,8.48828515625,0.7013854972220956,-4.060859445613622,0.7342886727839708
1789483067788335000,8.498335205078124,0.7345324914772063,-4.119240322911739,0.5509527975618839
1789483067798385000,8.508385009765625,0.7668846090275794,-4.202594021163881,0.3697013273984194
1789483067808434000,8.518433837890624,0.8316998302221298,-4.332782535827159,0.12211305249631405
1789483067818484000,8.52848388671875,0.9823908154923469,-4.41158806925565,-0.32373861764669415
1789483067828534000,8.538533935546875,1.0326574329830704,-4.366223033136129,-0.7464566649615764
1789483067838584000,8.548583984375,1.0283142892122268,-4.414371562494337,-1.0939233641982078
1789483067848634000,8.558634033203125,1.0202103316031397,-4.531697672975063,-1.4224258352458476
1789483067858684200,8.56868408203125,1.0170901537559927,-4.717155070395767,-1.7474995008885859
1789483067868734200,8.578734130859376,0.9916823023855685,-4.857713587903977,-2.0634616393148897
1789483067878783000,8.588782958984375,0.9790310567356646,-4.973721309262514,-2.3339649258583783
1789483067888833000,8.5988330078125,0.968158949587494,-5.041242939871549,-2.6201450894832607
1789483067898883000,8.608883056640625,0.8897663808740675,-5.159133990758657,-2.843822327443957
1789483067908932900,8.618932861328124,0.7795361469384282,-5.353549478399753,-3.024896687474847
1789483067918983000,8.62898291015625,0.6934956207551062,-5.558098237520456,-3.1654864769041535
1789483067929033000,8.639032958984375,0.6207506294745951,-5.760832640695572,-3.272686622428894
1789483067939082000,8.64908203125,0.6282359437286853,-5.912167111501097,-3.376206033614278
1789483067949132000,8.659132080078125,0.6613688363932073,-5.97797784653902,-3.4494816977053877
1789483067959182000,8.66918212890625,0.6537152529001236,-6.027786125802994,-3.4780747549831865
1789483067969232100,8.679232177734375,0.6469942740820348,-6.105851946780085,-3.4571699141204357
1789483067979282000,8.689281982421875,0.5717452640913426,-6.162924664089084,-3.426384899756312
1789483067989332000,8.69933203125,0.4640006364263594,-6.1978802421361205,-3.302895882731676
1789483067999382000,8.709382080078125,0.35385450057759876,-6.270643280529976,-3.1618443210095166
1789483068009432000,8.71943212890625,0.21451281151324508,-6.362640011703967,-2.9645997474223376
1789483068019480800,8.729480712890625,0.1719173862375319,-6.425367393773794,-2.6697353420823813
1789483068029531000,8.73953076171875,0.1957891140818596,-6.504351498639584,-2.3376310471504924
1789483068039581200,8.749581298828126,0.3063993603110313,-6.612542993289232,-2.1135662711769343
1789483068049631200,8.75963134765625,0.4694049796879291,-6.75467884311676,-1.8694395349055528
1789483068059681000,8.769680908203124,0.6136921623304485,-6.829028858441114,-1.4744763404786585
1789483068069731000,8.77973095703125,0.7373755328834056,-6.877324395054578,-1.0750129120230674
1789483068079781000,8.789781005859375,0.7170202887274324,-6.995702937197684,-0.6883189487695693
1789483068089830000,8.799829833984376,0.5764345909513533,-7.227959202933311,-0.13733458702564239
1789483068099880000,8.8098798828125,0.361350555421412,-7.591047834193706,0.5493786801129579
1789483068109930000,8.819929931640624,0.2617966868661344,-8.025957839083672,1.2788655055731535
1789483068119980000,8.82997998046875,0.2613878138042986,-8.421540626713632,1.8976736957430838
1789483068130029800,8.84002978515625,0.35803266304507847,-8.701544147530198,2.363679096120596
1789483068140079900,8.850079833984376,0.5388099398255348,-8.79301773161292,2.536625679275393
1789483068150129200,8.860129150390625,0.7907001497052609,-8.655575008037685,2.3847259758025405
1789483068160179000,8.870178955078124,1.1362566314063967,-8.476689682483672,2.331635606127977
1789483068170229500,8.8802294921875,1.4726723597966134,-8.28648099888265,2.426029461571574
1789483068180279600,8.890279541015625,1.4393056583762167,-8.049543297332525,2.3829566280424594
1789483068190329600,8.90032958984375,1.9797043286979197,-7.410947872152924,2.641040577995777
1789483068200379600,8.910379638671875,1.9953928962171077,-6.678764647215605,2.700513926705718
1789483068210429400,8.920429443359374,1.7979894788064061,-5.765399510219693,2.8044647150456905
1789483068220478500,8.930478515625,1.5149087425015866,-4.748141744811833,2.6673756272137163
1789483068230528500,8.940528564453125,1.1979203297674654,-3.7280861653789876,2.5359073018729683
1789483068240578300,8.950578369140626,0.9620565410591662,-2.720154446721077,2.4090631292015314
1789483068250628400,8.96062841796875,0.9211445388257503,-2.3982820613376794,2.4231138663858176
1789483068260678700,8.9706787109375,0.6920004137612878,-1.3814790539599955,2.213655123391747
1789483068270728700,8.980728759765626,0.45776137671060857,-0.4611323875136673,2.0776748735845088
1789483068280778500,8.990778564453125,0.23964111528992652,0.33590339495390653,1.9938404060781
1789483068290827500,9.00082763671875,0.01834331981167197,0.970857687152177,2.0099983446747065
1789483068300877600,9.010877685546875,-0.053948009417206046,1.3857045627005398,2.142756125304103
1789483068310927400,9.02092724609375,0.041865795826911925,1.5344855496309697,2.2892788119137286
1789483068320977400,9.030977294921875,0.2300721996948123,1.5696180916801095,2.5546821449697017
1789483068331027500,9.04102734375,0.4980583888508379,1.4830012999787925,2.854619031268358
1789483068341077500,9.051077392578126,0.8105790085211396,1.242748482531309,3.2062481108814476
1789483068351127600,9.06112744140625,1.0759950549282133,0.9115376293078065,3.527476207011938
1789483068361176600,9.071176513671874,1.2387246338427067,0.6524626224905252,3.7445997855454682
1789483068371226600,9.0812265625,1.34946712814942,0.3730708038315177,3.846179168578982
1789483068381276700,9.091276611328125,1.448137784129381,0.06568272474408149,3.7912510620832442
1789483068391326500,9.101326416015626,1.5568237842977046,-0.12852233501672744,3.599340250739455
1789483068401376500,9.11137646484375,1.6246153178893028,-0.14184534244835376,3.3546073652684685
1789483068411426600,9.121426513671874,1.6102549302339553,-0.04713146127015352,3.0562323214590545
1789483068421476600,9.1314765625,1.5862252353489399,0.1276917294114828,2.7607880704045296
1789483068431525400,9.141525390625,1.5860625921331346,0.3564259585008025,2.543131992429495
1789483068441575400,9.151575439453126,1.5935295670129357,0.5815884665831923,2.259290500885248
1789483068451625500,9.16162548828125,1.5771883808039129,0.77139441460222,2.013824624964595
1789483068461675500,9.171675537109374,1.504723156312853,0.9802198281288146,1.7828332645982503
1789483068471725600,9.1817255859375,1.3925005064509808,1.151032906386256,1.5376836150199173
1789483068481775600,9.191775634765625,1.2332301280796527,1.3157979366511106,1.3602829750657082
1789483068491824400,9.201824462890626,1.1516146517969668,1.5115876352548598,1.22348147200346
1789483068501874400,9.21187451171875,1.0821804655648768,1.715738334968686,1.050441949868202
1789483068511924500,9.221924560546874,0.9987259372867643,1.9039035300433635,0.8931143761277198
1789483068521974500,9.231974609375,0.9537351413071155,2.1099244075432417,0.8298615088790655
1789483068532024600,9.242024658203125,0.9237479993224144,2.362415359795093,0.8049749049037694
1789483068542074400,9.252074462890626,0.886116480064392,2.5809546503454444,0.7810100919485091
1789483068552124400,9.26212451171875,0.8193008057676255,2.795761768630147,0.7384013687998056
1789483068562173700,9.272173583984374,0.780370625001192,3.010507512116432,0.7889204266816378
1789483068572223500,9.282223388671875,0.7515665553212165,3.191426389324665,0.9113988053590059
1789483068582273500,9.2922734375,0.7708277206301689,3.3763439807802436,1.0058990437865256
1789483068592323600,9.302323486328126,0.7758933334566652,3.6337510543853044,1.1176005923837422
1789483068602373600,9.31237353515625,0.8244951595403254,3.91002181841433,1.2622083852827548
1789483068612423400,9.32242333984375,0.8238730821192264,4.145878154468536,1.373494923338294
1789483068622473500,9.332473388671875,0.781711518216133,4.274397566875815,1.5293255365192888
1789483068632522500,9.3425224609375,0.7853694562017918,4.349093619158864,1.6946049460470676
1789483068642572300,9.352572265625,0.8360286532066762,4.44635981516838,1.7378882074564694
1789483068652622300,9.362622314453125,0.878309605705738,4.531211935284733,1.707922108259797
1789483068662672600,9.372672607421874,0.9435108305431902,4.579982688194513,1.8163339676618575
1789483068672722700,9.38272265625,1.0270191348351538,4.599912546545267,1.9762305151075124
1789483068682772500,9.3927724609375,1.0667021797955036,4.630872332954406,2.059545927175879
1789483068692822500,9.402822509765626,0.9925650765694677,4.651251688638329,2.333377481359243
1789483068702871600,9.41287158203125,0.9870143105745315,4.609795058134198,2.5709569879442453
1789483068712921600,9.422921630859374,1.0369054458163678,4.566525240728259,2.8066835601389406
1789483068722971400,9.432971435546875,1.1187949167348443,4.576844974690675,3.0621096890598536
1789483068733021400,9.443021484375,1.1586368055187164,4.590816801419854,3.28610315336287
1789483068743071500,9.453071533203126,1.0718763675630092,4.5935009259372945,3.4290286922633646
1789483068753121500,9.46312158203125,1.0584824868522584,4.629893258789181,3.458919972658157
1789483068763170600,9.473170654296876,0.8686581263937055,4.75097170754075,3.6949545878887173
1789483068773220600,9.483220703125,0.7347067520655691,4.888338443270325,3.8478175834357735
1789483068783270700,9.493270751953125,0.6024690497875214,5.037949743545055,4.071963023430109
1789483068793320400,9.503320556640626,0.3441604972980916,5.103894334095716,4.4368531511545175
1789483068803370500,9.51337060546875,0.05288768670931458,4.994249718028307,5.023193488439917
1789483068813420500,9.523420654296874,-0.1388098472099751,4.765067452910542,5.675523424461484
1789483068823470600,9.533470703125,-0.34131387569531796,4.42853189753294,6.2586418770909304
1789483068833519400,9.543519287109374,-0.4260227879486978,4.078687947770953,6.615861908578872
1789483068843569400,9.5535693359375,-0.4054652261536568,3.843666893497109,6.854228181627392
1789483068853619500,9.563619384765625,-0.430691875738278,3.814494575026631,6.823557733553647
1789483068863669500,9.57366943359375,-0.1276747782766819,3.7435920698076486,6.905695334014296
1789483068873719600,9.583719482421875,0.1831388913452625,3.8730718516796827,6.735199651142954
1789483068883769600,9.59376953125,0.426292837061733,4.068077121907472,6.50928077173531
1789483068893819600,9.603819580078126,0.5868037170134485,4.205249796369672,6.226390881827474
1789483068903868400,9.613868408203125,0.6457786146819591,4.300658966335654,5.926697741156816
1789483068913918500,9.62391845703125,0.6789850840393453,4.365644940987229,5.572565738812089
1789483068923968500,9.633968505859375,0.7537188379842787,4.3510903459340335,5.096022577807307
1789483068934018600,9.6440185546875,0.8425416152972728,4.269279493209719,4.537695452085137
1789483068944068400,9.654068359375,0.8994378069955855,4.116691222950816,3.949550695726275
1789483068954118400,9.664118408203125,0.9460779776174575,3.887677884659171,3.4002859973818063
1789483068964167700,9.674167724609376,0.995523853309825,3.655863517472148,2.9930180326551197
1789483068974217500,9.684217529296875,0.9636158993303775,3.494806109553575,2.8797604867875575
1789483068984267500,9.694267578125,1.027142907345295,3.0828105317831036,2.49498609341979
1789483068994317600,9.704317626953125,1.005076036965847,2.710513927194476,2.3819436516076324
1789483069004367600,9.71436767578125,0.9939876567184924,2.227956620466709,2.408936872473359
1789483069014417400,9.72441748046875,0.9746143362719565,1.6545850703477858,2.517629302382469
1789483069024467500,9.734467529296875,0.992729765611887,0.9905758024483918,2.6534903097242117
1789483069034516500,9.7445166015625,1.0659083990693092,0.2754457113817334,2.8050778785079715
1789483069044566300,9.754566162109375,1.193514203763008,-0.4461588363960385,2.905171991419792
1789483069054616600,9.764616455078125,1.3572948991656302,-1.0980538881316781,3.0438305205255745
1789483069064666600,9.77466650390625,1.5972551634073255,-1.7070558468192816,3.1294676535397765
1789483069074716700,9.784716552734375,1.8237889598429202,-2.2262793349042536,3.193017457908392
1789483069084766700,9.7947666015625,2.1179554460465906,-2.640078162704408,3.282477948603034
1789483069094815500,9.8048154296875,2.4203989083386954,-2.9073198171034456,3.3256747007727623
1789483069104865500,9.814865478515625,2.4900761095464228,-3.141067490440607,3.2678853596270083
1789483069114915600,9.82491552734375,2.7076924400329587,-3.128503192421794,3.7266146315217017
1789483069124965400,9.83496533203125,2.8007284511268136,-3.3179248172983526,3.802628196144104
1789483069135015400,9.845015380859374,2.8281390206217765,-3.363732044227421,3.7297383165001867
1789483069145065500,9.8550654296875,2.8011984067261215,-3.3912434437483547,3.6059827574938534
1789483069155115500,9.865115478515625,2.8445301834523677,-3.416882911917567,3.461316512405872
1789483069165163500,9.87516357421875,2.841940751481056,-3.329183585676551,3.252605957430601
1789483069175213600,9.885213623046875,2.795688703393936,-3.2357343176066875,3.0551006870806217
1789483069185263600,9.895263671875,2.7533459377050398,-3.187969819130003,2.8600936632871625
1789483069195313400,9.9053134765625,2.6595728445082902,-3.2128745432838794,2.632633399656415
1789483069205363500,9.915363525390624,2.711220614159107,-3.4364722862675783,2.631461433267593
1789483069215413500,9.92541357421875,2.5874878515064714,-3.5178882944554086,2.3846803830951453
1789483069225462500,9.935462646484375,2.4393559761345385,-3.6510417964041233,2.05462133025527
1789483069235512600,9.9455126953125,2.3142592316523194,-3.75418243740499,1.6679805584937333
1789483069245562600,9.955562744140625,2.2198365885056552,-3.9241526350975033,1.1891215217620135
1789483069255612700,9.96561279296875,2.132659532573074,-4.166810175599157,0.7652519663244486
1789483069265662500,9.975662353515625,2.0914169832110403,-4.441812819388509,0.4064198234647512
1789483069275712500,9.98571240234375,2.142473801231384,-4.6658594751834865,0.028247020319104192
1789483069285762600,9.995762451171874,2.2368251327075064,-4.8964735266700385,-0.37758302055895326
1789483069295811600,10.0058115234375,2.3003194074966014,-5.144904389876127,-0.7378162623882293
1789483069305861400,10.015861328125,2.2857832248829304,-5.420580110621452,-1.0790618951529263
1789483069315911400,10.025911376953125,2.2012299415826795,-5.637776754391193,-1.455482301673293
1789483069325961500,10.03596142578125,2.1000820818342265,-5.786642789256573,-1.835462446501851
1789483069336011800,10.04601171875,1.9833996760845183,-5.921943240106105,-2.1114047092288732
1789483069346061600,10.0560615234375,1.8437889608204363,-6.063187109529972,-2.3557348591178653
1789483069356110600,10.066110595703124,1.6674107957817612,-6.1691620971739285,-2.6027491335242985
1789483069366160600,10.07616064453125,1.5322314870938658,-6.280508840984106,-2.85689106785357
1789483069376210400,10.08621044921875,1.4007881500639021,-6.355506506562232,-3.092164635583758
1789483069386260500,10.096260498046876,1.3036274602554738,-6.405764867681264,-3.3191625423997637
1789483069396310500,10.106310546875,1.2695491034343838,-6.444395919370651,-3.4983863061279057
1789483069406360600,10.116360595703124,1.2780826846323907,-6.5197676789581775,-3.6328269252777097
1789483069416410400,10.126410400390625,1.2805612035751341,-6.545636279708146,-3.6994244267791507
1789483069426459600,10.136459716796875,1.2404065955802797,-6.575496580442786,-3.6979157757818695
1789483069436509700,10.146509765625,1.1427753656506539,-6.637374652206898,-3.641084466013312
1789483069446559700,10.156559814453125,0.9791735339462756,-6.744996822535991,-3.570301787781715
1789483069456609500,10.166609619140624,0.8662449277721345,-6.888160261845588,-3.4888749659389253
1789483069466659600,10.17665966796875,0.7329610774420201,-6.99651425358057,-3.4431986719131467
1789483069476709600,10.186709716796875,0.6347767436742783,-7.037733568197488,-3.415557216271758
1789483069486758400,10.19675830078125,0.5818611460447312,-7.013111168116331,-3.3539065235227343
1789483069496808400,10.206808349609375,0.5662088188827038,-6.968563001337647,-3.168417269659042
1789483069506858500,10.2168583984375,0.5215758964300156,-6.971894191586971,-3.0178777486234902
1789483069516908500,10.226908447265625,0.37594460570216176,-7.058838315546512,-2.7329297571420668
1789483069526958600,10.23695849609375,0.06149272570833563,-7.263669983261823,-2.1266618995934725
1789483069537008600,10.247008544921876,-0.3015736937202513,-7.615034858980774,-1.297361531728506
1789483069547058700,10.25705859375,-0.5447324617423117,-8.046736423218249,-0.46251580469608305
1789483069557107500,10.267107421875,-0.6521370437979698,-8.53391437548399,0.387210680603981
1789483069567157500,10.277157470703125,-0.6766555451132357,-9.057571169841289,1.2157646140158176
1789483069577207600,10.28720751953125,-0.49832734198532996,-9.446509697151184,1.7734072646051644
1789483069587257600,10.297257568359376,-0.2778117098607123,-9.569816927868127,2.167265712660551
1789483069597307400,10.307307373046875,-0.044064913306385275,-9.342847078102826,2.411346271702647
1789483069607357400,10.317357421875,0.12900047392249106,-8.8998642413944,2.5733149492472407
1789483069617406700,10.32740673828125,0.19498481196165085,-8.392426175910234,2.6655554260492322
1789483069627456800,10.337456787109375,0.13421090204715727,-7.8246286265313625,2.7371383147478103
1789483069637506600,10.347506591796876,-0.25544066890291867,-6.792572228181362,2.8486685984313485
1789483069647556600,10.357556640625,-0.38745610673241315,-6.051710606747865,2.791816830396652
1789483069657606700,10.367606689453124,-0.4495801891468465,-5.332402645474672,2.7880677069962023
1789483069667656700,10.37765673828125,-0.411627328979969,-4.60724508139044,2.707887670344114
1789483069677706500,10.38770654296875,-0.30889051953963936,-3.8630905558913944,2.5906302411854267
1789483069687755500,10.397755615234376,-0.13898045453652738,-3.085584672671556,2.5119196925640104
1789483069697805600,10.4078056640625,0.07386829622201621,-2.314611259960383,2.4344302101701496
1789483069707855400,10.41785546875,0.3633702977459877,-1.6003082673676312,2.3836130461245775
1789483069717905400,10.427905517578125,0.6270785903871059,-0.989181279350072,2.366662495845556
1789483069727955500,10.43795556640625,0.8527637341041118,-0.5518510615758597,2.4346172571748492
1789483069738005800,10.448005859375,1.0778631138224155,-0.2196529508806765,2.6098779624909163
1789483069748054500,10.458054443359375,1.2451239794909954,-0.02378770282268524,2.8980004923552274
1789483069758104600,10.4681044921875,1.285582246607542,0.038355157357454296,3.1688767038643357
1789483069768154600,10.478154541015625,1.270344929987192,-0.001684738216549158,3.416296051940322
1789483069778204400,10.488204345703124,1.228951427847147,-0.061785717305541034,3.6285289358228443
1789483069788254500,10.49825439453125,1.1820120550829916,-0.11583382609635591,3.8907583150178193
1789483069798304500,10.508304443359375,1.1494446873467414,-0.2843132007092237,4.102876048088073
1789483069808353500,10.518353515625,1.180713247444108,-0.38017069896459577,4.196422931313514
1789483069818403600,10.528403564453125,1.289677406966686,-0.4031818644568324,4.220207127004862
1789483069828453600,10.53845361328125,1.4652268660962582,-0.3533610179722309,4.154007100388408
1789483069838503700,10.548503662109376,1.682282055568695,-0.11986994974464177,3.924824835270643
1789483069848553700,10.5585537109375,1.7148492771744728,0.02452536944746971,3.9875323435962198
1789483069858603500,10.568603515625,1.867725132203102,0.5871461007103324,3.326090880358219
1789483069868653600,10.578653564453125,1.8199474819838999,0.8647826001346111,3.0149995628386734
1789483069878702600,10.58870263671875,1.6953052032709122,1.1730483388394117,2.6960949412196875
1789483069888752400,10.59875244140625,1.528346900745481,1.467649709329009,2.4292396557897327
1789483069898802400,10.608802490234375,1.3101074699245392,1.7625693519875407,2.212658513569832
1789483069908852500,10.6188525390625,1.1092929288960993,1.990840055218339,1.9528321038633585
1789483069918902500,10.628902587890625,0.9166882900692522,2.1883815659254786,1.6865139940500258
1789483069928952600,10.63895263671875,0.6935750426668673,2.405014146071672,1.4905635519266127
1789483069939001600,10.649001708984375,0.45353170325160025,2.580687231580913,1.3470330328702926
1789483069949051600,10.6590517578125,0.23605682706236839,2.7828713073968885,1.2776461929112672
1789483069959101400,10.669101318359376,0.04323949533291161,2.9773025771290063,1.2611474780529737
1789483069969151500,10.6791513671875,-0.13578202382139862,3.1763860565811393,1.2579624182760716
1789483069979201500,10.689201416015624,-0.2202875955224037,3.3807138664275405,1.2933826912254094
1789483069989251600,10.69925146484375,-0.3149146751999855,3.5768677221685645,1.3862228874862192
1789483069999300400,10.70930029296875,-0.38135954342298206,3.769852300223708,1.3575930053293703
1789483070009350700,10.7193505859375,-0.4199099310915917,4.016386682158708,1.1887778228908776
1789483070019400700,10.729400634765625,-0.4340894092220813,4.237651013758779,1.0543015479058027
1789483070029450800,10.73945068359375,-0.4788766454536468,4.309213444191217,0.9838888720303773
1789483070039500500,10.74950048828125,-0.3914787863772362,4.404372438788414,0.934879049667716
1789483070049550600,10.759550537109375,-0.24701551651544867,4.4514860721409315,1.0191372955441473
1789483070059599600,10.769599609375,-0.04909165542721748,4.4596232013672585,1.165164307591319
1789483070069649400,10.7796494140625,0.17626126066073775,4.45404510897398,1.3225748834401367
1789483070079699500,10.789699462890624,0.46985739963054657,4.502810601186752,1.456797475925088
1789483070089749500,10.79974951171875,0.6968870898243039,4.557335972100496,1.5392209075897931
1789483070099799600,10.809799560546875,0.8527836809135972,4.585601697120071,1.5654548345208168
1789483070109849300,10.819849365234376,0.9444938502311706,4.597867888975143,1.611219975873828
1789483070119898600,10.829898681640625,0.9407377856332808,4.590212405785918,1.6918337277680635
1789483070129948700,10.83994873046875,0.9723476334489881,4.568541256725788,1.8634084380477667
1789483070139998500,10.84999853515625,1.0123265926159917,4.598987248393893,1.8950947851657867
1789483070150048500,10.860048583984375,1.0493488939344882,4.626194404271245,2.017403067973256
1789483070160098600,10.8700986328125,1.1391244419276714,4.642259403887391,2.1701000593036412
1789483070170148900,10.88014892578125,1.2499885167874396,4.6967222309589385,2.352291440665722
1789483070180199000,10.890198974609374,1.3824901306986808,4.755720363372564,2.5641461388856173
1789483070190247700,10.90024755859375,1.4954035393036902,4.846283846873044,2.804619028824568
1789483070200297700,10.910297607421874,1.5724680742837487,4.908773328533768,3.028868513715267
1789483070210347800,10.92034765625,1.6004431457936763,4.939870477586984,3.254481688174605
1789483070220397800,10.930397705078125,1.4773052802942692,4.871864862853289,3.6501562457412478
1789483070230447900,10.94044775390625,1.2621359045684337,4.6012306434065104,4.279996117535234
1789483070240498000,10.950497802734375,1.0354676680982113,4.122964311870932,4.9498167020618915
1789483070250547000,10.960546875,0.927161607158184,3.595968728479743,5.514084908270836
1789483070260597000,10.970596923828126,1.0207971915803848,3.230456669464707,6.042703124427795
1789483070270646800,10.980646728515625,1.2093757897615431,3.128478642502427,6.490040064692497
1789483070280696800,10.99069677734375,1.3652455659091471,3.2855192159950732,6.731470401486754
1789483070290747000,11.000746826171875,1.4898856526650488,3.6942145831763744,6.730122494009136
1789483070300797000,11.010796875,1.5121815094947815,4.1036932096898555,6.598639555621147
1789483070310846000,11.020845947265625,1.4348352349638938,4.375878165709972,6.522856877145171
1789483070320896000,11.03089599609375,1.3524246627807617,4.480214153975248,6.406436483332515
1789483070330946000,11.040946044921874,1.313739835077524,4.398363553762436,6.104671212562918
1789483070340995800,11.050995849609375,1.3293619132317602,4.170643177890778,5.682682064044475
1789483070351046000,11.0610458984375,1.418095550956577,3.8747184498429297,5.252888379254937
1789483070361096000,11.071095947265626,1.6445862389028072,3.654166065904498,4.805409984692931
1789483070371144700,11.081144775390625,1.8637422000467776,3.4929409002035854,4.35460215344727
1789483070381194800,11.09119482421875,2.045004776126146,3.349824807167053,3.9226322936624287
1789483070391244800,11.101244873046875,2.1369360408484934,3.229887929666042,3.543106906864047
1789483070401294800,11.111294921875,2.1115698366627096,3.0786504894942044,3.2308202420800924
1789483070411344600,11.1213447265625,2.0192051489591596,2.8824305827796457,2.941529837480187
1789483070421395000,11.13139501953125,1.8095944302737712,2.610230429190397,2.701315306216478
1789483070431444000,11.14144384765625,1.5926280881285666,2.2336031019210814,2.4952035355627533
1789483070441494000,11.151493896484375,1.3936077370405195,1.7964213527068496,2.3442086719751356
1789483070451543800,11.161543701171874,1.2756336840450764,1.3290075468361378,2.26978734498024
1789483070461593900,11.17159375,1.2312930225372314,0.868893250323832,2.2294939130365847
1789483070471644000,11.181643798828125,1.2402478978872298,0.40105858869254585,2.2801240300774572
1789483070481694000,11.19169384765625,1.2912684755504131,-0.04067161760628223,2.459523150372505
1789483070491743000,11.201742919921875,1.3636601964138448,-0.5002881937295198,2.6753146035194395
1789483070501793000,11.21179296875,1.428488496285677,-0.9863669525817036,2.9720109004616737
1789483070511843000,11.221843017578125,1.531947701716423,-1.5284066681087016,3.258292186373472
1789483070521892900,11.231892822265625,1.6509633727192878,-2.1266303354114293,3.4470290438562627
1789483070531943000,11.24194287109375,1.7646926277518271,-2.673496740442514,3.5191894401818513
1789483070541993000,11.251992919921875,1.8147066587209701,-3.1926293353736397,3.4970080035120246
1789483070552041700,11.262041748046874,1.8698422704875468,-3.564187104293704,3.3644507138907906
1789483070562091800,11.272091796875,1.8617092329144476,-3.7788337713196873,3.2126568088799714
1789483070572141800,11.282141845703125,1.7941279810726642,-3.9421623390406366,3.0851182242035864
1789483070582191900,11.29219189453125,1.443410171085596,-3.6470799070358275,2.5923610105007886
1789483070592241700,11.30224169921875,1.181020632892847,-3.6453827477291223,2.3192776443362235
1789483070602291700,11.312291748046874,1.0409843856930732,-3.5615132089093327,2.0081722982913255
1789483070612341000,11.322341064453125,0.997770682388544,-3.4786198216453195,1.7067127324700355
1789483070622391000,11.33239111328125,1.039051883260533,-3.4409199133262036,1.531602833801508
1789483070632440800,11.34244091796875,1.1605424930095671,-3.43834363309741,1.3488964886546133
1789483070642491000,11.352490966796875,1.2907085035800934,-3.464496311485767,1.1515379332989453
1789483070652541000,11.362541015625,1.3874445382356644,-3.543191954798996,0.9585504326343536
1789483070662589700,11.372589599609375,1.4020141847275196,-3.6642286102354524,0.7638502828329801
1789483070672639700,11.3826396484375,1.3759797258913515,-3.861400995369255,0.5158645330458879
1789483070682689800,11.392689697265626,1.325039812248945,-4.046929996721446,0.21213760681450367
1789483070692739800,11.40273974609375,1.26880062315464,-4.236436669532955,-0.09067337361574172
1789483070702790000,11.412789794921874,1.2507248682379721,-4.424257873475551,-0.4320750737249851
1789483070712840000,11.42283984375,1.2740087131917477,-4.60177074163258,-0.6567454143762588
1789483070722889000,11.432888916015624,1.3321043438076972,-4.787415770579874,-0.8911346004873514
1789483070732938800,11.442938720703125,1.4126492682494223,-4.9316462545990944,-1.1292565433859825
1789483070742988800,11.45298876953125,1.4181611635386944,-5.057835178232192,-1.389409116306901
1789483070753038800,11.463038818359376,1.417854727938026,-5.219775798726081,-1.345014094263315
1789483070763089000,11.4730888671875,1.3374866213679313,-5.316166965466738,-1.8378578172057867
1789483070773139000,11.483138916015625,1.3052875024221837,-5.40907671983242,-2.046090233275294
1789483070783188000,11.49318798828125,1.2547474017523228,-5.4750803470939395,-2.279966209167242
1789483070793238000,11.503238037109375,1.2010029520832002,-5.506826315444708,-2.4972493621766567
1789483070803288000,11.5132880859375,1.1675238763295113,-5.538678666779399,-2.691165083602071
1789483070813337900,11.523337890625,1.0731553014576434,-5.569181941592693,-2.8484377122849223
1789483070823388000,11.533387939453124,0.9573381342351436,-5.6046144895017145,-2.9524294171571728
1789483070833438000,11.54343798828125,0.8265305378254503,-5.669677621042728,-3.035152124029398
1789483070843486700,11.55348681640625,0.6751450674850493,-5.79466710575819,-3.0539070933818815
1789483070853536800,11.563536865234376,0.66430109045282,-5.855249292492866,-3.030301176866889
1789483070863586800,11.5735869140625,0.45459100304618477,-6.075707568407059,-3.0056629946947098
1789483070873636900,11.583636962890624,0.3994108214855194,-6.183347274392843,-2.984424976354837
1789483070883686700,11.593686767578125,0.3739689217150211,-6.266978328281641,-3.0209190160155295
1789483070893737000,11.603737060546875,0.35220717176198957,-6.309411110341548,-3.0564971098750826
1789483070903786000,11.613785888671876,0.3844529793936759,-6.330287894153595,-3.053682052454352
1789483070913835800,11.623835693359375,0.4381752172309905,-6.355645622771978,-3.043495589482784
1789483070923885800,11.6338857421875,0.4353006116427481,-6.422422572493553,-2.958189880380034
1789483070933935900,11.643935791015625,0.3052608578003943,-6.67661009953022,-2.6177918043553827
1789483070943986000,11.65398583984375,0.08934892007894814,-7.172416763931513,-1.9412842894107103
1789483070954036000,11.664035888671876,-0.17728680431619284,-7.795144173371791,-1.1754010394454002
1789483070964084700,11.674084716796875,-0.3079962741136551,-8.432184185802937,-0.49859074216187
1789483070974135000,11.684135009765624,-0.3183423115611076,-9.09561243894398,0.1899503249257803
1789483070984185000,11.69418505859375,-0.18250176248550415,-9.687422732073069,0.7240010875254869
1789483070994235000,11.70423486328125,0.04321706430539488,-10.014931515908241,1.1116326238900422
1789483071004285000,11.714284912109376,0.25436178762502965,-10.071321511650085,1.3926672413200138
1789483071014334000,11.724333984375,0.4595102662045508,-9.936001187056302,1.6662544653534888
1789483071024383700,11.7343837890625,0.5345334315501153,-9.766119252169132,2.0155448728859424
1789483071034433800,11.744433837890625,0.5528302818715572,-9.504031327271461,2.392789455270767
1789483071044483800,11.75448388671875,0.5485469054639339,-8.995206191343069,2.7670798640251157
1789483071054534000,11.764533935546876,0.513178654962778,-8.240708258745073,2.9613229177087543
1789483071064583700,11.774583740234375,0.4777272562228143,-7.290357499179244,3.0219577114135023
1789483071074633000,11.784633056640626,0.36930429090484973,-6.236476807034015,3.228937497073412
1789483071084683000,11.79468310546875,0.42025954824686046,-5.867444172677398,3.202273362031579
1789483071094733000,11.804733154296875,0.31598325427956875,-4.801882395088672,3.3804040698260067
1789483071104782800,11.814782958984376,0.17383797903656958,-3.646651452490687,3.451674823835492
1789483071114833000,11.8248330078125,-0.023659108006954192,-2.4627681236431003,3.448075338038802
1789483071124883000,11.834883056640624,-0.2519520230695605,-1.195484480922669,3.313862097904086
1789483071134931700,11.844931640625,-0.504497335857153,0.04166793516725301,3.0424072097241877
1789483071144981800,11.854981689453124,-0.752959909375757,1.0730910040497779,2.7678894268423315
1789483071155031800,11.86503173828125,-0.9627540218040347,1.8467324669264256,2.5802888799130916
1789483071165081900,11.875081787109375,-1.1841055932961404,2.319459138382971,2.4767250450640916
1789483071175132000,11.8851318359375,-1.3099031795240939,2.4470526681169864,2.5082851354539395
1789483071185180700,11.8951806640625,-1.2809307675398884,2.310391742569208,2.576294841840863
1789483071195230700,11.905230712890624,-1.1928725448586046,1.9697538664393126,2.61003870601058
1789483071205280800,11.91528076171875,-1.0341748518086968,1.4725430343285202,2.758759779447317
1789483071215330800,11.925330810546875,-0.8187035705268383,0.7797749971956014,2.991087356853485
1789483071225380600,11.935380615234376,-0.5387701192717999,-0.07463906139880418,3.148419606769085
1789483071235430700,11.9454306640625,-0.18077961486801505,-0.8139388403430581,3.206381966394186
1789483071245480000,11.95547998046875,0.26814225650057194,-1.2994573349639773,3.0919477779626843
1789483071255529700,11.96552978515625,0.6902161606930196,-1.613409302611649,2.8292911132663487
1789483071265579800,11.975579833984375,1.055522614133358,-1.761975477747619,2.568500826963782
1789483071275629800,11.9856298828125,1.3183515666566787,-1.7771823992297053,2.2854349959671496
1789483071285679900,11.995679931640625,1.4699591553151607,-1.629289885571599,1.9649942508220672
1789483071295730000,12.00572998046875,1.533956118929386,-1.3465227452605961,1.6236533409893512
1789483071305778700,12.01577880859375,1.5162287390589713,-0.9823942495584488,1.268211425089836
1789483071315828700,12.025828857421875,1.4793360554695127,-0.6523986173436045,0.9859516497790813
1789483071325878800,12.035878662109376,1.411578278017044,-0.330208690443635,0.7685083377718925
1789483071335928600,12.045928466796875,1.364044957947731,-0.023150866223871705,0.6204840144276619
1789483071345978600,12.055978515625,1.317790571773052,0.22220395053774117,0.5544523301154375
1789483071356028000,12.06602783203125,1.2412054908730088,0.4049824841380119,0.43912733032405377
1789483071366077700,12.07607763671875,1.1858381892424077,0.5471694796308875,0.3397738066464662
1789483071376127700,12.086127685546876,1.1538427761752157,0.7331807115420699,0.25009119763374327
1789483071386177800,12.096177734375,1.1507565736629068,0.9802376560464501,0.24543138912916182
1789483071396227800,12.106227783203124,1.1575510561086237,1.2778148274764418,0.3097901717931032
1789483071406277600,12.116277587890625,1.115868654024601,1.6082219631016252,0.39634968034923074
1789483071416326700,12.12632666015625,1.023647466444969,1.9330890002563594,0.5180822090953588
1789483071426376700,12.136376708984375,0.8969429945051669,2.2501491630524395,0.7238929509758949
1789483071436426800,12.1464267578125,0.819973005940765,2.54610603980422,0.8788058647900819
1789483071446476800,12.156476806640624,0.7543453723847866,2.869913631033897,1.021303533667326
1789483071456526800,12.16652685546875,0.7268985625326633,3.1863615071505307,1.22467448118031
1789483071466576000,12.176575927734374,0.7548221961162984,3.4402181947976347,1.4537451026171444
1789483071476625700,12.186625732421875,0.7846808894157409,3.6424019783526655,1.6587474507242441
1789483071486675700,12.19667578125,0.8189677744209766,3.791807526922226,1.8838187733918428
1789483071496725800,12.206725830078126,0.8667674903415143,3.954747095325589,2.0998393591195343
1789483071506775800,12.21677587890625,0.9649671678088605,4.097628795084357,2.232591294530034
1789483071516825600,12.22682568359375,1.0486102043963967,4.214638386961817,2.261036467769742
1789483071526875000,12.236875,1.1299098927281797,4.320970517480373,2.395962240087986
1789483071536925000,12.246925048828125,1.1595102273523807,4.4521506735295056,2.4837451529592274
1789483071546974700,12.256974609375,1.2021500762917101,4.562819956469536,2.5679735882192847
1789483071557024800,12.267024658203125,1.2552034749567509,4.6879906429708,2.705080796229839
1789483071567074800,12.27707470703125,1.260566024903208,4.79772878254056,2.8617835160702465
1789483071577123600,12.28712353515625,1.2573078998900948,4.957379830792546,2.9651608884364364
1789483071587173600,12.297173583984375,1.1978677227973937,5.156364526045322,3.048001668730378
1789483071597223700,12.3072236328125,1.0472808554887771,5.402009265664219,3.1524650827676055
1789483071607273700,12.317273681640625,0.8832232428409159,5.590507638216018,3.291640329223871
1789483071617323800,12.32732373046875,0.7025579020023346,5.7161868587613105,3.520905596449971
1789483071627373600,12.33737353515625,0.5188334658540785,5.762107482936978,3.7418572088390585
1789483071637422800,12.3474228515625,0.38977658556923267,5.758717840498686,3.933759836876392
1789483071647473000,12.357472900390626,0.2811174734078348,5.730570188900828,4.108030946633219
1789483071657522700,12.367522705078125,0.1132427866898477,5.698971520066261,4.403711344531178
1789483071667572700,12.37757275390625,-0.09731105806455015,5.524965198725462,4.854481181854009
1789483071677622800,12.387622802734375,-0.31072365325093265,5.141285030335188,5.411244126999378
1789483071687671600,12.397671630859374,-0.4230816199302673,4.654108247113228,5.94323269637227
1789483071697721600,12.4077216796875,-0.35690417047180234,4.192826368126273,6.473202911660075
1789483071707772000,12.41777197265625,-0.2125997444335371,3.8421260937958954,7.013613856941461
1789483071717822000,12.427822021484374,0.029249475359916684,3.722076403570175,7.345759068405628
1789483071727871700,12.437871826171875,0.3409563674945384,3.768737032458186,7.364302440834045
1789483071737921800,12.447921875,0.6457517266750336,4.10726522295773,7.077597376552224
1789483071747970800,12.457970703125,0.8961188186407089,4.507525939270853,6.765306035593151
1789483071758020600,12.4680205078125,1.0350466662071645,4.804473580625653,6.527760431277752
1789483071768070700,12.478070556640626,1.146384276862815,5.009311093559861,6.3600178465068335
1789483071778120700,12.48812060546875,1.2275441913977265,5.149007733541727,6.14228519616425
1789483071788170800,12.498170654296874,1.2918810544908046,5.194434436720609,5.815266826194525
1789483071798219800,12.5082197265625,1.3688636102758347,5.111040698719024,5.382382189652324
1789483071808269800,12.518269775390625,1.440604319884628,4.900112467694282,4.925671271842718
1789483071818320000,12.52831982421875,1.4975789836466311,4.552047802564502,4.477667392101884
1789483071828370000,12.538369873046875,1.5337538743555545,4.147238336905837,4.066331739544868
1789483071838419700,12.548419677734374,1.5079529320143161,3.729668758395314,3.6664386875003574
1789483071848469800,12.5584697265625,1.475436125421524,3.5412159785509107,3.5351182461977
1789483071858518800,12.568518798828125,1.3159341302514076,2.816181456324458,3.083624770775437
1789483071868568600,12.578568603515626,1.2054583240568637,2.2474790670603513,3.061062225833535
1789483071878618600,12.58861865234375,1.0586639078337698,1.6626722229525446,3.134715491065383
1789483071888668700,12.598668701171874,1.0761924771964548,1.0283554980054497,3.221699362513423
1789483071898718700,12.60871875,1.1267512825667858,0.3285737827181816,3.2581367035508153
1789483071908767700,12.618767822265625,1.2556734305560588,-0.43635552752316,3.256726252231002
1789483071918817800,12.62881787109375,0.9051916943471878,-1.3806839580595494,3.4431133317172526
1789483071928867800,12.638867919921875,0.3567174157280475,-2.5323563313931223,3.5551597482293844
1789483071938918000,12.64891796875,2.2940064249575136,-3.0254060983017084,1.4076122969955205
1789483071948967700,12.6589677734375,2.6911002016723153,-2.680108559797704,1.2038345222473144
1789483071959016700,12.6690166015625,1.985901429772377,-3.120622960565984,2.3840754029393194
1789483071969066800,12.679066650390626,2.183020915675163,-4.4995814100071785,2.396054010024667
1789483071979116800,12.68911669921875,2.671895150464773,-4.901751759333909,2.1799767256736753
1789483071989166800,12.699166748046874,2.3855014902196823,-4.332040193027257,2.1025123777210712
1789483071999217000,12.709216796875,2.3201157025955617,-3.9843531290382144,1.7697072410434485
1789483072009267000,12.719266845703125,2.150364700611681,-4.05441158464849,1.6941297297507523
1789483072019315700,12.729315673828125,1.9514158073246477,-4.046600326375663,1.7052146028667687
1789483072029365800,12.73936572265625,1.9753810586713254,-4.210534751035273,1.6876263392060995
1789483072039415800,12.749415771484376,1.9483412221848964,-3.9656829153597353,1.67511114102602
1789483072049465600,12.759465576171875,1.8321571213461458,-3.6313401938512917,1.5656605862259865
1789483072059515600,12.769515625,1.6834689272657035,-3.3145851514816282,1.4827286205172538
1789483072069565000,12.77956494140625,1.5527005668878555,-3.0751798907741903,1.4631050516366957
1789483072079614700,12.78961474609375,1.5177974496804176,-2.8585128238365054,1.4809405680567025
1789483072089664800,12.799664794921876,1.5305997942388057,-2.772861077775061,1.4572306066453455
1789483072099714800,12.80971484375,1.608289767640829,-2.776598510737717,1.3322878836810588
1789483072109764900,12.819764892578124,1.73406850303784,-2.7824206410199404,1.0840478668719529
1789483072119813600,12.829813720703125,1.8548925386369228,-2.7896163977429267,0.7757984947800636
