time,seconds_elapsed,z,y,x
1789494875741434000,0.06843408203125,-0.1930816086888313,0.10830401511341332,0.08511793144568801
1789494875751480000,0.07847998046875,-0.14727847341299055,0.05899199493378401,0.06949468424767255
1789494875761525500,0.088525390625,-0.1267465575158596,0.06167173553705215,0.08825177249200641
1789494875771570700,0.09857080078125,-0.1529804844468832,0.08837152641415595,0.03279460062086582
1789494875781615600,0.10861572265625,-0.1989338418483734,0.07772182984501123,-0.05970233516022563
1789494875791660800,0.118660888671875,-0.18309914385676382,0.05225479563325643,-0.09413045526705682
1789494875801706800,0.128706787109375,-0.1905067897647619,0.08971183510720729,-0.14343509585782885
1789494875811751700,0.138751708984375,-0.09107260206639767,0.1303954354122281,-0.19504238736778495
1789494875821796600,0.148796630859375,0.040433132675290105,0.0981006010070443,-0.27454664365015924
1789494875831841800,0.158841796875,0.10527882207334041,0.09420417809039354,-0.30578546619638797
1789494875841886700,0.16888671875,0.1237660804003477,0.15639628423973917,-0.3019636428859085
1789494875851932700,0.1789326171875,0.08991349515914916,0.19015505371764302,-0.3282088218633085
1789494875861977600,0.1889775390625,0.06115034201145172,0.1805924217328429,-0.309509382090345
1789494875872022500,0.1990224609375,0.008882979157567023,0.21623452073931693,-0.2944973986584693
1789494875882067700,0.209067626953125,-0.050182957795262335,0.25667101441547274,-0.2946045122947544
1789494875892112600,0.219112548828125,-0.08367664659619331,0.2967040418572724,-0.23705087960101662
1789494875902158800,0.229158935546875,-0.07094108366370201,0.32629312443509695,-0.2202402492493391
1789494875912203800,0.239203857421875,-0.0341506914049387,0.3353166811071336,-0.2233822005368769
1789494875922248700,0.249248779296875,0.04068213900029659,0.31988428030610083,-0.19151837796010077
1789494875932293600,0.259293701171875,0.1669920586645603,0.3005604250244796,-0.21191629221402108
1789494875942338800,0.2693388671875,0.23061960444450377,0.2637741244189441,-0.24183014976680278
1789494875952383700,0.2793837890625,0.24614099870324133,0.22059037786126134,-0.20286855094879863
1789494875962429700,0.2894296875,0.27541443946063515,0.19146160627156494,-0.1344271751463413
1789494875972475000,0.299474853515625,0.3548381047874689,0.17518676329702138,-0.15041362963356078
1789494875982519600,0.30951953125,0.4314642483502626,0.13881854197308421,-0.11646627878099679
1789494875992564700,0.319564697265625,0.5013555307000875,0.089148209875077,-0.09075148035325109
1789494876002609700,0.329609619140625,0.4974965171843767,0.07592267146855593,-0.10306012311056256
1789494876012655600,0.339655517578125,0.4226508272975683,0.0652986938625574,-0.0666495239496231
1789494876022700800,0.34970068359375,0.41172903578877446,0.07004442708492278,-0.05506817255355417
1789494876032745500,0.359745361328125,0.4391232386708259,0.05760054057538509,-0.07582330274730921
1789494876042790700,0.369790771484375,0.3857967221528292,0.04180442102849483,-0.07297741179689765
1789494876052835600,0.379835693359375,0.311340323844552,0.0391065602466464,-0.08333265546411275
1789494876062881800,0.3898818359375,0.22399229525923728,0.05611614723652601,-0.11848434060513972
1789494876072926700,0.3999267578125,0.1565963368564844,0.05570873547941446,-0.11552198366820811
1789494876082972000,0.409971923828125,0.14996201340854168,0.01582461498901248,-0.10991378839761018
1789494876093016600,0.4200166015625,0.12444178770482539,0.005291822797805071,-0.09299991686716676
1789494876103061800,0.430061767578125,0.04786182137131691,0.00846270791888237,-0.03240837778225541
1789494876113107700,0.440107666015625,-0.02981120089590549,0.0310689458720386,0.028775281976908443
1789494876123152600,0.450152587890625,-0.0621007746040821,0.03312266353145241,0.029845030100271105
1789494876133197800,0.46019775390625,-0.06447217991054058,0.024570962154865265,0.07373261407837271
1789494876143242500,0.470242431640625,-0.1198667348742485,0.031574411176145074,0.09251264480687678
1789494876153287700,0.48028759765625,-0.22690905948877332,0.04647533544898033,0.03544738015197217
1789494876163333600,0.490333740234375,-0.19602467640340326,-0.04203530717492103,0.020079495954513547
1789494876173378800,0.50037890625,-0.173889416962862,-0.15307064694836736,-0.11065401230566203
1789494876183423700,0.510423828125,-0.1601174967199564,-0.2030297328598797,-0.2277197182845324
1789494876193469000,0.520468994140625,-0.17653554755747317,-0.15517667931690812,-0.1240043461356312
1789494876203513600,0.530513671875,-0.261391759327054,-0.05111585473120212,0.1379227621771395
1789494876213559600,0.5405595703125,-0.2747229500651359,-0.053082332498580215,0.18918949662111698
1789494876223604700,0.550604736328125,-0.3167915749877691,-0.037745939417928455,0.21149499806202948
1789494876233649700,0.560649658203125,-0.5660206028342246,-0.14538593766465782,0.26743096642605957
1789494876243694800,0.57069482421875,-0.629704262715578,-0.17655746712833642,0.2838074431441724
1789494876253739500,0.580739501953125,-0.47278176264464855,-0.10057458990514277,0.396244758670032
1789494876263784700,0.59078466796875,-0.3528963230699301,-0.07583557770699262,0.3856047067120671
1789494876273830700,0.60083056640625,-0.26195816103816033,-0.12622311816364526,0.40372722337990996
1789494876283875600,0.61087548828125,-0.11043313609659672,-0.17423925331383944,0.39127887989096344
1789494876293920800,0.620920654296875,0.08066168268918991,-0.18889058673977852,0.10481653832383453
1789494876303965700,0.630965576171875,-0.06796586724519729,-0.5744184288233518,0.4564814929679036
1789494876314010600,0.6410107421875,-0.09678396545052528,-0.5324351440966129,0.49710591043159363
1789494876324056600,0.651056640625,-0.03523030333518982,-0.3976946652173996,0.41270178981106725
1789494876334101800,0.661101806640625,0.15107435856461524,-0.1780979745686054,0.20010160698611287
1789494876344146700,0.671146728515625,0.4203291063517332,-0.0683466832563281,-0.12602726679798215
1789494876354192000,0.68119189453125,0.6274269654333591,-0.2265659451395273,-0.2797831925967708
1789494876364236500,0.691236572265625,0.6086211426764726,-0.3836503577739,-0.314721125389263
1789494876374282500,0.701282470703125,0.42274025914669033,-0.3741758424639702,-0.28495591905955225
1789494876384327700,0.71132763671875,0.32458500534296036,-0.07984393656551837,-0.11384818697078153
1789494876394372600,0.72137255859375,0.04833002340495586,-0.28302608350813385,0.2652572208498604
1789494876404417800,0.731417724609375,-0.04757131399214268,-0.2538902976557612,0.5329375406607986
1789494876414462700,0.741462646484375,0.15990063909888266,-0.11122604003995656,0.583212377990596
1789494876424509000,0.751509033203125,0.21377543714940547,0.24161738379895686,0.617355214882642
1789494876434553600,0.7615537109375,0.05113514395356178,0.1825339111894369,0.5074187397291884
1789494876444598800,0.771598876953125,-0.22563480176925657,0.08868892180025577,0.46627274607680735
1789494876454643700,0.781643798828125,-0.1603355233848095,0.20195582001805304,0.24207563069416208
1789494876464689000,0.79168896484375,-0.6095353349119425,0.5310995115786791,0.12560960764149204
1789494876474734800,0.80173486328125,-0.4676449842780828,0.46998365635871886,0.21124816542780026
1789494876484779500,0.811779541015625,0.13141396480500697,0.08054360926747321,0.4173762113628909
1789494876494824700,0.82182470703125,0.44983167968988413,0.08980272826105355,0.26760663352021946
1789494876504869600,0.83186962890625,0.04730477201044559,-0.025761633244156836,0.21527833425933493
1789494876514914800,0.841914794921875,0.9834177473872899,-0.010827098962664603,0.8433750704467297
1789494876524960800,0.851960693359375,1.1047650762081145,0.3191948367372155,0.9335211322527378
1789494876535005700,0.862005615234375,0.3297270444065332,0.25746727935969826,0.5732186245795339
1789494876545050600,0.872050537109375,-0.17265782934129237,0.13892360978275536,0.03404354123603552
1789494876555095600,0.882095458984375,-0.4741039511591196,-0.029626491978764533,-0.40695824119038876
1789494876565140700,0.892140625,-0.5368254880100488,-0.19994418793469665,-0.45071613437421615
1789494876575185700,0.902185546875,-0.3878162452816963,-0.11458441055715084,-0.24765584197929127
1789494876585232000,0.91223193359375,-0.3748836984723806,0.27444150277525187,0.123410946819745
1789494876595276500,0.922276611328125,-0.5468541300714016,0.625157559196651,0.3946993193263188
1789494876605321700,0.93232177734375,-0.5712088191270828,0.7162327916115522,0.4183517418641597
1789494876615366700,0.94236669921875,-0.32483751879930495,0.5737386298656463,0.3287068710459396
1789494876625411800,0.952411865234375,-0.02167816332280636,0.32738325775936244,0.31819822691529986
1789494876635457800,0.962457763671875,0.17953882102668284,0.1452384920179844,0.2872965091026388
1789494876645502700,0.972502685546875,0.33608430447876453,0.08050605373606086,0.3290406695775687
1789494876655547600,0.982547607421875,0.5351753827154636,0.016545184348523617,0.287515613479726
1789494876665592600,0.992592529296875,0.5688526113897562,-0.09179638629630207,0.21715284116063266
1789494876675637800,1.0026376953125,0.5516676678329706,-0.15023513126149773,0.08540505955768748
1789494876685683700,1.01268359375,0.3773673319816589,-0.08941592090055346,0.04240056029073894
1789494876695729000,1.02272900390625,0.23782734386622903,0.10452259687855839,0.01642469977401197
1789494876705773600,1.032773681640625,0.2222141796708107,0.16373817143514752,-0.024389760369062423
1789494876715818800,1.04281884765625,0.17706980056464672,0.1896256230160594,0.07705079871565103
1789494876725863700,1.05286376953125,0.10141688594818114,0.2296807161591947,0.19004971191333606
1789494876735909600,1.06290966796875,0.12420739442706108,0.23617475435361265,0.22238575511174274
1789494876745954800,1.072954833984375,0.1936450877904892,0.19961203337088226,0.19900025814808903
1789494876755999200,1.082999267578125,0.12960136242508888,0.15571034780219195,0.2173898830532096
1789494876766044400,1.09304443359375,-0.01239887832403183,0.1670676081188023,0.2752947038047947
1789494876776089300,1.10308935546875,-0.04398585672080516,0.19077099365890024,0.2894087337499484
1789494876786134500,1.113134521484375,0.05189736049771308,0.20795696012899278,0.20535991110680624
1789494876796180500,1.123180419921875,0.14181494731009006,0.203539289817214,0.18504046891657636
1789494876806225400,1.133225341796875,0.10787234569787979,0.2230108830064535,0.30422053670091553
1789494876816270300,1.143270263671875,-0.04414952284991741,0.3086963852070272,0.36266562007535247
1789494876826315500,1.1533154296875,-0.178007373675704,0.39223362333253026,0.3187464719152078
1789494876836360400,1.1633603515625,-0.303475581818819,0.2762472370229661,0.492695911969617
1789494876846406400,1.173406494140625,-0.034410803645849225,0.5743398106291889,0.10527644745316356
1789494876856451600,1.18345166015625,-0.009089899906516074,0.7904527508154511,0.22064079287424682
1789494876866496300,1.193496337890625,-0.06654255644381046,0.6612544162333012,0.43285782160051167
1789494876876541400,1.20354150390625,-0.17766542837023733,0.4806573183253407,0.6405902522586285
1789494876886586400,1.21358642578125,-0.1603045437246561,0.47364641664996743,0.6540934385627508
1789494876896632300,1.22363232421875,-0.04267945029735565,0.5517275813266634,0.6494076188340783
1789494876906677500,1.233677490234375,0.15022680182456968,0.51716144098863,0.6220734025109559
1789494876916722200,1.24372216796875,0.41865269757211204,0.38065044530555603,0.4993822578657418
1789494876926767400,1.253767333984375,0.7380886495888233,0.12568155863285063,0.3024800862417556
1789494876936812300,1.263812255859375,0.9973276147961616,-0.13847308953627943,0.12532209593700244
1789494876946857500,1.273857421875,1.084571598485112,-0.2872970388256013,-0.00931231048554182
1789494876956903400,1.2839033203125,1.0153303044766187,-0.32175387357026336,-0.047218445433862506
1789494876966948600,1.293948486328125,0.838847948411107,-0.2847441394723952,0.040202794518135486
1789494876976993300,1.3039931640625,0.5356196193516254,-0.2705843889556825,0.12291207565320655
1789494876987038500,1.31403857421875,0.12962415877878666,-0.23182445018962025,0.18616572835315018
1789494876997083400,1.32408349609375,-0.3022276275843382,-0.15418372275680303,0.24816799275251103
1789494877007129300,1.33412939453125,-0.5742945101827382,-0.06505611727833747,0.3808538223905489
1789494877017174500,1.344174560546875,-0.6912298677802086,0.018515315377712248,0.5133076881699263
1789494877027219200,1.35421923828125,-0.7539432213246822,0.05645122440978884,0.6078565515121445
1789494877037264400,1.364264404296875,-0.7674976994246244,0.06277034442871808,0.671836235198006
1789494877047309300,1.374309326171875,-0.7470826879054308,0.03842237737476825,0.6522548249587417
1789494877057355500,1.38435546875,-0.7369803960859775,0.06682751086503266,0.630846199292317
1789494877067400400,1.394400390625,-0.7329863580137491,0.10260755703747272,0.5752454542320221
1789494877077445600,1.404445556640625,-0.7526794849991798,0.08666019245162605,0.48299262940511106
1789494877087490300,1.414490234375,-0.7435925077021122,0.04910319973453879,0.4418680073343217
1789494877097535500,1.424535400390625,-0.7213356677085161,0.03991568467244506,0.42413507450595495
1789494877107581400,1.43458154296875,-0.6108247902005911,0.05442570993155241,0.3858916704272851
1789494877117626400,1.44462646484375,-0.5280792869746684,0.04555544412508607,0.3553856556676328
1789494877127671600,1.454671630859375,-0.3928828810214996,0.010009791230410337,0.3444936382425949
1789494877137716200,1.46471630859375,-0.29997078856825826,-0.027036913876980543,0.3152781747501343
1789494877147761400,1.474761474609375,-0.2452355742961168,-0.04830854222550988,0.2572730536955409
1789494877157806300,1.484806396484375,-0.14424655837118625,-0.09711612001433968,0.20903259000387042
1789494877167852300,1.494852294921875,-0.028168694385886192,-0.14071648454889654,0.15921736954245716
1789494877177897500,1.5048974609375,0.060409168255329125,-0.17898995497226713,0.11469899511383845
1789494877187942400,1.5149423828125,0.12144143684506416,-0.19972996066212653,0.04045804792083799
1789494877197987300,1.5249873046875,0.22631635429263114,-0.1983876061424613,0.013804543870873749
1789494877208032300,1.5350322265625,0.3640191901087761,-0.1856393298588693,0.016328966048266738
1789494877218078500,1.545078369140625,0.42665363319814203,-0.17654110051542518,0.04106980487732217
1789494877228123400,1.555123291015625,0.4851362173050642,-0.15747224290817974,0.13146355783408506
1789494877238168600,1.56516845703125,0.44033261446058747,-0.13938275172710418,0.18366815765006467
1789494877248213200,1.575213134765625,0.3563420796096325,-0.14371610475629568,0.20231581243686378
1789494877258258400,1.585258544921875,0.38075054467916486,-0.16032324842512607,0.22270996383111924
1789494877268304400,1.595304443359375,0.4385457310438156,-0.1951797500118613,0.18387845766618846
1789494877278349300,1.605349365234375,0.4444347890824079,-0.16397651023566723,0.21104582952242343
1789494877288394500,1.61539453125,0.281414556658268,-0.14995441462397574,0.23709493793845177
1789494877298439400,1.625439453125,0.09327624959051609,-0.13082155186980962,0.23639347513820974
1789494877308484400,1.635484375,-0.06846387989521026,-0.06659253306537866,0.23632209040243177
1789494877318529300,1.645529296875,-0.20340484978258608,-0.0121583475664258,0.20944880612194536
1789494877328575500,1.655575439453125,-0.2664279999285936,-0.019153905542194843,0.13722721766103058
1789494877338620400,1.665620361328125,-0.21343582993149757,0.09727584062069654,0.2471986910626292
1789494877348665600,1.67566552734375,-0.3898994812965393,0.2195361926332116,0.32642380161006
1789494877358710300,1.685710205078125,-0.547013704547286,0.18696955554932354,0.23268037289921192
1789494877368755500,1.69575537109375,-0.48147886384129523,0.1601519835114479,0.1471897722162306
1789494877378801400,1.705801513671875,-0.4151216008365154,0.20835575018823146,0.15482779281400144
1789494877388846300,1.715846435546875,-0.36645606186687946,0.24548048896789548,0.16494732802920042
1789494877398891500,1.7258916015625,-0.2885363713622093,0.29084932447969913,0.14066303732860833
1789494877408936400,1.7359365234375,-0.3153326083511114,0.2900911995887756,0.04845211541466415
1789494877418981400,1.7459814453125,-0.32652386445105075,0.26020985606610775,-0.06897161022163927
1789494877429026300,1.7560263671875,-0.26776889314353464,0.245554138725996,-0.10310991706904023
1789494877439072300,1.766072265625,-0.19778467181324957,0.23433277974873779,-0.048346463083103294
1789494877449117400,1.776117431640625,-0.039163551130890845,0.249701906055212,0.05768672102149575
1789494877459162400,1.786162353515625,0.19582944609224795,0.2286728542909026,0.0629560397265479
1789494877469207300,1.796207275390625,0.32177345505356786,0.15320377180874348,-0.0021110738698393106
1789494877479252200,1.806252197265625,0.46463820367753506,0.06137713650465011,-0.04635554499421268
1789494877489298400,1.81629833984375,0.6621154169768094,0.015180033475160597,0.008636164789646864
1789494877499343400,1.82634326171875,1.3264900110572575,0.04274403996616602,0.1682408896818757
1789494877509388500,1.836388427734375,1.6450637932866812,-0.0964870283305645,0.38743130108471957
1789494877519433500,1.84643359375,1.4946639729827642,-0.299292450915277,0.5112553587500006
1789494877529478400,1.856478515625,1.321444418105483,-0.28040128796249625,0.3229098386723548
1789494877539523300,1.8665234375,0.5593184748470783,-0.28677199203819037,-0.048211073200404644
1789494877549569300,1.8765693359375,-0.4139934735894203,-0.20532471192926166,-0.5114025121357292
1789494877559614500,1.886614501953125,-1.2177449741780757,-0.012930208721756934,-0.7979195064995437
1789494877569659400,1.896659423828125,-1.6925538587361573,0.14214520217776297,-1.0156592441700398
1789494877579704300,1.906704345703125,-2.0081477483719588,0.24768179840445517,-1.2369535325169563
1789494877589749200,1.916749267578125,-1.9549153398782013,0.28180326371490955,-1.3371949449449776
1789494877599795500,1.92679541015625,-1.7154782227277754,0.14594634802639483,-1.4227052367091177
1789494877609840400,1.93684033203125,-1.5538386310070753,0.008052958074212075,-1.2175397339295595
1789494877619885600,1.946885498046875,-1.3349755153298377,0.3611804595515132,0.25150212387759235
1789494877629930500,1.956930419921875,0.08910393234193324,0.5016816939145327,1.45526427500844
1789494877639975400,1.966975341796875,1.4246493565142153,0.18903408686369658,1.1633675603676588
1789494877650020400,1.977020263671875,1.0477367825627326,-0.32637130423784255,0.764926022305712
1789494877660066300,1.98706640625,0.7163993803501129,-0.3581502980753779,-0.007997318896837533
1789494877670111500,1.997111572265625,0.3805494691491127,-0.9171671596273779,-0.5190419940382242
1789494877680156400,2.007156494140625,0.3793219731807709,-0.3188853323966265,0.034337628811784086
1789494877690201600,2.01720166015625,0.43319618670940396,0.12475129204541444,0.06222847437066957
1789494877700246300,2.027246337890625,-0.146587568539381,0.009386544765532016,-0.1566036068474874
1789494877710292200,2.037292236328125,-0.39223698433339593,0.32120442299395796,-0.29939485184382647
1789494877720337400,2.04733740234375,-0.4534381797492504,0.691995591455698,-0.18581053997362032
1789494877730382300,2.05738232421875,-0.6748194157272577,0.6745248166948556,-0.1875933682697825
1789494877740427500,2.067427490234375,-0.7356172910392283,0.7803300007298588,-0.18030759517578407
1789494877750472200,2.07747216796875,-0.7832423810452223,0.9143953568264841,-0.05075619110595435
1789494877760517000,2.08751708984375,-0.9087497521549462,0.8896598517596721,-0.19694317948780954
1789494877770563000,2.09756298828125,-0.9441460597068071,0.8154238182038068,-0.3360991732543334
1789494877780608300,2.107608154296875,-0.9729308401644229,0.6684668318301439,-0.37726759793423115
1789494877790653200,2.117653076171875,-0.9549684824943542,0.4463140269577503,-0.42824619961921123
1789494877800698000,2.127697998046875,-0.8261907114118338,0.2690741305232048,-0.41500509831737725
1789494877810743000,2.137742919921875,-0.7899187900692224,0.30588848817944525,-0.24273192091211676
1789494877820789000,2.1477890625,-0.7135925062358379,0.5239888027906418,-0.17763503323197363
1789494877830834200,2.157834228515625,-0.834269388449192,0.6914478944450616,-0.2345500757612288
1789494877840879000,2.167879150390625,-1.113472114276886,0.7270300799578427,-0.3406802904995158
1789494877850924300,2.17792431640625,-1.2796826671749353,0.7985533474236727,-0.5363737256545573
1789494877860969000,2.187968994140625,-1.2926426865130662,0.9040782532125711,-0.7070198498472571
1789494877871014100,2.19801416015625,-1.1858856085807084,1.004857425779104,-0.8438347969129681
1789494877881060000,2.20806005859375,-0.8943956481099128,1.1525982560068369,-1.0003259928945452
1789494877891105300,2.218105224609375,-0.4887169984012842,1.2648270433485507,-1.1235503676336258
1789494877901150200,2.228150146484375,-0.16417407863438127,1.2412000840455293,-0.9235235429167747
1789494877911195100,2.238195068359375,-0.0876373669207096,1.0539069956302642,-0.6170322665385901
1789494877921240000,2.248239990234375,-0.1921452046215534,0.8356412613242864,-0.4644726378522813
1789494877931285200,2.25828515625,-0.500879145359993,0.5188958635658025,-0.2593894065286964
1789494877941331200,2.268331298828125,-0.7361591428309678,0.18986381568610666,-0.014040142725035547
1789494877951376100,2.278376220703125,-0.924850992128253,-0.08670446998476981,0.10927512516789138
1789494877961421300,2.28842138671875,-1.2501105357319116,-0.15910744289457798,-0.0101094522126019
1789494877971466000,2.298466064453125,-1.5419003559321165,0.0032277298748493192,-0.24519129676297305
1789494877981511200,2.30851123046875,-1.6404583453178405,0.01783726998567581,-0.2604148040536791
1789494877991557000,2.31855712890625,-1.5686112527251244,0.02090250277519226,-0.06588621142692863
1789494878001602000,2.32860205078125,-1.3655530244231224,-0.3081821520745754,0.1366953392740339
1789494878011647200,2.338647216796875,-1.2066758831530808,-0.6184481246858835,0.40065409954488274
1789494878021692200,2.348692138671875,-1.0996610310673713,-0.6439858860462904,0.8665889189042151
1789494878031737000,2.358737060546875,-1.1836340302616357,-0.5712134953022003,1.3090255199067293
1789494878041782000,2.368781982421875,-1.5047119042664765,-0.6261521231919527,1.633817153737694
1789494878051828200,2.378828125,-2.1041449473589657,-0.8578957632303238,1.6439678147435188
1789494878061873200,2.388873046875,-2.984259556660056,-0.9308920258581638,1.6033045265741646
1789494878071918300,2.39891845703125,-4.097354654318094,-0.9983727399349213,1.5885536782965064
1789494878081963000,2.408962890625,-4.938806647747755,-0.8699164558917284,1.628211734946072
1789494878092008200,2.41900830078125,-5.490201928380132,-0.2844628383129835,1.2066516254946589
1789494878102053000,2.42905322265625,-5.255819756531715,0.5538672237038612,-0.9526340481974184
1789494878112099000,2.43909912109375,-4.31286261434853,1.1233996340513228,-3.7169206282421943
1789494878122144300,2.449144287109375,-3.4313615191251037,0.8602782744526862,-4.448635651145875
1789494878132189000,2.45918896484375,-3.09605872041285,0.4069248503774404,-4.703025130495429
1789494878142234000,2.469234130859375,-3.19777663513422,-0.0051630818516016,-4.931752637583017
1789494878152279000,2.479279052734375,-3.2289263911575077,-0.20846564030349254,-5.208321507775783
1789494878162325200,2.4893251953125,-1.5797633458584546,-0.3582096270471811,-6.5696186283200975
1789494878172370200,2.4993701171875,0.7617670468181371,-0.04255494713485241,-7.688813796418905
1789494878182415400,2.509415283203125,-0.8437363049745559,0.7372960379064083,-5.828154949340224
1789494878192460000,2.5194599609375,-1.057096731582284,0.25384850434064865,-3.488989239968359
1789494878202505200,2.529505126953125,-0.7663572972178458,-0.9422171374708413,-1.9237987554721534
1789494878212550100,2.539550048828125,-0.9068044633060693,-1.5855045198589564,-0.8723730552636086
1789494878222596000,2.54959619140625,-1.1761854678213595,-1.7143477573931216,0.6450201975300908
1789494878232641300,2.559641357421875,-1.389162448069453,-1.775297608396411,2.21997263597548
1789494878242686200,2.569686279296875,-0.9846469969213009,-1.7537737588524818,1.5291861280485988
1789494878252731100,2.579731201171875,-0.46588381982445715,-1.5290554874062536,0.7320543378606438
1789494878262776000,2.589776123046875,-0.7303519178569317,-0.8308376604348421,0.6282277604222297
1789494878272821200,2.5998212890625,-0.008810498443245888,0.5143722486615181,2.1140020322456956
1789494878282867200,2.6098671875,1.5345651907384394,1.181001928192377,2.0036051365062595
1789494878292912000,2.619912109375,2.3207138146191832,1.014081765720248,0.6556468054845929
1789494878302957000,2.62995703125,0.6159539697825909,0.6635463265627622,0.19872575205564497
1789494878313002000,2.640001953125,-1.0817337447106838,-0.14288111523687838,0.09782850606739521
1789494878323047200,2.650047119140625,-1.8125667240828274,-0.6859463744193315,0.4343924107566476
1789494878333093000,2.660093017578125,-2.1431243740946053,-0.861513369205594,0.025694413226842877
1789494878343138300,2.67013818359375,-2.656002000284195,-0.9036533057987689,-0.8502379419535397
1789494878353183200,2.680183349609375,-3.6919945690393448,-1.1897703410595655,-1.370498079609871
1789494878363228200,2.690228271484375,-4.71406324186027,-1.4596259773492812,-1.4776453259035944
1789494878373273000,2.700273193359375,-4.603852224081755,-1.3013327734470366,-0.5791258758619428
1789494878383318300,2.710318359375,-3.5427626234710217,-0.6321323666453361,1.0142886864691971
1789494878393364200,2.7203642578125,-2.8254437901884315,-0.4056833258837461,1.7383301060050724
1789494878403409200,2.7304091796875,-1.8277794907838105,-0.9244394887179136,1.5402397292435168
1789494878413454000,2.7404541015625,-1.4723556950628756,-0.5297469279259442,2.831307713785767
1789494878423499000,2.7504990234375,-0.6483481729090214,-0.6761705380752683,3.2069027753978965
1789494878433544200,2.760544189453125,0.48753392609655855,-1.7777473396360872,2.30880301207304
1789494878443590100,2.770590087890625,1.2064075876057148,-2.88304696111232,1.6735697568029164
1789494878453635300,2.78063525390625,1.553117330995202,-3.5204569758996365,1.1719020914137364
1789494878463680300,2.79068017578125,1.7832020979106424,-4.014549822120368,0.7329857734918593
1789494878473725200,2.80072509765625,1.6019851145386694,-4.073072153715789,0.9680074122875928
1789494878483770000,2.81077001953125,1.4526713359057903,-3.2293016542106865,1.273765552085638
1789494878493815300,2.820815185546875,1.0474147110015153,-3.2263363746643066,1.0773311258375644
1789494878503861200,2.830861328125,0.3171756058692932,-3.6004034960567948,1.0901865157574415
1789494878513906200,2.84090625,-0.5053586288616061,-3.813558755481243,1.1290712499469517
1789494878523951000,2.850951171875,-0.9734843823939562,-3.809560041233897,1.2205348971575498
1789494878533996000,2.86099609375,-0.9651818334728479,-3.9339810784116387,1.1609674404233694
1789494878544041200,2.871041259765625,-0.7387947520315646,-4.08731812121123,1.1895049681216479
1789494878554086100,2.881086181640625,-0.382574252974987,-3.297576149013638,2.231266767928004
1789494878564132000,2.891132080078125,-0.08440612991452216,-3.1827287036061285,2.780427421376109
1789494878574177300,2.90117724609375,0.27346330539286134,-2.9077079396381973,3.0761995892107485
1789494878584222000,2.911221923828125,0.6473094775110483,-2.2966527016825973,3.1377246097534894
1789494878594267100,2.92126708984375,0.6705832394622266,-1.6292773183509706,3.412037809973955
1789494878604312000,2.93131201171875,0.5391711743533611,-0.8542012926265596,4.260309420290589
1789494878614357200,2.941357177734375,0.8244242862612009,-0.349468357915245,4.989509830024838
1789494878624403200,2.9514033203125,0.8732366863556206,0.5973538256656378,5.68123654141128
1789494878634448100,2.9614482421875,1.0172072042644023,1.2621698068380356,5.686833923026919
1789494878644493000,2.9714931640625,1.389119777971506,1.4315395544193685,5.096822788274288
1789494878654538200,2.981538330078125,2.044991185992211,1.0446429082006214,3.9394805526107546
1789494878664583200,2.991583251953125,2.8361937322616577,0.20129969419687985,2.2684072887986897
1789494878674629000,3.001629150390625,3.022151188158989,0.40984745982587334,2.078017987933755
1789494878684674300,3.01167431640625,3.1062188798993824,1.22467448118031,2.3193220679998396
1789494878694719000,3.021718994140625,2.9651006826817987,2.3098218337267635,2.672728678679466
1789494878704764200,3.03176416015625,2.6702865462243555,3.2951123892486094,3.2449177410155534
1789494878714809000,3.04180908203125,2.6253701306551696,3.2795264053210613,3.2706764516502616
1789494878724854300,3.051854248046875,2.7206694105058906,3.009830635768175,3.153178199473023
1789494878734900200,3.061900146484375,2.7721874162971973,2.8386370337605475,2.724182387062907
1789494878744945200,3.071945068359375,2.382074584510922,3.09816650634706,2.04809338979125
1789494878754990000,3.081989990234375,1.770533316604048,3.4829873692050572,1.4108686684429645
1789494878765035500,3.092035400390625,1.2582073329478503,3.795314658260345,1.4670534970015288
1789494878775080700,3.102080810546875,0.9729537826485931,4.107775510567427,1.9824878219366073
1789494878785126700,3.112126708984375,0.8034586551219225,4.265512834152579,2.417948446446657
1789494878795171600,3.122171630859375,0.9472972172141074,5.043475228968262,2.7359955744534727
1789494878805216500,3.132216552734375,1.045175407642126,6.0191831326305865,2.8479122271060944
1789494878815261700,3.14226171875,1.2204086404293775,6.004307635059952,3.224200531679392
1789494878825306600,3.152306640625,1.5050871673196553,5.885432249310612,3.4971588101595636
1789494878835351600,3.1623515625,1.7131389661252499,5.712823519808054,3.9599347270965572
1789494878845397500,3.1723974609375,1.618067211420089,5.310404748678207,4.38380837418735
1789494878855442400,3.1824423828125,1.3218588441252708,4.592621220493316,4.676487252181768
1789494878865487600,3.192487548828125,0.9038157298188656,3.909552447336912,4.897344756546616
1789494878875532500,3.202532470703125,0.38885011837407946,3.3055081110566853,5.0515965761035675
1789494878885577700,3.21257763671875,-0.18617964728064834,2.9070699339956043,5.046445769211649
1789494878895622400,3.222622314453125,-0.3970272142846137,3.5170705483317373,4.000598161396384
1789494878905668600,3.232668701171875,-1.0516945802778006,3.962579688647389,2.511246907868981
1789494878915713500,3.242713623046875,-0.45283086150586604,3.5802041731148955,3.229121621468663
1789494878925758700,3.2527587890625,0.8120229967843741,3.6576398794949054,3.4448972925245758
1789494878935803600,3.2628037109375,0.8909479918740689,4.258694386309385,3.7205531395256517
1789494878945848600,3.2728486328125,1.2421430639840663,4.510686449128389,4.224772827485204
1789494878955894500,3.28289453125,1.1545417912900446,4.232102147459983,4.827718847134709
1789494878965939500,3.292939453125,1.1626455297034233,4.047256452196836,5.338731848496199
1789494878975984600,3.302984619140625,1.1248067243702708,3.8879116934150457,5.592440067583322
1789494878986029600,3.313029541015625,1.0399698018230497,3.55585825188756,5.947694936478138
1789494878996074800,3.32307470703125,0.9168149851888417,3.433655183020234,6.236293851682543
1789494879006119400,3.333119384765625,0.727924325383827,3.544563535413146,5.965467909055948
1789494879016165400,3.343165283203125,0.6042710577081889,3.009873305866122,5.907654602512717
1789494879026210600,3.35321044921875,0.46434112042710185,2.4049521867513657,5.78013764514625
1789494879036255500,3.36325537109375,0.3863422272063792,2.029327899044752,5.7951060816973445
1789494879046300700,3.37330078125,0.4123602463643998,1.818658611217141,5.8964960796386
1789494879056345300,3.383345458984375,0.5733037455797195,1.8319909709990023,6.033683367148042
1789494879066390500,3.393390625,0.777442097268626,2.006716838786006,6.200444539666176
1789494879076436500,3.4034365234375,1.120282963335514,2.1071032126426696,6.416783689823746
1789494879086481700,3.413481689453125,1.3480945246219633,2.545075235451758,5.908105268889665
1789494879096526600,3.423526611328125,1.2690874772720038,2.2090084666296836,5.142280471113324
1789494879106571800,3.43357177734375,1.2129254450671374,2.298811779412627,4.7199610677272075
1789494879116616400,3.443616455078125,1.0608628061175345,2.404679507289827,4.1970302495568985
1789494879126662400,3.453662353515625,0.9395516445886343,1.8059762397766113,3.4147727878957985
1789494879136707600,3.46370751953125,0.8892470331750809,0.9779390237152575,2.601979902717471
1789494879146752500,3.47375244140625,0.9893167422980069,0.2940326306909323,2.033296218153834
1789494879156797700,3.483797607421875,1.0939999365657567,-0.22588497713804243,1.5114169548630714
1789494879166842400,3.49384228515625,1.120652381169796,-0.7146189266741275,1.0237632017791272
1789494879176887600,3.503887451171875,1.021425552611798,-1.1736632558673619,0.7241676762640475
1789494879186933500,3.51393359375,0.7836499389328062,-1.4046622150182724,0.4063023345649242
1789494879196978700,3.523978759765625,0.43321898306310175,-1.5472420092210173,-0.005195815077424049
1789494879207023600,3.534023681640625,0.13126447333171962,-1.6481977073982357,-0.32840894754529
1789494879217068800,3.54406884765625,-0.03853533622995019,-1.7000900994598864,-0.7288993809610604
1789494879227113500,3.554113525390625,-0.13823423927910625,-1.6911477913305162,-1.0684458085924387
1789494879237159400,3.564159423828125,-0.12882402137704194,-1.722524926368892,-1.3556325189113616
1789494879247204600,3.57420458984375,0.0013848784871399401,-1.811561492563039,-1.5283938086271285
1789494879257249500,3.58424951171875,0.21244272724092006,-1.9414261820994316,-1.6662953818857669
1789494879267294700,3.594294677734375,0.44142610878571864,-2.0250247950233518,-1.721644928663969
1789494879277339400,3.60433935546875,0.6580178454648703,-2.1079618752986193,-1.7134020009756088
1789494879287384600,3.614384521484375,0.8130823696441948,-2.2556896999143063,-1.7147791345477104
1789494879297430500,3.624430419921875,0.8898207414098084,-2.4331251189209517,-1.7388620209246872
1789494879307475500,3.634475341796875,0.9704518828302622,-2.6165961648300287,-1.788123187699914
1789494879317520600,3.644520751953125,1.031738491507247,-2.817679001405835,-1.886608696371317
1789494879327565600,3.654565673828125,1.0705726645532996,-3.0124948865413663,-2.0019208366811276
1789494879337610500,3.664610595703125,1.1362323006827384,-3.1461727046251293,-2.1404221293985843
1789494879347656400,3.674656494140625,1.2528349922597408,-3.2708506391733883,-2.2445073577731844
1789494879357701600,3.68470166015625,1.3309282857656477,-3.415131976597011,-2.348167054212093
1789494879367746600,3.69474658203125,1.3693459869652986,-3.478868827970326,-2.529551795366406
1789494879377791700,3.704791748046875,1.446418705251813,-3.4657252687588334,-2.6959078942149874
1789494879387836400,3.71483642578125,1.5222808787047861,-3.50986631604135,-2.6794851672023534
1789494879397881600,3.724881591796875,1.5540402910590172,-3.5947798109561204,-2.6048633491992947
1789494879407927600,3.734927490234375,1.5510370175898074,-3.670029405468702,-2.6165467727303504
1789494879417972500,3.744972412109375,1.4880208817064762,-3.725513100020587,-2.698147197574377
1789494879428017700,3.755017578125,1.3481173209756612,-3.8176843109786507,-2.7384523199558255
1789494879438062600,3.7650625,1.1603315536726266,-3.9488486849367614,-2.761221785646677
1789494879448107500,3.775107421875,1.0674965450435876,-4.0870527482733126,-2.786556133389473
1789494879458153500,3.785153564453125,1.0416344470996408,-4.237233665129542,-2.867892354339361
1789494879468198700,3.79519873046875,1.00193715441823,-4.44042019598633,-2.9329145693480965
1789494879478243600,3.80524365234375,0.964247182971239,-4.649324227707088,-3.0105361536890265
1789494879488288800,3.815288818359375,0.849461696884036,-4.92691630346775,-2.9805285534381865
1789494879498333400,3.82533349609375,0.7361036132514477,-5.182106285545229,-2.8575094920128583
1789494879508378600,3.835378662109375,0.6251018104214221,-5.322022705757617,-2.695246799957752
1789494879518424600,3.845424560546875,0.5772433500509708,-5.300680057999491,-2.640449626365304
1789494879528469500,3.855469482421875,0.488603601154685,-5.201046548336744,-2.5941408796548844
1789494879538514700,3.8655146484375,0.3713146078139543,-5.127772637811303,-2.3678093277931214
1789494879548559600,3.8755595703125,0.2575006701726466,-5.11306255993545,-1.9414234056204556
1789494879558604500,3.8856044921875,0.134105103585124,-5.205101961207389,-1.486952375692129
1789494879568650500,3.895650390625,-0.001773950869962573,-5.471860216003656,-1.012550902891159
1789494879578695400,3.9056953125,-0.10286357762515544,-5.788237949493527,-0.5683230345577002
1789494879588740600,3.91574072265625,-0.12132862412035464,-6.0104766790837045,-0.22516952234506607
1789494879598785500,3.92578564453125,-0.06920848771743476,-6.202694364419579,0.038158758002519604
1789494879608830500,3.93583056640625,-0.00455050291121006,-6.366525913226604,0.2050251444607973
1789494879618875400,3.94587548828125,0.0589156782945618,-6.389480087834596,0.26572189748585223
1789494879628921600,3.955921630859375,0.19401037743892519,-6.215088566568493,0.2472007368892431
1789494879638966500,3.965966552734375,0.45260753761138767,-5.818554761824012,0.03542611816823482
1789494879649011700,3.97601171875,0.7697019314706325,-5.231496047136187,-0.17194412811398505
1789494879659056600,3.986056640625,1.154511396151781,-4.383219760644436,-0.23644553411900995
1789494879669101600,3.9961015625,1.5592220776110886,-3.3276381098002195,-0.08393325170576572
1789494879679147500,4.0061474609375,1.9994570769160984,-2.264636684218794,0.3667114979326725
1789494879689192400,4.0161923828125,2.410257307422161,-1.2313617038592695,0.9070862028568982
1789494879699237600,4.026237548828125,2.5882600049227475,-0.3620345921628177,1.503705942094326
1789494879709282600,4.036282470703125,2.589202254208922,0.32775223720222707,1.9801251844584942
1789494879719327700,4.04632763671875,2.4930086558669804,0.8171993034437298,2.34645732768476
1789494879729372400,4.056372314453125,2.251786408865452,1.079909451892972,2.5825515641480683
1789494879739418600,4.066418701171875,1.8323650650084018,1.1199708286464214,2.5716543225586412
1789494879749463600,4.076463623046875,1.265645373994112,0.9475260575339197,2.2675094631761312
1789494879759508700,4.0865087890625,0.5785749639809131,0.7405594236165285,1.7522236068010328
1789494879769553400,4.096553466796875,-0.130602648422122,0.5850707557410001,1.1859820546925066
1789494879779598600,4.1065986328125,-0.7559405326217412,0.4957219087272882,0.7176970189452171
1789494879789644500,4.11664453125,-1.2082523386895656,0.5411065263301134,0.5119277781188488
1789494879799689500,4.126689453125,-1.5403712466686963,0.7511594358250498,0.5350882889539003
1789494879809734700,4.136734619140625,-1.7911556872636079,1.0213672465533017,0.6283885039418935
1789494879819779600,4.146779541015625,-1.8831155935585497,1.3060004729971288,0.8510849141716956
1789494879829824500,4.156824462890625,-1.943725837343931,1.6043912988975644,1.0832044017851352
1789494879839869400,4.166869384765625,-1.9940537565678358,1.960175744624436,1.0762205342471598
1789494879849915400,4.176915283203125,-2.042493085566163,2.2660540036708117,1.0409253489822148
1789494879859960600,4.186960693359375,-1.9834230569601057,2.498379242989421,1.0793974107176065
1789494879870005500,4.197005615234375,-1.9394711025089024,2.630214063555002,1.2011837154775857
1789494879880050400,4.207050537109375,-1.7977789047956465,2.7492218435123563,1.1774854445040226
1789494879890095400,4.217095458984375,-1.5612636664412916,2.934260723260045,0.9230302064418792
1789494879900141600,4.2271416015625,-1.2646803283542394,3.015809710177779,0.6697492728561163
1789494879910186500,4.2371865234375,-0.9490187072444707,2.9747561075165865,0.5037251824408769
1789494879920231700,4.247231689453125,-0.6121399644523858,2.865897381129861,0.34685061316490173
1789494879930276600,4.257276611328125,-0.2893880197554827,2.8466391384303567,0.1956184336900711
1789494879940321500,4.267321533203125,-0.013269231417775154,2.9321891776829956,0.10764204407334327
1789494879950366500,4.277366455078125,0.1873445263415575,3.027424744647741,0.12058745036423206
1789494879960412400,4.287412353515625,0.24155060217306015,3.1135686581403017,0.2787906378954649
1789494879970457600,4.29745751953125,0.24013386724293231,3.2495003926306962,0.4708709605872631
1789494879980502500,4.30750244140625,0.22420791077129543,3.3942315196484327,0.6646481503248214
1789494879990547500,4.31754736328125,0.1539127968609333,3.519475271385908,0.8968588233530521
1789494880000592400,4.32759228515625,0.009552768177911638,3.6401118215888735,1.2134078217566013
1789494880010638600,4.337638671875,-0.22770174423642456,3.764982648360729,1.5573726503521204
1789494880020683500,4.34768359375,-0.45836927947588263,3.890672974821925,1.8122458215653896
1789494880030728700,4.357728759765625,-0.7010679557055235,4.079721966993809,2.035631967625022
1789494880040773600,4.367773681640625,-0.9979910471409559,4.188689122191072,2.253024426227808
1789494880050818600,4.377818603515625,-1.3003747420698404,4.204495178610086,2.493535310089588
1789494880060863500,4.387863525390625,-1.5163105721235275,4.159571748778224,2.7753941033840177
1789494880070909400,4.397909423828125,-1.5906442208349705,4.167527091696858,2.9712387470453976
1789494880080954600,4.40795458984375,-1.618729913112521,4.176978226131201,3.0721663881719112
1789494880090999600,4.41799951171875,-1.5726988142997025,4.083759259685873,3.1795278617382046
1789494880101044500,4.42804443359375,-1.3977952518582344,3.927205008405447,3.3064877697438
1789494880111089400,4.43808935546875,-0.994897245844081,3.743320851650834,3.3447570023834703
1789494880121135400,4.44813525390625,-0.6192945123821496,3.5246570579379797,3.3226708427816627
1789494880131180500,4.4581806640625,-0.3240285405039787,3.34651115257442,3.288710120990872
1789494880141225500,4.4682255859375,-0.15391739997081458,3.1891952692717314,3.320252675724029
1789494880151270700,4.478270751953125,-0.0025520225703716277,2.9528607943117615,3.421442767179012
1789494880161315300,4.4883154296875,0.1847340515822172,2.5464310339748857,3.5101568234205245
1789494880171360500,4.498360595703125,0.23009295022189616,2.046163883033395,3.6897552656799553
1789494880181406500,4.508406494140625,0.19059088785164058,1.5434382330238818,3.864767549192905
1789494880191451600,4.51845166015625,0.10454875423312186,1.0832359659671782,4.02149306538701
1789494880201496600,4.52849658203125,0.009142506876587866,0.8279927923977375,4.201919190642237
1789494880211541500,4.53854150390625,-0.0005378332037478686,0.725528443223238,4.5054397806465625
1789494880221586400,4.54858642578125,-0.041387145464494825,0.6749123547077178,4.922653969848156
1789494880231631600,4.558631591796875,-0.06850779210217296,0.7492074249744415,5.361800589394569
1789494880241677600,4.568677490234375,-0.08621296014077962,1.0692249762713908,5.794661260539293
1789494880251722500,4.578722412109375,-0.15289229470677673,1.6480390097051858,6.284276084563135
1789494880261767700,4.588767578125,-0.22048172985501585,2.4209236628651616,6.688781014317274
1789494880271812400,4.598812255859375,-0.3122819886088371,3.1539316481888293,6.937974970850348
1789494880281857500,4.608857421875,-0.35469138979315756,3.614556524571776,6.969142262530326
1789494880291903500,4.618903564453125,-0.2717295404028147,3.677280984032154,6.7047337857306
1789494880301948700,4.62894873046875,-0.02748063905648887,3.358360580322146,6.201590202569961
1789494880311993600,4.63899365234375,0.35316637218296526,2.702234759148955,5.540537446388602
1789494880322038500,4.64903857421875,0.7429571324080229,1.8335364468753337,4.806133622792363
1789494880332083500,4.65908349609375,1.0167623831063508,0.9888146379947662,4.2147576294273135
1789494880342129400,4.66912939453125,1.151781094405055,0.33059096775949,3.659934712433815
1789494880352174600,4.679174560546875,1.1661813756793737,-0.14459902507066727,3.131597066783905
1789494880362219500,4.689219482421875,1.0984376998174934,-0.493730442649126,2.682918648782372
1789494880372264700,4.6992646484375,0.9152361915647983,-0.7334121822103857,2.318812364912033
1789494880382309400,4.709309326171875,0.720571113076806,-0.829731745019555,1.9990742150783538
1789494880392354600,4.7193544921875,0.5476941610921174,-0.8101756884172558,1.6761568506866693
1789494880402400500,4.729400390625,0.40334582284688947,-0.7560299644708633,1.3645575836449861
1789494880412445400,4.739445556640625,0.314994206709601,-0.744924340827763,1.0671475854754446
1789494880422490600,4.74949072265625,0.3549854043036699,-0.8570733409315348,0.7961714207231998
1789494880432535300,4.759535400390625,0.5071282323500141,-1.0398667798399925,0.5628185919225216
1789494880442580500,4.76958056640625,0.7213128713548183,-1.256006900294125,0.3522445811629295
1789494880452626400,4.77962646484375,0.9648112465947866,-1.5409318031609058,0.15723054310679435
1789494880462671600,4.789671630859375,1.202777706670761,-1.8466675849966703,-0.035219781941175456
1789494880472716500,4.799716552734375,1.3873714729994535,-2.1415569786474107,-0.23957740240395067
1789494880482761700,4.80976171875,1.4635890357613563,-2.4278784504391253,-0.44932314564585685
1789494880492806400,4.819806396484375,1.4151947149485349,-2.7091680655434724,-0.6935457435071468
1789494880502851600,4.8298515625,1.3288374509662388,-2.9776284480825064,-0.9596832360565661
1789494880512897500,4.8398974609375,1.299524847242236,-3.2743414038985965,-1.2489023289859293
1789494880522942500,4.8499423828125,1.2818822230458258,-3.566929681000113,-1.5594570554107428
1789494880532987600,4.859987548828125,1.2913479705274105,-3.874171921876073,-1.902163992899656
1789494880543032600,4.870032470703125,1.3070441368311643,-4.146601208046079,-2.2214508918344973
1789494880553077500,4.880077392578125,1.3057500053673983,-4.382992673890293,-2.5027199025422333
1789494880563123500,4.89012353515625,1.2990461238145827,-4.633518463549017,-2.6905314618736504
1789494880573168600,4.900168701171875,1.2894108649849891,-4.9040498071432115,-2.8023440696299073
1789494880583213600,4.910213623046875,1.2698422411620616,-5.150910352292657,-2.988916442555189
1789494880593258500,4.920258544921875,1.2634551704734562,-5.340166849735379,-3.197681358066201
1789494880603303400,4.930303466796875,1.2513719339698552,-5.478537209549546,-3.357939140039682
1789494880613348600,4.9403486328125,1.259416124215722,-5.589917271107435,-3.4346997236371037
1789494880623394600,4.95039453125,1.2132716281563043,-5.653401609024405,-3.4867525669574735
1789494880633439500,4.960439453125,1.1032447347730399,-5.721131329426169,-3.5530543003827333
1789494880643484700,4.970484619140625,0.9731342537820339,-5.795585389646887,-3.5943098553568125
1789494880653529600,4.980529541015625,0.8657347862929106,-5.905182074919343,-3.5761867541670798
1789494880663574500,4.990574462890625,0.790719585058093,-6.01085837187767,-3.556376138281822
1789494880673620500,5.000620361328125,0.6452344248026609,-6.171631702157855,-3.528770338475704
1789494880683665400,5.01066552734375,0.46791035721600055,-6.372488036501407,-3.5852000817060468
1789494880693710600,5.020710693359375,0.3070768211811781,-6.500873008874058,-3.688313834699988
1789494880703755500,5.030755615234375,0.26342881811261176,-6.52287733541131,-3.7038638705313205
1789494880713800400,5.040800537109375,0.3552566224604845,-6.5641632855236525,-3.61732832737267
1789494880723846400,5.050846435546875,0.5225982252150774,-6.6951669159620995,-3.4838469086438417
1789494880733891600,5.0608916015625,0.6528852318167686,-6.945068728503585,-3.27398016937077
1789494880743936500,5.0709365234375,0.6981856782674789,-7.299536246412992,-2.9755969422549007
1789494880753981700,5.080981689453125,0.6371686072468757,-7.68927089253664,-2.6597382642030714
1789494880764026400,5.0910263671875,0.5903261920511722,-8.050527047672867,-2.466990417513251
1789494880774071600,5.101071533203125,0.5420692338824272,-8.326949787393211,-2.3759002797901627
1789494880784117500,5.111117431640625,0.4266805212050676,-8.561524266943335,-2.2888012575298546
1789494880794162400,5.121162353515625,0.26056173824369905,-8.758097224879265,-2.2709762625038623
1789494880804207400,5.131207275390625,0.07832185983108356,-8.915727580958604,-2.2507091350227593
1789494880814252300,5.141252197265625,-0.0340022228449583,-8.938228166580199,-2.143524187067151
1789494880824297500,5.15129736328125,0.016809698769915848,-8.670840381708741,-1.9699287846148013
1789494880834342400,5.16134228515625,0.09941196673340164,-8.168118238830566,-1.7718156114995478
1789494880844388600,5.171388671875,0.18743688080012796,-7.536764455342293,-1.5018348875254393
1789494880854433300,5.181433349609375,0.2979389904797077,-6.739586487925052,-0.8665151230156422
1789494880864478500,5.191478515625,0.4256698828577995,-5.849699841672182,-0.03579904313385487
1789494880874523400,5.2015234375,0.5128793797552585,-4.8809296283185475,0.6378250253289938
1789494880884568600,5.211568603515625,0.36333296141028404,-3.989898488205671,1.3053197972565889
1789494880894614500,5.221614501953125,-0.06753794242301955,-3.2064234674483534,1.9046686691969632
1789494880904659500,5.231659423828125,-0.7333820793330669,-2.574426125359535,2.3996692779123783
1789494880914704400,5.241704345703125,-1.3723100974678992,-1.838351445941627,2.9292408492714164
1789494880924749300,5.251749267578125,-1.880437314260006,-0.9939479092299938,3.376221815705299
1789494880934794500,5.26179443359375,-2.2951555949926377,-0.42177784385532135,3.5033921515911817
1789494880944839400,5.27183935546875,-2.303791321390867,-0.06884031199216842,3.472915764784813
1789494880954885400,5.281885498046875,-1.84741884175539,0.20122282956838605,3.316840821453929
1789494880964930300,5.291930419921875,-1.2554955897711217,0.47346916038691994,3.0129291863054037
1789494880974975200,5.301975341796875,-0.7836450435619801,0.7448506910696625,2.794564667800069
1789494880985020400,5.3120205078125,-0.655925841621682,1.008636359795928,2.524045014643669
1789494880995065300,5.3220654296875,-0.7908814976215363,1.196863514190912,2.187369758534431
1789494881005111600,5.332111572265625,-0.9246038124341517,1.271018299204111,1.8880378523916006
1789494881015156500,5.342156494140625,-0.8536240772604942,1.306151571905613,1.656045206028223
1789494881025201400,5.352201416015625,-0.9509305322151631,1.3941378983944654,1.6278490391135214
1789494881035246300,5.362246337890625,-1.1748971815764904,1.6677654544383287,1.6526713456809519
1789494881045291500,5.37229150390625,-1.2430886742711067,2.071160377123952,1.6808318567603826
1789494881055336400,5.38233642578125,-1.0002665908575057,2.510574123173952,1.990978002384305
1789494881065382400,5.39238232421875,-0.570792676074244,2.843680288624763,2.1137007112115622
1789494881075427300,5.40242724609375,-0.3596995733439922,2.9082173504650592,2.022161076155305
1789494881085472300,5.41247216796875,-0.2796212435007095,2.8749066170156,1.762622835740447
1789494881095517400,5.422517333984375,-0.12617253875387832,2.759737100046873,1.4479080670267344
1789494881105562400,5.432562255859375,0.14726678297519682,2.613906487354636,1.2983937973856925
1789494881115608600,5.442608642578125,0.5406816154489293,2.51604232545197,1.3586813850879669
1789494881125653500,5.452653564453125,1.047732106387615,2.5090327389508484,1.5137024354517459
1789494881135698400,5.462698486328125,1.5827122587919233,2.6030904943078754,1.7631453983098266
1789494881145743400,5.472743408203125,2.0380980654776093,2.7895892174750565,2.052013778105378
1789494881155788500,5.48278857421875,2.3316471504352987,3.0278333254486323,2.3836183068215844
1789494881165834500,5.49283447265625,2.5679963845729827,3.4147073214441535,2.7958646444827315
1789494881175879400,5.50287939453125,2.7007331224143503,3.842314894366264,3.273684401294589
1789494881185924400,5.51292431640625,2.789927655649185,4.252048956945538,3.7683541706204413
1789494881195969300,5.52296923828125,2.852194434469938,4.57291874115765,4.153113950940966
1789494881206014500,5.533014404296875,2.7994752361953257,4.829424482008815,4.465326381444931
1789494881216059400,5.543059326171875,2.6569325591325756,5.097690803280472,4.654679909521341
1789494881226105300,5.553105224609375,2.557630473381281,5.274930699715018,4.6709366323173045
1789494881236150500,5.563150634765625,2.46954770078063,5.271752654200792,4.609186570847034
1789494881246195200,5.5731953125,2.4447581274390218,5.079124634498357,4.535086146369576
1789494881256240400,5.583240478515625,2.51497908013463,4.765007831677794,4.5010324855983255
1789494881266285300,5.593285400390625,2.582489020305872,4.401635707300901,4.697866140297055
1789494881276331500,5.60333154296875,2.5148399639248846,4.216259850683808,5.142926952323317
1789494881286376400,5.61337646484375,2.189455332636833,4.267552231025696,5.596075793737173
1789494881296421400,5.62342138671875,1.5710487090051173,4.464250276646018,5.942982521003485
1789494881306466300,5.63346630859375,0.7677437831401824,4.655564291140437,6.404084367248416
1789494881316511500,5.643511474609375,-0.15885902109146116,4.58306604116261,6.847951585575938
1789494881326556400,5.653556396484375,-1.0825625967502592,4.2669297152131795,6.971195103406906
1789494881336602400,5.663602294921875,-1.9520769015818833,3.6760213393598793,7.100106730002165
1789494881346647600,5.6736474609375,-2.539787358176708,2.9239743070453406,7.248859952142834
1789494881356692200,5.683692138671875,-2.7556489539504048,2.2661188856005667,7.229524552553892
1789494881366737400,5.6937373046875,-2.793260599464178,1.8503215774595736,7.099644373187422
1789494881376782300,5.7037822265625,-2.76798587295413,1.655694492894411,7.028570018532871
1789494881386828500,5.71382861328125,-2.7770617443352936,1.5558400339573621,7.050837964442372
1789494881396873500,5.72387353515625,-2.7657360482007265,1.3841945965290068,7.13961631809175
1789494881406918400,5.73391845703125,-2.6751491838246584,1.052357428100705,7.17723322430253
1789494881416963300,5.74396337890625,-2.500970428526401,0.7623112366974353,7.221051323240995
1789494881427008500,5.754008544921875,-2.3101117565840483,0.6734674165964126,7.260936174383759
1789494881437053400,5.764053466796875,-2.2466659971117973,0.7543716758698225,7.220077509772777
1789494881447099400,5.774099365234375,-2.2021270365528762,0.9496329666852951,7.006206795555353
1789494881457144600,5.78414453125,-2.0400193889290095,1.0773106675714255,6.6221385046303265
1789494881467189200,5.794189208984375,-1.6903244922488927,0.9462620289474725,6.1484407961845395
1789494881477234400,5.804234375,-1.2728811704665421,0.5671656812161207,5.588072520023584
1789494881487279400,5.814279296875,-0.8829477869004011,0.07343114691376686,4.9796594671398395
1789494881497325300,5.8243251953125,-0.46976095351874825,-0.4916676649004221,4.4438568924367425
1789494881507370500,5.83437060546875,-0.06598605507221073,-1.1757733798891306,3.9852018548220394
1789494881517415200,5.844415283203125,0.3536532789170742,-1.8661387397944926,3.3888656087011095
1789494881527460400,5.85446044921875,0.6946814695388078,-2.33931447019279,2.705363120302558
1789494881537505300,5.86450537109375,0.9261772722959518,-2.623191033050418,2.13522689884305
1789494881547550500,5.874550537109375,1.0665192244440316,-2.7610058048084376,1.6587632328152655
1789494881557596400,5.884596435546875,1.157689441666007,-2.7548148412138223,1.2304513110160826
1789494881567641600,5.8946416015625,1.101819670405984,-2.647612649862468,0.9139812230676412
1789494881577686300,5.904686279296875,1.0099521185696125,-2.53934516736716,0.584215015694499
1789494881587731500,5.9147314453125,0.8465946170151233,-2.5094939267218113,0.21756723064780234
1789494881597776400,5.9247763671875,0.7463233939707279,-2.489089436596632,-0.07517360666692256
1789494881607822300,5.934822265625,0.7529121247112751,-2.529421739245951,-0.3239946382343769
1789494881617867500,5.944867431640625,0.8562567638516425,-2.648121768428385,-0.5547112733125686
1789494881627912400,5.954912353515625,1.0383797561526298,-2.853703377728164,-0.7570178064644336
1789494881637957400,5.964957275390625,1.241689328867197,-3.0930668451204895,-0.9961153163969516
1789494881648002300,5.975002197265625,1.3575930053293703,-3.3346655242189764,-1.1917764201849699
1789494881658047500,5.985047607421875,1.3649965595841407,-3.488740525904298,-1.3174527181208133
1789494881668093400,5.995093505859375,1.251892742973566,-3.587214344137907,-1.4911246929407118
1789494881678138400,6.005138427734375,1.0829331836283207,-3.6681150962799784,-1.699324375784397
1789494881688183300,6.015183349609375,0.8938497046649455,-3.7431700450032945,-1.9873592273652552
1789494881698228500,6.025228515625,0.7408814951777458,-3.789145029714703,-2.340200020855665
1789494881708273400,6.0352734375,0.5984545534491539,-3.877470378899574,-2.690447875243425
1789494881718319400,6.0453193359375,0.5851051694672554,-4.0603345449566834,-3.036791123408079
1789494881728364500,6.055364501953125,0.7743699963469057,-4.267423051688075,-3.379271850925684
1789494881738409500,6.065409423828125,1.1079565657258033,-4.438729466420412,-3.6096430335670706
1789494881748454400,6.075454345703125,1.481661283546686,-4.608323232015967,-3.7394513167411088
1789494881758499300,6.085499267578125,1.8314800988674163,-4.806706454244256,-3.8623873760581016
1789494881768544800,6.095544677734375,2.0910358749389646,-5.001061151608824,-3.989166082277894
1789494881778590700,6.1055908203125,2.3134838633656503,-5.212041405081749,-4.1019729617685075
1789494881788635600,6.1156357421875,2.4633202045679092,-5.328018146780133,-4.276297847539186
1789494881798680800,6.125680908203125,2.507915717619657,-5.422582682615518,-4.445591168883443
1789494881808725800,6.135725830078125,2.463601944118738,-5.482928137984872,-4.548524304613471
1789494881818771000,6.14577099609375,2.2850305068194863,-5.533473499351739,-4.607082876566052
1789494881828815600,6.155815673828125,1.9948025291085243,-5.57882947538197,-4.656800554937124
1789494881838861800,6.16586181640625,1.6685925529122352,-5.6393777598470445,-4.681299036377668
1789494881848906800,6.17590673828125,1.332585989844799,-5.72721035707891,-4.7028614643663165
1789494881858951700,6.18595166015625,1.1073860723614692,-5.856897644221783,-4.657225502350926
1789494881868996900,6.195996826171875,1.0014426488995551,-5.999074995103478,-4.6525025654822585
1789494881879041800,6.206041748046875,0.9454770160496234,-6.173253165879845,-4.605981637325883
1789494881889087700,6.216087646484375,0.9143383659422397,-6.358264280837774,-4.525453225627541
1789494881899132700,6.226132568359375,0.9703718033313751,-6.488510370907187,-4.4152825398594135
1789494881909177900,6.236177734375,0.9851695594906806,-6.6911822302401065,-4.220259733974934
1789494881919222800,6.246222900390625,0.956339770847559,-7.001260571324825,-3.92770243653357
1789494881929268000,6.25626806640625,0.942307811428979,-7.390154674971103,-3.6620056734889745
1789494881939312600,6.266312744140625,1.0095990673482418,-7.836955024141073,-3.53379488863945
1789494881949358600,6.276358642578125,1.090819552963972,-8.129756651732325,-3.451430493685603
1789494881959403800,6.28640380859375,1.1495534814834594,-8.220023782634735,-3.35035204591155
1789494881969448700,6.29644873046875,1.248414837729931,-8.20308083114028,-3.377390274962783
1789494881979494000,6.306493896484375,1.3557155210196972,-8.087700301769376,-3.4671979716598984
1789494881989538600,6.31653857421875,1.3775205255925655,-7.797114012140035,-3.2934710517823693
1789494881999584800,6.326584716796875,1.4338696048021315,-7.362492176541686,-2.931795209929347
1789494882009629700,6.336629638671875,1.4470271925389766,-6.790584853756427,-2.2965508487433195
1789494882019675000,6.3466748046875,1.341232237637043,-6.126804718437791,-1.423831610390544
1789494882029719800,6.3567197265625,1.0772785188674927,-5.461932696229219,-0.5114543153882026
1789494882039765000,6.366764892578125,0.6904758345425128,-4.837884851840138,0.3052466831445694
1789494882049809700,6.3768095703125,0.217625682836771,-4.326826257771254,1.0092892707467078
1789494882059855600,6.386855712890625,-0.08050733237769454,-3.8617587227657437,1.661481259602308
1789494882069900800,6.39690087890625,-0.3513946863353252,-3.4487226960316297,2.359958614292741
1789494882079945700,6.40694580078125,-0.5676643149206414,-3.102883013474941,3.053324325057864
1789494882089991000,6.416990966796875,-0.5656663825690746,-2.7506737958863376,3.625032325878739
1789494882100035600,6.42703564453125,-0.5815244249036535,-2.38527747220546,4.03025972468853
1789494882110081800,6.437081787109375,-0.6368038655877113,-1.9377464706733822,4.349645407822728
1789494882120126700,6.447126708984375,-0.7078244442284107,-1.454559341609478,4.513569895610213
1789494882130171600,6.457171630859375,-0.7647451858460903,-0.927387232607603,4.6139662063390015
1789494882140216800,6.467216796875,-0.851966373181343,-0.37297815711200233,4.6494718194842335
1789494882150261800,6.47726171875,-0.9595932196855544,0.187418176099658,4.573655238738656
1789494882160306700,6.487306640625,-1.1112217050015927,0.7705453965574502,4.438082400688529
1789494882170352600,6.4973525390625,-1.3035165472269057,1.348363989213109,4.324813748905062
1789494882180397800,6.507397705078125,-1.4157681309223173,1.9929221221894025,4.243542409884929
1789494882190442800,6.51744287109375,-1.5468693765163422,2.559319741642475,4.136218345719576
1789494882200488000,6.527488037109375,-1.6619395247638225,3.0390602373838425,3.944782750672102
1789494882210532600,6.53753271484375,-1.7189900302410124,3.468187567219138,3.5930876200854778
1789494882220578600,6.54757861328125,-1.6790496495187281,3.754529643407464,3.200021783712506
1789494882230623700,6.557623779296875,-1.5955565427958964,3.8926357993274925,2.7551433425158263
1789494882240668700,6.567668701171875,-1.5280676454126834,3.8621255102515217,2.262360409849882
1789494882250713900,6.5777138671875,-1.4616004922926424,3.8125510397434232,1.822821576115489
1789494882260758800,6.5877587890625,-1.331890408796072,3.887929229071736,1.4504548289000987
1789494882270803700,6.5978037109375,-1.1250257739484308,3.9152193870574235,1.1777835506677627
1789494882280849700,6.607849609375,-0.9512263733565807,3.8813352376341816,1.0074936195015907
1789494882290894800,6.617894775390625,-0.8317898465931415,3.8549849908471105,0.8268646651506424
1789494882300939800,6.627939697265625,-0.6875450417876243,3.9177000979572534,0.7569272055715323
1789494882310985000,6.63798486328125,-0.5129401700317859,4.006269777292013,0.8408464287519455
1789494882321029600,6.648029541015625,-0.34491935284137726,4.008874991354346,0.9795265851676463
1789494882331074800,6.65807470703125,-0.16479774522436783,3.9770238090634344,1.097768933710456
1789494882341120800,6.668120849609375,0.05437339522242546,3.975507559281587,1.2437924386262893
1789494882351165700,6.678165771484375,0.33647885675430295,3.983375223916769,1.4582926829189062
1789494882361211000,6.6882109375,0.5516928022742271,3.9838703139573335,1.7249463082969188
1789494882371255800,6.698255859375,0.6672106942892074,3.9916953084945677,1.9141583820760248
1789494882381300700,6.70830078125,0.7159153962254524,3.991823318788409,2.1292308732986447
1789494882391346700,6.7183466796875,0.8328747192203998,3.9857431220918893,2.4855916576087473
1789494882401391900,6.728391845703125,0.9879249956786632,3.9924949344396587,3.0150650292903185
1789494882411436800,6.738436767578125,1.1604209124565124,3.97647318944335,3.6157138779133557
1789494882421481700,6.748481689453125,1.37544196575284,3.9853544150352476,4.2240562036484475
1789494882431526700,6.758526611328125,1.571978098809719,4.040656031018496,4.858256608739495
1789494882441571800,6.76857177734375,1.7100550286352634,4.137006865748763,5.538998984774947
1789494882451617800,6.77861767578125,1.8046750940501688,4.222641076153517,6.1571817365229125
1789494882461662700,6.788662841796875,1.9574866516709326,4.321120155084133,6.721829297438264
1789494882471708000,6.7987080078125,1.9760989976823329,4.336030723968148,7.219355040717124
1789494882481752800,6.8087529296875,1.7041899359941481,4.15515977755487,7.699977579990029
1789494882491797800,6.8187978515625,1.2462018378555775,3.7826188428163525,8.082147928339243
1789494882501843700,6.82884375,0.7665525275290012,3.2573587049156427,8.28366652598381
1789494882511888600,6.838888671875,0.33188568374514577,2.6650679347932336,8.19946147159934
1789494882521933800,6.848933837890625,-0.045783261531591415,2.1108564276963473,7.876656335410475
1789494882531978800,6.858978759765625,-0.3424146765440702,1.6874579969018697,7.427877379643917
1789494882542024000,6.86902392578125,-0.6844885768264531,1.4363520692676306,7.0549068213164805
1789494882552068600,6.879068603515625,-1.0277706838548182,1.2320745283037424,6.795218358775973
1789494882562114800,6.88911474609375,-1.234645255574584,1.0226625470608472,6.562304505914449
1789494882572159700,6.89915966796875,-1.3428104467391968,0.8826338986456393,6.360265683788061
1789494882582205000,6.909204833984375,-1.3958569772720335,0.8379325871318578,6.186812320154905
1789494882592249900,6.919249755859375,-1.470237972256541,0.9416220941871404,5.950514085552096
1789494882602294800,6.929294677734375,-1.5890625046014786,1.2132932554662228,5.726770796617865
1789494882612339700,6.939339599609375,-1.7258809587985275,1.4855617981165647,5.526391432136297
1789494882622385700,6.9493857421875,-1.8084318162351845,1.4923065962016582,5.321246460688114
1789494882632430800,6.959430908203125,-1.7683739466130732,1.0991501589357853,5.034766437333822
1789494882642475800,6.969475830078125,-1.638722899827361,0.417927305907011,4.5812926017493005
1789494882652521000,6.97952099609375,-1.345818396383524,-0.3401812184035778,4.08578053638041
1789494882662565600,6.989565673828125,-1.0140899490267037,-1.086242746567726,3.646389002162218
1789494882672611800,6.99961181640625,-0.6471189233750104,-1.8364198933571576,3.181386641347408
1789494882682656800,7.00965673828125,-0.2612988386129029,-2.3444325438588858,2.7131033591657876
1789494882692701700,7.01970166015625,0.01741992135643959,-2.4946961705625057,2.331979304999113
1789494882702747000,7.029746826171875,0.15097614975399337,-2.4459791936665773,2.06584824219048
1789494882712791800,7.039791748046875,0.15986322969794273,-2.3035779709011317,1.8614006053566932
1789494882722836700,7.049836669921875,0.14725274531668983,-2.100809373195469,1.6430483618110416
1789494882732882700,7.059882568359375,0.17292201496912166,-1.8756053640589117,1.3498089273244143
1789494882742928000,7.069927978515625,0.18959493561685084,-1.7482894822224975,1.0603209543257952
1789494882752972800,7.079972900390625,0.25632804619669913,-1.709688241149485,0.7823977469146252
1789494882763018000,7.09001806640625,0.44646950978040695,-1.7097434784680603,0.5539461341589689
1789494882773062700,7.100062744140625,0.6431769077509641,-1.8069222884550689,0.33704233585596083
1789494882783107800,7.11010791015625,0.8516203362226485,-1.987122788260877,0.08241057218313216
1789494882793153800,7.12015380859375,1.0488561419814824,-2.2025117980867623,-0.20649580153524874
1789494882803198700,7.13019873046875,1.213212591445446,-2.4319050756067035,-0.5439209992289543
1789494882813244000,7.140243896484375,1.3324135558873413,-2.657845582324266,-0.9507049798309802
1789494882823288600,7.15028857421875,1.3800199411928653,-2.891375813518464,-1.326992699882388
1789494882833333800,7.160333740234375,1.3907675451785326,-3.113917617708444,-1.7092068873733282
1789494882843379700,7.170379638671875,1.340368314284086,-3.354196446380019,-2.1299457435697318
1789494882853425000,7.1804248046875,1.2051812606811523,-3.6011376555502412,-2.549925305831432
1789494882863469800,7.1904697265625,1.1476701519548893,-3.858980197963118,-2.96881005859375
1789494882873515000,7.200514892578125,1.1602958247721193,-4.092569465868174,-3.3289059377789494
1789494882883559700,7.2105595703125,1.1818763729393482,-4.304804395577311,-3.645059214863181
1789494882893604900,7.22060498046875,1.211030571231246,-4.533115430818498,-3.9474078384786844
1789494882903650800,7.23065087890625,1.2591390608400106,-4.712168221893906,-4.264999039411545
1789494882913695700,7.24069580078125,1.2256412803858519,-4.805390110948681,-4.5701334943532945
1789494882923741000,7.250740966796875,1.1586439659118652,-4.856254621267318,-4.805870587942004
1789494882933785600,7.26078564453125,1.0682535008907317,-4.892193949654698,-5.007293323996663
1789494882943830800,7.270830810546875,0.9256704918175935,-4.840975511331856,-5.151607102385163
1789494882953876700,7.280876708984375,0.8015063520103692,-4.790210661995411,-5.265037082210183
1789494882963921700,7.290921630859375,0.6182651693344116,-4.748996608075499,-5.38048600064218
1789494882973966800,7.300966796875,0.41239948239624497,-4.737710074907541,-5.476168726852536
1789494882984011800,7.31101171875,0.13834288728535174,-4.7958819856300945,-5.574450237384438
1789494882994056700,7.321056640625,-0.07018120520710945,-4.961984694239497,-5.683561184966564
1789494883004101600,7.3311015625,-0.24110243828045202,-5.241386742031574,-5.824892148151993
1789494883014147800,7.34114794921875,-0.3564595319768414,-5.530057553428411,-5.990829729327559
1789494883024192800,7.35119287109375,-0.4367705015322193,-5.852098134985566,-6.118771634107828
1789494883034238000,7.361238037109375,-0.41502278010454025,-6.2134606731057165,-6.2076055173367255
1789494883044282600,7.37128271484375,-0.3226993377268314,-6.44943274449408,-6.202201612466573
1789494883054327800,7.381327880859375,-0.11545476365089416,-6.593581687709689,-6.075811613303423
1789494883064373800,7.391373779296875,0.2259907390674576,-6.714363199341297,-5.839954108205437
1789494883074418700,7.401418701171875,0.6017915523847565,-6.8681514930397265,-5.5095788290232415
1789494883084463900,7.4114638671875,0.8796855702340602,-7.096955572494864,-5.035500012305379
1789494883094508800,7.4215087890625,1.0558610523074865,-7.403823719361424,-4.55673274551034
1789494883104553700,7.4315537109375,1.183349952623248,-7.693983308011293,-4.199578764995932
1789494883114598700,7.4415986328125,1.2157026546955108,-7.953333916899561,-3.714556529459357
1789494883124644900,7.451644775390625,1.207910393384099,-8.091265300774573,-3.1864982852727173
1789494883134689800,7.461689697265625,1.1356629032969474,-8.144787047603726,-2.712610022690892
1789494883144735000,7.47173486328125,1.0546452467769383,-8.123153892466425,-2.16004978993237
1789494883154779600,7.481779541015625,1.1160481022447346,-7.845052990400791,-1.5193261205524204
1789494883164824800,7.491824951171875,1.2537275571852922,-7.36248457775712,-0.777103147637844
1789494883174869800,7.501869873046875,1.389478089889884,-6.7812605605721465,0.03077157036066055
1789494883184915700,7.511915771484375,1.4883692567527294,-6.1305351371377705,0.9476783254861831
1789494883194961000,7.5219609375,1.5749708508849143,-5.50952563753128,1.9428911400854587
1789494883205005800,7.532005859375,1.5287269861042498,-4.968347799530625,2.945394696214795
1789494883215050800,7.54205078125,1.336319915676117,-4.433973211804032,3.9455788694858547
1789494883225095700,7.552095703125,0.9805869078755378,-3.7622605299204586,4.882319621372223
1789494883235140900,7.562140869140625,0.46412674702405926,-2.9711984150350093,5.668074277499318
1789494883245186800,7.572186767578125,-0.06548285479042679,-2.116500278802216,6.172018071126938
1789494883255231700,7.582231689453125,-0.508622964419797,-1.3202502398848532,6.390353948059678
1789494883265276700,7.592276611328125,-0.8181448406655341,-0.584655160677433,6.3486781218469135
1789494883275321600,7.602321533203125,-0.952878232216835,0.07528875747919082,6.087244861465692
1789494883285366800,7.61236669921875,-0.9576806640625,0.5498965665072202,5.653600930988788
1789494883295412700,7.622412841796875,-0.808765529358387,0.9219687146902084,5.152323726221919
1789494883305458000,7.6324580078125,-0.6304056889832019,1.2536901477843523,4.602430082324147
1789494883315502800,7.6425029296875,-0.568925676625967,1.5679636024713515,4.077862602862716
1789494883325547800,7.6525478515625,-0.6526128446161746,1.8720716369748114,3.5333120735585686
1789494883335592700,7.6625927734375,-0.9140414288222789,2.132496012574434,2.959846999937296
1789494883345638000,7.672637939453125,-1.2680816612303256,2.3760095853835344,2.3679203869521617
1789494883355683800,7.682683837890625,-1.6342343562364576,2.612468563506007,1.7745622798591851
1789494883365728800,7.692728759765625,-1.8853753551840782,2.781951269942522,1.2701795102924107
1789494883375773700,7.702773681640625,-2.010043352860212,2.93908185980618,0.7972989634484052
1789494883385818600,7.712818603515625,-2.0328268470764157,3.1069068621635436,0.41999359078705306
1789494883395863800,7.72286376953125,-1.917065793955326,3.253326088398695,0.08306465217769146
1789494883405908700,7.73290869140625,-1.7640426394104955,3.3018630325525997,-0.19537176545262336
1789494883415955000,7.742954833984375,-1.5930162106633186,3.2526731774479147,-0.4542535877853632
1789494883426000000,7.752999755859375,-1.327858376801014,3.1845471512049435,-0.7246756257861853
1789494883436044800,7.763044921875,-0.9679413613140583,3.0566824033141136,-0.9344932652205228
1789494883446089700,7.77308984375,-0.5866086328327655,2.830808532091975,-1.079883148407936
1789494883456135000,7.783135009765625,-0.28554128119945527,2.595359023272991,-1.2800789730161428
1789494883466180900,7.793180908203125,-0.04285950130568817,2.489108141297102,-1.428294435018301
1789494883476225800,7.803225830078125,0.24531916092634198,2.484842885068059,-1.3604296900600195
1789494883486270700,7.813270751953125,0.43953591112494467,2.4918892964482304,-1.2427590039253233
1789494883496315600,7.823315673828125,0.5853706520030275,2.5131337445288895,-1.0552642554581164
1789494883506360800,7.83336083984375,0.8032043880999088,2.564419110608101,-0.7410597743541002
1789494883516405800,7.84340576171875,1.021663599151373,2.647639245608449,-0.3069201693147421
1789494883526451700,7.85345166015625,1.198310790389776,2.7381115436941386,0.050281741994619364
1789494883536497000,7.863496826171875,1.3907470869123935,2.8187825787335634,0.5354688127040863
1789494883546541600,7.87354150390625,1.6853040337383747,2.903595535883307,1.2222042916744946
1789494883556586800,7.883586669921875,2.025588127994537,3.027995822533965,1.9120909281522034
1789494883566631700,7.893631591796875,2.293545821708441,3.1636931637465953,2.6328029110044238
1789494883576676900,7.9036767578125,2.4746774648845196,3.1970167566776273,3.422462757876515
1789494883586722800,7.913722900390625,2.6349405075550076,3.2509342248260973,4.224367169293761
1789494883596767700,7.923767822265625,2.788534155464172,3.4447061538666484,5.0564381709158415
1789494883606812700,7.933812744140625,2.8750995092391967,3.739973294788599,5.916625259953737
1789494883616857900,7.94385791015625,2.8444588717818258,4.049955189761519,6.773678142619133
1789494883626902800,7.95390283203125,2.6237609418928622,4.3476305608689785,7.619654919996857
1789494883636948000,7.963947998046875,2.2935949215471743,4.618175932988525,8.364468493926525
1789494883646994000,7.973993896484375,1.8603636635243892,4.760074466928839,8.947778669735788
1789494883657038600,7.98403857421875,1.2246668823957443,4.855534490299225,9.35837373305857
1789494883667083800,7.994083740234375,0.6716507225632667,4.619813763323426,9.522131632107495
1789494883677128700,8.004128662109375,0.21516590512711553,3.9753503228932616,9.46578255289793
1789494883687174000,8.014173828125,-0.13932773360423742,3.194579884919524,9.021740562525391
1789494883697219800,8.0242197265625,-0.34978140591979023,2.6598335412710905,8.171838720658421
1789494883707264800,8.0342646484375,-0.5221393755316734,2.421426936212182,7.219107203435898
1789494883717309700,8.044309814453126,-0.799934572649002,2.284400976744294,6.390452147737145
1789494883727355000,8.05435498046875,-1.0583774190425872,2.095004778569937,5.746704746621846
1789494883737399800,8.06439990234375,-1.18426005320549,1.8640736239582298,5.303222728219628
1789494883747445000,8.074445068359376,-1.1969342413395643,1.6275526865154504,5.063842894214392
1789494883757491000,8.084490966796874,-1.135924769103527,1.4884230327665804,4.959874570217728
1789494883767535400,8.094535400390624,-1.0515876127719879,1.4812638086616992,4.860730305376649
1789494883777580500,8.10458056640625,-0.9756967977464198,1.4795365464776753,4.823059038630127
1789494883787625200,8.114625244140624,-0.9170745129078626,1.3531126450449227,4.846072249948978
1789494883797670400,8.12467041015625,-0.8497387602597475,1.1462526863723992,4.765771801787615
1789494883807715300,8.13471533203125,-0.8800655094623565,0.9954179817825555,4.507946210509538
1789494883817761500,8.144761474609375,-0.8879442800134419,0.9119722213327884,4.074432628414034
1789494883827806500,8.154806396484375,-0.7849988693237304,0.6926964332014321,3.614208149525523
1789494883837851400,8.164851318359375,-0.585615530142188,0.33043197780549527,3.2123668860226866
1789494883847896300,8.174896240234375,-0.3050052756041288,-0.16299392893910408,2.868624760267138
1789494883857941500,8.18494140625,0.00027413163310848176,-0.682636811479926,2.4842203692555427
1789494883867986400,8.194986328125,0.29413258393406866,-1.1326081919014452,2.069443636333942
1789494883878032400,8.205032470703125,0.5241717581421137,-1.5257289733320474,1.7356693623632191
1789494883888077600,8.21507763671875,0.6604056904494762,-1.7742314404696224,1.476204771706462
1789494883898122200,8.225122314453126,0.7308826637327671,-1.8476982432186602,1.3139046702504158
1789494883908167400,8.23516748046875,0.6772516113102436,-1.7754320484310389,1.1732482453256845
1789494883918212400,8.24521240234375,0.5038660522162914,-1.6478341347828507,1.121010108566284
1789494883928258300,8.25525830078125,0.3006488339602947,-1.5071528676778077,1.1662754837036131
1789494883938303500,8.265303466796874,0.13294950380921364,-1.3195078970849514,1.245303427711129
1789494883948348400,8.275348388671874,0.021642507487535476,-1.1606854086115956,1.382163382962346
1789494883958393300,8.285393310546874,0.033670762400887906,-1.0897355571195482,1.4594897837489842
1789494883968438300,8.295438232421875,0.08522091689612717,-1.0967942434594034,1.493145969635248
1789494883978483500,8.3054833984375,0.15069325029253958,-1.1867410563662648,1.4224842874348163
1789494883988529400,8.315529296875,0.19662735500428824,-1.3773217881500721,1.223149463570118
1789494883998574600,8.32557470703125,0.2860276034116745,-1.578315485137701,0.9443728542000055
1789494884008619300,8.335619384765625,0.42781277663800865,-1.7852748125314712,0.6216168178498744
1789494884018664400,8.34566455078125,0.594920607169345,-2.107889102323353,0.264424258890748
1789494884028709400,8.35570947265625,0.8249288017172366,-2.5667455077290535,-0.07947042707800865
1789494884038754600,8.365754638671875,1.0547264953196047,-3.041548547068238,-0.42043490481376644
1789494884048800500,8.375800537109376,1.250777475208044,-3.4568756073489784,-0.6919184345662593
1789494884058845400,8.385845458984376,1.4122247592270374,-3.882144800451398,-0.9576029226511716
1789494884068890400,8.395890380859376,1.5615584116041659,-4.357080526259542,-1.1899790153741836
1789494884078935300,8.405935302734376,1.719809529930353,-4.773177109608054,-1.5083137281507253
1789494884088980500,8.41598046875,1.8180045312225817,-5.043400410166383,-1.7991735740244388
1789494884099025400,8.426025390625,1.9567443088710308,-5.367845130255818,-2.0178981580138204
1789494884109071600,8.436071533203124,2.1015338880777357,-5.724269627451896,-2.314034482985735
1789494884119116300,8.4461162109375,2.1294179203033448,-6.084822602754831,-2.7766256910055875
1789494884129161500,8.456161376953125,2.084931128323078,-6.399379550558328,-3.219406283140182
1789494884139206400,8.466206298828125,1.9654630373775959,-6.594191344040632,-3.498876135471463
1789494884149251600,8.47625146484375,1.736212383198738,-6.754442696273326,-3.6925258994370695
1789494884159296500,8.486296630859375,1.4981085604786872,-6.898026991343498,-3.807020293623209
1789494884169342500,8.496342529296875,1.3274457043468952,-7.106375142747163,-3.9883553504168985
1789494884179387400,8.506387451171875,1.2402689406752585,-7.348188341379165,-4.180500555038452
1789494884189432300,8.516432373046875,1.2537912700712681,-7.645225414583087,-4.43367919729352
1789494884199477500,8.5264775390625,1.3567245519317686,-7.9709706958770745,-4.74610322472155
1789494884209522400,8.5365224609375,1.5187573807537555,-8.273136948662996,-4.935930215528607
1789494884219567400,8.5465673828125,1.633896502584219,-8.56263193592429,-5.042545254641771
1789494884229613300,8.55661328125,1.5577449907958507,-8.930427721962332,-5.223201681521535
1789494884239658200,8.566658203125,1.296938337880373,-9.46749929368794,-5.392158902779221
1789494884249703400,8.576703369140626,1.0925158354878426,-9.98969887497425,-5.648835324022174
1789494884259748400,8.586748291015626,0.9935527724325657,-10.386025758969783,-5.960883503875136
1789494884269793500,8.59679345703125,0.9092436000864952,-10.661985557353496,-6.0791205917209385
1789494884279839500,8.606839599609375,0.9076187022984027,-10.795062486934661,-6.041195057952404
1789494884289884400,8.616884521484375,1.0571090065419673,-10.79275245642662,-5.6932753542512655
1789494884299929300,8.626929443359375,1.2990098834574222,-10.539349357765913,-5.121759076610207
1789494884309974500,8.636974609375,1.5660112993597983,-10.119711740809679,-4.303130909407138
1789494884320019500,8.64701953125,1.7923288226962089,-9.52437853425145,-3.315428616568446
1789494884330064400,8.657064453125,1.9020833288788794,-8.692584011483191,-2.2981161983639002
1789494884340110300,8.6671103515625,1.8248142112374304,-7.790566197931766,-1.2295166605144738
1789494884350155300,8.6771552734375,1.4541256263673306,-6.938353156512975,-0.12278349910378455
1789494884360200400,8.687200439453125,0.8154512907326221,-6.0054836931020015,0.9596849896222353
1789494884370245400,8.697245361328125,0.009196867412328719,-5.153793214252591,2.151338660210371
1789494884380290600,8.70729052734375,-0.9230909967184067,-4.430799550203979,3.2380005089730024
1789494884390335200,8.717335205078125,-1.8243688055574894,-3.652568859840929,4.055206534418463
1789494884400381400,8.72738134765625,-2.5865081928193567,-2.8696114332169294,4.612579135894775
1789494884410426400,8.73742626953125,-3.1329110719919204,-2.0821812450930475,5.002980136972665
1789494884420471600,8.747471435546874,-3.347650385737419,-1.304915015847981,5.154112947726249
1789494884430516500,8.7575166015625,-3.4384944397449493,-0.6283139774009585,5.084246215295791
1789494884440561400,8.7675615234375,-3.392693642556667,-0.07859130615592003,4.8081291805237525
1789494884450606300,8.7776064453125,-2.876244003099203,0.32479572548419233,4.30948816947937
1789494884460652300,8.78765234375,-2.2007564788520333,0.5637114491090178,3.806045895633101
1789494884470697500,8.797697509765625,-1.7073592136800289,0.796607474052906,3.491359768491983
1789494884480742400,8.807742431640625,-1.3343896782658993,1.2251622646972535,3.43410994105041
1789494884490787600,8.81778759765625,-1.1144273691751063,1.822985826766491,3.445408164656162
1789494884500832300,8.827832275390625,-1.1033960528772324,2.425300562775135,3.53480201985538
1789494884510877400,8.83787744140625,-1.2845301072061062,3.016713965541124,3.6165929988354444
1789494884520923400,8.84792333984375,-1.2890075448811054,3.5175323206245896,3.604299334451556
1789494884530968300,8.85796826171875,-1.059912373524904,3.8953701927274462,3.4494320133447647
1789494884541013500,8.868013427734375,-0.6510146887045353,4.03801749920845,3.1730928602546453
1789494884551058200,8.87805810546875,-0.27937099506668744,3.901857216659188,2.66080384760797
1789494884561103400,8.888103271484376,-0.046574631104990834,3.5387469580888746,1.812869506421685
1789494884571148300,8.898148193359376,0.06950440192408859,3.1386212663322683,0.8308259699970483
1789494884581194500,8.908194580078124,0.07916289549879729,2.917041292911768,0.02311491812765598
1789494884591239400,8.918239501953124,-0.05290631834454834,2.8031664919286965,-0.45987551932036874
1789494884601284600,8.92828466796875,-0.04534728126712143,2.8085359100073575,-0.6036895314931869
1789494884611329300,8.938329345703124,0.0781705234605819,2.906207179686427,-0.46095045507550236
1789494884621374500,8.94837451171875,0.3682885379910469,3.1379297769367693,-0.0027057518273591995
1789494884631419400,8.95841943359375,0.7448400235451758,3.40016675491631,0.6029921968787908
1789494884641465300,8.96846533203125,0.9993922191757708,3.6326761186301706,1.1994494390308856
1789494884651510500,8.978510498046875,1.0057014753878115,3.9480847148269413,1.6286340520113705
1789494884661555200,8.98855517578125,0.9289375307895242,4.206011428391933,1.9196271688759325
1789494884671600400,8.998600341796875,0.7901100017923861,4.296125414559245,2.172569664287567
1789494884681645300,9.008645263671875,0.5826842989958823,4.439818430700898,2.351930790659785
1789494884691691500,9.01869140625,0.38511239315047857,4.668556459182501,2.5221470720678565
1789494884701736400,9.028736328125,0.1719079608220607,4.883189389944076,2.717642171639204
1789494884711781400,9.038781494140625,0.03306640329957008,5.063384044530987,3.0283401059269903
1789494884721826300,9.048826416015626,0.0010204290889203548,5.142965530768037,3.387755017110705
1789494884731871500,9.05887158203125,-0.04004325657486915,5.209506918168068,3.743922909197211
1789494884741916400,9.06891650390625,-0.016623802542686462,5.248964483809471,4.113071863409877
1789494884751961300,9.07896142578125,-0.01602174499630928,5.1797068231880665,4.473828836852312
1789494884762007600,9.089007568359374,-0.10757884264402091,5.095006094241142,4.787922843319177
1789494884772052500,9.099052490234374,-0.3616694851774722,4.932824650728702,4.965245157340169
1789494884782097700,9.10909765625,-0.6909866336088627,4.759517417567968,5.188090036129951
1789494884792142600,9.119142578125,-1.0586252563238143,4.596315398836135,5.463328534501791
1789494884802187800,9.129187744140625,-1.4243606027007103,4.349524996313453,5.846130751013756
1789494884812233700,9.139233642578125,-1.6146072802245617,3.922373934987187,6.39775341066122
1789494884822278400,9.1492783203125,-1.7410767743647098,3.3284868355840445,7.007621923050284
1789494884832323600,9.159323486328125,-1.9468869317233561,2.7160779910624027,7.481011588460206
1789494884842368500,9.169368408203125,-2.2386977947115896,2.3817741402596235,7.666828759104013
1789494884852413700,9.17941357421875,-2.5402690042138096,2.2532979824721813,7.703208232474327
1789494884862458400,9.189458251953125,-2.6623849793195724,2.0747452498734,7.638052161952853
1789494884872504600,9.199504638671876,-2.419423779696226,1.7436913407772778,7.513336233481764
1789494884882549500,9.209549560546876,-1.9253917237520217,1.2958067035019396,7.429805717357993
1789494884892594700,9.2195947265625,-1.4462088618934155,0.9427128120332956,7.348806181016564
1789494884902639600,9.2296396484375,-1.1216309438783674,0.7922779204159974,7.264082655715942
1789494884912684800,9.239684814453126,-0.9446972638487815,0.8635919290453196,7.0126265994697805
1789494884922729500,9.2497294921875,-0.8622820154905319,1.0960299810886382,6.49613195182681
1789494884932775400,9.259775390625,-0.847225973721221,1.1929682603180407,5.74712618690431
1789494884942820600,9.269820556640624,-0.8110031522173434,1.0778718085855246,4.905801034724712
1789494884952865500,9.279865478515624,-0.6048644935566931,0.7944581870645284,4.121818648967147
1789494884962910700,9.28991064453125,-0.32199787492658943,0.4371525231197476,3.4240953275144097
1789494884972955400,9.299955322265625,0.03622983576655388,0.00001841243952512741,2.79413329064548
1789494884983000600,9.31000048828125,0.4137023816883564,-0.5301362195044755,2.2535569256693124
1789494884993046500,9.320046630859375,0.7312918290555477,-1.1126453080639243,1.8016501932710407
1789494885003091500,9.330091552734375,1.0174795914649963,-1.6794161447435616,1.3454770355999468
1789494885013136600,9.34013671875,1.2800585147500037,-2.175299673773348,0.7850093907177448
1789494885023181600,9.350181640625,1.3815712622880936,-2.6314588029190897,0.13760054448544978
1789494885033226500,9.3602265625,1.4276795179903505,-2.928123243418336,-0.45102176625728607
1789494885043271400,9.370271484375,1.3422142344117163,-2.98105374635607,-0.9078191933065652
1789494885053317600,9.380317626953126,1.1049276463586837,-2.705133110938966,-1.133380929839611
1789494885063362600,9.390362548828126,0.7890998749017715,-2.245834222462773,-1.2029068860083818
1789494885073407700,9.40040771484375,0.6062801325082778,-1.7778426167041061,-1.17141050850451
1789494885083452400,9.410452392578126,0.5965466740012169,-1.37120827370584,-1.067583638805151
1789494885093497600,9.42049755859375,0.6297101809997111,-1.1081646555185318,-0.9960171167194842
1789494885103542500,9.43054248046875,0.7297089437782764,-0.9693789929017425,-0.9647504563182592
1789494885113588500,9.44058837890625,0.8346995234947651,-0.95994656316787,-0.9616536593466997
1789494885123633700,9.450633544921875,0.8796514487687498,-1.0755552022062242,-0.9973685313284396
1789494885133678600,9.4606787109375,0.7976023303091525,-1.280192078001797,-1.102093811172247
1789494885143723500,9.4707236328125,0.6731354081630706,-1.5288170024752616,-1.276719725716114
1789494885153768400,9.4807685546875,0.5694190131008625,-1.778850040180981,-1.50436995896101
1789494885163813600,9.490813720703125,0.5522307085432112,-2.0294275600269436,-1.7341501899719238
1789494885173859600,9.500859619140625,0.534436620112136,-2.289615934913605,-1.9494453840345143
1789494885183904800,9.51090478515625,0.44486558171510693,-2.538139590969682,-2.238471000218391
1789494885193949400,9.520949462890625,0.36514834026917814,-2.7823507906541227,-2.5365111129850146
1789494885203994600,9.53099462890625,0.4324269559025764,-3.0543226884454486,-2.76699744643867
1789494885214039600,9.54103955078125,0.6432032843012362,-3.364277110889554,-2.9574720874994993
1789494885224084700,9.551084716796876,0.889928731828928,-3.7038434122651815,-3.199001793015003
1789494885234130700,9.561130615234376,1.171211332670599,-3.9321611695080994,-3.4176971509099006
1789494885244175600,9.571175537109376,1.384068193670362,-4.04238095511496,-3.498760400137305
1789494885254220500,9.581220458984374,1.4987025808490813,-4.134641597922146,-3.5370945147067308
1789494885264265500,9.591265380859374,1.5814171044148504,-4.2100662567406895,-3.599382920837402
1789494885274310700,9.601310546875,1.7044003638744354,-4.272749215146899,-3.601860124605894
1789494885284355600,9.61135546875,1.7211879786767064,-4.3894677151232955,-3.5735628354042768
1789494885294401500,9.621401611328125,1.6454745660446584,-4.513088834095001,-3.489116373479366
1789494885304446500,9.631446533203125,1.6018169183649122,-4.77519721725881,-3.4451129811018704
1789494885314491400,9.641491455078125,1.5171243727244437,-5.049321616908908,-3.4343373200654983
1789494885324536600,9.65153662109375,1.486544379413128,-5.186448698663711,-3.3716917710602283
1789494885334581500,9.66158154296875,1.6147032879449426,-5.36522997932136,-3.126130033549666
1789494885344626700,9.671626708984375,1.7716648048520087,-5.633932353922725,-2.9405700525373217
1789494885354672600,9.681672607421875,1.8818376825772225,-5.895999820554256,-2.7462521800518034
1789494885364717600,9.691717529296875,2.068385797844082,-6.134756554225087,-2.3588784178405997
1789494885374762500,9.701762451171875,2.292486521913856,-6.488827766293287,-1.9102812483817337
1789494885384807700,9.7118076171875,2.3519313751816746,-7.017914184483885,-1.5487375084757804
1789494885394852600,9.7218525390625,2.2738464111126957,-7.735377394673228,-1.24313835863173
1789494885404897500,9.7318974609375,2.1185434750676153,-8.536880239552259,-0.9336889631003141
1789494885414943500,9.741943603515624,1.9907225663185117,-9.153020671817659,-0.7768968114107847
1789494885424988400,9.751988525390624,1.753890663230419,-9.626765142014623,-0.8018120569586753
1789494885435033600,9.76203369140625,1.392372350026667,-9.913324075824022,-0.8620891232669353
1789494885445078500,9.77207861328125,1.015625341900438,-9.737357268065214,-1.0604267527878284
1789494885455123700,9.782123779296874,0.607790537071228,-9.19093393062651,-1.081767062458396
1789494885465168400,9.79216845703125,0.3116764239311218,-8.47963976446092,-0.7612824781715869
1789494885475214600,9.802214599609375,0.2563677936851978,-7.610587816444039,-0.4148293398916721
1789494885485259500,9.812259521484375,0.2950828703962266,-6.752375242349505,-0.1579214479804039
1789494885495304700,9.8223046875,0.43087578093782064,-5.943825401568413,0.022998598271608352
1789494885505349600,9.832349609375,0.6921370457530022,-5.245184965270758,0.1529629487901926
1789494885515394600,9.84239453125,0.9251263019382953,-4.6660269407048816,0.47051849388778205
1789494885525439500,9.852439453125,1.0108487020831554,-4.297678489220142,0.8996440701574087
1789494885535485400,9.8624853515625,0.8602174841761588,-4.04409711138308,1.369438341423869
1789494885545530600,9.872530517578125,0.4599684583008289,-3.5901784546405073,1.7865514083385468
1789494885555575600,9.882575439453126,-0.08127776876091956,-2.9368691521927714,1.9520108506083487
1789494885565620700,9.892620849609376,-0.580830049431324,-2.29692260466516,1.9739637392193077
1789494885575665400,9.90266552734375,-0.984534768718481,-1.7121420640423892,1.8403350209742784
1789494885585710600,9.912710693359376,-1.2233166368305683,-1.214404431578517,1.5181675981670617
1789494885595756500,9.922756591796874,-1.2320891413509845,-0.9394795292004943,1.098610060709715
1789494885605801500,9.932801513671874,-0.8967536094129085,-0.853454565912485,0.808817551806569
1789494885615846700,9.9428466796875,-0.20696283452510833,-0.8336284601971506,0.6125608202129602
1789494885625891600,9.9528916015625,0.395427889329195,-0.812995129752159,0.28855273797512054
1789494885635936500,9.9629365234375,0.6658616177678108,-0.6954390099078417,-0.08425415422320365
1789494885645981400,9.9729814453125,0.6030697921596467,-0.3712830436319113,-0.20945114420950411
1789494885656027600,9.983027587890625,0.3364776877105236,0.10229542234838009,0.39362288573384285
1789494885666072600,9.993072509765625,-0.11905892562270164,0.8110831586509942,1.4183563938498496
1789494885676117800,10.00311767578125,-0.6160054077088832,1.6581968311041593,2.329330836316943
1789494885686162400,10.013162353515625,-0.7630852167446166,2.40274327853024,2.9654437970310448
1789494885696207600,10.02320751953125,-0.6341897375665605,2.8384534938871857,3.2812329169780012
1789494885706252500,10.03325244140625,-0.37483394104652107,3.047682519778609,3.2971213909834622
1789494885716298500,10.043298583984376,-0.05516834499239921,3.189147338476777,3.1441642874121665
1789494885726343700,10.05334375,0.3460885427512228,3.306858941143751,2.8895161571264265
1789494885736388600,10.063388671875,0.7837071490127593,3.437679031708836,2.8359289438456297
1789494885746433500,10.07343359375,1.2705563807807863,3.633380467507243,2.9313568185120817
1789494885756478500,10.083478515625,1.7478887924671171,3.8561277311414477,3.0920015539765355
1789494885766523600,10.093523681640624,2.1346819783113897,3.9588790805637832,3.1899709298193453
1789494885776569600,10.103569580078124,2.3401835081122813,4.051068703961372,3.263689661502838
1789494885786614800,10.11361474609375,2.4252817119441925,4.199260785087943,3.35415728341341
1789494885796659700,10.12365966796875,2.3132709512673317,4.339582863491773,3.4352784003078933
1789494885806704600,10.13370458984375,2.0564391933321953,4.476086844912171,3.4302801536291834
1789494885816749600,10.14374951171875,1.8758932410895823,4.613125079339742,3.479608540421724
1789494885826794800,10.153794677734375,1.6498726548731326,4.721321250164508,3.7024031503289936
1789494885836840700,10.1638408203125,1.4689713133215903,4.911924486041069,4.144735998696088
1789494885846885600,10.1738857421875,1.260188277631998,5.139396440109611,4.742613629040122
1789494885856930800,10.183930908203125,0.9048585168700665,5.371296147492528,5.299785739508271
1789494885866975500,10.1939755859375,0.4198655804932117,5.526174574515223,5.706543416625261
1789494885877020700,10.204020751953125,-0.007395517078787088,5.50973138923645,6.012214462661743
1789494885887065600,10.214065673828125,-0.29142266738824546,5.255560813334584,6.3382958440423005
1789494885897110800,10.22411083984375,-0.44385318980216976,5.049628490900993,6.632531888350844
1789494885907156700,10.23415673828125,-0.5744212783675641,4.946203772261739,6.959647873476147
1789494885917201700,10.24420166015625,-0.6313550255972892,4.995059280845522,7.269851302245259
1789494885927246600,10.25424658203125,-0.6641326020181179,5.125680049446225,7.4296899820238345
1789494885937291500,10.26429150390625,-0.6396575014531612,5.083891410508752,7.536434200474619
1789494885947336700,10.274336669921874,-0.6194704534709453,4.831563247603178,7.660656207948922
1789494885957381600,10.284381591796874,-0.6685772334020584,4.314320996463299,7.8310174507856365
1789494885967427800,10.294427734375,-0.6684452775854617,3.801016669294238,7.853769965341686
1789494885977472500,10.304472412109375,-0.5785725893607363,3.5904409049689767,7.6763740015625945
1789494885987517700,10.314517578125,-0.5523953975856304,3.563215044391155,7.465933261793851
1789494885997562600,10.324562744140625,-0.6888777516961098,3.5301346125662323,7.408276607117056
1789494886007607800,10.33460791015625,-0.8164391327261924,3.49791167435348,7.359955351540446
1789494886017652700,10.34465283203125,-0.8791139078259468,3.417854387298226,7.341711838841438
1789494886027698700,10.35469873046875,-0.9891209274649619,3.1568460743308067,7.448489375039935
1789494886037743600,10.36474365234375,-1.1506816087305545,2.6573195126235483,7.534527490070462
1789494886047788500,10.37478857421875,-1.165024606859684,2.0824036556720733,7.477623115065693
1789494886057833700,10.384833740234376,-1.0137737226843833,1.6626035416305065,7.301286889472603
1789494886067878700,10.394878662109376,-0.9068728523671626,1.3783002777934075,6.937278805279731
1789494886077923600,10.404923583984376,-0.7977449536502361,1.25005734423995,6.412565195345878
1789494886087969500,10.414969482421874,-0.6374994466364383,1.2139730544239282,5.839917867848277
1789494886098014700,10.4250146484375,-0.4528057270646095,1.0170487988322974,5.345734420734644
1789494886108059600,10.4350595703125,-0.15379819403793663,0.5659504602074623,4.877716511490941
1789494886118104600,10.4451044921875,0.3365677040815353,-0.10666706156134605,4.399162595185637
1789494886128149800,10.455149658203124,0.9597685762524604,-0.8142237947642803,3.9641099669545885
1789494886138194700,10.465194580078125,1.455799697059393,-1.500984992697835,3.707560971483588
1789494886148240600,10.47524072265625,1.5728595578193663,-1.9728619154572486,3.4296593913823363
1789494886158285600,10.48528564453125,1.3953168790459631,-2.095069660499692,3.0107243697375057
1789494886168330800,10.495330810546875,0.961468365907669,-2.004038559487462,2.6113527112185952
1789494886178375700,10.505375732421875,0.5732219125151634,-1.9282775083214043,2.30865337446928
1789494886188420900,10.5154208984375,0.4181271758606657,-1.9411498493760824,2.092184460452199
1789494886198465500,10.525465576171875,0.5296212191870435,-2.1609254037231205,2.2266227415144444
1789494886208511500,10.535511474609375,0.9011597354173659,-2.5125088906288147,2.7655226977109906
1789494886218556700,10.545556640625,1.1364029080092906,-2.4604808894887564,3.2677877444714305
1789494886228601600,10.5556015625,0.9530115032076835,-2.2663182075649497,3.552731644299626
1789494886238646800,10.565646728515626,0.4709188913822174,-2.144469358962774,3.4374995834887025
1789494886248691500,10.57569140625,-0.15994155563116072,-2.146916167593002,3.0265321797221896
1789494886258736600,10.585736572265626,-0.5678255698969588,-2.2216370620563626,2.2370792535990476
1789494886268782600,10.595782470703124,-0.7136310846805572,-2.4566782823354005,1.3205126902133226
1789494886278827800,10.605827880859374,-0.6369067414402961,-2.9870038869321345,0.5705360344320536
1789494886288872700,10.615872802734375,-0.3895581205129623,-3.7858456959083675,-0.01367547413110733
1789494886298918000,10.62591796875,-0.0012578911066055297,-4.596757297384738,-0.5024240367144346
1789494886308962600,10.635962646484375,0.493752617948316,-5.264620318102836,-1.0411574041724205
1789494886319007700,10.6460078125,0.9128080876350402,-5.71230738697946,-1.5569506255477665
1789494886329053700,10.6560537109375,1.1906044537961482,-6.040780047410726,-1.9897370624125004
1789494886339098600,10.6660986328125,1.3931716837108135,-6.327912397193908,-2.460081953299045
1789494886349143800,10.676143798828125,1.4431296005785463,-6.478874527555703,-2.9838860471725464
1789494886359188500,10.6861884765625,1.3820517392814158,-6.554703383260965,-3.5150708989471195
1789494886369233700,10.696233642578125,1.2425614355266092,-6.707593851336837,-3.959860492816567
1789494886379278600,10.706278564453125,1.0035141944766044,-6.933867535531521,-4.329773417139053
1789494886389323800,10.71632373046875,0.7589690135974436,-6.988753556451201,-4.652547573667764
1789494886399369700,10.72636962890625,0.6180922239203006,-6.929818552401661,-4.8272886390239
1789494886409414700,10.73641455078125,0.4410159936148673,-6.885409501832723,-4.899835404318571
1789494886419459600,10.74645947265625,0.31525135980844493,-6.953841233024001,-4.824494039869308
1789494886429504500,10.75650439453125,0.2939431988418102,-7.117170093005895,-4.816009704640507
1789494886439549700,10.7665498046875,0.36494748393483456,-7.241451137191056,-4.850715691840648
1789494886449594600,10.7765947265625,0.4881120182454586,-7.3351277842760085,-4.839828971645236
1789494886459640800,10.786640869140625,0.5011925221581012,-7.460544554492831,-4.730027119189501
1789494886469685500,10.796685546875,0.561238044732809,-7.5550687583178275,-4.717250639724731
1789494886479730700,10.806730712890625,0.7522551221072673,-7.628661817795038,-4.726102639222145
1789494886489775600,10.816775634765625,1.001376013404131,-7.753786327067017,-4.666711708098649
1789494886499820800,10.82682080078125,1.27687637758255,-7.83789376629591,-4.723007595816254
1789494886509865700,10.83686572265625,1.513364581799507,-7.9933970472186795,-4.740873507374525
1789494886519911700,10.84691162109375,1.635619673115015,-8.338394141471385,-4.594501627412438
1789494886529956600,10.85695654296875,1.670083083730936,-8.868694611626863,-4.352524178129435
1789494886540001500,10.86700146484375,1.6749883914291859,-9.308176162216066,-4.300599345102906
1789494886550046700,10.877046630859375,1.5672984165608883,-9.5872122993052,-4.197130787321925
1789494886560091600,10.887091552734375,1.402236449176073,-9.780734637498854,-3.951244640162587
1789494886570136600,10.897136474609376,1.28041974927783,-9.927038128399849,-3.7918425982356068
1789494886580182500,10.9071826171875,1.17831078941226,-9.940423679673671,-3.720088444623351
1789494886590227700,10.917227783203124,1.142562672748044,-9.674144148305057,-3.5582214738875626
1789494886600272600,10.927272705078124,1.219961408118531,-9.210655114662647,-3.032535219529271
1789494886610317800,10.93731787109375,1.310045656734705,-8.58921014624834,-2.2884546360492704
1789494886620362800,10.94736279296875,1.3206301791131496,-7.88438780644536,-1.420176010492444
1789494886630407700,10.95740771484375,1.1829916407048702,-7.260802318871021,-0.48601884535849094
1789494886640453600,10.96745361328125,0.8547826727110892,-6.765082748231292,0.535969163441658
1789494886650498600,10.97749853515625,0.40681203765273094,-6.212609609234333,1.4213503149688242
1789494886660543700,10.987543701171875,-0.07310381465554237,-5.633635416802764,2.2182979807615277
1789494886670588700,10.997588623046875,-0.44703876103572543,-5.042311445885896,2.827211384382844
1789494886680633600,11.007633544921875,-0.6058720631640404,-4.546550081931055,3.1676579757243393
1789494886690678500,11.017678466796875,-0.49481407316736875,-4.084329168528318,3.264827141100168
1789494886700723700,11.0277236328125,-0.23965631285905836,-3.65845178039968,3.1743717941492795
1789494886710769700,11.037769775390625,-0.0045953649662435056,-3.2505423028990625,3.069683923706412
1789494886720814600,11.047814697265625,0.12068382341079413,-2.7812027896627782,2.9315356822103262
1789494886730859800,11.05785986328125,0.0976583371322602,-2.2090528902933,2.80856864323318
1789494886740904400,11.067904541015626,-0.047369580874964595,-1.548137496756017,2.7199270677059886
1789494886750949600,11.07794970703125,-0.23592706320285795,-0.8763461966782807,2.659332606011629
1789494886760994600,11.08799462890625,-0.5611211403548717,-0.16405425164699552,2.669938755699992
1789494886771040500,11.09804052734375,-0.942757674088329,0.5672106894016266,2.676317643082142
1789494886781085400,11.10808544921875,-1.282628072977066,1.293622345200181,2.6416315296262503
1789494886791130600,11.118130615234374,-1.5651380236566066,1.8897364730030297,2.5270447809815404
1789494886801175600,11.128175537109374,-1.7445523415207862,2.346041148099303,2.3848697681874036
1789494886811220700,11.138220703125,-1.7536662068247795,2.686608735471964,2.2226409784018992
1789494886821265400,11.148265380859375,-1.6259855833292007,2.956819176548719,2.0604595348894597
1789494886831311400,11.158311279296875,-1.4709773924469947,3.189208713275194,2.0843004292041063
1789494886841356500,11.1683564453125,-1.2961539095044134,3.59601198309958,2.1464643321722745
1789494886851401500,11.1784013671875,-1.095530799394846,3.979956355383992,1.9470745632499455
1789494886861446700,11.18844677734375,-0.8671008139491081,4.127181637305021,1.7481120798289775
1789494886871491300,11.1984912109375,-0.595500416351296,4.096807541829348,1.6220897449344396
1789494886881536500,11.20853662109375,-0.36383217963669445,4.035575951275229,1.5232535231292248
1789494886891582500,11.21858251953125,-0.2416144611895084,4.021484297558665,1.6075012476116417
1789494886901627600,11.228627685546876,-0.14334931727051733,4.054376513335108,1.9019997422486543
1789494886911672600,11.238672607421876,-0.1022165118932724,4.154847058343887,2.244952178931236
1789494886921717800,11.2487177734375,-0.11912322303056716,4.3283904383480545,2.573006906211376
1789494886931762400,11.258762451171876,-0.1271556863060221,4.4455672034859655,3.073279902371764
1789494886941807600,11.2688076171875,-0.18687051562163978,4.527437677443027,3.656584817484021
1789494886951852500,11.2788525390625,-0.253470866667293,4.701100884434581,4.1149820809453725
1789494886961898500,11.2888984375,-0.2331704214384779,4.910647890233993,4.646908106476069
1789494886971943700,11.298943603515625,-0.08647299931645393,5.1031549139052625,5.203973833960294
1789494886981988400,11.30898828125,0.16327800657749175,5.3253562340945,5.754243325433134
1789494886992033500,11.319033447265625,0.44734855763725934,5.493267161169648,6.321992944017052
1789494887002078500,11.329078369140625,0.6339303559780121,5.575376120057702,6.789040546923875
1789494887012123600,11.33912353515625,0.8142997826099395,5.64557836805284,7.202489830633997
1789494887022169600,11.349169677734375,0.9455120873630046,5.7380999998837705,7.604610495600104
1789494887032214500,11.359214599609375,0.9398702090185135,5.777957378497719,7.8807140863686795
1789494887042259500,11.369259521484375,0.8714122474074363,5.712877880343794,8.059692350903154
1789494887052304400,11.379304443359375,0.7254770052969455,5.5363265506953,8.090627002871036
1789494887062349600,11.389349609375,0.5618178904473782,5.272827005434036,7.98395877226591
1789494887072394500,11.39939453125,0.567211894978024,4.940750183030962,7.836559302821755
1789494887082440700,11.409440673828126,0.5729016675848514,4.508555282318592,7.745221912339329
1789494887092485400,11.4194853515625,0.53829672960639,4.0340293063551185,7.611879609820246
1789494887102530600,11.429530517578126,0.5267676198542117,3.6023499539494512,7.646837525954842
1789494887112575500,11.439575439453124,0.5074328047871589,3.1856939831525084,7.765089226847887
1789494887122620700,11.44962060546875,0.5278010545551777,2.8829771107465025,7.796002251505851
1789494887132665600,11.45966552734375,0.5399263766348361,2.712387904372811,7.686951509678363
1789494887142711600,11.469711669921875,0.2988719239482656,2.59845698928833,7.616999437052011
1789494887152756500,11.479756591796875,-0.18644494715332985,2.407441080957651,7.69055800973773
1789494887162801400,11.489801513671875,-0.5544365480244159,2.0346382804125547,7.775314852786064
1789494887172846600,11.4998466796875,-0.7227659927725791,1.5590607495695352,7.805885347616672
1789494887182891500,11.5098916015625,-0.7485539295017719,1.1794342404842375,7.878999683666229
1789494887192936400,11.5199365234375,-0.8096224384486674,1.0235510203331708,7.9404849567204705
1789494887202981400,11.5299814453125,-0.9395055404245853,1.1165870314270256,8.021523656028508
1789494887213027600,11.540027587890625,-1.1572644942522048,1.3031155652105808,7.899170365035533
1789494887223072500,11.550072509765625,-1.4263666818261145,1.3794804274886845,7.569878204914927
1789494887233117700,11.56011767578125,-1.6495739641875027,1.2480699698150157,7.018271327358484
1789494887243162600,11.57016259765625,-1.6616589542567728,0.9154436968356371,6.323154973533749
1789494887253207600,11.58020751953125,-1.4822855529248713,0.3874906665891409,5.693870397534966
1789494887263252500,11.59025244140625,-1.0929039580225943,-0.302515212354064,5.172785499492288
1789494887273298400,11.60029833984375,-0.6195277366161346,-1.1670885536521673,4.652397936064005
1789494887283343600,11.610343505859374,-0.16152093377709387,-2.092130684438348,4.059112894207239
1789494887293388500,11.620388427734374,0.23010522518157958,-2.9097949750453234,3.481643261119723
1789494887303433500,11.63043359375,0.5071393747985363,-3.5391596305429935,2.927558010751009
1789494887313478400,11.640478515625,0.6523018789708614,-3.958065133832395,2.301441543394327
1789494887323523600,11.650523681640625,0.625935265570879,-4.07507443344891,1.7748638931542633
1789494887333569500,11.660569580078125,0.5516028224358335,-3.9620851831287145,1.408612998470664
1789494887343614500,11.670614501953125,0.43890586959309874,-3.7027655539005995,1.1526701521992684
1789494887353659600,11.68065966796875,0.3569686140101403,-3.401992801299691,0.9878279650449753
1789494887363704300,11.690704345703125,0.30240700273923576,-3.2155002156123516,0.8645984757393598
1789494887373749500,11.70074951171875,0.29740466440729796,-3.152443455457687,0.7082330250293016
1789494887383794400,11.71079443359375,0.4172224455732852,-3.147410429726541,0.5302537084043025
1789494887393839600,11.720839599609375,0.5857341880857944,-3.224039788159728,0.38198096325695513
1789494887403885600,11.730885498046876,0.7762357171535491,-3.4023633881777524,0.14347148234546184
1789494887413930500,11.740930419921876,0.9682184246897697,-3.5960096450120207,-0.16818857497274875
1789494887423975400,11.750975341796876,1.1720308323599398,-3.857540812809765,-0.5248416202276944
1789494887434020600,11.7610205078125,1.4013818781733511,-4.198003478503227,-0.953641033282876
1789494887444065500,11.7710654296875,1.6059959576152265,-4.467009219965338,-1.4143401439458132
1789494887454110700,11.78111083984375,1.8469664218127726,-4.674069961906969,-1.8521756808936596
1789494887464156700,11.79115673828125,2.065470202658325,-4.936407769912481,-2.269938151627779
1789494887474201300,11.801201416015624,2.2744551906608046,-5.173740608260035,-2.6390403440892696
1789494887484246500,11.81124658203125,2.465086629718542,-5.342297432023287,-2.913414919108152
1789494887494291500,11.82129150390625,2.634534849363565,-5.579468357807397,-3.1748493485331535
1789494887504336600,11.831336669921875,2.784684494298696,-5.885918571522832,-3.505684061920643
1789494887514381600,11.841381591796875,2.876191396129131,-6.231014449974894,-3.837840963822603
1789494887524427500,11.851427490234375,2.9823651212155817,-6.467554676640034,-4.091442799925804
1789494887534472400,11.861472412109375,3.1070190903663635,-6.665048841074109,-4.312120271548628
1789494887544517600,11.871517578125,3.191577195972204,-6.892274126905202,-4.492219649067521
1789494887554562600,11.8815625,3.2548318167865276,-7.058228659215569,-4.658505605289339
1789494887564607700,11.891607666015625,3.295127586817741,-7.132623682725429,-4.869465400496125
1789494887574652400,11.90165234375,3.2494954241946337,-7.26416039712727,-5.126910468024015
1789494887584698400,11.911698486328126,3.118427788609266,-7.42290952810347,-5.31230152221024
1789494887594743600,11.92174365234375,2.9274434444606303,-7.509812151008844,-5.4469911476850505
1789494887604788500,11.93178857421875,2.641883458560705,-7.619587699979543,-5.494412824073433
1789494887614833700,11.941833740234374,2.25070738145709,-7.829512891441583,-5.44229334525764
1789494887624878600,11.951878662109374,1.8783797972083092,-8.076161255145072,-5.429072629156709
1789494887634923500,11.961923583984374,1.496895093035698,-8.244150508153439,-5.42261658488512
1789494887644968400,11.971968505859374,1.202920476142317,-8.316707794842124,-5.247089922109246
1789494887655014400,11.982014404296875,1.0214845893226563,-8.43547855117321,-5.087171162831783
1789494887665059600,11.9920595703125,0.968910644737631,-8.642034558463097,-4.842644613587856
1789494887675104500,12.0021044921875,0.8842017324842512,-9.051497987407446,-4.588914767190814
1789494887685149400,12.0121494140625,0.6098374596636742,-9.304560894328356,-5.070158653232455
1789494887695194400,12.0221943359375,0.4725169011633843,-9.664197923830152,-5.494186029580235
1789494887705239600,12.032239501953125,0.5367476735334843,-10.073002596604823,-5.802189902478456
1789494887715285500,12.042285400390625,0.49707273881435393,-10.414446382290125,-5.886542840901017
1789494887725330700,12.05233056640625,0.5103776991326362,-10.574356373739242,-5.792807741627096
1789494887735375600,12.062375732421875,0.6390110202431678,-10.476026932412385,-5.437214434558153
1789494887745420500,12.072420654296875,0.8614519213419407,-10.302843617892265,-4.7271711452364915
1789494887755465500,12.082465576171876,1.0387282042641193,-10.055746341377496,-3.7695769904136656
1789494887765510700,12.0925107421875,1.1930968551337717,-9.643895140513777,-2.6904572275936602
1789494887775555300,12.102555419921876,1.3253659754633902,-9.218104846146701,-1.4077186799794434
1789494887785601300,12.112601318359374,1.3406114753901959,-8.715423619800806,0.052501756131649015
1789494887795646500,12.122646484375,1.2569476882755755,-8.109303061768411,1.5348206268042326
1789494887805691400,12.13269140625,1.070994981618598,-7.480469736668467,3.040940644302964
1789494887815736300,12.142736328125,0.6920330008566379,-6.706462801480293,4.443554694619775
1789494887825781200,12.15278125,0.021159692406654357,-5.696992328947783,5.7873114822983736
1789494887835826400,12.162826416015625,-0.7005190896511078,-4.551365373258292,6.980998704540729
1789494887845872400,12.172872314453125,-1.4754747038662432,-3.384664942140877,7.832534869611263
1789494887855917600,12.18291748046875,-2.111046397310495,-2.3905659340023995,8.139960065838695
1789494887865962500,12.19296240234375,-2.3426573508799073,-1.5866887612074612,7.923408734235167
1789494887876007400,12.20300732421875,-2.259954517751932,-1.0287456663668155,7.6930036493241785
1789494887886052400,12.21305224609375,-1.8413024047017097,-0.4041366809636354,7.503345000821351
1789494887896097500,12.22309765625,-1.2749708362221717,0.13810031070113182,7.324940152260661
1789494887906142500,12.233142578125,-0.8429355099856853,0.5940992808490991,7.231232525515556
1789494887916188400,12.2431884765625,-0.5664496419012546,1.1581634889185428,7.152228546905517
1789494887926233300,12.2532333984375,-0.5725654944330454,1.7761819900155067,6.922523719218373
1789494887936278300,12.2632783203125,-1.0481249050974846,2.4545798487514254,6.938360755297541
1789494887946323500,12.273323486328126,-1.8808803818523883,3.520327504301071,6.506469805967807
1789494887956368400,12.283368408203126,-2.640851777425408,4.403964442509412,5.516702981814742
1789494887966413600,12.29341357421875,-3.2238854743808507,4.754401681989431,4.697693121817708
1789494887976459500,12.30345947265625,-3.528254205647111,4.815931963229179,3.94055198123455
1789494887986504200,12.313504150390624,-3.5093437534719705,4.870860069724917,3.2945804743289946
1789494887996549400,12.32354931640625,-3.2377374741226435,4.924453128224611,2.84331379339993
1789494888006594300,12.33359423828125,-2.6946459114551544,4.935314129456877,2.492631054726243
1789494888016639500,12.343639404296875,-2.0704653805971143,4.872065938383341,2.2201433163672686
1789494888026684400,12.353684326171875,-1.468365748643875,4.720350943827629,1.9802397507488727
1789494888036729300,12.363729248046875,-0.9845979701478034,4.490867649936676,1.6837690792560576
1789494888046775300,12.373775390625,-0.5590278944026679,4.3420249959468835,1.4013742793887853
1789494888056820500,12.383820556640625,-0.2237965534914285,4.271903996494412,1.1810644720345735
1789494888066865400,12.393865478515625,-0.0873281548410654,4.195633826762438,1.0054442857563495
1789494888076910600,12.40391064453125,-0.04368015177249908,4.117759728965163,0.8253665355473756
1789494888086955300,12.413955322265625,-0.12438684264719485,3.999845881724357,0.6978525007903575
1789494888097000400,12.42400048828125,-0.20403971362002193,3.894295256972313,0.6419371368229388
1789494888107046400,12.43404638671875,-0.27568507309556006,3.843212135466933,0.8315233046114444
1789494888117091300,12.44409130859375,-0.44823768849670886,3.8538907658696173,1.0857459029614924
1789494888127136500,12.454136474609374,-0.5003600899219512,4.014159069237113,1.3792255759447811
1789494888137181400,12.464181396484374,-0.5849347082711756,4.18632297758162,1.8080530460506676
1789494888147226400,12.474226318359374,-0.573462297142297,4.24826125510037,2.2269687784731387
1789494888157271300,12.484271240234374,-0.4096865701757371,4.230013066226244,2.6355080783098934
1789494888167317500,12.4943173828125,-0.1344330203652382,3.9829894394695757,3.188216779628396
1789494888177362400,12.504362548828125,0.3503366286497563,3.7935634306788444,3.7926433932244774
1789494888187407600,12.51440771484375,0.8478717973440885,3.717708271488547,4.5073932528018945
1789494888197452300,12.524452392578125,1.339531278938055,3.7721225832432506,5.313900774100422
1789494888207497500,12.53449755859375,1.594201621055603,3.9194507410168646,6.146513042992353
1789494888217542400,12.54454248046875,1.713923979023099,4.152806492426992,6.934812122905254
1789494888227587600,12.554587646484375,1.703970155763626,4.180607522544265,7.643783399081229
1789494888237633500,12.564633544921875,1.7323785041242836,4.1098476406663655,8.468215868648887
1789494888247678500,12.574678466796875,1.7753917164206503,3.8874189414620397,9.377800902584195
1789494888257723400,12.584723388671875,1.8602642948031425,3.373225556498766,10.129625232058762
1789494888267768300,12.594768310546876,2.006083801579475,2.8205834906756877,10.520104559069871
1789494888277813500,12.6048134765625,2.036129980275035,2.397861936229467,10.613173303389548
1789494888287858400,12.6148583984375,1.9118302313894033,2.1240806509286165,10.478781199556588
1789494888297903400,12.6249033203125,1.6540128234177827,1.872788845333457,10.134840336358547
1789494888307949300,12.63494921875,1.2167810975819826,1.5212614725291729,9.639490183553098
1789494888317994200,12.644994140625,0.6787135005563497,1.1306126341700553,9.086488052245974
1789494888328039400,12.655039306640624,-0.051542592243291434,0.8442623746752739,8.447085986858605
1789494888338084400,12.66508447265625,-0.7697802574038505,0.8348790447801351,7.8113073726654045
1789494888348129500,12.675129638671875,-1.3492676600545643,0.9573732055485248,7.192182371631264
1789494888358174200,12.68517431640625,-1.8135662565141915,1.0096446600556372,6.572433101218938
1789494888368220400,12.695220458984375,-2.237681165014952,0.8931254820436239,5.932196923094987
1789494888378265300,12.705265380859375,-2.5519091731250283,0.6110077455520629,5.34868742532134
1789494888388310500,12.715310546875,-2.655930688613653,0.31963819659054277,4.951803491964936
1789494888398355500,12.72535546875,-2.4529367577195167,0.11385551176071167,4.673306868579983
1789494888408400400,12.735400390625,-2.033290957456827,-0.11715572234988211,4.448159558066726
1789494888418445300,12.7454453125,-1.5438047282487153,-0.4809954642385244,4.191968874514103
1789494888428490500,12.755490478515625,-1.0394652133017779,-0.9626935237884521,3.7843221396028994
