time,seconds_elapsed,z,y,x
1789482899755628800,0.05262890625,-0.14238251806497573,-0.4754372455894947,-1.0996645381987094
1789482899765677600,0.062677490234375,-0.01185293487906456,-0.0900730696350336,-0.8892147383406758
1789482899775727900,0.072727783203125,0.0015407997012138366,0.2882426491126418,-0.12133534612208605
1789482899785778000,0.08277783203125,0.09762743053734302,0.282414089089632,0.07758008328676223
1789482899795828000,0.092827880859375,-0.2437812838345766,0.3924899361811578,0.5923346092641353
1789482899805877800,0.102877685546875,-0.6023083062678575,0.08323708613514899,0.8946057837292551
1789482899815927800,0.112927734375,-0.9471773902267218,-0.2712330621227622,0.4359621442914009
1789482899825976800,0.122976806640625,-1.0974947929441927,-0.7329293671295046,-0.287846927793324
1789482899836026600,0.133026611328125,-0.9407511565715074,-0.5766016180813313,-0.6264636733591556
1789482899846076700,0.14307666015625,-0.5606184515297412,-0.29864070900827644,-0.4746320666864514
1789482899856126700,0.153126708984375,0.1266243924409151,-0.3228817085564136,-0.6793485835894942
1789482899866176800,0.1631767578125,0.7337801387399434,-0.37347704654484987,-0.46043052285462616
1789482899876225800,0.173225830078125,1.0890455290287733,-0.4017077002510428,0.13458937997072934
1789482899886275800,0.18327587890625,0.6772317375659942,-0.5901517122671007,0.5460466130807995
1789482899896326000,0.193325927734375,0.30028467682301996,-0.6264861774519086,1.1762830829769373
1789482899906375700,0.203375732421875,-0.12464753940999507,-0.7138903201386332,1.5738251879811287
1789482899916425700,0.21342578125,-0.9265379223018884,-0.9258660143896937,1.2703218413725494
1789482899926474800,0.223474853515625,-1.826653701624274,-1.1620634189665318,0.16950316470265386
1789482899936524800,0.23352490234375,-2.33983644824028,-1.3434277018547058,-0.9239423528507351
1789482899946574600,0.24357470703125,-2.393854454153776,-1.1887681782796977,-1.2539935146450996
1789482899956624600,0.253624755859375,-1.8813292946636675,1.043403721794486,-1.1772042894750834
1789482899966674700,0.2636748046875,-1.2102420512020586,2.5812740915581585,-1.2018830959185958
1789482899976724700,0.273724853515625,-2.54218974314332,0.17935995732843873,-0.299176715581119
1789482899986773800,0.283773681640625,-1.744752248007059,-1.3225275371670722,0.4517486192271113
1789482899996823800,0.29382373046875,-0.4160457299441099,-1.4028186329782009,0.8138520388424396
1789482900006873900,0.303873779296875,-0.6855062294363975,-1.175546877656877,0.6999756304241717
1789482900016924200,0.313924072265625,-2.2956442552924154,-0.19598989735096692,-0.08161912954449653
1789482900026974200,0.32397412109375,-2.818814727437496,0.008654138837754725,-0.24206717339307068
1789482900037023200,0.334023193359375,-0.9489134202390909,-1.0652084341064094,-0.4532476256132126
1789482900047073300,0.3440732421875,0.2906459108620882,-1.8317054320558905,-0.9796708159439265
1789482900057123000,0.354123046875,0.5580383719086647,-1.671603132905066,-1.01146719930768
1789482900067173000,0.364173095703125,0.23363632191717623,-0.8802905503898858,-0.8627437877833842
1789482900077223400,0.374223388671875,0.07156126138865947,-0.034602526825666426,-0.09585413725450634
1789482900087272200,0.384272216796875,0.345928822144866,0.5362561636894941,1.2218167536616324
1789482900097322200,0.394322265625,0.4056342260450124,0.8646066590458155,2.642241770479083
1789482900107372300,0.404372314453125,-0.26440555419027806,1.2496683449223638,3.851302502942085
1789482900117422300,0.41442236328125,-1.4834312158286571,1.541145445911586,4.3396684959486125
1789482900127472000,0.42447216796875,-2.460865797153115,1.265885174099356,4.842797758322954
1789482900137522200,0.434522216796875,-2.9701012674480674,0.3978668069139123,5.3756373915672295
1789482900147571200,0.4445712890625,-3.4234359868228434,-0.975096932157129,5.753981459626555
1789482900157621200,0.454621337890625,-3.7912422942548987,-2.0581059575006364,5.483019323399662
1789482900167671300,0.46467138671875,-3.8575960501283406,-2.677238849580288,5.515841396549344
1789482900177721300,0.474721435546875,-4.21381362657547,-2.6794956885963677,5.326721677228808
1789482900187771400,0.484771484375,-4.2353544272542,-1.5597366030044852,4.665212993973493
1789482900197820200,0.494820068359375,-3.2744062858283516,0.12764262957274913,4.928573423025012
1789482900207870200,0.5048701171875,-0.8885475066035985,1.3648922224268316,4.728306286746263
1789482900217920300,0.514920166015625,-0.9158294812828301,1.5747322198234497,4.779425648608804
1789482900227970300,0.52497021484375,-0.08653145150542259,0.4901429395511746,4.454662948611379
1789482900238020000,0.53502001953125,-0.11429916387498378,-0.9443998883374035,3.792994690880179
1789482900248069400,0.5450693359375,-1.0026000022411345,-2.0436469317764043,2.6427009124234315
1789482900258119400,0.555119384765625,-0.7362620186835527,-3.09497677039504,1.0471225231219083
1789482900268169200,0.565169189453125,-1.1453379096150398,-3.9010023533955214,-0.8808080714579671
1789482900278219300,0.57521923828125,-3.04825944288373,-4.150269082903861,-1.577341671669483
1789482900288269300,0.585269287109375,-4.1554350873649115,-4.233194034349918,-1.2530296380490065
1789482900298319400,0.5953193359375,-4.165225829017162,-4.363339586654305,-0.22567659508436916
1789482900308368100,0.6053681640625,-4.071036556234955,-4.331116648441553,1.1853224217399954
1789482900318418200,0.615418212890625,-4.164154984915256,-4.569011212325096,3.066237874905765
1789482900328468200,0.62546826171875,-5.229946479606628,-5.657306799769401,4.133665446366369
1789482900338518000,0.63551806640625,-4.96567127379775,-7.026649864125251,4.341291713236272
1789482900348568300,0.645568359375,-2.806239323502779,-7.246769117343425,3.848327578784525
1789482900358617300,0.655617431640625,-1.1795534829497336,-5.878470009082555,2.687446939861774
1789482900368667400,0.66566748046875,-0.1516337460130453,-4.070107750952244,1.3949410314708948
1789482900378717200,0.67571728515625,0.7661293336808681,-2.705608619496226,-0.03140460756719112
1789482900388767200,0.685767333984375,1.5811995161414145,-2.1013976944774386,-0.7954659028023481
1789482900398817300,0.6958173828125,2.2248846656754613,-1.9995190362364053,-1.0313795220017432
1789482900408866000,0.705865966796875,2.1782100082620977,-3.1517572267591953,-1.2582348054766654
1789482900418916400,0.715916259765625,1.4636445653408765,-4.979457807087898,-0.8992541940569877
1789482900428966400,0.72596630859375,0.7800280951738358,-6.307625980490446,0.342211847448349
1789482900439016400,0.736016357421875,1.176313478115201,-6.8873711572945115,1.1845014607459305
1789482900449066200,0.746066162109375,2.2802600775472817,-6.728816087585687,1.9097341358929871
1789482900459115300,0.756115234375,3.4267221688866614,-6.197436590021848,2.850564787441492
1789482900469165300,0.766165283203125,3.9180414587408303,-6.0101686360478395,3.757362236484885
1789482900479215000,0.776215087890625,4.7199967235624785,-5.528360101860761,4.649269574910402
1789482900489265200,0.78626513671875,5.43339516853094,-4.399794463348388,5.500352735516429
1789482900499315200,0.796315185546875,4.970529819744825,-3.0721897690474984,6.423979154285788
1789482900509364500,0.806364501953125,3.884478796356916,-1.3670831565998494,7.029290734022855
1789482900519414300,0.816414306640625,3.084080113327503,-0.2789169676888734,7.015566744574904
1789482900529464300,0.82646435546875,2.5821687023103235,0.006033179217018187,7.1935980836480855
1789482900539514400,0.836514404296875,3.874055602020025,0.2675802387036383,8.849391360741853
1789482900549564400,0.846564453125,5.148753466519713,0.3103024321641773,10.041349567234516
1789482900559614200,0.8566142578125,3.7462054671764373,0.17091390828341244,9.086309773069619
1789482900569663200,0.866663330078125,4.997067698058486,0.47003158715367316,10.51693528138399
1789482900579713300,0.87671337890625,5.048639479863644,1.5321554992482065,12.186431505137682
1789482900589763000,0.88676318359375,4.229675212574005,3.50710620367825,14.02109491021633
1789482900599813000,0.896813232421875,3.058672700348496,5.23850271102786,14.486114806687832
1789482900609863200,0.90686328125,1.7881493450544774,6.354570687016844,14.120234498882294
1789482900619912200,0.916912109375,0.35344562751576303,7.3785975081682205,14.106356780177354
1789482900629962200,0.926962158203125,-1.1824772614419459,8.296681490379571,14.139851053500175
1789482900640012300,0.93701220703125,-2.1485354393579064,8.794793509113788,13.849093498957156
1789482900650062300,0.947062255859375,-3.2967405749723313,8.992354893565178,13.106479480898379
1789482900660112100,0.957112060546875,-4.783906593415141,9.322988531422615,12.52051265310049
1789482900670161200,0.9671611328125,-6.1113014443576335,9.399592463153601,11.76249765229225
1789482900680211200,0.977211181640625,-7.200313655638694,9.548169744205474,10.761443125927448
1789482900690261200,0.98726123046875,-8.627901988214253,9.976206940716505,10.116040943342446
1789482900700311300,0.997311279296875,-10.02811832973957,10.526694458854198,9.522934180662036
1789482900710361300,1.007361328125,-10.549047744959593,10.520531260049342,8.588630885055661
1789482900720410400,1.017410400390625,-10.17586442066431,9.446172428020834,7.6789336229175325
1789482900730460200,1.027460205078125,-9.504359828573465,7.579100791290402,6.527927604538202
1789482900740510200,1.03751025390625,-8.715952027589083,5.386018500328063,5.019390004503727
1789482900750560300,1.047560302734375,-7.868257340377569,3.1377649417638778,2.938810057127476
1789482900760610300,1.0576103515625,-6.4759823132455345,0.5727762145742774,0.6596802987843752
1789482900770659300,1.067659423828125,-5.298914217370748,-3.567603634738922,-2.8727719430744645
1789482900780709400,1.07770947265625,-5.552255356711149,-7.598569461870193,-6.409966411024332
1789482900790759400,1.087759521484375,-2.319548862493038,-9.149817491862178,-8.100068784955143
1789482900800809200,1.097809326171875,0.9319085094243288,-8.974343436056374,-9.079716366153955
1789482900810859300,1.107859375,-1.7535297209635377,-7.792208704441785,-6.985832116046548
1789482900820908300,1.117908203125,-0.8449731532931327,-7.17527507597208,-5.555364428642392
1789482900830958300,1.127958251953125,2.599614927151799,-3.8450814364701507,-3.808573952805996
1789482900841008000,1.138008056640625,2.5196207684606313,-3.6091695708364244,-4.4337230364352465
1789482900851058200,1.14805810546875,0.5078844940774142,-4.539116424798965,-3.890503463473916
1789482900861108200,1.158108154296875,0.8987882570456713,-3.6705849935248493,-2.5751824966847896
1789482900871157200,1.1681572265625,0.9979862979006021,-3.7247269180789586,-2.8848487498372792
1789482900881207300,1.178207275390625,-0.45179216610789297,-4.123321747006476,-2.8591917460113763
1789482900891257300,1.18825732421875,-1.078556868240237,-3.98398897190094,-2.2448785291731355
1789482900901307400,1.198307373046875,0.37601412727441635,-3.6569486823603508,-1.8626473905473946
1789482900911357200,1.208357177734375,2.13636437844038,-4.006007326963544,-2.4553765520870683
1789482900921406200,1.21840625,2.6537048292577263,-5.012921100750566,-3.0800550955951214
1789482900931456300,1.228456298828125,1.721519840979576,-5.682894245490432,-3.196442756181955
1789482900941506000,1.238506103515625,0.9002209932625294,-5.242898900160193,-2.568756263029575
1789482900951556000,1.24855615234375,0.5299626165032386,-4.708775656846165,-1.925958125463128
1789482900961606100,1.258606201171875,0.7464601720929145,-4.164596298941969,-1.7900836741179227
1789482900971655400,1.268655517578125,-0.7617501687485724,-2.2834688104607164,0.3062865475863218
1789482900981705200,1.278705322265625,0.8016531400699168,-0.48218613532781596,4.272109163677692
1789482900991755300,1.28875537109375,0.6915444136220962,2.126497064420581,6.653589289426804
1789482901001805300,1.298805419921875,0.8688602979023009,6.293354294031858,10.735604920315742
1789482901011855400,1.30885546875,-0.0894094911597669,9.30679026081562,13.00724052351117
1789482901021904000,1.31890380859375,-1.641867043071985,10.169764350223542,12.898001565635203
1789482901031954200,1.3289541015625,-1.9595967756927013,8.466991879811882,10.515506709885596
1789482901042004200,1.339004150390625,-1.692968284755945,6.229692845982313,6.603771657812595
1789482901052054000,1.349053955078125,-3.0249101314783093,4.168459111849963,5.09737808406949
1789482901062104000,1.35910400390625,-3.8853064793527126,3.0787934050962327,4.326211925265193
1789482901072153000,1.369153076171875,-3.4737925476193428,3.788306825324893,4.186151128146052
1789482901082203000,1.379202880859375,-2.4100842889428136,4.951429397955536,4.332608348304033
1789482901092253000,1.3892529296875,-2.1278280207633973,4.477698956283927,2.544647657689452
1789482901102303000,1.399302978515625,-2.415602175581455,2.3368179772019384,-0.7526134340256452
1789482901112353000,1.40935302734375,-2.5700404576212166,0.3881646203279495,-3.052388505512476
1789482901122402000,1.419402099609375,-1.7625597073763608,-1.576527140416205,-5.305763644874095
1789482901132452000,1.4294521484375,-0.07006607266115024,-3.184841457976401,-7.551400883460045
1789482901142502100,1.439502197265625,1.8412796083480119,-3.1466645797953006,-8.299754321953653
1789482901152552000,1.449552001953125,1.1960557049393654,-2.0962083091408013,-8.221029160284996
1789482901162602000,1.45960205078125,0.6478659423500299,-1.020361868903041,-7.764312397256493
1789482901172651000,1.469651123046875,-0.11235274251494556,-0.0091933602809906,-7.285737438163161
1789482901182701000,1.479701171875,-0.9704641577899455,0.5607400320827961,-6.269557238858938
1789482901192750800,1.489750732421875,-0.5037316121816635,0.8148533248394727,-5.399664748364686
1789482901202801000,1.49980078125,1.1771914299935102,1.2945347838699817,-3.988943379437923
1789482901212851000,1.509850830078125,2.3751105907171963,1.8368015861511229,-1.794650543642044
1789482901222900000,1.51989990234375,3.2351059565752744,1.9189508770495651,0.20913550238907336
1789482901232950000,1.529949951171875,2.06131702850163,1.7880939616054294,1.0423656109184025
1789482901243000000,1.54,0.0266477684289217,1.6404846488028764,1.2980921840906143
1789482901253050000,1.550050048828125,0.3341560398299247,1.9492004693627356,1.2330962725669146
1789482901263100000,1.560099853515625,1.2140922968894243,1.6649913135498762,0.6048240884810686
1789482901273149000,1.57014892578125,1.5410270802289248,1.263101534730196,-0.006784545573592185
1789482901283199000,1.580198974609375,1.5337638112276792,0.6604512831568717,-0.6827186445444822
1789482901293248800,1.590248779296875,1.1238286731183529,0.13458148892521857,-1.2357996863067149
1789482901303299000,1.600299072265625,0.5755722750335931,0.0608592501103878,-1.7917045533180236
1789482901313349000,1.61034912109375,-2.7163182295590635,-0.09118599931299685,-2.0335615910917517
1789482901323398100,1.620398193359375,-4.975419929873943,0.3965998557180166,-2.059951000845432
1789482901333448000,1.630447998046875,-3.37355347327888,1.1995903088063,-1.9460171631515024
1789482901343498000,1.640498046875,-1.2461065607875585,1.3656868799358606,-1.7620909208208322
1789482901353548000,1.650548095703125,-0.5324427428811789,1.7613304578423499,-2.3467712159395218
1789482901363598000,1.66059814453125,-0.036676410490274425,2.7417981232523916,-2.9391216072946786
1789482901373646800,1.670646728515625,0.07395021148496307,3.2656296896547077,-2.8584841822639104
1789482901383697200,1.680697265625,-0.0411000721514225,3.3601322661697863,-3.0275045318856835
1789482901393747200,1.690747314453125,0.7959294286608696,4.117550470128656,-2.7515134615808723
1789482901403797000,1.700796875,1.4800094246864317,5.1432297346621745,-2.300788924704492
1789482901413847000,1.710846923828125,0.5986988835990429,5.497576841062307,-1.8894874666780233
1789482901423896000,1.72089599609375,0.896689312005043,2.5850012953877446,-1.1134914034992456
1789482901433945900,1.73094580078125,0.735448364213109,-1.469566941127181,2.810981549593806
1789482901443996000,1.740995849609375,0.4569646003097296,-5.805794648972153,5.775973511204123
1789482901454046000,1.7510458984375,3.0450036559581757,-18.614321695387364,7.803527386313676
1789482901464096000,1.761095947265625,2.035720814952254,-28.1419653689146,5.180025972139835
1789482901474145000,1.77114501953125,0.30060981712415813,-25.881401779353617,1.6832840722180902
1789482901484195000,1.781195068359375,0.03453004611134529,-15.587154140371084,-1.898171708393097
1789482901494245000,1.7912451171875,-0.530294040414691,-5.560257461380958,-2.8795494743853807
1789482901504295200,1.801295166015625,-0.2592657801490277,-0.22482933060526847,-2.073249604488164
1789482901514345000,1.811344970703125,-0.43199031805098054,2.3769132562249897,-2.0223488538123666
1789482901524394000,1.82139404296875,-0.7418225754201412,3.6887159857600924,-1.642987425404042
1789482901534444000,1.831444091796875,-0.7273761169165373,3.884195303240418,-1.0882774672657252
1789482901544493800,1.841493896484375,-0.6366910528630018,3.1662048543065784,-0.6850893191985785
1789482901554543900,1.8515439453125,-0.6417138494610786,1.548296194449067,-0.6531700401075184
1789482901564594000,1.861593994140625,-0.2178267583668232,-0.2897743887245655,-0.5371203793033957
1789482901574643000,1.871642822265625,0.25221418113708494,-1.1351590454280376,-0.16709230416864157
1789482901584693000,1.88169287109375,0.11835633031129836,-0.748624656650424,0.5988191489778458
1789482901594743000,1.891742919921875,-0.3235679372549057,-0.59351943513453,0.8892097699046134
1789482901604793000,1.90179296875,-0.7403940039217471,-0.5584475372314452,0.849265882050991
1789482901614843000,1.9118427734375,-0.8435410746634006,-0.6012526597350836,0.8518937463365495
1789482901624892000,1.921891845703125,-0.8041279326856136,-0.5365273818463087,0.7145439617417753
1789482901634942000,1.93194189453125,-0.7422095289111137,-0.18937983156144617,0.5005049052201211
1789482901644992000,1.941991943359375,-0.763221921801567,0.28693828851580616,0.3168208010822534
1789482901655042000,1.9520419921875,-0.6620248160839081,0.39833705477416514,0.29878508591502906
1789482901665091000,1.962091064453125,-0.5641921818306669,0.570814851373434,0.3372780443079769
1789482901675141000,1.97214111328125,-0.5251952559709548,0.6634475423634052,0.27662396138086914
1789482901685191000,1.98219091796875,-0.5967466170201078,0.5188128614574671,0.08015256412327289
1789482901695241000,1.992240966796875,-0.5896083991706371,0.22342004832923412,0.0031041034951806066
1789482901705291000,2.002291015625,-0.5483493370652198,0.06048690966665744,-0.0027085283063352106
1789482901715339800,2.01233984375,-0.2591303172010928,-0.1710176609188318,-0.014847878911346197
1789482901725390000,2.02239013671875,0.0022539894718676804,-0.2889619032979011,-0.0852630390048027
1789482901735440100,2.032440185546875,0.2964648993391543,-0.26104922949969767,-0.03359218073934316
1789482901745490200,2.042490234375,0.25692659661173817,-0.18741174635887145,0.0014475684598088264
1789482901755540000,2.0525400390625,-0.0792540078483522,0.07472410933375358,0.06761544637233019
1789482901765589000,2.062589111328125,-0.4617793071150779,-0.10442308202683925,0.10143179125636816
1789482901775639000,2.07263916015625,-0.816844790917635,-0.4777934533268213,-0.07364332835972309
1789482901785689000,2.082689208984375,-1.2155156076908111,-0.6933136883169412,-0.35682781729996205
1789482901795739000,2.09273876953125,-1.2912997474715113,-0.8175356957912444,-0.34740649348199365
1789482901805789000,2.102788818359375,-1.183079318988323,-0.6100953068822622,-0.21961334952265024
1789482901815838200,2.112838134765625,-1.0820049628674984,-0.389969039401412,0.150651456977427
1789482901825888000,2.122887939453125,-1.012694403015077,-0.12371873412728308,0.5293532524332404
1789482901835938000,2.13293798828125,-0.7719149313449859,0.007075637474656104,0.9570923427805303
1789482901845988000,2.142988037109375,-0.6402934612691402,0.18957330830693245,1.4086223508208988
1789482901856038100,2.1530380859375,-0.44511941034570335,0.2582318339914083,1.8426742775768041
1789482901866087000,2.1630869140625,-0.027052988228946924,0.1894102266997099,2.0699208984568713
1789482901876137000,2.173136962890625,0.3161817725263536,0.1376911453783512,2.019644709420204
1789482901886187000,2.18318701171875,0.2564778299309313,0.110969727191329,2.0489882928043603
1789482901896236800,2.19323681640625,0.07940744484439492,-0.05317161821722984,1.7044520940616725
1789482901906286000,2.2032861328125,-0.14357362754568456,-0.1832920360803604,1.1540195209816098
1789482901916336000,2.213336181640625,-0.3222068780347705,-0.18877718949317931,0.36803923940509553
1789482901926386200,2.22338623046875,-0.331561712487787,-0.0696557200282812,-0.46298020733743905
1789482901936436000,2.23343603515625,-0.28999636091217396,0.19721008679568766,-0.9972799762621521
1789482901946486000,2.243486083984375,-0.1171110064253211,0.3631546822339296,-1.3851801004350184
1789482901956535000,2.25353515625,0.011752104853093623,0.47980362410545346,-1.5800152747929095
1789482901966584800,2.263584716796875,0.01809475187808275,0.5323404515504837,-1.635265452849865
1789482901976635000,2.273634765625,-0.03114800245761871,0.5338637155950069,-1.599675376291573
1789482901986685000,2.283684814453125,-0.14191606959700584,0.5529530314683914,-1.298776951484382
1789482901996735000,2.29373486328125,-0.1251966977253556,0.5066016146600246,-0.8096443580195307
1789482902006784000,2.303783935546875,0.013350772221386432,0.46141339641213414,-0.38309097032546996
1789482902016833800,2.313833740234375,0.15082652128338814,0.457739676335454,-0.0898071121752262
1789482902026883800,2.3238837890625,0.24285949281454086,0.4609796811699867,0.07427081260830164
1789482902036933600,2.33393359375,0.24390987865030764,0.4975660752892494,0.139245096822083
1789482902046982700,2.343982666015625,0.20420126085728404,0.5092810630023479,0.0967524012684822
1789482902057032700,2.35403271484375,0.17777999466061592,0.5757002853274346,0.05210837289988994
1789482902067082800,2.364082763671875,0.07567103479504585,0.6454810930401086,0.0005859831944108009
1789482902077132800,2.3741328125,-0.053476738643646236,0.7266133158504963,-0.02703238383233547
1789482902087182800,2.384182861328125,-0.20008301188349722,0.7577467052608728,-0.110387835650146
1789482902097232000,2.39423193359375,-0.4474865778684616,0.7277151396125554,-0.25957944920808074
1789482902107281700,2.40428173828125,-0.6411597227096557,0.687428137409687,-0.3467728717535734
1789482902117331700,2.414331787109375,-0.6892535992711782,0.6430114880561828,-0.3640180210649967
1789482902127381800,2.4243818359375,-0.760312464095652,0.6608224545568228,-0.3776514096200466
1789482902137431800,2.434431884765625,-0.9747419812396169,0.6830904004663229,-0.4090113012626767
1789482902147480800,2.444480712890625,-1.253150049558282,0.638624651274085,-0.4272887162312865
1789482902157531000,2.45453076171875,-1.2714967303708196,0.6264683495342731,-0.4044286496475339
1789482902167581000,2.464580810546875,-1.0888894616842268,0.6912392201304435,-0.3429085975408554
1789482902177630700,2.474630615234375,-0.8790823436439037,0.7758668838411569,-0.3260433874577284
1789482902187679700,2.4846796875,-0.7058756482481956,0.8816770363122224,-0.39992958466261624
1789482902197729800,2.494729736328125,-0.5553147921636701,1.1179583197802305,-0.5676774301305413
1789482902207779600,2.504779541015625,-0.5811556281238794,1.3865624947041273,-0.7680176316455006
1789482902217829600,2.51482958984375,-0.7127236144468188,1.600396968564391,-0.9325894774258137
1789482902227879700,2.524879638671875,-0.8076780263826251,1.7551351103335617,-0.9068541476666927
1789482902237929000,2.534928955078125,-0.9137284173503517,1.821847762647271,-0.674729399356246
1789482902247978800,2.544978759765625,-1.003183062826097,1.7230016039699314,-0.2891255694270134
1789482902258028800,2.55502880859375,-1.1060299815773964,1.4938392125964164,0.16297347067296505
1789482902268078800,2.565078857421875,-1.1773089188933372,1.2160270643442868,0.6489151591420174
1789482902278129000,2.57512890625,-1.1344821690797806,0.9355798914134502,1.1335758678898216
1789482902288177700,2.585177734375,-0.8752411580458282,0.7660106757372618,1.5430214689165354
1789482902298227700,2.595227783203125,-0.677299249844253,0.6784522192716598,1.8554162702500818
1789482902308277800,2.60527783203125,-0.7068129290983081,0.5406102672457694,1.8608926558345555
1789482902318327600,2.61532763671875,-0.855088596855104,0.38532618203163144,1.6926856684222817
1789482902328376800,2.625376953125,-1.06369686049968,0.1722118391394615,1.4479428460791706
1789482902338427000,2.635427001953125,-1.202404781705141,-0.09977730204761028,1.0802961131229996
1789482902348476700,2.6454765625,-1.4163120285406707,-0.3949889133900404,0.4436933230653405
1789482902358526700,2.655526611328125,-1.68599347730726,-0.560270076483488,-0.25925533182024957
1789482902368576800,2.66557666015625,-1.8760440477371214,-0.4710170910596847,-0.8071627703368663
1789482902378625800,2.675625732421875,-1.9523969273164867,-0.13660101205408573,-1.088106202352047
1789482902388675600,2.685675537109375,-1.9387512638017534,0.349138431841135,-1.1704285117298363
1789482902398725600,2.6957255859375,-1.9145146481677888,0.8431815937012433,-1.1093331147760153
1789482902408775700,2.705775634765625,-1.894689419235289,1.3228566229909657,-0.794777920538187
1789482902418826000,2.715825927734375,-1.726390954147279,1.691506395509839,-0.3908522519767284
1789482902428874800,2.725874755859375,-1.37535808686167,1.9990800602972507,-0.027993337818980217
1789482902438924800,2.7359248046875,-1.1169885979652403,2.326694058072567,0.179710085940361
1789482902448974800,2.745974853515625,-1.1982245734110475,2.5022557921618223,0.21470102756172418
1789482902459024600,2.756024658203125,-1.5182912245467304,2.070481747210026,0.13599369381070137
1789482902469073700,2.76607373046875,-1.8076304367244242,0.6569570113003254,0.059846565936505794
1789482902479123700,2.776123779296875,-2.0600617677435276,-1.5818635330080986,0.33887042806595563
1789482902489173800,2.786173828125,-2.197403661292791,-4.206223609837889,1.169979598918557
1789482902499223800,2.796223876953125,-2.3109482074081895,-6.4746262224614615,2.395018529497087
1789482902509273900,2.80627392578125,-1.947152012400329,-7.928520378160476,3.277317497099936
1789482902519323000,2.816322998046875,-1.0900891928628087,-7.750542815101146,3.301584215611219
1789482902529372700,2.82637255859375,-0.3115171417161822,-5.629413999715447,1.879368223723769
1789482902539422700,2.836422607421875,-0.033098259742558,-2.7024656452953812,-0.6611787206485867
1789482902549472800,2.84647265625,0.3507210248574614,-0.23018296659290788,-2.849484883250296
1789482902559521800,2.856521728515625,1.3475325068250297,2.017882375922799,-4.124409542243183
1789482902569571800,2.86657177734375,1.8757333743527531,3.490481816613674,-4.96479390644133
1789482902579622000,2.876621826171875,1.6805109542429446,3.7855923056691885,-5.667192233967781
1789482902589672000,2.886671875,1.3863538203895092,3.2433547294825313,-6.048388768848777
1789482902599721700,2.8967216796875,1.3533669120669365,2.2817875793755054,-6.065422321236134
1789482902609770800,2.906770751953125,1.6816428808823227,1.2068781277269125,-5.486576139098405
1789482902619820800,2.91682080078125,2.3968378538787363,0.050774493947625156,-4.304096831829845
1789482902629870600,2.92687060546875,3.20838804551959,-1.1712170317590236,-2.567290574391186
1789482902639920600,2.936920654296875,3.752601305693388,-2.1937632589638234,-0.49864042652249335
1789482902649970000,2.946969970703125,3.831947814130783,-2.4487866523027417,1.4372577859356999
1789482902660019700,2.957019775390625,3.8542578456163405,-2.1420815870434042,3.2783307657957077
1789482902670069800,2.96706982421875,3.7462335242271423,-1.3704255988955496,4.3260199098244305
1789482902680119800,2.977119873046875,3.3053251557052135,-0.34093700520694253,4.6537505197167395
1789482902690169900,2.987169921875,2.635352010965347,0.4515069194257259,4.320459353087842
1789482902700218600,2.997218505859375,1.9120764612354337,1.0818705228328704,3.8559438990071415
1789482902710268700,3.0072685546875,1.620908426195383,1.4695844767838715,3.3098981627091764
1789482902720318700,3.017318603515625,1.5279717838227749,1.431043441465497,2.469252809487283
1789482902730368800,3.02736865234375,1.250524815621227,1.2290168942987918,1.5438143728598952
1789482902740417800,3.037417724609375,0.6927401262126862,0.9686112233996391,0.7298100660651922
1789482902750467800,3.0474677734375,-0.027570874623209236,0.6055266837924719,-0.06100070440769195
1789482902760518000,3.057517822265625,-0.5000058696568012,0.20362404549121854,-0.6130941964372992
1789482902770567700,3.067567626953125,-0.5033190858580172,-0.15520926641225813,-0.8822358392387628
1789482902780617700,3.07761767578125,-0.0544108046233654,-0.5586790078997612,-0.6634186085298657
1789482902790666800,3.087666748046875,0.4685352111160755,-0.8514192606925964,-0.2229655825600028
1789482902800716500,3.097716552734375,0.645826399346441,-0.9156015177458524,-0.018361293859779835
1789482902810766600,3.1077666015625,0.47387642601355906,-0.6705716951549053,0.02279606143683195
1789482902820816600,3.117816650390625,0.06217573953643441,-0.25677052926719185,0.11727233446687459
1789482902830866000,3.127865966796875,-0.2249707118373364,0.16877134329676627,0.22546996659636495
1789482902840915700,3.137915771484375,-0.2836695690434426,0.5128443084418773,0.36288171051144597
1789482902850965800,3.1479658203125,-0.33354565284661947,0.5984440320551395,0.3553784952744841
1789482902861015800,3.158015869140625,-0.09074227413348854,0.6148749423742293,0.3575345042645931
1789482902871064600,3.168064697265625,0.2516938835900277,0.6130003806740045,0.35972353874146934
1789482902881114600,3.178114501953125,0.4127870934743434,0.5690607011824846,0.37485768724828955
1789482902891164700,3.18816455078125,0.42340544505715366,0.45474049451947207,0.5711123730152845
1789482902901214700,3.198214599609375,0.15755195708088576,0.4843038581341505,0.7087588024690746
1789482902911264800,3.2082646484375,-0.20515790399499237,0.5672019215732813,0.8179688265115023
1789482902921313800,3.218313720703125,-0.4572819956958294,0.5995481939047574,0.8634095582157373
1789482902931363800,3.22836376953125,-0.5927823164990171,0.6478332091242075,0.8717083077445625
1789482902941413600,3.23841357421875,-0.5983726838519796,0.6512561693102121,0.9136334325432777
1789482902951463700,3.248463623046875,-0.651886868429184,0.4925146371185779,0.8628110078006982
1789482902961512700,3.2585126953125,-0.7588941217303276,0.31941900088191033,0.7390601249694824
1789482902971562800,3.268562744140625,-0.8027168968439101,0.17148644747436045,0.5477846889197826
1789482902981612800,3.27861279296875,-0.8465490243077277,0.05964928979873657,0.27738310918509956
1789482902991662800,3.288662841796875,-0.882554403668642,0.04325286627113819,-0.050237026070058345
1789482903001713000,3.298712890625,-0.875540140992403,0.104699560880661,-0.3484861054122448
1789482903011761700,3.30876171875,-0.8353484158575535,0.18239362593591213,-0.6256897663772106
1789482903021812000,3.31881201171875,-0.830983206385374,0.14716916781961917,-0.859213860091567
1789482903031862000,3.328862060546875,-0.8808207117438316,0.09673837274312973,-1.0645520160242914
1789482903041912000,3.338912109375,-0.9093255062162876,0.09661445410251616,-0.9854518835633993
1789482903051960800,3.3489609375,-0.9040198010236025,0.13728431814312933,-0.7926865012168883
1789482903062011000,3.359010986328125,-0.8242343166470527,0.21976386390924452,-0.5296130724132061
1789482903072061200,3.369061279296875,-0.7183002455353736,0.2859089454680681,-0.14438304423242806
1789482903082111200,3.379111328125,-0.6722650550693273,0.35988603582680223,0.18476386219859123
1789482903092160000,3.389159912109375,-0.6905646818697452,0.5192126744300126,0.5193751715153455
1789482903102210000,3.3992099609375,-0.7752461215943097,0.7367845812529326,0.8652791514798999
1789482903112260000,3.409260009765625,-0.8579787653386592,0.9373796343117952,1.235176878233254
1789482903122310000,3.419309814453125,-0.9199205499887466,1.0790133798360824,1.667634229274094
1789482903132359000,3.42935888671875,-0.8568430393069982,1.0481921251147985,2.086845145250857
1789482903142409000,3.439408935546875,-0.7777011135309935,0.8408142800480127,2.4746476542681455
1789482903152459000,3.449458984375,-0.6986456969946623,0.5869558388352394,2.8007643992230293
1789482903162509000,3.459509033203125,-0.820401679681614,0.544667433682084,3.101352442906797
1789482903172559000,3.46955908203125,-1.0258546211004256,0.6807318546414375,3.2974136519283053
1789482903182608000,3.47960791015625,-1.1431564739227293,0.8828115933001041,3.3598172088712452
1789482903192658000,3.489657958984375,-1.0872614951562136,1.1136392875373362,3.4612039919421074
1789482903202708000,3.4997080078125,-1.015126306337118,1.1554729346603154,3.622414252334833
1789482903212758000,3.509758056640625,-1.0173965893566608,0.9309861338824034,3.7788553986296054
1789482903222807000,3.51980712890625,-1.1051111862320453,0.48762978768646714,3.7577643875449893
1789482903232857000,3.529857177734375,-1.291459029686451,-0.048238837990164755,3.349280617287755
1789482903242907100,3.5399072265625,-1.6466751740060745,-0.5375596475034952,2.6679513812750577
1789482903252957200,3.549957275390625,-2.347712880703807,-1.030111694023013,1.8842866831645368
1789482903263006000,3.560005859375,-3.033454672461748,-1.4773077645123005,1.3822227119341493
1789482903273056000,3.570055908203125,-3.3908114820718764,-2.0040315452247857,1.4093269919589162
1789482903283106000,3.58010595703125,-3.297252323886752,-2.214585097718239,1.951419314455986
1789482903293155800,3.59015576171875,-2.8747809448093173,-2.2048522237330674,2.509037999647856
1789482903303206000,3.600205810546875,-2.088739142303914,-2.050898510339856,2.849753178797662
1789482903313255200,3.610255126953125,-1.5592193011321127,-1.65314130128026,2.7410034657433626
1789482903323305000,3.620304931640625,-1.3074492105007172,-1.2780167797893285,2.5408450505360958
1789482903333355000,3.63035498046875,-1.0390326671034098,-1.088982400664687,2.567771928167343
1789482903343405000,3.640405029296875,-0.6320160467892885,-1.1080962664574383,2.6405866967484353
1789482903353454000,3.6504541015625,-0.24248013810813426,-1.3286316992610692,2.2908403621420264
1789482903363503900,3.66050390625,-0.15148169725649058,-1.7553817785710095,1.153976266361773
1789482903373554000,3.670553955078125,-0.40937743116132913,-2.1480518936246633,-0.275604993596673
1789482903383604000,3.68060400390625,-1.0238438657999038,-2.116276699179411,-1.1483490741297602
1789482903393653000,3.690653076171875,-1.2772820357739925,-1.6781097383201122,-1.5085928373530506
1789482903403703000,3.700703125,-1.2610019321024417,-1.2442436895251274,-1.9550681923523545
1789482903413753000,3.710753173828125,-1.0164099164068698,-0.9142758221000432,-2.249336677625775
1789482903423803100,3.72080322265625,-0.6250374399483204,-0.5955453880041838,-2.2149287965893745
1789482903433852000,3.730851806640625,0.011766425639390945,-0.15362696565687656,-1.9712121024236082
1789482903443902000,3.74090185546875,0.9057679598651825,0.11763093864619731,-1.8938655356317757
1789482903453952000,3.750951904296875,1.9103497835732994,0.06306172859072685,-1.8898501625105737
1789482903464001800,3.761001708984375,2.6490777539789674,-0.3220499339073896,-2.068276638381183
1789482903474051800,3.7710517578125,2.838444141536951,-0.9359715210795402,-2.3159078756421803
1789482903484101000,3.78110107421875,2.64373873103857,-1.4255086036920546,-2.487663787707686
1789482903494151200,3.791151123046875,2.426021862787008,-1.714056080970168,-2.6775784567981957
1789482903504201000,3.801200927734375,2.455231590658426,-1.7908412144869565,-2.5085280042991043
1789482903514251000,3.8112509765625,2.0599979087270794,-1.739655217128992,-1.8752905990213156
1789482903524300000,3.821300048828125,1.5494110238231718,-1.5280097777456045,-0.9924725759804248
1789482903534349800,3.831349853515625,1.685793570820987,-1.392491884753108,-0.7499523981228471
1789482903544400000,3.84139990234375,1.6034344365641473,-1.182624560958147,-0.43738311700522897
1789482903554450000,3.851449951171875,1.628267849047482,-0.8615396726906299,0.17630904532521963
1789482903564499000,3.8614990234375,1.1141267787933349,-0.39009237352013587,1.006260278314352
1789482903574549000,3.871549072265625,-0.43882659381181,-0.01829553514719009,2.29654003508836
1789482903584599000,3.88159912109375,-1.0159227174118162,0.062379591545462604,3.6817318259611724
1789482903594649000,3.891649169921875,0.03663052552193403,-0.19985504834651946,4.034722841577231
1789482903604697900,3.90169775390625,1.0493342808872461,-0.2830424501210451,3.9047809951514005
1789482903614748000,3.911747802734375,0.9245423645704984,-0.23497195443511007,2.6733316130086777
1789482903624798000,3.9217978515625,1.0816051498949526,-0.29018121595978735,1.1267933681428433
1789482903634848000,3.931847900390625,1.6709417463868856,-0.31681203325390817,0.10268120679557323
1789482903644898000,3.94189794921875,2.1107252025321124,0.015790274327993393,-0.4208037381261587
1789482903654947000,3.951947021484375,2.4964772087603806,0.43269232884049413,-0.7480150003194809
1789482903664997000,3.9619970703125,2.6645950565844774,0.7907078946202993,-1.204484218327701
1789482903675047000,3.972046875,2.841330802889168,0.9821703776746987,-1.5518077097013592
1789482903685097000,3.982096923828125,3.143106302791834,1.0960217977821827,-1.600311336107552
1789482903695146000,3.99214599609375,3.476998065662384,1.2337339859485625,-1.592604999513924
1789482903705195800,4.00219580078125,3.677411916935444,1.4880729041546583,-1.6065701042413711
1789482903715246000,4.01224609375,3.5709669736921783,1.7209148608237503,-1.7172811804965138
1789482903725296000,4.022296142578125,3.4039521186739203,1.9707073677718638,-1.9066642269283531
1789482903735345000,4.032344970703125,3.2809625756040215,2.2836633101195094,-2.117855492803454
1789482903745395000,4.04239501953125,3.004654694435,2.7237930954843756,-2.427116380025446
1789482903755445000,4.052445068359375,2.607237092593312,3.16004750072062,-2.7254838250502944
1789482903765495000,4.0624951171875,2.1424521739214657,3.2906554098397494,-3.13736922044456
1789482903775543800,4.072543701171875,1.7067948577955365,3.0351094539314505,-3.4517855907335875
1789482903785594000,4.082593994140625,1.2470321511998772,2.5951906809687615,-3.5217367865771054
1789482903795644200,4.09264404296875,0.8533741941526531,2.003786630553007,-3.3560452891170978
1789482903805694200,4.102694091796875,0.6655746175199747,1.4510931268036364,-2.8946807002827524
1789482903815743000,4.112742919921875,0.20719927362948654,0.9468103104799985,-2.4211966345876452
1789482903825793000,4.12279296875,-0.42380087411552664,0.54126200915277,-1.9362272982820867
1789482903835843000,4.132843017578125,-1.1309870204403996,0.2971680061072111,-1.451416951930523
1789482903845892900,4.142892822265625,-1.8312278776720166,0.1824941637009382,-1.0153305967375637
1789482903855942000,4.15294189453125,-2.546531279478967,0.12919804232120513,-0.556875757870078
1789482903865992200,4.1629921875,-3.1596956185430285,0.1169300969004631,0.04312544049918651
1789482903876042000,4.1730419921875,-3.6269057185351845,-0.08514496558308601,0.8405024376198649
1789482903886092000,4.183092041015625,-3.9508430736243723,-0.5200473716884851,1.828990912400186
1789482903896141000,4.19314111328125,-4.355410254959762,-1.084735849136114,2.789620489396155
1789482903906191000,4.203191162109375,-4.864323069171607,-1.6648323235958813,3.616363573993742
1789482903916241000,4.213240966796875,-5.3056385571897025,-2.431962358751893,4.110483892743289
1789482903926291000,4.223291015625,-5.708219825404882,-3.3638989252269265,4.603619876630604
1789482903936341000,4.233341064453125,-5.1966497746825215,-4.286270960021019,5.131521176689863
1789482903946390000,4.24339013671875,-3.4037390604451296,-4.574440836158394,5.205281409427523
1789482903956440000,4.253440185546875,-2.078345612452924,-3.4741695642381902,4.409608878137171
1789482903966490000,4.263489990234375,-1.9194190790832042,-0.68546414386034,2.1436185873523352
1789482903976539000,4.273538818359375,-2.13360426607728,2.293776707854867,-0.17352233721613883
1789482903986589000,4.2835888671875,-2.0211706038132307,4.220239275708795,-1.864506170156598
1789482903996639000,4.293638916015625,-1.8281886561065912,5.360761309474706,-3.033825551600754
1789482904006689000,4.30368896484375,-1.9948302938982843,5.574734315022826,-3.537551026302576
1789482904016738800,4.31373876953125,-1.8842685629859566,4.123481613743305,-3.5929552258774637
1789482904026788000,4.3237880859375,-0.001452244634926319,1.0093062218815088,-3.2693060400798917
1789482904036838000,4.333837890625,1.9418088978067038,-2.6604782689154147,-2.226602283248305
1789482904046888000,4.343887939453125,1.4321759526267648,-5.724820247071981,-1.0105410243734716
1789482904056938000,4.35393798828125,0.16028730032891034,-7.952077779358625,0.013743570931255817
1789482904066986800,4.36398681640625,-0.4421399561434984,-8.962856411880255,1.8315698229774833
1789482904077036800,4.374036865234375,0.47549452873468395,-8.277604449465871,2.9379724372595546
1789482904087086800,4.3840869140625,0.7704439820095896,-5.172561043086648,1.907311584921181
1789482904097137000,4.394136962890625,0.9902487624511123,-1.4174953931063412,-0.12077829676121472
1789482904107186000,4.40418603515625,2.769599153369665,1.00061321233809,-1.6411895822018383
1789482904117236000,4.414236083984375,4.086354244615137,1.9538842432647943,-2.4822376710057257
1789482904127286000,4.4242861328125,3.761151399634778,1.8401468049257992,-2.692278013280034
1789482904137335800,4.434335693359375,3.1764719812989233,1.6394932996779679,-2.627381178216636
1789482904147384800,4.444384765625,2.838936308968067,1.2795657627969979,-2.8088965600132942
1789482904157435000,4.454434814453125,2.5249241355657577,0.5802507882386445,-2.899982021561265
1789482904167485000,4.46448486328125,2.396456891737133,-0.07836509618461132,-2.955878096306324
1789482904177534700,4.47453466796875,2.39631309935227,-0.5195125341594219,-3.374832699434459
1789482904187584000,4.484583984375,2.224509987144172,-0.6717816554665565,-3.511923833093047
1789482904197634000,4.494634033203125,2.2399371272481976,-0.4849602762162685,-3.4574110293999314
1789482904207683800,4.504683837890625,2.3962498248577115,-0.3197410724431276,-2.860671463175118
1789482904217734000,4.51473388671875,2.6464354227766393,-0.3694382925480604,-1.674562859493494
1789482904227783000,4.524782958984375,3.2908170301422475,-0.4979530287802219,-0.1583785440981388
1789482904237832700,4.534832763671875,4.277873426292836,-0.5952104569613933,1.484307706402242
1789482904247882800,4.5448828125,4.9847874776780605,-0.5301835657775402,2.6131033542782065
1789482904257932800,4.554932861328125,5.0470682850241655,-0.3046200756788254,3.2369068685173987
1789482904267981800,4.56498193359375,4.589207612657547,-0.08526596161425114,3.7997961875885724
1789482904278032000,4.575031982421875,3.5388486648976802,0.1805073737978935,3.970274627064168
1789482904288082000,4.58508203125,1.6319056210279463,0.5057265853911638,3.5595769801497457
1789482904298132000,4.595132080078125,-0.7558475936412811,0.8462485800564289,2.3814903548821804
1789482904308180700,4.6051806640625,-2.4492810116909443,1.095662901341915,1.2862325272098183
1789482904318230800,4.615230712890625,-3.4160967299759384,0.9696434890568256,-0.05977905365824699
1789482904328280800,4.62528076171875,-3.108716541934013,0.43526597872078415,-1.182341067841649
1789482904338331000,4.635330810546875,-1.6846107907772063,-0.057924950224161144,-1.647130370427668
1789482904348380000,4.6453798828125,-0.143380735322088,-0.5014554839432239,-1.4805363711699842
1789482904358430000,4.655429931640625,1.0112265224196015,-0.7519546778559685,-1.2154834589868784
1789482904368480000,4.66547998046875,1.62124978697896,-0.6885767229229212,-1.1137494699135422
1789482904378529800,4.67552978515625,1.6116367399811744,-0.3998971436977386,-1.079237836241722
1789482904388578800,4.685578857421875,1.2685047089479864,0.084195702034235,-1.0016676898270844
1789482904398628900,4.69562890625,1.0561702643871307,0.49800388218462466,-0.9534449261888861
1789482904408678700,4.7056787109375,0.8220446976482868,0.7063280681908131,-0.9399173360958695
1789482904418728700,4.715728759765625,0.5699895064651965,0.8415899405956268,-0.6852379338890314
1789482904428778000,4.725778076171875,0.17117606635093688,0.8727654155820608,-0.24431319875419139
1789482904438828000,4.735828125,-0.09422953172735869,0.8228864091694355,0.2885653051957488
1789482904448877800,4.7458779296875,-0.3053647565662861,0.8096668621122837,0.9061267101749777
1789482904458927900,4.755927978515625,-0.3347124316036701,0.8960404927074909,1.3632044154703615
1789482904468977000,4.765976806640625,-0.20393972384426742,0.9947165555149317,1.6104524986326694
1789482904479026700,4.776026611328125,-0.2182920377910137,1.0190203911662101,1.699471675300598
1789482904489076700,4.78607666015625,-0.5836345854580403,1.0310329005211591,1.5715475984379648
1789482904499126800,4.796126708984375,-1.2608043637037276,1.142761921647191,1.3237585402667522
1789482904509175800,4.80617578125,-1.8984487717688083,1.2377180871486664,1.0323495360776782
1789482904519225900,4.816225830078125,-2.300193589159846,1.191971650496125,0.7550535206541419
1789482904529276000,4.82627587890625,-2.3880384613513943,1.0623106668382882,0.568328879776597
1789482904539326000,4.836325927734375,-2.1109125417977572,0.8945341797977685,0.4569517408281564
1789482904549374700,4.846374755859375,-1.6214450172901154,0.7126514259934424,0.35146102956980463
1789482904559424800,4.8564248046875,-1.1112795726686715,0.5582043761253357,0.2516124158516526
1789482904569474800,4.866474853515625,-0.6776561004579067,0.40804245623052116,0.22804537004232406
1789482904579525000,4.876525146484375,-0.39461891103386876,0.27311025417149065,0.2455418637663126
1789482904589574000,4.886573974609375,-0.32930439854767174,0.22717852407991884,0.28329993201345205
1789482904599624000,4.8966240234375,-0.4014811980187893,0.2181172657459974,0.3484785066276789
1789482904609674000,4.906674072265625,-0.6028812107849866,0.2513099257737398,0.46932490018904205
1789482904619722800,4.91672265625,-0.8547136260628699,0.3009714900434017,0.7382306884080171
1789482904629772800,4.926772705078125,-1.0068220038503408,0.33260172306001184,1.1705758112460374
1789482904639822800,4.93682275390625,-1.1885809120792894,0.45772389424443244,1.7336027852222322
1789482904649873000,4.946872802734375,-1.3666443267911672,0.6627829409748316,2.28898742775172
1789482904659922000,4.956921875,-1.4542565592706203,0.893735138374567,2.798866748908162
1789482904669972000,4.966971923828125,-1.370979141125083,1.0976982065618037,3.2926500907883045
1789482904680021800,4.977021728515625,-1.1187030737329273,1.147200780877471,3.6925580481410023
1789482904690071800,4.98707177734375,-0.7576100002039223,0.9827245044261217,4.036798186546564
1789482904700120800,4.997120849609375,-0.5445895461402833,0.6600830343663692,4.153967645160853
1789482904710171000,5.0071708984375,-0.5982108808863907,0.266624983805418,3.8203088142633437
1789482904720221000,5.017220947265625,-1.0086797605462372,-0.13420856395959854,3.0287597926437853
1789482904730271000,5.02727099609375,-1.9136966097831725,-0.4992606042474508,2.076383664730191
1789482904740320000,5.037320068359375,-3.0817063699334857,-1.0947504626721143,1.2641674103960394
1789482904750369800,5.047369873046875,-3.788630650451779,-2.120019392839074,1.1905834110081195
1789482904760419800,5.057419921875,-3.4201761082440614,-3.1568899134725332,2.0824352198541165
1789482904770470000,5.067469970703125,-2.3946930969350038,-3.786542153739929,3.201125945562124
1789482904780518700,5.0775185546875,-1.5350146880716085,-3.730563661408424,3.5397254477322098
1789482904790568700,5.087568603515625,-1.1707464916378258,-3.0737229699641464,3.2716821215614673
1789482904800619000,5.097618896484375,-1.1184699225641785,-2.2379367472112177,2.895783400827646
1789482904810669000,5.1076689453125,-1.0213936231035738,-1.6843769820213317,2.7649016432031988
1789482904820717800,5.1177177734375,-1.0934324388761072,-1.5211948370337485,2.8122549305304885
1789482904830767900,5.127767822265625,-1.2387569286771118,-1.6489882732540369,2.4363737454533574
1789482904840818000,5.13781787109375,-1.268847384905815,-1.8040496556282042,1.4762000955313443
1789482904850868000,5.147867919921875,-0.9895962168265133,-1.9491075303822756,0.2678659237772226
1789482904860916700,5.157916748046875,-0.5890905493089929,-1.9414462019741534,-0.7023442592516541
1789482904870966800,5.167966796875,-0.5436749155133962,-1.8058827162742614,-1.3928022658765316
1789482904881017000,5.17801708984375,-0.8945780189394951,-1.5997230148255823,-2.0270704755067825
1789482904891067000,5.18806689453125,-1.4221400040417909,-1.3063029630750418,-2.552914843036234
1789482904901116000,5.198115966796875,-1.2366343835651874,-0.9586392799615859,-2.713802155084908
1789482904911166000,5.208166015625,-0.3873579435875639,-0.6429319930791855,-2.4716113553121684
1789482904921215700,5.2182158203125,0.5435564037002623,-0.3725333359539509,-2.365638413494825
1789482904931264800,5.2282646484375,1.1793570105295628,-0.30489538548886774,-2.4292200743064285
1789482904941314800,5.238314697265625,1.8673884475946425,-0.5744260276079177,-2.5846122960701585
1789482904951365000,5.248365234375,2.4366696596600113,-1.093794184860587,-2.879705541729927
1789482904961415000,5.258414794921875,2.6836720974981785,-1.2955647114396094,-3.0306299704298376
1789482904971464000,5.2684638671875,2.539418232603371,-1.229583296009898,-3.22832550265491
1789482904981514000,5.278513916015625,2.3564031137682497,-1.2627291942864656,-2.718872882477939
1789482904991563800,5.288563720703125,2.1489935583889483,-1.096375433525443,-1.5075409902125596
1789482905001613800,5.29861376953125,1.4228732867524028,-1.1695318551510572,-0.3993865638270974
1789482905011662800,5.308662841796875,0.650792789582163,-1.5147159964084624,-0.014132277987897394
1789482905021712600,5.318712646484375,0.33577684596478935,-1.5032459233671427,0.705641839492321
1789482905031762700,5.3287626953125,0.39375264959335327,-1.3507348099976777,1.7201085128769278
1789482905041812700,5.338812744140625,0.045509705287218094,-0.9599246435970067,3.1271237207621336
1789482905051861500,5.348861572265625,0.37184593821167944,-0.19023674065172672,4.371934981042147
1789482905061911600,5.35891162109375,1.2258046542540193,0.15048925215303896,4.591258699968457
1789482905071961600,5.368961669921875,1.943899732606113,0.11782967608869076,4.571197908714414
1789482905082011400,5.379011474609375,2.044826204688847,-0.17249883938729763,3.403292777982354
1789482905092060700,5.389060791015625,2.215268988329172,-0.5418710809618235,1.2519152470663188
1789482905102110700,5.39911083984375,2.3173656732350585,-0.26656594709455966,-0.17450550303459167
1789482905112160500,5.409160400390625,2.58885154107511,-0.07024199548363685,-1.0285849228471518
1789482905122209500,5.41920947265625,2.8129949352428314,0.1962491328090429,-1.4667428236171602
1789482905132259600,5.429259521484375,2.8574510398238897,0.5974684650212526,-1.6952727623060344
1789482905142309600,5.4393095703125,3.013064503122866,1.024198086065054,-1.9348755914121865
1789482905152359400,5.449359375,3.034282939979434,1.4441174425721168,-2.2254580816492435
1789482905162408700,5.45940869140625,3.1270044782966373,1.6709388237774372,-2.5124337795659897
1789482905172458800,5.469458740234375,3.2655256447583434,1.9097610238999128,-2.7498572188064454
1789482905182508500,5.479508544921875,3.3381454752892252,2.080817263263464,-2.9186978279471396
1789482905192558600,5.48955859375,3.4136855771809813,2.227652669084072,-2.9377842212110754
1789482905202607600,5.499607666015625,3.463733802680671,2.5375118144601583,-2.9772368184164164
1789482905212657400,5.509657470703125,3.3385955571442842,3.0202889014184473,-3.167480281069875
1789482905222707500,5.51970751953125,3.0152251882880923,3.715513976314664,-3.508596149975061
1789482905232757500,5.529757568359375,2.6365356677919625,4.0655911503106354,-3.8223733455777165
1789482905242806500,5.539806640625,2.320076685759425,3.950889835375547,-3.8920653059631585
1789482905252856600,5.549856689453125,1.9642343723654745,3.5136084251791235,-3.6928149455115196
1789482905262906600,5.55990673828125,1.3278256435751914,2.8499072003155943,-3.320441768555343
1789482905272955600,5.56995556640625,0.5265571919739246,2.0521949798911807,-2.844411233247816
1789482905283005400,5.58000537109375,-0.35650603799968955,1.2030185296893119,-2.2450281667768954
1789482905293055500,5.590055419921875,-1.2850137990698218,0.20152327381968496,-1.473280116431415
1789482905303105500,5.60010546875,-2.240325395913422,-0.9211924696207046,-0.22775398588031529
1789482905313154600,5.610154541015625,-3.0639559014484283,-1.9838731388151645,1.445624047742784
1789482905323204600,5.62020458984375,-3.785014505781233,-2.9230437481969593,3.019168957477808
1789482905333254700,5.630254638671875,-4.789831015028059,-3.680337448993325,4.1309179012238975
1789482905343304700,5.6403046875,-6.526136629468202,-3.8351656071335074,4.156661122028529
1789482905353353500,5.650353515625,-8.415144203674792,-3.1238954063653943,3.503298335827887
1789482905363403500,5.660403564453125,-8.85624429537654,-3.1170512395590544,2.9830145250350237
1789482905373453600,5.67045361328125,-6.660420012229681,-4.2808623789757485,2.6485551914095877
1789482905383502600,5.680502685546875,-2.9840739709600803,-5.021881821319461,2.4592712214380503
1789482905393552600,5.690552734375,-0.619334844392538,-3.8766526327759023,2.3231772821232677
1789482905403602700,5.700602783203125,-0.976028513918817,-0.9168640850275754,1.5147662652909755
1789482905413652700,5.71065283203125,-1.9054025364294647,1.8704776457816361,0.04211626345664263
1789482905423701500,5.720701416015625,-1.7311296731069683,3.8083722927540538,-0.9353536814421415
1789482905433751600,5.73075146484375,-0.7735384408935904,5.227330159628391,-1.5263520736664533
1789482905443801600,5.740801513671875,-0.35629064168334007,6.166447577518224,-1.9103604510977863
1789482905453851400,5.750851318359375,-0.8084612857148051,6.183033970659971,-2.1631670451700686
1789482905463900700,5.760900634765625,-0.47136634288877244,4.857699559378624,-2.296053712876141
1789482905473950700,5.77095068359375,1.780726355446875,2.4148592482596634,-2.3257822039246556
1789482905484000500,5.78100048828125,2.5229905371546746,-1.133416585674882,-2.3039941504865884
1789482905494050600,5.791050537109375,0.22607757710069418,-4.732797752946615,-2.0582251999661327
1789482905504099600,5.801099609375,-1.9410408360436557,-7.632690927180647,-0.3522808215200901
1789482905514149600,5.811149658203125,-1.5854083660081029,-10.749714109688997,2.900039012445509
1789482905524199400,5.821199462890625,0.9916364174172282,-12.868443462717533,5.142533569091558
1789482905534248700,5.831248779296875,1.1153586586758493,-10.976499250537156,5.037626502940058
1789482905544298800,5.841298828125,1.5146356246486306,-4.894106505277753,2.7960309409603474
1789482905554348500,5.8513486328125,4.360684980492294,-0.05843114618062973,-0.25759470513164995
1789482905564398600,5.861398681640625,4.660944522874057,1.4349521393418312,-2.726694954405725
1789482905574447600,5.871447509765625,2.7531343407809734,2.3927269114285705,-3.7844822986006736
1789482905584497400,5.881497314453125,1.5979919532492757,3.2703894514024254,-4.393536571997404
1789482905594547500,5.89154736328125,1.4194760455295443,3.260663007158041,-4.918203420180082
1789482905604597500,5.901597412109375,2.4166484697639943,2.8288573980242013,-4.771162554915249
1789482905614646500,5.911646484375,3.5504482095375653,2.2663462646156547,-4.354089527750015
1789482905624696600,5.921696533203125,3.8687840913578864,1.5226754309803248,-4.055644049052894
1789482905634746600,5.93174658203125,4.0844098325490945,0.7503039880394935,-3.762132519626617
1789482905644796700,5.941796630859375,4.582056571859121,0.0543541060000658,-3.1221926941007374
1789482905654845400,5.951845458984375,5.378700286269187,-0.4010059817224741,-2.1165710059508682
1789482905664895500,5.9618955078125,5.436060588347911,-0.8071972571283579,-1.0200094022035597
1789482905674945500,5.971945556640625,4.828457098281383,-1.2543781300485133,0.3023573914438486
1789482905684994600,5.98199462890625,4.452288036173582,-1.3467010244369506,1.1719041372403503
1789482905695044600,5.992044677734375,4.493752557723224,-1.1372510492712258,2.0633254457145926
1789482905705094700,6.0020947265625,4.541038917294144,-0.8562532567203044,3.4067312279984354
1789482905715144700,6.012144775390625,3.9799046251967547,-0.38056817384958264,4.069714075459539
1789482905725193500,6.022193359375,2.0726443320713934,0.21055296797156334,3.7935654765054583
1789482905735243500,6.032243408203125,-1.3538028192661702,0.7618389430105685,2.8080267914414403
1789482905745293600,6.04229345703125,-4.599450774252414,1.2047130586475132,1.7998674015074967
1789482905755342600,6.052342529296875,-6.3544695647299285,1.1872405303210019,0.6000152268946171
1789482905765392600,6.062392578125,-5.819903253823519,0.6476186895906925,-0.45081513776928184
1789482905775442700,6.072442626953125,-3.4216301064446566,-0.10264555096030235,-1.0321344320222734
1789482905785492700,6.08249267578125,-0.5635867998160422,-0.7330623458594083,-0.8755039006352424
1789482905795541500,6.09254150390625,1.3838228406071662,-1.04662268384099,-0.7167009936451911
1789482905805591600,6.102591552734375,1.8105892865300177,-0.7644727986454963,-0.6464978688672185
1789482905815641600,6.1126416015625,1.8461667958676813,0.02959609684050083,-0.37608401417285203
1789482905825691400,6.12269140625,1.9150034545980392,0.6558844136327505,-0.3865086698144674
1789482905835740700,6.13274072265625,2.0666250717818735,1.1449860274374484,-0.09219839122593403
1789482905845790700,6.142790771484375,2.2508839070677755,1.4381354455530642,0.29226182162612674
1789482905855840500,6.152840576171875,2.2201099986195563,1.4899480503767728,0.7795067016482353
1789482905865889500,6.1628896484375,1.8819722687423228,1.517314780730009,1.3926327545285224
1789482905875939600,6.172939697265625,1.3111983339011668,1.563171692019701,1.8365183852955698
1789482905885989400,6.1829892578125,0.5691348623972385,1.4669833543747663,2.152093570230901
1789482905896039400,6.193039306640625,-0.2690729614794254,1.349327865809202,2.168688146679103
1789482905906088700,6.203088623046875,-1.3186264380753039,1.0938134740829468,1.877434625312686
1789482905916138800,6.213138671875,-2.1846073080837725,0.8453706281781196,1.365900522686541
1789482905926188500,6.2231884765625,-2.632547474938631,0.6799024180799722,0.7770800590232014
1789482905936238600,6.233238525390625,-2.593473355656862,0.5749632032245398,0.2691168006211519
1789482905946287600,6.24328759765625,-2.3535621912539004,0.45402328616082666,0.003975333371758461
1789482905956337400,6.25333740234375,-2.125142727202177,0.34813246966898437,-0.18251988266408442
1789482905966387500,6.263387451171875,-1.9379963537812233,0.28455227016210555,-0.2520733113616705
1789482905976436700,6.273436767578125,-1.6136621083289384,0.3385807974696159,-0.22956045078039167
1789482905986486500,6.283486572265625,-1.117989299440384,0.412175610512495,-0.2406961773008108
1789482905996536600,6.29353662109375,-0.6303168416559696,0.4551245254009962,-0.2778165321663022
1789482906006586600,6.303586669921875,-0.29198859417531636,0.41713995492160316,-0.4254179539233446
1789482906016635600,6.3136357421875,-0.16463409736156462,0.32439152859747405,-0.5092606047362089
1789482906026686000,6.32368603515625,-0.21180212778244167,0.2562777773141861,-0.46959202669262884
1789482906036735700,6.33373583984375,-0.3641664896249771,0.18469255052804945,-0.30096389125883577
1789482906046784800,6.34378466796875,-0.5531816525924951,0.213037770524621,0.10662176111489534
1789482906056834800,6.353834716796875,-0.7875871322512626,0.36708383837640285,0.6720622259736061
1789482906066885000,6.363885009765625,-1.0863766020804644,0.5236158778250217,1.3731252132430671
1789482906076935000,6.373934814453125,-1.3807137686759232,0.7027917107582092,2.1760832253664733
1789482906086984000,6.38398388671875,-1.6368138513356447,0.9166320298373699,2.9500653183743357
1789482906097034000,6.394033935546875,-1.8203607389599084,1.1782944227993488,3.7245375329867003
1789482906107083800,6.404083740234375,-1.768228985184431,1.383715288579464,4.436125421401858
1789482906117133800,6.4141337890625,-1.4425199442476033,1.4782996981590986,4.957357034438848
1789482906127182800,6.424182861328125,-1.1862668629832565,1.4642021992236376,5.14060932303071
1789482906137233000,6.43423291015625,-1.1594156078714877,1.107725679579377,4.954524441361427
1789482906147283000,6.444282958984375,-1.4462071083277463,0.38546997441649433,4.216477292826771
1789482906157332000,6.45433203125,-2.0841379321187734,-0.5558487529098988,3.388728830578923
1789482906167381800,6.4643818359375,-2.9842274079561233,-1.6481079832881689,2.9870360356360672
1789482906177431800,6.474431884765625,-3.3165859699100255,-2.8582430669844148,3.2650556891590354
1789482906187481900,6.48448193359375,-2.6992005060195923,-3.6754409091234206,3.8360257310941814
1789482906197531000,6.49453076171875,-1.9395761703185737,-3.887081087809801,3.9257024948880073
1789482906207581000,6.504580810546875,-1.563869026634097,-3.4225486825942992,3.4762563073843715
1789482906217631000,6.514630859375,-1.4989777445286512,-2.6438556354165077,2.897745640811324
1789482906227680000,6.524679931640625,-1.344654028779268,-2.219567562305927,2.4036387660652396
1789482906237729800,6.534729736328125,-0.9126490976810455,-2.0748791053861377,2.147389045801759
1789482906247779800,6.54477978515625,-0.45320437099337574,-2.1187691005170346,2.040226894199848
1789482906257830000,6.554829833984375,-0.22469956674575806,-2.3069296194165942,1.6188517859265208
1789482906267878700,6.564878662109375,-0.12448270423710346,-2.579493345621228,0.5266057072907686
1789482906277928700,6.5749287109375,-0.15419212525896728,-2.733298590454459,-0.7664388380214572
1789482906287979000,6.58497900390625,-0.7227490416377782,-2.6981922057598826,-1.4687173385605214
1789482906298029000,6.595029052734375,-1.5211919144243,-2.739292862433195,-2.135359585312009
1789482906308077800,6.605077880859375,-1.8913059142768383,-2.6220330951869486,-2.811487161028385
1789482906318127900,6.6151279296875,-1.465965701764822,-2.101248056873679,-3.0591961397007106
1789482906328178000,6.625177978515625,-0.19669987225122748,-1.5366197851806878,-2.9370848407700656
1789482906338226700,6.635226806640625,1.068746764300391,-1.070871574434638,-2.750206762896478
1789482906348276700,6.64527685546875,2.049033300989866,-0.8672060278892516,-2.6654873292490837
1789482906358326800,6.655326904296875,2.798289825803041,-0.9181780902355908,-2.9451331226691604
1789482906368377000,6.665377197265625,2.957222496652603,-0.7557645915329456,-3.269364784529805
1789482906378425900,6.67542578125,3.0320518199265,-0.8393412848860025,-3.503243975292146
1789482906388476000,6.685475830078125,2.6167373268663883,-1.0225848056495188,-3.3247707376703617
1789482906398526000,6.69552587890625,2.185177947578579,-0.9524778347223997,-2.5556784625306723
1789482906408574700,6.70557470703125,2.201523371571302,-0.7792471739292144,-1.5057389092266558
1789482906418624800,6.715624755859375,1.5758227915391325,-0.6824626239567995,-0.5648515590548515
1789482906428674800,6.7256748046875,1.0090032934121786,-0.7401309690713882,-0.09769289698898792
1789482906438725000,6.73572509765625,1.4544117498323321,-0.5220680638611317,0.6989084395840763
1789482906448774000,6.74577392578125,1.4276482460692523,-0.22518588895797728,1.7628364784911275
1789482906458824000,6.755823974609375,0.7124500582024454,-0.0756862323641777,2.879387854082882
1789482906468874000,6.7658740234375,0.8496563426733017,0.2115694515377283,4.0689255554303525
1789482906478922800,6.7759228515625,1.4578209737539292,0.2094037979364395,4.580370226207375
1789482906488972800,6.785972900390625,2.145377413718402,-0.18328034564256668,4.348944566076994
1789482906499022800,6.79602294921875,2.400773439761996,-0.5806354036420583,2.935686664409935
1789482906509073000,6.806072998046875,2.298070021134615,-0.8732926543265581,0.7510176892668008
1789482906519122000,6.816121826171875,2.139305692589283,-0.626966362184286,-0.41405104899555445
1789482906529172000,6.826171875,2.374579260319471,-0.2600380066305399,-0.9731649411812424
1789482906539221800,6.8362216796875,2.6029057853907345,0.3279290550738573,-1.3446835471346974
1789482906549270800,6.846270751953125,2.7642604226902128,0.9231307442069053,-1.8019228727325796
1789482906559320800,6.85632080078125,2.721278190053999,1.303424777290225,-2.3327952975571153
1789482906569371000,6.866370849609375,2.8507687855809927,1.5235118818044662,-2.7479586917087433
1789482906579421000,6.8764208984375,3.0048309277847407,1.864099927443266,-2.875104185414314
1789482906589470000,6.886469970703125,3.155388861259818,2.2289660897701977,-2.860778722941875
1789482906599520000,6.89652001953125,3.2932068478882313,2.476577161026001,-2.7899788013145326
1789482906609569800,6.90656982421875,3.3503649053931235,2.732397842222452,-2.7855557241752744
1789482906619618800,6.916618896484375,3.2586715410798788,3.282442292767763,-2.9381568539157508
1789482906629668900,6.9266689453125,3.070926617243886,3.6835651788681743,-3.236966489750147
1789482906639718700,6.93671875,2.851249262574315,3.8797862546265125,-3.4728491292893886
1789482906649768700,6.946768798828125,2.585288003374636,3.758849260172248,-3.5514445270985364
1789482906659818000,6.95681787109375,2.2390090526178477,3.3586832364052532,-3.4560894254073498
1789482906669868000,6.966867919921875,1.7824264373630285,2.7995740203946826,-3.195730808520317
1789482906679917800,6.976917724609375,1.1388497166395186,2.127067557784915,-2.8732918752953407
1789482906689966800,6.986966796875,0.32307840017229317,1.431237502732873,-2.519988724990189
1789482906700017000,6.997016845703125,-0.6578469458773731,0.747815093833208,-2.1037629623040557
1789482906710066700,7.007066650390625,-1.6328861564978956,0.022046412113308905,-1.3559613124743104
1789482906720116700,7.01711669921875,-2.774524334812164,-0.8505278648108243,-0.2556608144596219
1789482906730166000,7.027166015625,-4.22799617344588,-1.7966548692017792,1.2288269246846437
1789482906740215800,7.0372158203125,-5.68804329881668,-2.7347622332662342,3.049001493422687
1789482906750265900,7.047265869140625,-6.986253556329012,-3.617528233858943,4.679143319648504
1789482906760315000,7.05731494140625,-7.843065615975856,-4.210501141026616,5.417441228073835
1789482906770364700,7.06736474609375,-7.786725889116525,-4.298358872699738,5.0574581616133445
1789482906780414700,7.077414794921875,-6.187096397793293,-4.905574824753403,4.181075140056014
1789482906790464800,7.08746484375,-3.2866657556816934,-6.0318409541517495,3.220614782147109
1789482906800514000,7.09751416015625,-0.5339975711077452,-5.508644763043523,2.288500228756666
1789482906810563800,7.107563720703125,-0.037946576556563374,-2.5983628812640904,1.1510191701218486
1789482906820614000,7.11761376953125,-1.0797364334136248,0.7579372593969106,-0.4836565001413226
1789482906830663000,7.127662841796875,-1.618730205373466,3.116320002675056,-2.221532140377164
1789482906840712700,7.137712646484375,-1.447740893766284,4.991175132888555,-3.2059447440207003
1789482906850762800,7.1477626953125,-1.101767063435912,6.048289984649419,-3.7109824703648684
1789482906860812800,7.157812744140625,-0.8949176261574029,6.330719271308183,-3.917610958369076
1789482906870861800,7.16786181640625,-1.155349016019702,5.652969062826037,-3.673923490297794
1789482906880912000,7.177911865234375,-0.600132715794444,3.9200253260344264,-3.2544510007753966
1789482906890962000,7.1879619140625,1.5692092186182736,2.3832956507384777,-2.6743369906589387
1789482906901011000,7.198010986328125,3.26021701695621,0.6060089143514633,-2.8282743374392387
1789482906911060700,7.208060791015625,1.2488877159386873,-2.5079677400678393,-3.6587159842938184
1789482906921110800,7.21811083984375,-2.591174431064725,-6.011763796284795,-2.5732448066204783
1789482906931160000,7.22816015625,-3.0386361667528745,-8.883916146156192,1.13212391551584
1789482906941209900,7.2382099609375,-0.4451692408367991,-11.6334211905241,5.178388141804933
1789482906951260000,7.248260009765625,1.3015119294062256,-13.125032205677032,7.015758467754721
1789482906961310000,7.25831005859375,1.350691555377841,-10.635068324333428,6.357666314944624
1789482906971358700,7.268358642578125,3.097088355721533,-4.44718165294528,3.4282498168453572
1789482906981408800,7.27840869140625,4.157012419684231,0.17050678878724573,-0.15105828421264886
1789482906991458800,7.288458740234375,3.886347805099189,2.4301018255770206,-2.8147803573548793
1789482907001508000,7.298508056640625,3.183104258920252,3.098927553847432,-4.962173494809866
1789482907011558000,7.308557861328125,1.7917492692425847,2.893521885636449,-6.281392053559422
1789482907021608200,7.318608154296875,1.0453682998657226,2.3997388360172507,-6.363585768121481
1789482907031658000,7.328657958984375,1.3562272699341178,1.9722037438094615,-5.8183817433446645
1789482907041707000,7.33870703125,2.129493615888059,1.530961028766632,-5.164642525047063
1789482907051757000,7.348757080078125,3.2798508149698375,0.7271119130223989,-4.4030137176558375
1789482907061807000,7.35880712890625,4.508490984910726,-0.7922568776279687,-3.336706382396817
1789482907071856000,7.368856201171875,4.657201244692504,-2.006699303129315,-2.4389731142967936
1789482907081906200,7.37890625,4.450176450847089,-2.3197435082823037,-1.2425766330957413
1789482907091956200,7.388956298828125,4.5127588714882725,-1.9040403081655501,0.0371872826218605
1789482907102006000,7.399006103515625,4.594960477095842,-1.312443950048089,1.0900278180643916
1789482907112055000,7.409054931640625,4.961937347966432,-0.9558633855074643,1.5342761446639894
1789482907122105000,7.41910498046875,4.756088612163067,-0.49196927819550035,2.329855444712937
1789482907132155000,7.42915478515625,4.069949053259194,-0.03404489294290542,3.032967765727639
1789482907142204200,7.4392041015625,3.2719127154469487,0.48267011945247645,3.6285341965198517
1789482907152254200,7.449254150390625,1.999862442846596,1.1006085410505533,3.8210178393155334
1789482907162304300,7.45930419921875,0.8859235878407955,1.5396920322328804,3.6172736745759844
1789482907172353000,7.46935302734375,-0.41545010213851924,1.6884581138551233,2.994246697667241
1789482907182403000,7.479403076171875,-1.7226221031330524,1.5911030705183744,2.0152298155874013
1789482907192453000,7.489453125,-2.5410394040644166,1.2804542360693216,1.2465052047163248
1789482907202503000,7.4995029296875,-2.671903333771229,0.5019125800609588,0.2360717323705554
1789482907212552200,7.50955224609375,-2.2017815841160715,-0.28756314241588116,-0.7267787355452775
1789482907222602200,7.519602294921875,-1.1253506950538605,-0.6060334642708302,-0.9374754959017038
1789482907232652000,7.529652099609375,0.03757175189480185,-0.6455898141115903,-0.6444523345142602
1789482907242701000,7.539701171875,0.9943618968583643,-0.794721806436777,-0.5644616829544306
1789482907252751000,7.549751220703125,1.5244003550767897,-0.7911533003002404,-0.6078437285631895
1789482907262801000,7.55980078125,1.448315478783846,-0.5663461815267801,-0.7794058716222644
1789482907272850000,7.569849853515625,1.1369720861993728,-0.23006781578063965,-1.0125070637494324
1789482907282900000,7.57989990234375,1.0539456471402198,0.10760638823807239,-1.1547793994382023
1789482907292950300,7.5899501953125,1.0387176828701048,0.2714332608699798,-0.9905649887934327
1789482907303000000,7.6,1.1577462133545429,0.45022447839975355,-0.6325009076967835
1789482907313049000,7.610049072265625,1.0748983457326888,0.5055523978680372,-0.2679965644195676
1789482907323099100,7.62009912109375,0.7591899628717452,0.47458092102110383,0.027380758878588676
1789482907333149000,7.63014892578125,0.13236856211610137,0.5091156433075666,0.2963742253810167
1789482907343198000,7.640197998046875,-0.639074148607254,0.6705711106330156,0.49741263829320664
1789482907353248000,7.650248046875,-1.2908546340525149,0.8529302497774363,0.7247346624970435
1789482907363298000,7.660298095703125,-1.8382570456564424,0.9727344408094882,0.9416890219435096
1789482907373347000,7.67034716796875,-2.1366566393852233,1.0029133059740065,1.062471410357952
1789482907383397000,7.680397216796875,-2.129807211881876,1.0276263069480658,1.0068120669782161
1789482907393447200,7.690447265625,-1.9095768995046614,1.0628998649030923,0.9268237535059451
1789482907403497000,7.7004970703125,-1.5961866573929786,0.9637684595435857,0.7615557421550154
1789482907413546000,7.7105458984375,-1.2949790205061436,0.7642629552870989,0.5537392134100199
1789482907423596000,7.720595947265625,-1.0410381617069244,0.580654692864418,0.37536885164082046
1789482907433646000,7.73064599609375,-0.894080006289482,0.5282411995381117,0.2044526052698493
1789482907443695000,7.740695068359375,-0.7381681445658207,0.5759498761743307,0.016692776125669478
1789482907453745200,7.7507451171875,-0.5412000498324633,0.555122776722908,-0.19027882622778414
1789482907463795000,7.760794921875,-0.33323183765709397,0.43014498244524,-0.38425504566878077
1789482907473844000,7.770843994140625,-0.24778233616948125,0.3299795578628778,-0.5024164379298687
1789482907483894000,7.78089404296875,-0.2818698992103338,0.31023791556060315,-0.463010017953813
1789482907493943800,7.79094384765625,-0.4242670303225517,0.37751404697597024,-0.2761281406879425
1789482907503994000,7.800994140625,-0.6711877812266349,0.522809822139144,0.10151333205997944
1789482907514043100,7.811043212890625,-0.8259078028172254,0.6722282301902771,0.6218865747019648
1789482907524093200,7.82109326171875,-0.8719622825056313,0.8310790679752826,1.207052315250039
1789482907534143000,7.83114306640625,-0.8668611599743365,0.9957581735223531,1.798197422468662
1789482907544192000,7.84119189453125,-0.8245756774306296,1.2024947980761527,2.4331810868918895
1789482907554242000,7.851241943359375,-0.7160048280745744,1.3848539372205733,3.091174455502629
1789482907564291800,7.861291748046875,-0.5280646008621901,1.44853116736114,3.738175305455923
1789482907574341000,7.871341064453125,-0.3420465008188039,1.3093693649083376,4.4218540272042155
1789482907584391200,7.88139111328125,-0.23187581505067645,0.8690683146297932,4.8978585512876505
1789482907594441000,7.89144091796875,-0.3408300377011299,0.1338870769202709,4.77304354635626
1789482907604491000,7.901490966796875,-0.718749158346653,-0.5842173537820577,4.131954843056202
1789482907614540000,7.9115400390625,-1.6458062822170554,-1.0475661021709441,3.270563931186497
1789482907624590000,7.921590087890625,-3.265556039896607,-1.2633055328696965,2.3519801827594637
1789482907634640000,7.931639892578125,-5.215474302139878,-1.4086375483900309,1.342923551724851
1789482907644689200,7.941689208984375,-6.752127405068278,-1.3796546150118112,0.5839674706742167
1789482907654739200,7.9517392578125,-6.834574802130461,-1.2690776865303515,0.4856137716889381
1789482907664789000,7.9617890625,-4.961633396583795,-1.2653519440054892,1.3397840846553444
1789482907674838000,7.971838134765625,-2.0680331850141287,-1.4338397941857575,2.9719714452341197
1789482907684888000,7.98188818359375,-0.5570844321846962,-1.7188672806441783,4.3072012275859715
1789482907694937900,7.991937744140625,-0.017130071564391253,-1.7488941701173781,4.673436632439494
1789482907704988000,8.00198779296875,0.09127711166255176,-1.4784645333319901,4.616053534007072
1789482907715037200,8.012037109375,-0.0989039532791823,-1.0074269840061665,4.33249232070893
1789482907725087200,8.022087158203124,-0.44329621350653464,-0.9641752867788076,3.924688349409401
1789482907735137000,8.032136962890625,-0.9989823962658643,-1.3349427821040152,3.3889868969932198
1789482907745186000,8.04218603515625,-1.359147249034047,-1.6718775659322738,2.28747643866688
1789482907755236000,8.052236083984376,-1.1121715530723333,-1.8582126229703426,0.9126225019350648
1789482907765286000,8.062285888671875,-0.6682774467378855,-1.8766110339701174,-0.2954991961121559
1789482907775335200,8.072335205078126,-0.3885743701726198,-1.8837603212028742,-1.1638733909979462
1789482907785385200,8.08238525390625,-0.533143584626913,-1.885963384205103,-1.8532354190796612
1789482907795435000,8.09243505859375,-0.6703285340487957,-1.9059768291860817,-2.414582184883952
1789482907805485000,8.102485107421876,-0.2432150282539427,-2.2548376131296157,-2.709385799947381
1789482907815534000,8.1125341796875,0.40964338862113653,-2.75256267837286,-2.8626661441236734
1789482907825583900,8.122583984375,1.1912471356138585,-3.272900557440519,-3.323233737361431
1789482907835634000,8.132634033203125,1.7767583285987376,-3.4655823531568046,-4.052279248794913
1789482907845683200,8.14268310546875,2.1166519622325897,-3.1239550275981425,-4.357666509453952
1789482907855733200,8.152733154296875,2.5067513500154015,-2.0383903264224528,-3.926206937278807
1789482907865783000,8.162782958984375,2.3187575659848747,-0.8283668864071368,-3.556700255669653
1789482907875832000,8.17283203125,2.3675182358920575,-0.08107318609952927,-1.9885984137713908
1789482907885882000,8.182882080078125,2.902687773388624,0.39515199499726295,-0.7797317425757646
1789482907895932000,8.192931884765626,2.6207600065112113,-0.013711714488267898,-0.3537976558238268
1789482907905981200,8.202981201171875,2.1500819381475447,-0.39121699363589285,0.2368880171895027
1789482907916031200,8.21303125,1.7352420768618582,-0.2178355261951685,1.5254586319580674
1789482907926081000,8.2230810546875,1.1071779825687407,0.393245869114995,2.8963176538348194
1789482907936131000,8.233131103515625,-0.08180413072258233,0.6141711780190467,4.573290789340436
1789482907946180000,8.24318017578125,-0.5926920443996787,0.9414934993714094,6.24161592348814
1789482907956230100,8.253230224609375,0.35351182461977004,0.6971557506978512,6.646828709250689
1789482907966280000,8.263280029296874,1.7020222365662454,0.0866875188499689,5.46157789144218
1789482907976329200,8.2733291015625,2.584760764630139,-0.47605274713933465,2.7343443001151084
1789482907986379300,8.283379150390624,2.626280815759301,-0.7581915264189243,0.1291316990867257
1789482907996429000,8.293428955078125,2.804812213309109,-0.5337380433887243,-1.1230036204710603
1789482908006478000,8.30347802734375,3.1922236771821972,-0.3705284258723259,-1.7962649931013583
1789482908016528100,8.313528076171876,3.573692599263787,0.006468319231271743,-2.15500507376343
1789482908026577700,8.32357763671875,3.5463662009209393,0.4616711705654859,-2.3098799936547874
1789482908036627700,8.333627685546874,3.6303619964689013,0.6243430279433727,-2.686488908484578
1789482908046677000,8.343677001953125,3.6232302448928353,0.6482230852246285,-2.921859799109399
1789482908056726800,8.353726806640625,3.7475808471828698,0.8622931214064359,-3.0487077711731194
1789482908066776800,8.36377685546875,3.7162270930200814,1.1132365519553422,-2.802076650865376
1789482908076825900,8.373825927734375,3.9754403392642734,1.3268489074975252,-2.379482522191107
1789482908086876000,8.3838759765625,4.048259784020483,1.7910557340204714,-2.000804984393716
1789482908096925700,8.39392578125,3.961785907921195,2.2364713508337735,-2.0398300038367507
1789482908106974700,8.403974609375,3.745656016600132,2.624065477797389,-2.4553636926054954
1789482908117025000,8.41402490234375,3.3936779774188994,2.950715598976612,-2.9011262231603263
1789482908127074800,8.42407470703125,2.923905625723302,3.0085242293447254,-3.221443634186685
1789482908137123800,8.434123779296876,2.410772271206975,2.754022229531407,-3.454046521402895
1789482908147174000,8.444173828125,1.9098603926211595,2.313797751620412,-3.5077582378461956
1789482908157223700,8.4542236328125,1.3287997493043542,1.7248481086194514,-3.399076037070155
1789482908167273700,8.464273681640625,0.6746423055946826,0.9655664488762616,-3.070449939642846
1789482908177322800,8.47432275390625,-0.11824877828359603,0.1396522163182497,-2.6291777062445876
1789482908187372800,8.484372802734375,-1.0434653888538479,-0.640709640854597,-2.05952605343163
1789482908197422800,8.4944228515625,-1.9027493915721774,-1.2203110252737999,-1.3249790219724178
1789482908207471900,8.504471923828126,-2.5267533968195317,-1.5143278738737105,-0.5055822084844112
1789482908217522000,8.51452197265625,-2.9868247309729457,-1.561962900751829,0.3446031264990568
1789482908227571700,8.52457177734375,-3.44627939453274,-1.3763017974525689,1.2131199447259307
1789482908237620700,8.534620849609375,-3.7165009415253993,-1.0716524956792592,2.132673122707009
1789482908247670800,8.5446708984375,-3.6129917594730854,-0.8270411907613276,2.794614644421637
1789482908257720800,8.554720947265626,-3.3430803013429045,-0.6627806028872728,2.9574767636746166
1789482908267771000,8.56477099609375,-3.2569428175911304,-0.6593611498326063,2.70054724445343
1789482908277820000,8.57481982421875,-3.4157550769314167,-0.9621294601649045,2.334293719421327
1789482908287869700,8.58486962890625,-3.7044971999987957,-1.7586463333249092,1.8522686198741196
1789482908297919700,8.594919677734374,-3.9610046944156285,-2.664617852938175,1.6755355039179325
1789482908307968800,8.60496875,-3.6491876929700373,-3.2626427827984092,2.044773597718775
1789482908318018800,8.615018798828125,-2.82923207655549,-2.746525151774287,2.5769170653924345
1789482908328068600,8.625068603515626,-2.3679998819291592,-1.0662065052330494,2.6517110250920055
1789482908338118000,8.635117919921875,-2.2711939969077704,1.20261170245409,1.5555150397866964
1789482908348168000,8.64516796875,-2.1658906249150633,3.155619747406244,0.2236556106507778
1789482908358217700,8.6552177734375,-2.1642808516308665,4.547466319993138,-0.8796046139523387
1789482908368267800,8.665267822265625,-2.5956112444683908,5.548351919531822,-1.391372525334358
1789482908378316800,8.67531689453125,-3.0515926789596675,5.771923359030485,-1.3732248742252589
1789482908388366600,8.68536669921875,-1.632340505313873,4.366393129006028,-1.2753341165766119
1789482908398416600,8.695416748046876,0.9983473132327199,1.387528709387779,-1.106817624823749
1789482908408466000,8.7054658203125,1.8757851045399903,-2.5123598375469443,-1.0464356368362904
1789482908418515700,8.715515625,1.401665663550794,-6.214450268664955,-1.0015402640551327
1789482908428565800,8.725565673828125,0.935466494166851,-9.31303646172881,0.43357320332825183
1789482908438614800,8.73561474609375,1.5200214093402027,-11.86503682026863,2.9275141716092823
1789482908448664800,8.745664794921876,0.8650304374158382,-11.811169621002673,3.561021626000106
1789482908458714600,8.755714599609375,-1.1864131395861506,-7.8959099019348615,1.450262228937447
1789482908468764000,8.765763916015626,0.4260544982612133,-2.2793407707452773,-0.7992655873462557
1789482908478814000,8.77581396484375,3.2530303203225133,1.7937614858478306,-2.1083651954025027
1789482908488863700,8.78586376953125,3.930952085979283,3.551989301499724,-3.5421304630473256
1789482908498913800,8.795913818359375,3.260981863848865,3.4817823773294685,-5.115871187615395
1789482908508962800,8.805962890625,2.565379187811911,3.568752220252156,-5.529843033894896
1789482908519012600,8.8160126953125,2.662061446453631,3.4863995157361027,-5.315531005650758
1789482908529062700,8.826062744140625,3.094237057943642,2.6692975351870056,-4.518185572712123
1789482908539112000,8.83611181640625,3.73695014757514,1.3559803094357252,-3.4618487195864316
1789482908549162000,8.846161865234375,4.135763587689399,-0.08724924438595771,-2.536524264727533
1789482908559211800,8.856211669921874,4.575268811415135,-1.3246382457107304,-1.5414400449439882
1789482908569260800,8.8662607421875,4.865228493578732,-2.1850047829687593,-0.48170448929071424
1789482908579310800,8.876310791015625,4.544223977071047,-2.230750635099411,0.3571004967615008
1789482908589360600,8.886360595703126,4.10687417781353,-1.8498568825572728,1.0726084812298415
1789482908599410700,8.89641064453125,3.7266497028350827,-1.4609545956045389,2.0501929924190043
1789482908609460000,8.9064599609375,3.1619656093016264,-0.90682199896276,2.8762404959678647
1789482908619509800,8.916509765625,2.5039938680008054,-0.1840022301763296,3.3711019884735345
1789482908629559800,8.926559814453125,1.662722930226475,0.6407961500942707,3.4198823859944936
1789482908639608800,8.93660888671875,0.3020705373264849,1.3601374291151762,2.9247034981027245
1789482908649658600,8.94665869140625,-1.1252117980398237,1.7184201213985681,2.0603589971244336
1789482908659708700,8.956708740234374,-1.9492635977268218,1.4922405452281235,0.9891559987783431
1789482908669758000,8.966758056640625,-1.896823947045952,1.1116273631930351,0.33368542664349077
1789482908679808000,8.97680810546875,-1.6762790157616136,0.492253355833888,-0.34351854613274335
1789482908689857800,8.98685791015625,-1.0350057496748863,-0.2105804405003786,-0.7921013948053122
1789482908699906800,8.99690673828125,-0.49497342844754455,-0.6503992602199316,-1.0102204141169786
1789482908709956900,9.006956787109376,0.06841229583844542,-0.8251280506163835,-1.1136699749365448
1789482908720006700,9.017006591796875,0.5531295570790767,-0.8144616951733827,-1.235480537354946
1789482908730056700,9.027056640625,0.5978806260187178,-0.5078168356686831,-1.236883097629249
1789482908740106000,9.03710595703125,0.5406945845283567,-0.1277086805462837,-1.274412617817521
1789482908750155800,9.04715576171875,0.5022821440257131,0.26311902151107786,-1.15206984821856
1789482908760205800,9.057205810546876,0.5425766719479114,0.5191793566823005,-0.9449012619882822
1789482908770254800,9.0672548828125,0.5967547637939453,0.6593775164455175,-0.7000789446681738
1789482908780305000,9.077304931640626,0.5115186127960681,0.7331646371901035,-0.35934330725222824
1789482908790354700,9.087354736328125,0.3476970008611679,0.7162386368304491,0.08121317909210919
1789482908800404700,9.09740478515625,0.1822949148017913,0.6787643539607524,0.49757951929271216
1789482908810454000,9.1074541015625,-0.03866378491520881,0.6568126343935727,0.8880269898608326
1789482908820503800,9.11750390625,-0.2844411379378289,0.6626315498054027,1.1553177440986035
1789482908830553900,9.127553955078126,-0.533738627910614,0.74495795083642,1.32641110060215
1789482908840603000,9.137602783203125,-0.7445218975067138,0.9245885417997837,1.3580895566746591
1789482908850652700,9.147652587890626,-0.8794821566164494,1.1669085209101437,1.3243600132912396
1789482908860702700,9.15770263671875,-0.8135551017224788,1.3061428040772676,1.1641618525505064
1789482908870751700,9.167751708984374,-0.6002069866070523,1.3694967936128377,0.9695955582618713
1789482908880801800,9.1778017578125,-0.49317631589770317,1.361279000365734,0.716596948748827
1789482908890851800,9.187851806640625,-0.4434603910923004,1.1824001045525074,0.43654929652959107
1789482908900902000,9.19790185546875,-0.46216158443093297,0.9192454272061585,0.22778233519196509
1789482908910951000,9.207950927734375,-0.5717255364775657,0.6220154617786408,-0.0018739771783351897
1789482908921000700,9.218000732421874,-0.6773731918632984,0.3633341304540634,-0.2038274591088295
1789482908931050800,9.22805078125,-0.7469745513558387,0.12673428255617616,-0.3635954117387533
1789482908941099800,9.238099853515624,-0.8492997843205928,0.02002104376554489,-0.4612538219362497
1789482908951149800,9.24814990234375,-0.8783616281539202,0.004188099339604377,-0.5169456062808633
1789482908961199900,9.258199951171875,-0.8736281698912381,-0.017868834167718887,-0.5604182527825236
1789482908971249000,9.268248779296876,-0.821231043177843,0.030648820763826367,-0.4920628016978502
1789482908981298700,9.278298583984375,-0.8503191904962062,0.12296294732391834,-0.32011779680103064
1789482908991348700,9.2883486328125,-0.9887894304882734,0.29164602781534193,-0.005216857865452766
1789482909001398800,9.298398681640625,-1.055326799300313,0.3242465671688318,0.5847238419994711
1789482909011447800,9.30844775390625,-0.9884778803210705,0.22906243813037871,1.4659028656616806
1789482909021497600,9.31849755859375,-0.9304979850392788,0.21838030059635638,2.6004326732754706
1789482909031548000,9.3285478515625,-0.9671084176212549,0.3932441155493259,3.6856048680022355
1789482909041596700,9.3385966796875,-1.0515373438894748,0.7146808859944344,4.590313820333779
1789482909051646700,9.348646728515625,-1.056248005798459,1.0230331339389085,5.1877065897703165
1789482909061696800,9.35869677734375,-1.0881833592414856,1.2703922762602566,5.5754199591994285
1789482909071745800,9.368745849609375,-1.3242472005665302,1.2066016488730906,5.6726306256294246
1789482909081795600,9.378795654296875,-1.7195489792980252,0.8485223702073097,5.384952916923165
1789482909091845600,9.388845703125,-2.225066159722209,0.2597621122986078,4.643676284947991
1789482909101896000,9.39889599609375,-3.13416136431396,-0.26640111192166804,3.6513036622107027
1789482909111944700,9.40894482421875,-4.413435450688004,-0.7182195815145969,2.4208774856358763
1789482909121994800,9.418994873046875,-5.092673267379403,-1.2408680756121873,1.517833251646161
1789482909132044800,9.429044921875,-4.346641549831628,-1.833203853920102,1.777160479658842
1789482909142093600,9.439093505859375,-2.9395734427154063,-2.2232190705507993,2.915972494636476
1789482909152143600,9.4491435546875,-1.6986346399545669,-2.1515806522727012,4.107296494878828
1789482909162193700,9.459193603515626,-0.8712970965951681,-1.6011790588527917,4.3526299765914676
1789482909172242700,9.46924267578125,-0.6650345192939042,-0.8542501002043486,3.8832922169208524
1789482909182292700,9.479292724609374,-0.8606408241547644,-0.4741150570750236,3.6125405085742472
1789482909192342800,9.4893427734375,-0.8920728311855346,-0.6510282057732343,3.3764529941126704
1789482909202392800,9.499392822265625,-0.633638168098405,-1.097666057857871,2.5148604221910236
1789482909212441600,9.509441650390626,-0.27542320728898045,-1.6448001739144325,1.0914897073104977
1789482909222491600,9.51949169921875,0.034573885253071784,-2.008415459397435,0.034519232456386086
1789482909232541700,9.529541748046874,-0.16135792523510753,-2.214617830944061,-0.8901511424079537
1789482909242590700,9.5395908203125,-0.6095622594514861,-2.255819609904289,-1.6571540440529584
1789482909252640800,9.549640869140624,-1.1503332336843013,-2.281532727831602,-2.3052786373391747
1789482909262690800,9.55969091796875,-1.4650363119602203,-2.288724100640416,-2.6330872809037564
1789482909272739600,9.569739501953125,-0.8690811741113662,-2.226792837384343,-2.542796476864815
1789482909282789600,9.57978955078125,0.3704663934867829,-2.2111188829123973,-2.6258102756381034
1789482909292839700,9.589839599609375,1.1452210783023387,-2.3565502671539784,-2.862782463979721
1789482909302889700,9.5998896484375,1.3540192384958267,-2.632248784253001,-3.089037443473935
1789482909312938800,9.609938720703125,1.9168005671478807,-3.241309487390518,-3.384334687273204
1789482909322988800,9.61998876953125,2.2102795094788075,-3.783543556445837,-3.914475582952797
1789482909333038800,9.630038818359376,2.695638429623842,-3.587911678752303,-4.112404339411855
1789482909343087600,9.640087646484375,2.994561754965782,-2.9132302101910112,-3.3454803482219573
1789482909353137700,9.6501376953125,3.122524994795024,-1.7374644290864467,-1.7142472196280956
1789482909363187700,9.660187744140625,3.2108760629430413,-0.6707359458059072,-0.7346539989650249
1789482909373237800,9.67023779296875,2.5568305551752446,-0.36462007861137385,-0.3945648427590728
1789482909383286800,9.680286865234375,1.8380349273383616,-0.17285364417433738,0.027140520381927487
1789482909393336800,9.6903369140625,1.0868635088145733,-0.004288052582740783,0.7096081127747893
1789482909403387000,9.700386962890626,0.3853726515218615,0.22642449084222316,1.8983923654064534
1789482909413435600,9.710435546875,-0.3830541454464197,0.5519570061683654,4.1213320344939826
1789482909423485700,9.720485595703124,-0.25843437082618476,0.7239981649160385,5.991919862651825
1789482909433535700,9.73053564453125,0.8719485462412238,-0.06449322269856929,5.838191774708032
1789482909443584800,9.740584716796874,1.5051692926451563,-0.9833628023296594,4.400632667738199
1789482909453634800,9.750634765625,1.8005723349064588,-1.824606121444702,1.6618799035310745
1789482909463684900,9.760684814453125,2.0026307385161517,-1.787341681933403,-0.14669658187180756
1789482909473735000,9.77073486328125,2.730491716340184,-1.1213222432553767,-0.9161126821383834
1789482909483783700,9.78078369140625,3.3907536144047974,-0.09799509480595588,-1.5881690628930925
1789482909493833700,9.790833740234374,3.5259646334052084,0.7382879715532064,-2.045395236748457
1789482909503883800,9.8008837890625,3.7183845633149146,1.0470166515946389,-2.925791585600376
1789482909513932800,9.810932861328125,3.907017960423231,1.2778858468860388,-3.4783713998422026
1789482909523982800,9.82098291015625,3.897560688509047,1.4811720387250185,-3.5904546412333844
1789482909534033000,9.831032958984375,3.9147675516366958,1.7007418413668869,-3.6796482976853846
1789482909544082700,9.841082763671874,3.7296041687265036,1.8981354680359361,-3.6885835915520784
1789482909554131700,9.851131591796875,3.668627721977234,2.1774697112888095,-3.6038586049467325
1789482909564181800,9.861181640625,3.5887370236605403,2.6270634905695913,-3.5875793780580163
1789482909574231800,9.871231689453126,3.374379694969952,3.1706320230990648,-3.61470762348026
1789482909584280800,9.88128076171875,3.1006045471489427,3.56040817027688,-3.7123324236690998
1789482909594331000,9.891330810546876,2.719042101565003,3.651228258886933,-3.8662092724338173
1789482909604381000,9.901380859375,2.39289583825469,3.479754670894146,-3.909631942313909
1789482909614429700,9.9114296875,2.0474267425760626,3.1095173369228837,-3.862888019056618
1789482909624479700,9.921479736328125,1.5850111833840608,2.5893606596410272,-3.758298640552163
1789482909634529800,9.93152978515625,1.0187029957801104,2.007732737830281,-3.5077672979354855
1789482909644579600,9.94157958984375,0.29584318724423647,1.343037241232395,-3.135759739421308
1789482909654628900,9.95162890625,-0.5164586995467544,0.698168727132678,-2.4898957845434544
1789482909664679000,9.961678955078124,-1.3839961513474583,0.09340718249380588,-1.6918676300376652
1789482909674729000,9.97172900390625,-2.365240061827004,-0.3580482990056276,-0.5743608534172177
1789482909684777700,9.98177783203125,-3.384372096674144,-0.856297095862031,0.895950768597424
1789482909694827800,9.991827880859375,-4.3243160285159945,-1.5510755960345268,2.4703970110863445
1789482909704877800,10.0018779296875,-5.078893163830042,-2.454267714062333,3.844064368382096
1789482909714927600,10.011927734375,-5.7149745603621005,-3.103390378475189,4.747181959868967
1789482909724977000,10.021976806640625,-6.609687603858113,-3.1876603147894143,4.803408874003589
1789482909735027000,10.03202685546875,-7.409129424554109,-2.812531701645255,4.101787960590422
1789482909745076700,10.04207666015625,-7.065438736724853,-3.550135782587528,3.0618203507244584
1789482909755125800,10.052125732421874,-5.086778364121914,-4.940137604090571,2.755947060114145
1789482909765175800,10.06217578125,-2.413886019313335,-4.463326732060313,3.003744886113703
1789482909775225600,10.0722255859375,-1.352146138100326,-1.5847656841903923,2.6541394212827085
1789482909785274600,10.082274658203126,-2.0349431085780263,1.7145768899738787,1.0795485096260904
1789482909795325000,10.092324951171875,-2.3679691945299504,4.096508266621828,-0.8001336023524404
1789482909805375000,10.102375,-2.0281614856138823,5.9287698712557555,-2.0285849717229603
1789482909815424800,10.1124248046875,-1.6061986405804753,7.227664019379019,-2.6249729480311275
1789482909825473800,10.122473876953125,-0.704817371366918,7.5900255054086445,-2.917324493767321
1789482909835523800,10.13252392578125,2.0422306352376935,5.983379997843503,-3.2481212132319808
1789482909845573600,10.14257373046875,4.205050766666234,1.750306375002861,-3.7007296641588208
1789482909855622700,10.15262255859375,3.8046655471906066,-3.518471647301316,-3.6620521429792046
1789482909865672700,10.162672607421875,1.6838576343223453,-8.713706879010797,-2.508710959650576
1789482909875722800,10.17272265625,-1.3487652634903788,-14.809014050900934,0.7599258028656244
1789482909885772800,10.182772705078126,-2.4672318250536915,-17.82587414691448,6.351343541663884
1789482909895821800,10.19282177734375,-1.4432698858320712,-14.898165329515933,8.419013738584518
1789482909905872000,10.202871826171876,1.8704118870690465,-6.502620144802331,5.194392351144552
1789482909915921700,10.212921630859375,4.4447292913571,-0.41491818721890444,1.0941066118106246
1789482909925970700,10.222970703125,5.09693150934577,1.960460699045658,-2.044753431713581
1789482909936020700,10.233020751953125,4.609346437583864,3.668122110542655,-4.332705671198666
1789482909946070800,10.24307080078125,3.109744131416082,4.444257874453068,-5.723719007831812
1789482909956119800,10.253119873046876,2.0589806945085525,4.619884490472078,-6.212984872287511
1789482909966169900,10.263169921875,2.166824983155727,4.255933104902506,-6.063659403216838
1789482909976219600,10.2732197265625,2.7401895190119743,3.3302222810745237,-5.210132356590032
1789482909986269700,10.283269775390625,3.6462650835216044,1.7858318618923426,-4.207601912453771
1789482909996318700,10.293318603515624,4.093251602913439,0.009808861830830573,-3.352093044359982
1789482910006368500,10.303368408203125,3.998647319589555,-1.5148843387126922,-2.100005947858095
1789482910016418800,10.313418701171875,4.196854600729048,-2.3165204545825717,-0.7078501631915569
1789482910026468000,10.323468017578126,4.420019212992489,-2.1808172681510447,0.4787728197529912
1789482910036518100,10.33351806640625,4.437470406270027,-1.8552917670875786,1.2297311800479889
1789482910046568200,10.343568115234374,4.117410477136075,-1.3320844700634478,1.877118983492255
1789482910056618200,10.3536181640625,3.590654839980602,-0.519829345023632,2.4779443577259777
1789482910066667000,10.3636669921875,3.259166923381388,0.4670411731660366,2.973065670211613
1789482910076717000,10.373717041015626,2.626930219578743,1.3920757051676511,3.274655876675248
1789482910086767000,10.38376708984375,1.442125391972065,1.8978695105761287,2.9558026929825543
1789482910096816000,10.393816162109376,0.03085574151277542,1.7712942179739475,2.2377172592416406
1789482910106866200,10.4038662109375,-1.075758615823835,1.53672733720839,1.8398919533818958
1789482910116916200,10.413916259765625,-2.2317912301935254,1.0830641165316104,1.1785343690350651
1789482910126966300,10.42396630859375,-2.845182509881258,0.32126959718465803,0.05111527020931243
1789482910137015000,10.43401513671875,-2.7224188845217228,-0.26315233925879,-0.6422191686347126
1789482910147065000,10.444065185546876,-1.9755717589378357,-0.680240271732211,-0.74090166118294
1789482910157115100,10.454115234375,-0.9605576808035373,-0.8499106096953153,-0.7675178654298186
1789482910167164200,10.4641640625,0.09954429700933397,-0.8864344599723816,-0.8070902896225451
1789482910177214200,10.474214111328125,0.5116271877370775,-0.6379676486700773,-0.83856270172894
1789482910187264300,10.48426416015625,0.7245886050898581,-0.20579320622384548,-0.7180550386026501
1789482910197313000,10.49431298828125,0.7720012944541871,0.19011340653300285,-0.7438602187275886
1789482910207363000,10.504363037109375,0.8128279564917087,0.5022784907639026,-0.5587891902759671
1789482910217413000,10.5144130859375,0.8317478340823203,0.6671399671405553,-0.15351561423689125
1789482910227463200,10.524463134765625,0.8014052297234535,0.7527706704139709,0.15113777918964624
1789482910237512200,10.53451220703125,0.6636860272943973,0.7022042662590742,0.4265919661387801
1789482910247562200,10.544562255859375,0.3268015854138881,0.7048796229481696,0.7863204733163118
1789482910257612300,10.5546123046875,-0.10063713374733925,0.7812164281755686,1.0369535227417945
1789482910267661000,10.5646611328125,-0.5704851810276508,0.9309060543835163,1.2586550767153502
1789482910277711000,10.574711181640625,-0.8627882114470005,1.0101157846987248,1.446060393333435
1789482910287761200,10.58476123046875,-1.027131216907501,1.1304308478623628,1.500710559670627
1789482910297811000,10.59481103515625,-1.1398434038519858,1.2392156322300434,1.3943483262747525
1789482910307860200,10.604860107421874,-1.2820283535182475,1.297510584810376,1.1151403397500514
1789482910317910300,10.61491015625,-1.4491162737727163,1.2527239331007003,0.7229179684638977
1789482910327960000,10.6249599609375,-1.6067407846331596,1.1096277138084172,0.3565449087053537
1789482910338009000,10.635009033203126,-1.7266238861203194,0.9003700463443994,0.021033435678482055
1789482910348059100,10.64505908203125,-1.6965321147173642,0.6814981628388166,-0.1708770834043622
1789482910358109200,10.655109130859374,-1.5763117440998553,0.5221873063266277,-0.27453473401665685
1789482910368158200,10.665158203125,-1.3888093968480824,0.36330139722824095,-0.4071688882663846
1789482910378208300,10.675208251953125,-1.2322124754697084,0.2177121920764446,-0.46297903829365966
1789482910388258300,10.68525830078125,-1.1645622500449417,0.07554360902309418,-0.4592752153396606
1789482910398308000,10.69530810546875,-1.1317162845630198,0.008384966507554053,-0.4168953325107693
1789482910408357000,10.705357177734374,-1.1106418592870235,0.0942559082776308,-0.3401327030867338
1789482910418407200,10.7154072265625,-1.2426397614598272,0.2746381943911314,0.0028387305572628975
1789482910428457000,10.72545703125,-1.3696096063375471,0.420970911386609,0.6383198231086135
1789482910438506200,10.73550634765625,-1.3865017044275998,0.6114250941812992,1.5266910963624716
1789482910448556300,10.745556396484375,-1.3925859927773474,0.8874544506698846,2.545531454786658
1789482910458606300,10.7556064453125,-1.2390794386297463,1.1106804377317427,3.492266361942887
1789482910468656000,10.76565625,-0.9313421807784587,1.3799977293610572,4.3523543745204805
1789482910478705200,10.775705078125,-0.5913397530078888,1.729694379606843,5.037106862980127
1789482910488755200,10.785755126953125,-0.37799043231606483,1.9601935725420712,5.500311818984151
1789482910498805000,10.795804931640625,-0.48993579960651695,1.8782313286483288,5.598973853266239
1789482910508854300,10.805854248046876,-0.9435375724196433,1.2270593304902315,5.136276262262463
1789482910518904300,10.815904296875,-1.545744756400585,0.5779752445220947,4.332659786230326
1789482910528954000,10.8259541015625,-2.630241536083817,-0.0862830297023058,3.1540213722988963
1789482910539003100,10.836003173828125,-3.8722266330271955,-0.6576841565310955,1.7993878012970088
1789482910549053200,10.84605322265625,-4.926667881664634,-1.1626917799979448,0.7856491499260068
1789482910559103000,10.85610302734375,-4.8908583171367646,-1.771750145047903,0.4319955787479877
1789482910569153000,10.866153076171875,-3.3777304667025803,-2.441914428445697,1.4518421916052697
1789482910579202000,10.8762021484375,-1.938310972688347,-2.9706705917686222,3.5249984187215566
1789482910589252400,10.88625244140625,-1.2362222956329583,-3.115302934587002,4.861230656114221
1789482910599302100,10.89630224609375,-0.47985681559741494,-2.6351760698765516,5.161263404002785
1789482910609351200,10.90635107421875,0.24248422976136205,-1.8366823436856268,5.111727511939406
1789482910619401200,10.916401123046874,0.4262444678753614,-1.4471002577751875,4.901558282588422
1789482910629451000,10.926450927734376,0.11185688528940081,-1.9959698193222284,4.057292693042755
1789482910639501000,10.9365009765625,-0.01859897507317364,-2.7639339672148227,2.0147949313014744
1789482910649550000,10.946550048828126,-0.25477555605769153,-3.1770980042427777,-0.043991994200646874
1789482910659600100,10.95660009765625,-0.6253220290433615,-3.214221573978662,-1.4762833899006247
1789482910669650200,10.966650146484374,-1.049157170754671,-2.9852877306640146,-2.347540446746349
1789482910679699200,10.97669921875,-1.0321738872498274,-2.8356887053489683,-2.8810885205209256
1789482910689749200,10.986749267578125,0.008060556858778,-2.7117957836985584,-2.9308097060233353
1789482910699799000,10.996799072265626,1.0518623380601406,-2.579906018075347,-3.044238224543631
1789482910709848000,11.00684814453125,1.2571662994623183,-2.426180268219113,-3.063549950996041
1789482910719898000,11.016898193359374,1.3286581488765776,-2.411124737906456,-3.2427611475035545
1789482910729948200,11.0269482421875,1.3175228607475757,-2.6630367212265726,-3.6635946962460872
1789482910739998200,11.036998291015625,1.5392365435503423,-3.0534073271661994,-3.9394340831205246
1789482910750047200,11.047047119140625,2.298846412334591,-2.9965450377374885,-4.230539428187907
1789482910760097000,11.057096923828125,3.315846841980517,-2.157869523283839,-4.560264426767826
1789482910770147000,11.06714697265625,3.332600116121769,-1.0785603753715753,-4.548627180466055
1789482910780196000,11.077196044921875,2.196915585514903,-0.21218027691245078,-2.9199063269540666
1789482910790246100,11.08724609375,2.4532819178953766,0.06673778675496578,-1.7227423685118555
1789482910800296200,11.097296142578125,1.7332915273159741,-0.18890636883080006,-0.6017281682923435
1789482910810346200,11.10734619140625,2.244014605820179,-0.43147710783183574,0.401366047206521
1789482910820395300,11.117395263671876,2.424786183512211,-1.0088625697672366,1.866173518846929
1789482910830445000,11.127445068359375,0.48464434213489294,-0.781290077933669,3.893636793063581
1789482910840495000,11.1374951171875,-0.4461941999703645,0.6118360130697489,6.237543559482694
1789482910850544000,11.147544189453125,-0.2753571563154459,1.2345680986851453,6.988751802885532
1789482910860594000,11.157593994140624,1.4252046523094177,0.14835457821190356,5.444252662631869
1789482910870644000,11.16764404296875,2.519606155413389,-0.6379518665790558,3.455160035602748
1789482910880693200,11.177693359375,2.4952163950443267,-0.815900788065791,1.3794193449512124
1789482910890743000,11.187742919921876,2.8466186801642177,-0.3315659502714872,-0.17819412841945886
1789482910900793000,11.19779296875,3.174098822426796,0.2814636564970016,-0.9863198985695838
1789482910910843100,11.207843017578124,3.2502737150907515,0.6568927138924598,-1.6796882396832107
1789482910920892200,11.21789208984375,3.229694452920556,0.9920207405596971,-2.240531147618592
1789482910930942000,11.22794189453125,3.2941555269151923,1.0860369948625563,-2.770287427894771
1789482910940992000,11.237991943359376,3.474703817245364,1.1916168457090854,-3.1491634108737108
1789482910951041300,11.248041259765625,3.7050107024788854,1.4869254876852034,-3.269409500454366
1789482910961091000,11.258091064453126,3.97533512532413,1.7950509411364792,-3.321076267066598
1789482910971141000,11.26814111328125,4.197676730766892,2.134793768122792,-3.359646236218512
1789482910981191200,11.278191162109374,4.243988692347705,2.493783147370815,-3.37049467023015
1789482910991240000,11.288239990234375,4.191675736786425,3.0693735425829884,-3.3939158778280016
1789482911001290000,11.2982900390625,3.9107092161566017,3.780570678114891,-3.539919216738641
1789482911011340000,11.308340087890626,3.6036420395866036,3.9330958200097084,-3.799727506266534
1789482911021389300,11.318389404296875,3.3459693007826803,3.6415666965723035,-3.8836709871053694
1789482911031439600,11.328439697265624,2.8906261641949413,3.172149441924691,-3.7153888886302706
1789482911041489700,11.33848974609375,2.226765364855528,2.4714263541340826,-3.433129113319516
1789482911051539500,11.34853955078125,1.344732646973431,1.5747206755161285,-2.974925618864596
1789482911061588500,11.35858837890625,0.34987989785820245,0.5923720186650753,-2.4013693598285317
1789482911071638500,11.368638427734375,-0.8554056999802588,-0.3773042036175728,-1.7673352512151002
1789482911081688300,11.378688232421876,-2.113458719149232,-1.3130302255034445,-1.0065461095184087
1789482911091737600,11.388737548828125,-3.3208971111074086,-2.14714413112998,0.030732115133106707
1789482911101787600,11.39878759765625,-4.305254185171425,-2.766781757861376,1.3783148908406495
1789482911111837400,11.40883740234375,-5.026164613205194,-3.069847589835524,2.65260738940984
1789482911121887500,11.418887451171875,-5.095720379990339,-2.8889275435835122,3.5251980329468844
1789482911131936500,11.4289365234375,-4.721387593398988,-2.1989210801184176,3.4343440420672295
1789482911141986600,11.438986572265625,-4.577673534469306,-1.3705267211824654,2.3421090693473814
1789482911152036400,11.449036376953124,-5.034516261965036,-0.882319425868988,1.4122063467875121
1789482911162085600,11.459085693359375,-5.248544797092676,-1.295453652280569,0.93398560795933
1789482911172135700,11.4691357421875,-4.545829366441071,-2.4487907439559695,1.2572025398194788
1789482911182185500,11.479185546875,-3.0159362591668963,-3.1330040109723805,2.1793892811745406
1789482911192234500,11.489234375,-1.651539126780629,-2.42532861982584,2.704636851854622
1789482911202284500,11.499284423828126,-1.4347767827749252,-0.3249924171000719,2.0462968617632984
1789482911212334300,11.509334228515625,-1.9126395019456743,1.9233727851450442,0.34874504860937594
1789482911222384400,11.51938427734375,-2.0804075134187934,3.5212902118533846,-1.0928703480139375
1789482911232433700,11.52943359375,-1.6535910908743738,4.628764547020197,-1.8932208079874515
1789482911242483700,11.539483642578125,-1.439758662840724,5.314767035540938,-2.2985668647408484
1789482911252533500,11.549533447265626,-1.8742928201556204,5.644058026617765,-2.346721823839843
1789482911262582500,11.55958251953125,-1.5515204171925783,4.798097615852952,-2.4032807464078068
1789482911272632600,11.569632568359374,1.0512111806750297,2.1248270853817464,-2.5485803209632634
1789482911282682400,11.579682373046875,2.345921613372862,-2.142365664681792,-2.6185493447244164
1789482911292732400,11.589732421875,0.8274386656463145,-6.451565080347657,-2.2015613654941317
1789482911302781700,11.59978173828125,-1.2924705448165534,-10.43957614737153,-0.9613260348275303
1789482911312831500,11.60983154296875,-2.1041133831769225,-13.94929224128723,2.6958640550732613
1789482911322881500,11.619881591796876,0.3842795955881476,-14.68116040892601,6.264936008799076
1789482911332930600,11.6299306640625,0.9382894426330923,-10.949309630316495,5.430600569376349
1789482911342980600,11.639980712890624,1.8873668212622403,-4.04913276746273,2.132964214608073
1789482911353030400,11.650030517578125,4.017103890517354,0.5078513224601745,-1.060546872036159
1789482911363080400,11.66008056640625,4.321869219885766,2.810647787594795,-3.4178330522492524
1789482911373129700,11.670129638671876,4.096370319455862,3.9719378841012714,-4.845950669395923
1789482911383179500,11.680179443359375,3.379746774961054,3.9406764843970534,-5.551124891376495
1789482911393229600,11.6902294921875,2.606830557619035,3.361914473411441,-5.467265873950719
1789482911403278600,11.700278564453125,2.772529069341719,2.5813129622638225,-4.993517312100529
1789482911413328400,11.710328369140624,3.2238580018520353,1.4015338538646698,-4.247450523239374
1789482911423378400,11.72037841796875,3.857647195793688,0.01824468174278736,-3.275055105125904
1789482911433427500,11.730427490234375,4.373679194360971,-1.289034432888031,-2.6351716859623786
1789482911443477500,11.7404775390625,4.428414408633112,-2.1820897723048924,-1.8883254371613263
1789482911453527600,11.750527587890625,4.492184285493194,-2.166065104699135,-1.0765285772830246
1789482911463577600,11.76057763671875,4.344586078606546,-1.5725158589482306,-0.2299833523675799
1789482911473626600,11.770626708984375,3.997371016043424,-1.1516583448082207,0.4983642399296164
1789482911483676400,11.780676513671875,3.7698832798838615,-0.5956751518636941,1.240706455309689
1789482911493726500,11.7907265625,3.370623265045881,-0.03929448403418064,2.2052543747931717
1789482911503776500,11.800776611328125,3.0367116284310818,0.5248030417829752,3.207137168675661
1789482911513825500,11.810825439453126,2.4517431640207765,1.1165578053325413,3.758178521303832
1789482911523875600,11.82087548828125,1.1722712169870733,1.61395787640512,3.732083710582554
1789482911533925600,11.830925537109374,-0.1390096806310117,1.6899200031012296,3.200180189144611
1789482911543974400,11.840974365234375,-1.4749300755955277,1.4090952290296554,2.3684093395128847
1789482911554024400,11.8510244140625,-2.424952333859354,0.9903034152477979,1.5469082472220061
1789482911564074500,11.861074462890626,-2.427620968546718,0.5399485884666443,0.7802452450558542
1789482911574123500,11.87112353515625,-1.814235680208355,-0.08786766854524612,-0.049097208385169504
1789482911584173600,11.881173583984374,-0.880010564404726,-0.41782969075143334,-0.3800599320665002
1789482911594223600,11.8912236328125,0.09041048489585518,-0.3774842363595962,-0.30512364128679037
1789482911604273700,11.901273681640625,0.7792216010965406,-0.42430443972349163,-0.38829993714541194
1789482911614322400,11.911322509765625,1.2198163736246526,-0.4719885664403438,-0.7951715960308909
1789482911624372500,11.92137255859375,1.2670097942151128,-0.28076632188260553,-1.1901119941040872
1789482911634422500,11.931422607421876,0.9344003262400626,-0.07699088522195816,-1.5331234674975276
1789482911644471300,11.94147119140625,0.7095488568682223,0.1695838287234306,-1.7817220884859561
1789482911654521300,11.951521240234374,0.49356546134576196,0.39887247682511806,-1.771401477740705
1789482911664571600,11.961571533203125,0.3516575750552118,0.4658241985917091,-1.4928379265993832
1789482911674621700,11.97162158203125,0.23302440056391058,0.3012801176011562,-1.0287672936767338
1789482911684670500,11.98167041015625,0.11057174084968864,0.05883797341585159,-0.6093506259948015
1789482911694720500,11.991720458984375,-0.1412285987894982,-0.05375672462880611,-0.15796353355646134
1789482911704770600,12.0017705078125,-0.5625169786274433,0.05634264946877956,0.2739762233510613
1789482911714819300,12.0118193359375,-0.958817120746523,0.32360359309017656,0.709256230597198
1789482911724869400,12.021869384765624,-1.339650521403551,0.6932528980404138,1.0962857094153762
1789482911734919400,12.03191943359375,-1.6222645169794558,1.0356254890084267,1.3477943726316093
1789482911744969700,12.0419697265625,-1.6498504430413246,1.2922691770255565,1.4382766075894236
1789482911755018500,12.0520185546875,-1.4285785126566886,1.5336860698163508,1.4575243288949131
1789482911765068500,12.062068603515625,-1.2698854957818984,1.6069833612173794,1.403223122125864
1789482911775118600,12.07211865234375,-1.1611784528255462,1.6170003128409385,1.2742138803750276
1789482911785167400,12.08216748046875,-1.0520131447076797,1.6031190870046614,1.1876236844196915
1789482911795217400,12.092217529296875,-0.8870283342123031,1.5187877758920192,1.1078066358610987
1789482911805267500,12.102267333984376,-0.7336883688032627,1.4129261854946613,0.9970590269878506
1789482911815317500,12.1123173828125,-0.5777087025403976,1.3339186997532844,0.8921528376191854
1789482911825366500,12.122366455078126,-0.5300502947866916,1.2256284209042787,0.8150576152399182
1789482911835416600,12.13241650390625,-0.6515718111306429,1.0667004262298345,0.8156120342522859
1789482911845466600,12.142466552734374,-0.9602174890637397,0.9049836776196956,0.8621519593700766
1789482911855515400,12.152515380859375,-1.2871850056290626,0.7963567141622304,0.9258476019501686
1789482911865565400,12.1625654296875,-1.705368916645646,0.7513719095319509,1.0758642681553958
1789482911875615500,12.172615478515626,-1.8922271207749843,0.802006702747941,1.327815414442122
1789482911885665500,12.18266552734375,-1.623306719508767,0.8632862240970134,1.7514400552079081
1789482911895714600,12.192714599609374,-1.0268097298681735,0.8741717752486466,2.335013558128476
1789482911905764600,12.2027646484375,-0.4776438522556796,0.9733744922786951,2.9566692466840148
1789482911915814400,12.212814453125,-0.12744447665214537,1.1330232024431228,3.465542897929251
1789482911925864400,12.222864501953126,0.17447039518859236,1.2154624161988496,3.8988440063178538
1789482911935913500,12.23291357421875,0.31842231799475845,1.0924936236560343,4.162685789145529
1789482911945963500,12.242963623046874,0.1638642820328474,0.7816232554107904,4.122198295934498
1789482911956013600,12.253013671875,-0.3645370765030384,0.5632961463063955,3.7394632994398473
1789482911966062600,12.2630625,-1.6669716737121343,0.404437709736824,3.0734952986881137
1789482911976112600,12.273112548828125,-3.557166411876678,0.12975100002884865,2.270650099289417
1789482911986162400,12.283162353515625,-4.794250877296924,-0.4537012145996093,1.6653636539936065
1789482911996211500,12.29321142578125,-4.370105427527427,-1.2541279546797275,1.9339301272556184
1789482912006261500,12.303261474609375,-2.569862762966752,-1.7545353908747434,3.0659479520484805
1789482912016311300,12.313311279296874,-0.8632903157502412,-2.126335736379027,4.008415849409997
1789482912026361000,12.323361083984375,-0.03441299560293555,-2.264652904701233,3.9572076402202248
1789482912036409900,12.333409912109374,0.2280740116149187,-2.2520348306685687,3.2591695537298917
1789482912046460000,12.3434599609375,-0.1710661762356758,-2.3049212022036314,2.729746158669889
1789482912056510000,12.353510009765625,-0.7675603163320571,-2.45263222181499,2.3716019980743526
1789482912066560000,12.36356005859375,-1.1032090789377689,-2.752407195550203,2.0726400942876935
1789482912076609000,12.373609130859375,-1.2671850046515465,-3.206404178225994,1.5719950499445199
1789482912086659000,12.3836591796875,-1.0889579238105564,-3.471505313464999,0.8726879664316773
1789482912096709000,12.393709228515625,-0.8776964422434568,-3.433371689903736,0.010698796407878398
1789482912106758000,12.4037578125,-0.9803028302371501,-3.186767165341973,-0.9574781272277235
1789482912116808000,12.413807861328126,-1.3465057941257952,-2.73723183825016,-1.9246835754826663
1789482912126858000,12.42385791015625,-1.682768962302804,-2.0353286007642746,-2.5700182457894085
1789482912136907800,12.43390771484375,-1.2615993134737014,-1.445172504583001,-2.667944659273326
1789482912146956800,12.443956787109375,-0.5720750440349802,-1.4014409148842095,-2.5338281575113535
1789482912157007000,12.454007080078124,-0.008314239358901977,-1.5116671302318572,-2.381450607393682
1789482912167057200,12.46405712890625,0.6165829884011298,-1.6597908222973345,-2.478841014304757
1789482912177106000,12.47410595703125,1.2311971609473227,-1.9567787956625222,-2.7257892377376556
1789482912187156000,12.484156005859376,1.9356535900473593,-2.255312244904041,-2.9709169677451253
1789482912197206000,12.4942060546875,2.7390497013270854,-2.276409977990389,-3.0686347069144246
1789482912207255800,12.504255859375,3.5708033075630663,-1.7595517577320336,-2.977267505815625
1789482912217304800,12.514304931640625,3.6417666030585765,-1.700425030502677,-2.174839655046165
1789482912227355000,12.52435498046875,2.801602895873785,-1.4961591799765825,-0.551422460900247
1789482912237405000,12.534405029296876,2.38329579686895,-0.8454939622968435,0.04490384834855795
1789482912247454000,12.544453857421875,1.1295173862792551,-0.8652671687811613,0.8567720198974013
1789482912257504000,12.55450390625,0.6018386429294943,-1.1044418356031178,1.2292957112401723
1789482912267553800,12.5645537109375,1.094290443944931,-1.0139578470796347,1.745158782981336
1789482912277603800,12.574603759765624,1.1424445262610912,-0.524670939835906,2.654364462210238
1789482912287652900,12.58465283203125,0.9673924952596425,0.2933341270327568,4.131243479916453
1789482912297703000,12.594702880859375,0.6779273186147212,0.31055706451237197,4.628927920888364
1789482912307753000,12.6047529296875,1.0660381629288196,-0.3556657877832651,4.464057676683366
1789482912317802000,12.614802001953125,1.4599372352555393,-1.0304846189886332,3.39293037392199
1789482912327852000,12.62485205078125,1.9735089811891315,-1.3663187480986116,1.2932821534603833
1789482912337901800,12.63490185546875,2.065514772452414,-1.0309972446858882,-0.2685144508138299
1789482912347951900,12.644951904296875,2.7532348785459995,-0.6014806232720613,-1.5147922765150665
1789482912358001000,12.6550009765625,3.0540047085374593,0.09118833740055561,-2.2281068425923585
1789482912368050700,12.66505078125,3.1460835650369523,0.6097825876712799,-2.3943846155077217
1789482912378101000,12.67510107421875,3.3440772034257646,1.0488608181566,-2.5381156255722046
1789482912388151000,12.685151123046875,3.363543535917997,1.3507587753951549,-2.712069632203877
1789482912398200000,12.695199951171874,3.3624320675447583,1.7124679349958896,-2.9910160451829433
1789482912408249900,12.705249755859375,3.2790991198197004,2.0544407129913567,-3.100924280622601
1789482912418300000,12.7152998046875,3.3823446824997663,2.2533459132671356,-2.977347585314512
