time,seconds_elapsed,z,y,x
1789075351948230700,0.093230712890625,0.5766039561688899,0.9503130579039454,-0.8512441963866353
1789075351958281700,0.10328173828125,0.7101958495348691,0.9810314367726445,-0.9451280564814806
1789075351968333800,0.113333740234375,0.9148007227569818,1.0018626278772949,-1.0068496225096284
1789075351978384600,0.123384521484375,1.0459376241862772,1.0617731989607215,-1.0343515235498546
1789075351988436700,0.133436767578125,1.0595423711687326,1.0293792880952357,-1.0570099300816655
1789075351998487800,0.14348779296875,1.1444272245109082,1.147388704665005,-1.1170603480271994
1789075352008539600,0.15353955078125,1.2665233258724211,1.218958441621065,-0.9536854569464921
1789075352018590700,0.1635908203125,1.276256784379482,0.9513891627028583,-0.7196743103675544
1789075352028642600,0.173642578125,1.1285644694685935,0.8392892624378204,-0.6060151248965412
1789075352038694700,0.183694580078125,1.1412819122225046,0.8072501563593745,-0.6429129230525344
1789075352048745700,0.193745849609375,0.9268547331660986,0.8127256651610135,-0.5516929484046995
1789075352058797600,0.203797607421875,0.8146914122760296,0.5280182044371963,-0.10674443764649331
1789075352068848600,0.2138486328125,0.6878548383891582,0.33455607199817894,0.08743022697605192
1789075352078900700,0.223900634765625,0.6981383319944143,0.3198956784829497,0.10187339754402637
1789075352088951600,0.23395166015625,0.5733820715129375,0.09038812693357468,0.3095604546904564
1789075352099004000,0.24400390625,0.5099912570983172,-0.1421419873073697,0.5109840675279498
1789075352109054700,0.2540546875,0.48556876350343225,-0.6388996688231825,0.8821466996505856
1789075352119106800,0.26410693359375,0.44634091496467587,-0.6889917334645986,0.9529980592042208
1789075352129158000,0.274157958984375,0.4520651378303766,-0.6863628462657332,1.0000107164002954
1789075352139209700,0.284209716796875,0.2941068649709225,-0.7791431290328502,1.0367622379533945
1789075352149260800,0.2942607421875,0.09635025020837783,-0.8654825650975108,1.0495686741650103
1789075352159312600,0.304312744140625,-0.16842822894752024,-0.9591843466237187,0.9080844201140105
1789075352169363700,0.31436376953125,-0.21813597044646738,-1.017399804227054,0.8603571849077939
1789075352179415800,0.324415771484375,-0.1935182465404272,-1.0386416219592094,0.9225656576700508
1789075352189466600,0.334466552734375,-0.3438262969076633,-1.048385017338395,0.8489474637515843
1789075352199518700,0.344518798828125,-0.8191863856077194,-0.9665881931394338,0.7030545994780957
1789075352209569800,0.35456982421875,-0.9960627094268798,-1.0112363131612538,0.7698271652854979
1789075352219621600,0.36462158203125,-0.9776824186056852,-1.0326450118929147,0.794782450582832
1789075352229672700,0.374672607421875,-1.3593331269949673,-0.8111147228330373,0.7485426774553954
1789075352239724500,0.384724609375,-1.3791332214862106,-0.7893214086979627,0.6371878964692353
1789075352249775600,0.394775634765625,-1.21900520337224,-0.9269137698769568,0.5940688857108354
1789075352259827700,0.40482763671875,-1.2186416307568548,-0.904623027613759,0.5526790368326008
1789075352269878500,0.41487841796875,-1.219917057520151,-0.8996014000594615,0.5606090991795063
1789075352279930600,0.4249306640625,-1.3793220220565796,-0.7648492307424545,0.475137239729613
1789075352289981700,0.434981689453125,-1.4314011688619852,-0.7568582319885492,0.5008380826972425
1789075352300033800,0.44503369140625,-1.3860972152799367,-0.4907154787421226,0.4823341654963791
1789075352310084900,0.4550849609375,-1.3065309266120195,-0.4297802407860756,0.5710466143026948
1789075352320136200,0.46513623046875,-1.3177958324700594,-0.40211481974720953,0.5938679563112557
1789075352330188300,0.475188232421875,-1.3132786473065614,-0.21643734983503818,0.6156117322161794
1789075352340239400,0.4852392578125,-1.2348059990942477,-0.06837327900230884,0.6015973815195262
1789075352350291200,0.495291259765625,-1.0922387721121312,0.15802987679094074,0.38129166581854224
1789075352360342300,0.50534228515625,-1.043300845941901,0.2543503163829446,0.3654305182114243
1789075352370394000,0.51539404296875,-1.02224695199728,0.33418080894500013,0.39352439379543064
1789075352380445200,0.525445068359375,-1.0376257229149342,0.3876730374187231,0.44966947486549613
1789075352390497300,0.535497314453125,-0.9907838922411203,0.5166343483746052,0.41463016405776143
1789075352400548000,0.545548095703125,-0.8599807528108357,0.7310498369932175,0.3310856194086373
1789075352410600200,0.55560009765625,-0.422261535719037,1.188589022320509,-0.1571276672542095
1789075352420651300,0.5656513671875,-0.4320674749404192,1.2383370958298443,-0.09920826998800039
1789075352430703000,0.575703125,-0.22988310686349867,1.243048926782608,-0.2850277787193656
1789075352440754200,0.585754150390625,-0.08589373812377453,0.8824971205234527,-0.26218174066096545
1789075352450806000,0.595805908203125,0.22710078266859055,0.8688046952575444,-0.42017976100891824
1789075352460857000,0.605857177734375,0.4749006544947624,1.0252718527764082,-0.4798682137742638
1789075352470909200,0.6159091796875,0.7405442260473967,1.0730825284823775,-0.4964882169246673
1789075352480960300,0.625960205078125,0.7443138077139854,1.0652812070816755,-0.49731151600629087
1789075352491012000,0.63601220703125,0.833131908851862,1.074154249367118,-0.5504869336158037
1789075352501063200,0.646063232421875,1.008318964409828,1.1209811747327447,-0.667875295677781
1789075352511115300,0.656115234375,1.2594529490947723,1.0576780386015772,-0.7004281964972615
1789075352521166000,0.666166015625,1.289454119604826,1.0186354835018514,-0.6719499977707862
1789075352531218200,0.67621826171875,1.5858885507404803,0.9561962707236409,-0.5942044947892428
1789075352541269200,0.686269287109375,1.74650347558856,0.9362155589684843,-0.6911401436701416
1789075352551321300,0.6963212890625,1.7140695249736309,1.0023697006165981,-0.8107643019601702
1789075352561372200,0.7063720703125,1.7265642648875712,0.9637322191864252,-0.9181783824965357
1789075352571424300,0.71642431640625,1.7796686630874872,0.9334463865160941,-1.0331307495832442
1789075352581475300,0.726475341796875,1.7389608051240444,0.9333955331116914,-1.1134680226236582
1789075352591527200,0.736527099609375,1.6257453448325394,1.0736214576646685,-1.3094602580621837
1789075352601579300,0.746579345703125,1.5957628790229559,1.1773434056848286,-1.4162719887912272
1789075352611630000,0.756630126953125,1.6120312922567128,1.4938947421759365,-1.6738702010542152
1789075352621682200,0.76668212890625,1.8314017729341983,1.3124030335158108,-1.558005395297706
1789075352631733200,0.776733154296875,2.101860051292181,0.9409329428791999,-1.4967919249221682
1789075352641785000,0.78678515625,1.856481269133091,0.7490612945020199,-1.3566378965616226
1789075352651836200,0.796836181640625,1.869252487900853,0.7302221539974212,-1.355010587620735
1789075352661888000,0.806887939453125,1.5450719717055559,-0.224082311630249,-0.8058870513126254
1789075352671939000,0.81693896484375,1.1410212154597044,-0.813922181469202,-0.6372586236178874
1789075352681991200,0.8269912109375,0.5506950234085322,-1.1629536458045244,-0.56036915294379
1789075352692042200,0.837042236328125,0.08906301580965519,-1.5386346321344375,-0.3826578396052122
1789075352702094300,0.84709423828125,-0.3033452334374189,-1.767813390120864,-0.34099838000535965
1789075352712145200,0.857145263671875,-0.38399347212314605,-1.8412316775530575,-0.23070728272795676
1789075352722197200,0.867197265625,-0.48931204168498516,-1.8715005590885876,-0.029197745172679423
1789075352732248300,0.877248291015625,-0.7115969485044479,-1.7835393670409916,0.021176059019565582
1789075352742300200,0.887300048828125,-0.7767951046019792,-1.6812912909656763,-0.1336062141522765
1789075352752351200,0.897351318359375,-0.8378829027712345,-1.688065315145254,-0.16287556325644253
1789075352762403300,0.9074033203125,-1.047734444475174,-1.7600258049845694,-0.046999651584029196
1789075352772454100,0.9174541015625,-0.9302905528336762,-1.8771353501051664,-0.0023319500789046287
1789075352782506200,0.92750634765625,-1.0242261431157589,-2.0396219140440226,0.3322188612222671
1789075352792557300,0.937557373046875,-1.1975205167949199,-2.218836909943819,0.6298676365837454
1789075352802609200,0.947609130859375,-1.3702081567525863,-2.311141684153676,0.7044400624871253
1789075352812660200,0.95766015625,-1.5166308901190757,-2.370045124021172,0.8477800274074078
1789075352822712000,0.967712158203125,-1.7673124548614023,-2.457356327727437,0.9548764202967286
1789075352832763100,0.97776318359375,-2.013297970741987,-2.376032966259122,0.9837561855614185
1789075352842815200,0.987815185546875,-2.0842308710992334,-2.139994259375334,0.955949894747138
1789075352852866000,0.997865966796875,-2.0768863535553215,-1.7415952452808618,0.7597314493373036
1789075352862918100,1.007918212890625,-1.9463947642922401,-1.4711436889246106,0.5997103987291454
1789075352872969200,1.01796923828125,-1.7128864526689052,-1.4220175467059015,0.5386491963058709
1789075352883021000,1.02802099609375,-1.5226204859226942,-1.4723714771538972,0.5194686950176954
1789075352893072100,1.038072021484375,-1.4104104032814502,-1.485180689844489,0.6158817813292146
1789075352903124000,1.0481240234375,-1.3093489066421984,-1.3712909835532308,0.6901318434104323
1789075352913175000,1.058175048828125,-1.3933984782040119,-1.1019903507977724,0.67726768566221
1789075352923227400,1.068227294921875,-1.4077169264137743,-0.8810708871126175,0.6233943489164113
1789075352933278200,1.0782783203125,-1.2192483644783496,-0.5931298512950539,0.5081140650495887
1789075352943330300,1.088330322265625,-1.0763578968912362,-0.2860068528845906,0.30924013669490813
1789075352953382100,1.098382080078125,-0.8647259015113115,-0.02473842767626047,0.04344458945095539
1789075352963433200,1.10843310546875,-0.6405833841264248,0.278920986276865,-0.2338905889391899
1789075352973485300,1.1184853515625,-0.35572482449412346,0.6385170992463827,-0.47993134213835
1789075352983536000,1.1285361328125,-0.1563444079220295,0.8916656386241316,-0.567569878102839
1789075352993588200,1.138588134765625,-0.061655953446030615,1.0105936313435435,-0.753967771244049
1789075353003639300,1.148639404296875,0.06874620396792888,1.152047928647697,-0.9936442501083016
1789075353013691100,1.158691162109375,0.08093290084600448,1.2194526548787952,-1.104365263235569
1789075353023742200,1.1687421875,0.09720072955787182,0.7868634941518307,-0.7723147443175316
1789075353033794000,1.1787939453125,0.31991292187869547,0.5554910255134106,-0.34122809710800645
1789075353043845000,1.18884521484375,0.6029080257266759,0.5968982639178634,-0.19432547127008437
1789075353053897200,1.198897216796875,0.7612117510229349,0.6020210137590766,-0.037784079471230504
1789075353063948000,1.208947998046875,0.8038157979965209,0.49645577595978974,0.13735855242311953
1789075353074000100,1.219000244140625,0.8527186528533697,0.39113399152755735,0.26841245174407957
1789075353084051200,1.22905126953125,0.9499801726877689,0.39457887128442526,0.12665449531823397
1789075353094103000,1.23910302734375,1.0670762738049029,0.45231122154593467,-0.2307555057838559
1789075353104154000,1.249154052734375,1.0999836871504782,0.5950462063103914,-0.5737099882930516
1789075353114206200,1.259206298828125,1.2833283302009104,0.8723428062558174,-0.9630901218906044
1789075353124257000,1.269257080078125,1.4526578919023274,1.0388593563631177,-1.1786261389717458
1789075353134309400,1.279309326171875,1.657072795510292,0.322808351059258,-0.40661563829779623
1789075353144360200,1.289360107421875,1.7346300824433565,-0.04062865524739027,-0.14778350032567977
1789075353154412300,1.299412353515625,1.7617337779462336,0.1452414146274328,-0.1460501006618142
1789075353164463400,1.30946337890625,1.6695844865590332,0.2857005634143948,-0.04706365673094988
1789075353174515200,1.31951513671875,1.467228269046545,0.42619741386324167,-0.06628010611534119
1789075353184566300,1.329566162109375,1.2854080590844155,0.5521995827525854,-0.2577460963010788
1789075353194618000,1.3396181640625,1.2299965529859065,0.7632853424265981,-0.3819116974130273
1789075353204669200,1.349669189453125,1.2998083403587342,0.9160723501279949,-0.18002718906551599
1789075353214721300,1.35972119140625,1.3271341541796922,0.7903785165354609,-0.24725363612025975
1789075353224772000,1.369772216796875,1.0538637410104275,0.8050155291751027,0.00244037888944149
1789075353234824200,1.37982421875,1.0288777683138848,0.8413178456559777,-0.03359364204406738
1789075353244875300,1.389875244140625,0.8400356968909501,0.7669955951213836,-0.048510640668869016
1789075353254927000,1.399927001953125,0.6503735412567854,0.8129054056420921,-0.2569686821877956
1789075353264978200,1.409978271484375,0.6071002167195081,0.8670520063713193,-0.4845464347183704
1789075353275030000,1.420030029296875,0.759814743706584,0.17945640344023703,0.09278905059546232
1789075353285081000,1.4300810546875,1.0307634359300135,-0.5037134920030832,0.7647258966237306
1789075353295133200,1.44013330078125,1.1399521249234676,-0.41674627942889925,0.9814330033108591
1789075353305184000,1.45018408203125,1.4033470407664774,-0.4489791545137763,1.3189970249533653
1789075353315236000,1.460236083984375,1.3756167377978563,-0.5597922298386693,1.5500956450864671
1789075353325288000,1.470287841796875,0.9565735796034336,-0.4649994382053613,1.4484757839120923
1789075353335339800,1.48033984375,0.5416483781218528,-0.5676011500239372,1.3626679705061018
1789075353345390800,1.490390869140625,0.19798516282141207,-0.7319444477453827,1.3278845341555774
1789075353355442700,1.500442626953125,0.031305823367834086,-0.9199316559046506,1.3123612402006983
1789075353365493800,1.51049365234375,-0.024254735812544823,-1.0288535106554626,1.2031621759437023
1789075353375545900,1.5205458984375,-0.18023264850974083,-1.0502578254729509,1.0742264378204942
1789075353385596700,1.5305966796875,-0.3446645012974739,-0.9989072852030396,0.9791877086021006
1789075353395648800,1.540648681640625,-0.5984405249238014,-0.9874868965223431,0.8611426361970603
1789075353405699800,1.550699951171875,-1.0160410830944775,-0.8935270485818385,0.6891169672794639
1789075353415752000,1.560751953125,-1.2550994300603866,-0.7533999082282186,0.590355564276129
1789075353425803000,1.570802978515625,-1.4210294124513865,-0.6165265089735389,0.46397192178852853
1789075353435854800,1.580854736328125,-1.575077818390727,-0.5442948009774089,0.34992373699992896
1789075353445907000,1.590906982421875,-1.6233137337714432,-0.48627895759940143,0.26424955991096793
1789075353455958000,1.6009580078125,-1.6016928535938262,-0.4620484794452786,0.19697503593079746
1789075353466009900,1.611009765625,-1.5533622456669807,-0.5076797652855515,0.18349566889367996
1789075353476061000,1.62106103515625,-1.509211553773284,-0.54296852080971,0.116284054081887
1789075353486112800,1.63111279296875,-1.4682359847843647,-0.5005263863995671,0.020734160470962524
1789075353496163800,1.641163818359375,-1.4019330823153258,-0.40591450429111714,-0.06303805545419454
1789075353506216000,1.6512158203125,-1.4086007235109805,-0.33670886611789463,-0.08868884873501956
1789075353516266800,1.661266845703125,-1.4402882396727799,-0.24393559761345385,-0.11087638635206967
1789075353526318800,1.67131884765625,-1.3899895465433596,-0.001722293747961521,-0.261033045549877
1789075353536370000,1.681369873046875,-1.3288620008856058,0.08965747457146644,-0.19885204531643538
1789075353546421800,1.691421875,-1.3529507324814796,0.13210223933011292,-0.20799027787670493
1789075353556472800,1.701472900390625,-1.1628215438574552,0.019549334600567816,0.14702913829442113
1789075353566524700,1.711524658203125,-1.048696567505598,0.11117197176516055,0.26947313977815207
1789075353576575700,1.72157568359375,-0.8825789535880089,0.18025544486343859,0.4486053527653217
1789075353586627800,1.7316279296875,-0.681745415598154,0.23566782774478195,0.5876255913229659
1789075353596678700,1.7416787109375,-0.5495154582351446,0.36702713975310325,0.5453847151059658
1789075353606731000,1.75173095703125,-0.4520920258373022,0.3596773615121841,0.5641049054060131
1789075353616781800,1.76178173828125,-0.37616321688890453,0.48351709167063234,0.4444435569107532
1789075353626834000,1.771833984375,-0.344384515312314,0.6605714024052024,0.17760551487654447
1789075353636885000,1.781885009765625,-0.3690145141780376,0.7997931183516979,-0.04388195795491338
1789075353646936800,1.791936767578125,-0.1837847880333662,0.8725807066649198,-0.20812413338944313
1789075353656988000,1.80198779296875,-0.0247217688024044,0.8684858385667205,-0.21898469623029232
1789075353667039700,1.812039794921875,0.10985329038202762,0.8485261695995926,-0.14125943231917917
1789075353677090800,1.8220908203125,0.32914544512629507,0.8367968611001968,-0.06305749080702662
1789075353687143000,1.832142822265625,0.7405757902294396,0.9436790267169475,-0.025856618051230906
1789075353697194000,1.842194091796875,0.8337433187484741,0.9991425552636385,-0.25262137369848786
1789075353707245800,1.852245849609375,0.969137293100357,0.9742387078925967,-0.45054275056868787
1789075353717297000,1.862296875,1.2905179494440555,1.0354875418424605,-0.5090453545503318
1789075353727348700,1.8723486328125,1.6195049891382456,0.9869739785641432,-0.438535136584565
1789075353737399800,1.88239990234375,1.7671049495905637,0.615127455830574,-0.31451836935877797
1789075353747452000,1.892451904296875,1.8883955797880887,0.5704144538789987,-0.3647136751789599
1789075353757502700,1.902502685546875,1.7819634960263966,0.6741165281549095,-0.49653848580718035
1789075353767554800,1.912554931640625,1.5586422318965196,0.6803741272449493,-0.5580118492279201
1789075353777606000,1.92260595703125,1.6356348706841468,0.754499393902719,-0.3882529561985284
1789075353787657700,1.93265771484375,1.6132997047573328,0.7073357839286327,-0.4359940007343888
1789075353797708800,1.942708740234375,1.4260492864400147,0.7873696901082992,-0.7092822418212891
1789075353807760600,1.9527607421875,1.433383867111802,1.093072592587769,-0.9984129258148372
1789075353817811700,1.962811767578125,1.3757242898255586,1.1404504298344253,-1.1773266737457364
1789075353827863800,1.97286376953125,1.333755618146062,0.9961758144125342,-1.0607513085670768
1789075353837915000,1.982914794921875,1.335280635756254,0.5644429782539606,-0.6045021630503237
1789075353847967000,1.992967041015625,1.3552742069929837,-0.2544832951128483,0.020613529765978453
1789075353858018000,2.00301806640625,1.4403881929159164,-0.9774351658463477,0.46289515940248965
1789075353868070000,2.01306982421875,1.5549205810248852,-1.267959788416326,0.4937517046328634
1789075353878121000,2.023120849609375,1.5315525649189947,-1.207117489440739,0.5057449978306889
1789075353888172800,2.0331728515625,1.2115905432015657,-1.7037766790181397,0.24569888095892964
1789075353898223900,2.043223876953125,0.8169511739015579,-2.0353627952948212,0.07150025191642344
1789075353908276000,2.05327587890625,0.6385235289871692,-2.1723598209291697,-0.10400931359417737
1789075353918326800,2.063326904296875,0.411235699313879,-2.296150158987939,-0.11984269641153514
1789075353928379000,2.07337890625,0.05805120695233345,-2.503829909610748,-0.006247369956970215
1789075353938430000,2.083429931640625,-0.21395897702276706,-2.611268832327425,0.18321685195229948
1789075353948481800,2.093481689453125,-0.470516740322113,-2.6837483776047826,0.31386596986465154
1789075353958532900,2.103532958984375,-0.7283820790886879,-2.6767837992891668,0.3915482714168727
1789075353968584700,2.113584716796875,-0.9798170925468206,-2.7354052073448893,0.35997298345789314
1789075353978635800,2.1236357421875,-1.105264257901907,-2.788597868350148,0.32524047357700764
1789075353988688000,2.13368798828125,-1.0175140782564878,-2.52389362347424,0.4687268612306565
1789075353998738700,2.14373876953125,-1.0578151089847088,-2.4998852636381983,0.6061877049844712
1789075354008790800,2.153790771484375,-1.1242729097545145,-2.7035996177613733,0.849462719797343
1789075354018841900,2.163841796875,-0.9881874460071325,-2.9756007416471837,1.425316003729403
1789075354028894000,2.17389404296875,-0.7285124274700879,-3.0058605630934236,1.8765673409588635
1789075354038944800,2.18394482421875,-0.2865314612805843,-2.982114653585851,2.2949903214283287
1789075354048996900,2.193996826171875,-0.27112872496545315,-2.9683281202957033,2.420725509944558
1789075354059049000,2.204049072265625,-0.3670820848107338,-2.6514795544236898,2.3661671135440465
1789075354069099800,2.214099853515625,-0.2785673505336046,-2.3130150768101214,2.2332896520577368
1789075354079151900,2.22415185546875,-0.5433481677770614,-2.349832649336755,2.028032014015317
1789075354089203000,2.234202880859375,-1.0069710569322108,-2.0548086695209142,1.6333360922224818
1789075354099254800,2.2442548828125,-1.4863883120685815,-1.3348384449467061,1.1665393953368066
1789075354109305900,2.254305908203125,-1.8739426915436983,-0.9721358903944491,1.5624015844300387
1789075354119358000,2.26435791015625,-2.199782080861926,-0.757794928316772,1.0870138040054589
1789075354129408800,2.27440869140625,-2.4227374342888592,-0.6169125856816768,1.3869380500182509
1789075354139460900,2.2844609375,-2.3897733223199844,-0.2907560932382941,0.7212423634018749
1789075354149512000,2.294511962890625,-2.750596346735954,-0.03758037359267473,0.39847368676587935
1789075354159563800,2.304563720703125,-2.7291952467888594,-0.21886253115534782,0.5221015277393162
1789075354169614800,2.31461474609375,-2.897683681491017,0.09094313046783209,-0.08520692490339278
1789075354179666700,2.324666748046875,-2.9332062457710504,0.12133388481736182,-0.14469211018159986
1789075354189717800,2.3347177734375,-2.7360458433359858,0.21406886713802814,-0.39209918329790233
1789075354199769900,2.344769775390625,-2.813066539174318,0.3437228365331888,-0.7650652115806936
1789075354209820700,2.354820556640625,-2.6248510752171277,0.37001784600168464,-0.9942204425610601
1789075354219872800,2.364872802734375,-2.3548154061853883,0.299268193256855,-1.2314032049134374
1789075354229923800,2.374923828125,-1.9520611194908617,0.09259411254525184,-1.2827373785704375
1789075354239976000,2.384975830078125,-1.3849188191503286,-0.06328910760581492,-1.271784899662435
1789075354250027000,2.395027099609375,-0.8006915284961461,-0.11093757848739623,-1.1769260570555924
1789075354260078800,2.405078857421875,-0.3524456566929817,-0.2408236030727625,-0.9694552730083466
1789075354270130000,2.4151298828125,0.09469313065111637,-0.15746084473133087,-0.9071633597463369
1789075354280181800,2.425181640625,0.12469430116117,-0.08440203826129436,-1.067259229156375
1789075354290232800,2.43523291015625,0.5626590174466372,0.047427229346334934,-1.2215832371667026
1789075354300285000,2.445284912109375,0.6553437308847904,0.24761896230131386,-1.5585571839615702
1789075354310336000,2.4553359375,0.6215010825157166,0.4134311635315418,-1.8788620277673005
1789075354320387300,2.46538720703125,0.5264560696870089,0.4658700835600495,-2.122173940524459
1789075354330438400,2.4754384765625,0.4330670073717832,0.4291591862782836,-2.249702880589664
1789075354340490200,2.485490234375,0.43364743760824204,0.42432139085829257,-2.3288357462763787
1789075354350541300,2.495541259765625,0.66218906673491,0.40276042417436836,-2.315902907206118
1789075354360593400,2.505593505859375,0.8888134640634059,0.2497755558133125,-2.162752034628391
1789075354370644200,2.515644287109375,1.0012292984098194,0.06015577801614999,-1.908380383196473
1789075354380696300,2.5256962890625,1.1086854645222424,-0.34193156920224427,-1.282717504826188
1789075354390747400,2.535747314453125,0.9826128607451915,-0.6960141794472933,-0.7908908499717712
1789075354400799200,2.54579931640625,1.1578338185727595,-0.6482713082805276,-1.0468559080749749
1789075354410850300,2.555850341796875,0.2586591194927692,-1.140579901432991,-0.22592881627976893
1789075354420902100,2.565902099609375,1.047314757758379,-0.6912710765734315,-0.648003889515996
1789075354430953200,2.575953125,1.4097563232868908,0.24447715714424847,-1.1349626460731028
1789075354441005600,2.586005615234375,1.1063374400913715,0.8318640808731317,-1.4670295316040516
1789075354451056400,2.596056396484375,0.5013485164374113,0.3609843524575233,-1.2727689422637223
1789075354461108500,2.6061083984375,0.15391396590471268,-0.6047741118595004,-0.6271598389297723
1789075354471159600,2.61615966796875,0.24507190816700458,-0.9226385767757892,0.058121349579095836
1789075354481211400,2.62621142578125,0.3822223707973957,-0.7937241737015545,0.6987649394601583
1789075354491262500,2.636262451171875,0.19661855064332484,-0.9785941266231238,1.3325965112388134
1789075354501314300,2.646314208984375,0.016582301488518712,-1.3609689115032553,1.925982675382495
1789075354511365400,2.656365478515625,0.08559738552570342,-1.2259605754680931,2.126345673251152
1789075354521417500,2.66641748046875,-0.014862638089060782,-0.9909320685401558,2.1167659440010786
1789075354531468300,2.67646826171875,-0.2463189856186509,-0.9274550371468067,2.056976953470707
1789075354541520400,2.686520263671875,-0.5727911198824643,-0.9129761376783251,1.7300953616231678
1789075354551571500,2.696571533203125,-0.9035402008131146,-0.8654609377875924,1.210543664497137
1789075354561623300,2.706623291015625,-1.3563935664117335,-1.011424236948788,0.49092824470996854
1789075354571674400,2.71667431640625,-1.5493579784616827,-1.399012957084924,-0.5873503911107778
1789075354581726200,2.726726318359375,-1.6483473450019954,-1.7929960544332861,-1.4592606511682271
1789075354591777300,2.73677734375,-1.866913815820217,-2.3265774459555746,-2.147015536314249
1789075354601829400,2.746829345703125,-1.3328200908616183,-3.057140376214683,-2.2578180902451277
1789075354611880200,2.756880126953125,-0.17772621864676474,-3.873912101896107,-1.1912287231743335
1789075354621932300,2.766932373046875,0.5122562428882346,-4.267835431881249,0.002715104177594185
1789075354631983400,2.7769833984375,0.6566489682644605,-4.088390134356915,1.1256371838450432
1789075354642035500,2.787035400390625,1.1082511647582054,-4.110535330669582,2.5550965709894893
1789075354652086300,2.797086181640625,1.2207272048592566,-3.760320209507644,2.5564970854371785
1789075354662138400,2.807138427734375,2.1118495303869245,-3.7447953081175682,4.046383761015534
1789075354672189400,2.817189453125,3.1534184379696844,-4.503201646330952,6.71819824745953
1789075354682241500,2.827241455078125,3.0940999875605106,-4.193836714212596,6.750812230816483
1789075354692292400,2.837292236328125,3.8375826051473614,-3.3258331062048674,7.632466470775007
1789075354702344400,2.847344482421875,4.4173008939445015,-2.32588201103732,7.188239771485328
1789075354712395500,2.8573955078125,4.293700817760825,-2.141516208245605,7.2244175848037
1789075354722447400,2.867447265625,4.325748399406671,-1.3541557243570685,6.658228055143356
1789075354732498400,2.87749853515625,3.9297698904573917,0.21719810507446527,5.473578710359335
1789075354742550300,2.88755029296875,3.317002734017372,0.9257818432375788,5.080645560455322
1789075354752601300,2.897601318359375,2.5653011541396378,1.4755745109789073,4.686248183217645
1789075354762653400,2.9076533203125,2.4604735829651356,1.5591633331611752,4.716100300645828
1789075354772704300,2.917704345703125,0.9843495483446866,2.2028402993887664,3.6578555680721996
1789075354782756400,2.92775634765625,0.5104935075320303,2.5010294652372598,3.118226713079214
1789075354792807400,2.937807373046875,0.07463876913785934,2.986168020629883,3.6584488577902317
1789075354802859300,2.947859375,-2.092365662238002,3.1732658787339925,2.975328646707535
1789075354812911400,2.957911376953125,-1.778188069140911,3.0518165508434176,2.921698178806901
1789075354822962200,2.967962158203125,-5.774780502027273,2.7699916598185896,-0.476346761649847
1789075354833013200,2.97801318359375,-6.307029768162965,3.0456250027269123,-2.104219181638956
1789075354843065300,2.9880654296875,-5.813285296988487,2.829920643341541,-2.1140578540861603
1789075354853117400,2.998117431640625,-6.648687488859892,3.813538297215104,-5.457334847044945
1789075354863168500,3.00816845703125,-6.282444777482747,3.7066812660396096,-5.416401363632082
1789075354873220400,3.018220458984375,-8.788610436564683,4.90975824791789,-5.9242059243410825
1789075354883271400,3.028271484375,-5.385960048139095,3.8930107701197265,-1.840186552414298
1789075354893323500,3.038323486328125,-0.9953821798168122,0.9166201932691037,1.5492396127790211
1789075354903374300,3.048374267578125,1.226622838769108,0.775266287599504,1.1605220347434282
1789075354913426400,3.058426513671875,1.2653203798234463,0.5668259278677403,0.638376813992858
1789075354923477500,3.0684775390625,1.1278044448815285,0.5862700485281646,0.6211743347793817
1789075354933529300,3.078529296875,1.84222025019899,0.3576291968107223,-0.14622984114289284
1789075354943580400,3.088580322265625,1.7324527384042738,0.6247105460815131,-0.46026130376756186
1789075354953632300,3.09863232421875,1.137524167124182,0.47947819154337046,0.04145253885090351
1789075354963683300,3.108683349609375,1.1329121432840823,0.47482291308343405,0.039974282991886136
1789075354973735400,3.1187353515625,1.075965828833729,0.2329224745593965,0.2669172447502613
1789075354983786200,3.1287861328125,0.7527168944001197,0.17159356111064553,0.5242191044151783
1789075354993838300,3.13883837890625,-3.3624259300649166,0.6785350752495228,0.13349427821040152
1789075355003889400,3.148889404296875,-4.9503018552303315,0.8492726040527224,-0.4201841449230909
1789075355013941200,3.158941162109375,-4.964575879776477,0.8060885652340948,-0.42967619588971134
1789075355023992300,3.168992431640625,-5.8987692852675915,0.8843065080329775,-0.12767302471101283
1789075355034044200,3.179044189453125,-5.661958424967527,1.291809158298373,0.36752865953445435
1789075355044095200,3.18909521484375,-3.817271638524532,1.9216307637833057,-1.1608429372608662
1789075355054147600,3.199147705078125,-2.7533751637995243,1.6696500991411507,-0.4781289688915014
1789075355064198100,3.2091982421875,-2.8362510154068468,1.6722160041064023,-0.4845166241019964
1789075355074250500,3.21925048828125,-1.705201158863306,1.0888934072069822,0.39842707114517684
1789075355084301600,3.229301513671875,-0.13039163601994513,0.47712300671935076,2.4052041156858204
1789075355094353400,3.239353515625,0.3241512170355767,0.41932153674438594,3.1294869427621363
1789075355104404500,3.249404541015625,0.4175250817816704,0.6015149639330803,3.351963572761416
1789075355114456300,3.259456298828125,0.38157004436850545,0.5436509501159191,3.3414071074336764
1789075355124507400,3.26950732421875,0.06286061652805656,0.6985879754580557,3.495698089957237
1789075355134559500,3.2795595703125,0.0569160654425621,0.44917467708587644,3.9771763692766426
1789075355144610300,3.2896103515625,0.34010406151413913,0.7453427123703062,3.869726632905006
1789075355154662400,3.299662353515625,0.25501405925499276,1.178261981834471,2.2567326330959796
1789075355164713500,3.30971337890625,0.18191608981834723,1.114743376321718,2.248109766179323
1789075355174765300,3.319765380859375,0.2882055319726467,0.8062754661083221,0.9488537990063428
1789075355184816400,3.32981640625,1.3121575343221425,0.31952962164953347,-1.3910229812443256
1789075355194868200,3.3398681640625,1.2402139956176281,0.07734547081328928,-0.8872165502607822
1789075355204920300,3.34992041015625,1.0870435415565967,0.08609861304610968,-0.8822054441004991
1789075355214971400,3.359971435546875,0.9159464587260037,0.19429982537217438,-0.7168611526429652
1789075355225023200,3.370023193359375,2.4917092637062073,0.6657799308337271,-4.22671928537786
1789075355235074300,3.38007421875,2.2168723318725823,-0.4022331123646348,-5.450839055284858
1789075355245126400,3.39012646484375,1.8713428843088447,-1.4809221556171774,-5.359532644462585
1789075355255177200,3.40017724609375,1.7846761159859597,-1.4287664364442227,-5.341839166861773
1789075355265229600,3.4102294921875,1.8546390022672712,-1.9071321367010472,-4.418603793236613
1789075355275280400,3.4202802734375,2.5874913586378097,-1.920242085903883,-3.84968922252655
1789075355285332500,3.43033251953125,2.655876912599802,-1.1411324207492173,-3.9562604224979876
1789075355295383600,3.440383544921875,1.5597199441306293,-1.254921150884032,-3.742141870999336
1789075355305435400,3.450435302734375,1.4286087616644798,-1.127455923704803,-3.6960944055736062
1789075355315486500,3.460486572265625,-0.28857670337259766,-2.8168355363190174,-2.128971345579624
1789075355325538300,3.470538330078125,-1.5001576019629834,-2.8947037888973948,-1.0433306565582752
1789075355335589400,3.48058935546875,-1.805451046858728,-2.3758771911755203,-0.6341361076831817
1789075355345641500,3.490641357421875,0.6882634191900492,-1.564912836598605,0.5003115746051072
1789075355355692300,3.5006923828125,0.5293903695732355,-1.5261075973860918,0.5529904408693314
1789075355365744400,3.510744384765625,2.6146771794661876,-1.324588853611052,0.8577607386738061
1789075355375795500,3.52079541015625,3.956867156219482,-0.37381270824000234,0.18867314459681508
1789075355385847600,3.53084765625,3.419264546357095,1.307609954020381,-1.2427385456591844
1789075355395898400,3.5408984375,1.4516229958966373,1.9243331546097993,-2.0363322248488664
1789075355405950500,3.550950439453125,1.4674021643087267,2.0083324572890997,-2.021944218534231
1789075355416001500,3.56100146484375,-0.281918122266233,-0.13340060857757924,-1.3001362571388482
1789075355426053600,3.5710537109375,-0.6916270504042505,0.617221067108959,0.6809376063466072
1789075355436104400,3.5811044921875,-1.0143138209104536,1.4155974505305289,2.0494202544808386
1789075355446156500,3.591156494140625,-1.4281930204704403,2.0257114621132613,2.2118670709311963
1789075355456207600,3.60120751953125,-1.4182310139045118,2.046876122955978,2.2145079408288
1789075355466259500,3.611259521484375,-1.5440172019556164,2.4659175275847316,0.971211176764965
1789075355476311600,3.6213115234375,-1.1326312805160879,2.8584111170277,-2.2463562005102635
1789075355486362400,3.6313623046875,-0.6548325664922595,3.310795988331735,-3.0439684676915406
1789075355496414500,3.64141455078125,-0.32882804974019525,3.4102126403734085,-3.109112847775221
1789075355506465500,3.651465576171875,-0.33990210920125247,3.610720307409763,-3.0410329987615343
1789075355516517400,3.661517333984375,-0.6566992371469735,3.0129350315243,-2.420587562778592
1789075355526568400,3.671568359375,0.8113429786309599,2.3042849501267075,1.3415776900738476
1789075355536620300,3.681620361328125,1.6697592586040495,2.4101450792193413,1.4052607654333114
1789075355546671400,3.69167138671875,1.7990207215502858,2.6507082777902484,1.4732488445103167
1789075355556723500,3.701723388671875,1.9278595751702785,2.420429157346487,1.4586673614501953
1789075355566774300,3.711774169921875,0.9164335846558213,2.2850328449070454,1.2295394568681717
1789075355576826600,3.72182666015625,-1.111810318544507,1.514485402522981,-0.6142945121377706
1789075355586877400,3.73187744140625,-0.6559665389582514,0.46033261543810367,-0.23450725953280924
1789075355596929500,3.741929443359375,-0.5064363410957158,0.7352332601577043,-0.09630524202287197
1789075355606980600,3.751980712890625,-0.7749854248315096,-3.265627351567149,1.2772726834237575
1789075355617032400,3.762032470703125,-0.5639809137001633,-1.328768477383256,-0.29713585740327836
1789075355627083500,3.77208349609375,-4.493793181994557,-0.10919102708101272,-0.6735317140042781
1789075355637135600,3.782135498046875,-2.166366717994213,0.11497604022324084,-0.7318430331975221
1789075355647186400,3.7921865234375,-2.125767581102252,0.31722178309857846,-0.5662181712329387
1789075355657238500,3.802238525390625,-1.5446945166952908,0.7413637257367373,-1.173709433096647
1789075355667289600,3.81228955078125,-3.3207471812427043,2.2860499129950997,-5.24959927458167
1789075355677341400,3.822341552734375,0.8557604317020624,2.7231600582778452,-2.467546297830343
1789075355687392500,3.832392578125,-0.5400117168307305,5.424731969603896,-4.327600749275088
1789075355697444400,3.8424443359375,-0.49697928837724026,5.5987949895679945,-4.138883765536546
1789075355707496400,3.852496337890625,0.9038841919451951,4.71872655749619,2.1488667171388864
1789075355717547500,3.862547607421875,1.128725724444911,4.045528020969033,6.6951324291706085
1789075355727599400,3.872599365234375,-0.7992191178560256,-0.29844167930483817,3.833092307990789
1789075355737650400,3.882650390625,-2.960400542166829,-1.4662883578479289,3.3856098217755553
1789075355747702300,3.892702392578125,-2.899776854377985,-1.3914035049945115,3.474513847631216
1789075355757753300,3.90275341796875,-3.9415456684470174,-2.926173862916231,2.519043260833621
1789075355767805400,3.912805419921875,-3.816933784872293,-4.530847193625569,2.367910450080037
1789075355777856300,3.922856201171875,-3.737020874723792,-4.466941999948024,2.4494144288122652
1789075355787908600,3.93290869140625,-0.20756788774617016,-3.6638621150106188,-0.36480420300662514
1789075355797959700,3.942959716796875,-0.1392518553564325,-3.6127298936665055,-0.2958703675121069
1789075355808011500,3.953011474609375,0.07367427148725837,-4.20415147973895,-0.3936643867880106
1789075355818062600,3.9630625,3.630921968439221,-5.483361853227019,3.307365721622109
1789075355828114400,3.973114501953125,2.3556939425855874,-6.166053025242686,1.4615005390495062
1789075355838165500,3.98316552734375,2.2896219262629747,-6.152420805731415,1.4895593433201313
1789075355848217600,3.993217529296875,1.8381623531103133,-4.647690781286358,0.17654431538581847
1789075355858268400,4.003268310546875,2.4931518637299535,-4.248458823499083,-0.7744640313059091
1789075355868320500,4.013320556640625,3.598258885243535,-8.453674133077262,-0.14674246684014797
1789075355878371600,4.02337158203125,2.600334473598003,-6.613734248900413,0.5332751020520925
1789075355888423400,4.03342333984375,2.535080203399062,-6.657239628627896,0.4765080896914005
1789075355898474500,4.043474609375,2.354157234537601,-4.199546616291999,-0.3372393197327852
1789075355908526300,4.0535263671875,2.1256956849098203,-3.155312288892269,-0.9740876089841127
1789075355918577400,4.063577392578125,4.598557040283084,0.23980244333148001,-1.042152260428667
1789075355928629500,4.07362939453125,6.7441212087452405,3.766465580394864,-0.10550970821976662
1789075355938680300,4.083680419921875,6.719364953151345,3.722880705690384,-0.1589396851122379
1789075355948732400,4.093732421875,0.4354419198095798,5.850156937789917,-2.2774720542639493
1789075355958783500,4.103783447265625,0.13230185355544088,5.351948472943902,-0.11969430091679095
1789075355968835300,4.11383544921875,-1.0059702823918313,3.933289881277084,1.1621388222903013
1789075355978887700,4.1238876953125,-0.814740439049527,4.099025802400708,1.385850547042489
1789075355988938500,4.1339384765625,-0.1298140918603167,2.39539525385499,0.4493026873797178
1789075355998990600,4.143990478515625,0.02662672564089298,2.551279058527946,0.7055272732019424
1789075356009041700,4.154041748046875,-0.5442261196553707,-0.11084054785370825,-1.0873568452894686
1789075356019093500,4.164093505859375,-0.8649579567015171,-0.7551666256397962,-1.880955492915213
1789075356029144600,4.17414453125,-0.772601160043478,-0.6422738214313983,-1.640927424134314
1789075356039196400,4.184196533203125,-0.9249205502331256,-0.662983431982994,-2.4766969880133867
1789075356049247500,4.19424755859375,-0.5625041191458702,-0.7182014613360166,-2.4006384152054787
1789075356059299600,4.204299560546875,-0.16113982550501824,-1.2523550997883082,-2.286023317249119
1789075356069350400,4.214350341796875,0.09964699019882828,-1.8197931682050228,-1.9164836101531981
1789075356079402500,4.224402587890625,0.1342015496969223,-1.819568711799383,-1.9127377016231417
1789075356089453600,4.23445361328125,-0.7559621599316596,-0.38098493795692917,-0.7108294712632894
1789075356099505400,4.24450537109375,-0.7222399230718612,-0.39744332080483435,-0.7496879019677638
1789075356109556500,4.254556396484375,-0.5420190015325322,1.1850140864431857,-0.5627461112082004
1789075356119608300,4.2646083984375,-0.4648924706995487,1.1666145063996314,-0.5985767185240983
1789075356129659400,4.274659423828125,-0.4759248099107295,1.871799834296107,-0.20929683043062686
1789075356139711500,4.28471142578125,-0.35936515375785527,1.84766141833961,-0.24689386289715765
1789075356149762300,4.29476220703125,-0.9689490039866417,2.260913133651018,-0.08403934242874384
1789075356159814400,4.304814453125,-0.8256675643205642,2.5064397998481986,0.5336562103241682
1789075356169865500,4.314865478515625,-0.6669895988844334,3.005477701255679,0.3931523456126451
1789075356179917300,4.324917236328125,-0.8815816861789673,3.391854853644967,-0.6379337464004755
1789075356189968400,4.334968505859375,-0.8025124603129923,3.685924893736839,-0.8486229079723357
1789075356200020500,4.3450205078125,-0.7821746056832373,3.6690555920004844,-0.8802773986473679
1789075356210071600,4.355071533203125,0.19923793936148285,4.068620142742991,0.15607318976521492
1789075356220123600,4.36512353515625,0.3351565221093595,3.704037473532557,0.5539055098876356
1789075356230174500,4.375174560546875,0.25382987270541485,3.7356075007945297,0.6020309506312013
1789075356240226600,4.3852265625,-0.47604390624575316,0.8399211306005716,0.9964625223994255
1789075356250278400,4.3952783203125,-1.0552676895242183,-0.699215021315217,1.0209344080939888
1789075356260329500,4.40532958984375,-1.1776747565310448,-0.6601625293433666,1.0890540045961736
1789075356270381600,4.415381591796875,-1.1105576881349086,-0.18179449099898337,1.5046280253753066
1789075356280432400,4.425432373046875,-0.9049836776196956,-0.4468132086515426,1.8345687125325203
1789075356290484500,4.435484375,-2.549235570001602,-0.7281815880805254,2.5045550090149042
1789075356300535600,4.44553564453125,-2.8762358197927473,-1.1499702455908059,2.630122878140211
1789075356310587400,4.45558740234375,-2.449465866738558,-1.4241934294402598,2.5530618502914906
1789075356320638500,4.465638427734375,-2.471772391092777,-1.4275696278750896,2.542038351973891
1789075356330690000,4.47568994140625,-0.67033905544281,-1.1587597012460231,3.219175104732811
1789075356340741000,4.4857412109375,-0.02679921439727768,-1.260285308265686,2.573229316790402
1789075356350793200,4.495793212890625,0.11942836172329262,-1.8223036897212266,1.4508666245713828
1789075356360844000,4.505843994140625,0.06049100131988525,-2.3784616547107693,0.6459174386307597
1789075356370896100,4.515896240234375,-0.03461187917590141,-2.351882275342941,0.7163111175447702
1789075356380947200,4.525947265625,2.8001673101127147,-0.7501648718297481,-0.3683867376685142
1789075356390999300,4.535999267578125,3.8983600221931933,-0.8433487669616937,-0.6816478004425763
1789075356401050000,4.546050048828125,3.533192246571183,0.5723287630677223,-1.1846420382604002
1789075356411102200,4.556102294921875,2.2163158670336007,0.8549439276874065,-1.6441639218375086
1789075356421153300,4.5661533203125,2.293328964087367,0.8848580044358968,-1.565539882455766
1789075356431205400,4.576205322265625,1.994336665162444,2.0527584589928387,-2.771364993998408
1789075356441256200,4.586256103515625,2.188088720458746,2.0727263112664223,-2.7235475962907074
1789075356451308300,4.596308349609375,3.2603917890012264,3.9237475614279504,-3.7453321914732456
1789075356461359400,4.606359375,6.6897127422094345,4.917002812218666,-1.9059408810898661
1789075356471411200,4.6164111328125,6.904705738455057,4.908002928683161,-1.9065885313436388
1789075356481462300,4.626462158203125,1.9827450115680694,2.49474410135746,-5.712352979686856
1789075356491514000,4.63651416015625,2.108824045085907,3.734851713991165,-4.996193837833404
1789075356501565200,4.646565185546875,3.3019045336067676,2.050361334723234,-4.562857365870475
1789075356511617300,4.6566171875,2.7367081066370007,1.0429957255154847,-3.2209158109202978
1789075356521669000,4.666669189453125,2.6138088721990584,1.080049152624607,-3.117380325382948
1789075356531720200,4.67672021484375,-0.8475579090893268,-1.5635112992376088,-0.862540958687663
1789075356541772000,4.68677197265625,-4.36392703115344,0.007802782705426216,0.031819618108868596
1789075356551823000,4.696822998046875,-3.7242426416933534,-3.2452813136309384,0.20624533390551805
1789075356561875200,4.706875244140625,-3.3327941773891445,-5.721690716874599,0.762342654749006
1789075356571926000,4.716926025390625,-3.3928912109553813,-5.684603972017765,0.9121484546825289
1789075356581978400,4.726978271484375,1.1198773051440716,-3.150675861263275,3.220275467190146
1789075356592029200,4.737029296875,1.8442822972953319,-0.9968594127625227,3.103026805859804
1789075356602081300,4.747081298828125,1.9133686930030582,-2.1519588379353283,1.8575633652813732
1789075356612132400,4.75713232421875,2.0338865852624175,-3.0173399884849785,1.0034946129933
1789075356622184200,4.76718408203125,1.9565332964688538,-3.016991613438725,1.0122866989970207
1789075356632235300,4.7772353515625,1.0710808332711457,0.007702244940400123,-0.7523467459134757
1789075356642287400,4.787287353515625,0.26508940826859323,1.2509615996032952,-1.9868698364131152
1789075356652338200,4.797338134765625,0.5605004146406427,0.4627472753643989,-2.29721165073961
1789075356662390300,4.807390380859375,1.1489923404693603,-1.3660177193254233,-1.4754485465116798
1789075356672441300,4.81744140625,1.1203098513424397,-1.360643040549755,-1.4398523324735462
1789075356682493200,4.8274931640625,0.9167892662256956,0.8201637062072753,0.26131372565478084
1789075356692544300,4.837544189453125,0.5848235029816627,-0.20223755956888198,0.442596613869816
1789075356702596000,4.84759619140625,-0.41687637208197265,-0.7800643355309963,0.6898577026441692
1789075356712647200,4.857647216796875,-1.034240756651759,-1.45265321572721,0.8095525880828499
1789075356722699300,4.86769921875,-1.060758249764517,-1.4487322428911924,0.8431199266418814
1789075356732750000,4.87775,-1.6247048958688974,-1.5837936242878436,0.29174539653658865
1789075356742802200,4.88780224609375,-1.6990508195400238,-1.634741136714816,-0.15826675428673623
1789075356752854000,4.89785400390625,-1.34780226367712,-1.7440373777359723,-0.6235068693801761
1789075356762905000,4.907905029296875,-0.07867430826425552,-1.5783914729833601,-0.6564123830296099
1789075356772957200,4.917957275390625,-0.06078852296173572,-1.5770225227177141,-0.6554286326892673
1789075356783008000,4.928008056640625,0.434469859907031,-0.5965034193813801,-1.1615401257447897
1789075356793060400,4.938060302734375,0.8249995288658887,0.13359072432219982,-1.1748384371265768
1789075356803111400,4.948111328125,0.8257721937388182,0.13106091358363628,-1.1909255024440586
1789075356813163300,4.958163330078125,0.5001986888151616,2.37560743432343,-0.45315351758897304
1789075356823214300,4.96821435546875,0.5160585212480276,2.3774194521814582,-0.4482489405430853
1789075356833266200,4.97826611328125,-1.616553738117218,3.8417788877934216,1.8254824658878146
1789075356843317200,4.988317138671875,-1.7949013035327195,3.467942652547359,2.6324068974241612
1789075356853369300,4.998369384765625,-1.8074147481471299,3.472262853834033,2.665629075807333
1789075356863420200,5.008420166015625,-2.5607792928010222,2.036334562936425,2.823708929219842
1789075356873472300,5.01847216796875,-2.5896318777978418,2.035357242336869,2.829861022108793
1789075356883523300,5.0285234375,-1.068359956939891,0.4094318647623062,0.730229022129625
1789075356893575200,5.0385751953125,-0.973070540896058,0.1317488958477974,0.12463614123314619
1789075356903626200,5.048626220703125,-1.0173784691780805,0.12954232571423052,0.13265008247122168
1789075356913678000,5.058677978515625,-1.5224088889986276,0.37044425472021103,-0.4152338290393352
1789075356923729200,5.068729248046875,-1.5615315235972405,0.369808294904232,-0.3964275678910315
1789075356933781200,5.07878125,-2.3345564620107413,-1.009068905994296,1.2380822442859412
1789075356943832000,5.08883203125,-3.5288217764019962,-0.839023304978013,1.4936894288621843
1789075356953884200,5.09888427734375,-3.5836785712271926,-0.8416291035622357,1.5147778095982969
1789075356963936000,5.10893603515625,-0.3249007202286273,-1.262857204580307,1.3531471318364143
1789075356973987000,5.118987060546875,-0.36218970965929326,-1.2665168961316347,1.3562683325968683
1789075356984039400,5.129039306640625,-1.5422702121578156,-1.268076985055208,2.4724206258684394
1789075356994090200,5.13909033203125,-1.1340934620231389,-1.8648574678122996,2.563150405846536
1789075357004142300,5.149142333984375,-1.166350302505493,-1.870050944802165,2.5540049763604995
1789075357014193400,5.159193359375,0.5393079524755477,-2.9076456880569457,2.5536604007065296
1789075357024245200,5.169245361328125,2.1500059503018853,-3.4416169556796548,2.3403714318998157
1789075357034296300,5.17929638671875,2.597309572818875,-3.5590210998326537,2.020435129145533
1789075357044348200,5.18934814453125,2.5720570581406355,-3.106930243039131,1.7049371010996401
1789075357054399200,5.199399169921875,2.6334885551810263,-3.1100375614047047,1.6393158972844482
1789075357064451300,5.209451416015625,0.792955308220908,-2.352001517808437,-0.7588169648408889
1789075357074502100,5.219502197265625,0.2859428477376699,-1.5774474701315164,-2.329090305559337
1789075357084554200,5.22955419921875,0.5549965930599718,-1.011885132458806,-3.32752529707551
1789075357094605300,5.239605224609375,0.9996592726141214,-0.46208442754149437,-3.638762745067477
1789075357104657200,5.2496572265625,1.1641226895838974,-0.4606085097700357,-3.676125968778133
1789075357114708200,5.259708251953125,1.096170266342163,0.10352934805750846,-2.6123431835606694
1789075357124760000,5.269760009765625,1.0371639506220818,-0.010788520517945288,-1.7970849311821162
1789075357134811100,5.27981103515625,1.2716577661514281,-0.2877922749966383,-0.6481533809892833
1789075357144863200,5.28986328125,1.5516227085232734,-0.43977147344648837,0.4206118688158691
1789075357154914000,5.2999140625,1.6746154664635657,-0.435018141439557,0.45790275794267654
1789075357164966100,5.309966064453125,0.7146668574690819,-1.5925275503635405,2.7446836155608296
1789075357175018200,5.320018310546875,0.7243277621965855,-2.0943805091917516,2.6079578080832957
1789075357185069300,5.3300693359375,-0.18996716646272688,-2.4347324079871178,2.308235733579099
1789075357195121400,5.340121337890625,-0.6083493399977684,-2.6883570404440165,1.753307018123567
1789075357205172200,5.350172119140625,-0.48189029418639834,-2.6950048078954216,1.7750963867358862
1789075357215224300,5.360224365234375,0.1215315262813121,-1.726484185388684,0.1959181472890079
1789075357225275400,5.370275390625,0.34737456397376953,-0.9334925637453794,-0.397956823284924
1789075357235327200,5.3803271484375,0.47951267833486194,-0.051015901488065715,-0.7389357679374515
1789075357245378300,5.39037841796875,0.55429860085845,0.8169237013727426,-1.0565956501923501
1789075357255430100,5.40043017578125,0.659323302040249,0.7993781078100204,-1.069135252161324
1789075357265481200,5.410481201171875,1.105960861863941,2.293810025602579,-1.5477211710400878
1789075357275533300,5.420533203125,1.942144121110439,2.8530297162503,-1.8724379860691724
1789075357285584100,5.430584228515625,2.875794213505089,3.4118016631305217,-1.7866130753979086
1789075357295636200,5.44063623046875,2.7241923239350316,3.670818510019779,-1.5693613404400646
1789075357305687300,5.450687255859375,2.8177868456944823,3.6534880205124614,-1.563210562725365
1789075357315739100,5.4607392578125,0.6784566031858325,3.4353421131938693,-1.193179711111635
1789075357325791500,5.47079150390625,-0.16979644856080411,2.8038006981790065,-0.8628415490694343
1789075357335842600,5.480842529296875,-0.820718125219643,2.5550907257705924,-0.8877503648765385
1789075357345894700,5.490894775390625,-0.9951137381389736,2.145616190910339,-1.4669097046166657
1789075357355945500,5.500945556640625,-0.9544295533120631,2.1321552363127467,-1.4860596646361053
1789075357365997600,5.51099755859375,-0.625427900570631,1.6069728398233651,-2.1701510588385164
1789075357376048600,5.521048583984375,-0.30394933681041003,2.02992820302546,-1.5808188462607562
1789075357386100500,5.5311005859375,-0.009104220692813397,2.313116783618927,-0.9775817347101866
1789075357396151600,5.541151611328125,-0.37736616293787956,2.6164257766991854,-0.6690978232100605
1789075357406203400,5.551203369140625,-0.7798888328336179,2.67292624707818,-0.16867825818583368
1789075357416254500,5.56125439453125,-1.2434826420247553,2.549261288964748,0.4062747159056365
1789075357426306800,5.571306884765625,-1.7519091340243815,2.211786406910419,0.8568687582701444
1789075357436357600,5.581357666015625,-1.9013830716550348,1.9375807587176561,1.0981747380323708
1789075357446409700,5.59140966796875,-1.934884797631949,1.94326172696352,1.0882752753086387
1789075357456460800,5.601460693359375,-1.2825874487057327,0.5951490821629762,1.6037218752034008
1789075357466512600,5.6115126953125,-0.6229235165342688,-0.406304672652483,1.7924644317746161
1789075357476564700,5.621564697265625,-0.0511670003965497,-1.6373346603393553,1.7428871847875416
1789075357486615600,5.631615478515625,-0.10345657508224249,-2.682131882318854,1.3012711063876747
1789075357496667600,5.641667724609375,-0.14350933013781905,-2.6738562214046717,1.3010913659065961
1789075357506718700,5.65171875,-2.255278342634439,-4.103662814551591,-0.5210175318948924
1789075357516770600,5.6617705078125,-2.7895921400845047,-3.61771995703876,-0.4607299441926181
1789075357526821600,5.671821533203125,-3.3308044648766515,-2.6551877612918613,0.19945742733106017
1789075357536873500,5.68187353515625,-3.5688086266145107,-1.7776614149183034,0.718560650037229
1789075357546924500,5.691924560546875,-3.5831565931797025,-1.7758599184542894,0.7135910449311137
1789075357556976600,5.7019765625,-2.287283108051866,-1.1854618302106856,2.019008311212808
1789075357567027500,5.71202734375,-1.0635106902778149,-2.2546154948115347,1.8389101027376948
1789075357577079600,5.72207958984375,-0.35747605207562444,-4.9474774454593655,0.7891868225328624
1789075357587130600,5.732130615234375,-0.3128733786307275,-4.950411745345592,0.8201055462792515
1789075357597182500,5.742182373046875,1.6936954299867153,-7.411547007089853,0.06776464558467268
1789075357607233500,5.752233642578125,3.2741023344457147,-7.076532377669214,0.07639028898030518
1789075357617285600,5.76228564453125,2.626275262801349,-2.059318548160791,-0.0743191817946732
1789075357627337700,5.772337646484375,1.304054161234945,2.9798399866521357,-0.815331317614764
1789075357637388800,5.782388916015625,0.1445791513264179,5.101374460229278,-1.9305698570422827
1789075357647440600,5.792440673828125,0.08236746369376778,5.1221010219156735,-1.8716756233945488
1789075357657491700,5.80249169921875,0.6054561027742922,5.807795467400551,-2.4109888365671037
1789075357667543600,5.81254345703125,0.5413933804474771,5.825124203342199,-2.3664110053025187
1789075357677594600,5.8225947265625,3.0543712037622925,4.659146825802326,-1.452266116105765
1789075357687646700,5.832646728515625,3.882031987726688,3.6998663253277537,-0.5730867418281733
1789075357697697500,5.842697509765625,3.8317712885200974,3.7153134853065013,-0.5132577115483582
1789075357707749600,5.85274951171875,5.650811592531204,0.45773558468222614,0.5541676679551601
1789075357717800700,5.86280078125,5.962387478697299,-1.671912637245655,0.1336851976726204
1789075357727852500,5.8728525390625,5.459164400559663,-3.0738141553789373,-0.4367316673591733
1789075357737903600,5.882903564453125,3.775609256315231,-3.060145110988617,-0.8321928744360804
1789075357747955500,5.89295556640625,3.6677345725297927,-3.047697717347741,-0.8167645652882755
1789075357758006500,5.903006591796875,-1.164144316893816,-0.6687076548486948,-0.2596810098864138
1789075357768058600,5.91305859375,-1.6649730472408235,0.08073474792540072,0.0440191744685173
1789075357778110500,5.9231103515625,-1.721312920230627,0.08210311366915703,0.018489304153621197
1789075357788161500,5.93316162109375,-0.5389724369108677,0.7883084322631358,0.3051792439315468
1789075357798213600,5.943213623046875,-0.5774211177706718,0.7872720749527216,0.27499241465628144
1789075357808264700,5.9532646484375,0.4375707485318184,0.34433599999547004,0.9235157980017363
1789075357818316800,5.96331689453125,-0.019782558834552762,0.1634627154946327,1.1982887977536767
1789075357828367600,5.97336767578125,-0.05124035789370537,0.1632534566581249,1.1829074695527553
1789075357838419700,5.983419677734375,-0.5244610234122723,-0.10930325528383254,1.6495707493171095
1789075357848470800,5.993470703125,-0.5511339628150687,-0.1101595798522234,1.6327619455963371
1789075357858522600,6.003522705078125,-0.14823237660434097,0.43702538960874077,1.1601043938532472
1789075357868573700,6.01357373046875,-0.028394904357194897,0.9669973584622145,0.6904507001012563
1789075357878625500,6.02362548828125,-0.05698270093798637,0.9668056352823973,0.6804435392193496
1789075357888677600,6.033677734375,0.19684479714725164,1.2888503084927796,0.6862275294482708
1789075357898728700,6.043728759765625,0.16898641081955282,1.2889128523349762,0.6796528272330761
1789075357908780500,6.053780517578125,0.4504442586302757,1.5243489171504974,1.1086283275075257
1789075357918831600,6.06383154296875,0.5385469049751759,1.461732009717822,1.259453825877607
1789075357928883500,6.073883544921875,0.4975917942523956,1.461541455581784,1.2509842498265207
1789075357938934500,6.0839345703125,0.6059715049505233,1.005793829846382,1.1749155940160154
1789075357948986600,6.093986572265625,0.5579214675307274,1.005732455047965,1.1695341932386158
1789075357959037400,6.104037353515625,-0.3874713773667812,0.6344622708976269,0.7397019300043582
1789075357969089500,6.114089599609375,-0.8838426899135112,0.6213058522045612,0.5736939139410853
1789075357979140600,6.124140625,-0.913465090239048,0.6226449918538332,0.5830934643186628
1789075357989192700,6.134192626953125,-1.0051724830776452,0.9654863693773746,0.3064477294974029
1789075357999244800,6.144244873046875,-0.7686556372880935,1.20345107588768,0.11518456840738653
1789075358009295600,6.154295654296875,-0.5037146610468626,1.4253162959903478,-0.09359992858693003
1789075358019347700,6.16434765625,-0.330464126509428,1.4975105945855378,-0.25547785910814996
1789075358029398800,6.174398681640625,-0.37034722408652304,1.5017711746394633,-0.21693258600607512
1789075358039450600,6.18445068359375,-0.5662421366304159,1.07653734511137,-0.2547062902137637
1789075358049501700,6.194501708984375,-0.938890623396635,0.6246317817568778,0.015992007445171475
1789075358059553500,6.204553466796875,-1.149572770705819,0.24418460393846034,0.32220359009914096
1789075358069604600,6.2146044921875,-1.1597580646336079,0.0031762919485569,0.5782724739030003
1789075358079656700,6.22465673828125,-1.1945096445411443,0.005742927566170692,0.6147858027860522
1789075358089707500,6.23470751953125,-1.3421762404888868,-0.09470715917646884,0.7996971106313169
1789075358099759600,6.244759521484375,-1.3787369156450033,-0.094330142557621,0.8190737920787184
1789075358109811500,6.2548115234375,-1.5306658452123403,0.357903922098875,1.2299245106630026
1789075358119862500,6.264862548828125,-1.3094342468380926,0.5680401259630918,1.7008067232966422
1789075358129914600,6.27491455078125,-1.3427040637552738,0.5661293239057064,1.6987267021521926
1789075358139965400,6.28496533203125,-0.8294324698120356,0.4416080412238836,2.5331121181964873
1789075358150017800,6.295017822265625,-0.8972247340559959,0.19955343505144119,2.763354706022143
1789075358160068600,6.305068603515625,-1.139427881853655,-0.029933950492739676,2.8066508269131183
1789075358170120700,6.31512060546875,-1.4066151026517153,-0.25350948164463044,2.695750365565717
1789075358180171800,6.325171875,-1.4544506205379961,-0.2583072373151779,2.6825281881600618
1789075358190223600,6.3352236328125,-2.1979460976064202,-0.43626843376159663,2.000010034623742
1789075358200275700,6.345275634765625,-2.322462704113126,-0.4027870199203491,1.6546058208748697
1789075358210326800,6.355326904296875,-2.053045459240675,-0.5633750567615032,1.5551266249909996
1789075358220378600,6.365378662109375,-1.4331383679181338,-0.7570236516833305,1.6996205822519956
1789075358230429700,6.3754296875,-1.457207810291648,-0.7606962027162313,1.6860001993089913
1789075358240481500,6.3854814453125,0.6688982089847326,-1.246872284463048,2.2482822001367806
1789075358250532600,6.39553271484375,1.8287918826967478,-1.79756730787158,2.2948002056837082
1789075358260584700,6.405584716796875,2.636061036017537,-2.259250753396749,1.9475385274998842
1789075358270635500,6.415635498046875,3.146104315564036,-2.647134803217649,1.1691523543141782
1789075358280687600,6.4256875,3.2077678677946326,-2.6494875038236376,1.105307293326035
1789075358290738700,6.43573876953125,3.435197151765227,-3.0562533642470835,-1.136797752545774
1789075358300790500,6.44579052734375,2.9451556267619132,-3.3446091183453794,-2.267831388606876
1789075358310842600,6.455842529296875,1.7138737101405859,-3.583222644153237,-3.2147575805515047
1789075358320893400,6.4658935546875,-0.3833236100375652,-3.085669428345561,-3.72756857124567
1789075358330945500,6.475945556640625,-0.2272673714071512,-3.0968922486275434,-3.8106332234233617
1789075358340996600,6.48599658203125,-3.0201673208653923,-1.8204279589772223,-3.659837097278237
1789075358351048400,6.49604833984375,-2.2976561796367165,-2.0817729565531016,-3.0947824168667197
1789075358361099500,6.506099609375,-0.25010990233421326,-2.177963047763705,-2.36664101466611
1789075358371151400,6.5161513671875,1.7683470586061476,-2.0315087502151727,-2.445917088215798
1789075358381202400,6.526202392578125,1.9366192202091217,-2.044324977168441,-2.4621336251318455
1789075358391254500,6.536254638671875,4.851639236426353,-2.545481185904145,-1.836009997382015
1789075358401305300,6.546305419921875,4.386536337846517,-3.055398208722472,-0.44017698550745843
1789075358411357400,6.556357421875,2.732558001220226,-3.361248118457198,0.9579898761421441
1789075358421409300,6.5664091796875,1.1193535735309124,-2.742023164179921,0.9156609928481281
1789075358431460400,6.57646044921875,1.2241653626143931,-2.749249608302116,0.9522275132231414
1789075358441512400,6.586512451171875,0.13552622242942453,-1.221310557705164,0.26631957111805676
1789075358451563300,6.596563232421875,-0.11021394038796424,-0.15848375803828238,-0.046744215518236154
1789075358461615600,6.60661572265625,0.005909516304731369,-0.1763257041990757,-0.03762304369062185
1789075358471666400,6.61666650390625,0.32688451445698735,1.8750304867804048,-0.616352905972302
1789075358481718500,6.626718505859375,0.4416929430283606,1.8522095831632612,-0.6201560976475476
1789075358491769600,6.63676953125,0.8798515744507313,3.2045243558287617,-1.1567264418527483
1789075358501821400,6.646821533203125,1.0424879221238195,3.4174119042277336,-1.1769115901388227
1789075358511873500,6.65687353515625,1.1279121430397032,3.396296635484695,-1.186515869308263
1789075358521924600,6.666924560546875,1.4683578575983642,3.622975393348932,-0.6057578621998428
1789075358531976400,6.6769765625,1.524967049048841,3.608292203480005,-0.6108753513440489
1789075358542027500,6.687027587890625,2.0081543242432174,3.035361967387795,-0.24115707281082868
1789075358552079400,6.697079345703125,1.3267056996345519,2.8407068257719277,-0.47744566280245776
1789075358562130400,6.70713037109375,1.336270085185021,2.8360446791797873,-0.4894084877967834
1789075358572182500,6.7171826171875,0.3034530777260661,2.428098084539175,-1.6490858884096145
1789075358582234400,6.727234375,0.2829952499784529,2.4298691858649253,-1.6670396243818104
1789075358592285400,6.737285400390625,-0.4819079029083252,1.9693857637792824,-2.0636929638527333
1789075358602337300,6.747337158203125,-0.7916226713776588,2.1487720245927573,-1.7862677690915763
1789075358612388400,6.757388427734375,-0.8315177516534924,2.153986544370651,-1.8089109780542552
1789075358622440400,6.7674404296875,-1.189488016986847,2.619616681694984,-0.6403631655044854
1789075358632491300,6.7774912109375,-1.2275593889668583,2.6242268058389424,-0.6616722032539546
1789075358642543600,6.787543701171875,-1.198361351533234,2.176501158517599,0.5382694032080472
1789075358652594700,6.7975947265625,-0.8864414742350578,1.4899959811717272,1.1308999266788362
1789075358662646500,6.807646484375,-0.9182710292160511,1.4937293224811552,1.1147339509062468
1789075358672698600,6.81769873046875,-0.409788423115015,-0.5412105712264776,2.211882268500328
1789075358682749400,6.82774951171875,-0.323579481562227,-1.5115467187225817,2.6623154212146996
1789075358692801500,6.837801513671875,-0.670486354959011,-2.298064175915718,2.783981898987293
1789075358702852600,6.8478525390625,-1.436395908409357,-2.7571359776377675,2.1136717773780225
1789075358712904400,6.857904541015625,-1.4594726864837109,-2.754271820378303,2.105573957248777
1789075358722955500,6.86795556640625,-2.754002063526213,-2.8119226298362014,-0.6364876392453909
1789075358733007400,6.87800732421875,-3.1378795080542563,-2.6910668839246035,-1.5588362931638955
1789075358743058400,6.888058349609375,-2.9489070882499218,-2.3092232833117246,-1.760614418527484
1789075358753110500,6.898110595703125,-2.6569451263532042,-1.6685756017774342,-1.6163820348121225
1789075358763162400,6.908162353515625,-2.668075592176616,-1.662251659452915,-1.5969498968504368
1789075358773213400,6.91821337890625,-1.8790236480697988,-0.23910277062952517,-0.29526670253053305
1789075358783265300,6.928265380859375,-1.4365569441899657,0.21483517533540725,0.37957244081050157
1789075358793316400,6.93831640625,-1.0440132319949567,0.21498481293916702,0.8491212128832936
1789075358803368400,6.948368408203125,-0.9052722853027284,-0.48518181001245975,0.5284307307608426
1789075358813419300,6.958419189453125,-0.9378395069085061,-0.47470133253037927,0.5504974550098181
1789075358823471600,6.9684716796875,-0.6989467257678509,-3.172744485208392,-0.9987310518532991
1789075358833522400,6.9785224609375,-0.3247216373346746,-4.538842284032702,-1.454818577067554
1789075358843574500,6.988574462890625,1.2269244520641862,-4.9132262162894005,-2.0977770197622476
1789075358853626400,6.99862646484375,2.9644483562529085,-4.80270773999691,-2.2712131399996576
1789075358863677400,7.008677490234375,2.922971852004528,-4.784323357522488,-2.2066582502417265
1789075358873729500,7.0187294921875,2.8947008662879465,-0.15745090785920618,-1.5080144529432058
1789075358883780400,7.0287802734375,1.6221591569088398,2.3448393710941073,-1.4408958501771092
1789075358893832400,7.03883251953125,1.5705121179103851,2.3631167860627174,-1.3727937893316149
1789075358903883500,7.048883544921875,0.8266575982712209,3.975476579621434,-0.9452863157831132
1789075358913935400,7.058935302734375,0.7867232088983058,3.988153105843067,-0.8953669773600995
1789075358923987500,7.068987548828125,2.4911890392243863,2.936043515023589,-0.4462264948047697
1789075358934038500,7.07903857421875,3.705472474771738,1.9056617718875406,0.05558116357699036
1789075358944090400,7.08909033203125,4.484093041235209,0.8696446532130241,0.407112554969266
1789075358954141400,7.099141357421875,5.0523769128263,-0.11426876873672008,0.3335148193169385
1789075358964193300,7.109193359375,4.983979668426513,-0.10333470226824283,0.3525110500793904
1789075358974244400,7.119244384765625,4.9165281804442404,-1.0043108978122472,-0.3801717949431389
1789075358984296400,7.12929638671875,3.3712288297235964,-0.8694125980228186,-0.35033472895361484
1789075358994348500,7.1393486328125,1.1477565881293266,-0.632061639496684,-0.1132764697637409
1789075359004399600,7.149399658203125,-0.5889513235013931,-0.2575917825222015,0.008277852871268988
1789075359014451500,7.159451416015625,-0.6703274380702525,-0.2540168466448784,-0.013024316745996474
1789075359024502500,7.16950244140625,-1.651578289747238,0.25938217307031153,-0.15064181236624716
1789075359034554400,7.179554443359375,-0.9560019171953201,0.10350304457247257,-0.44372539870403704
1789075359044605400,7.18960546875,0.08315528960321097,0.009712415719032287,-0.3988962960921228
1789075359054657500,7.199657470703125,0.9899603008985519,-0.1442220084518194,-0.10423837310969829
1789075359064709400,7.20970947265625,0.9665279873847961,-0.14474749363064765,-0.11846885077506303
1789075359074760400,7.219760498046875,1.0352642544806003,0.09110708885788917,0.7663558359131216
1789075359084812300,7.229812255859375,0.8391373598117381,0.4101543338179588,0.903971139576286
1789075359094863400,7.23986328125,0.5831576521286741,0.678183339202404,0.7721778200648725
1789075359104915500,7.24991552734375,0.5453905237922445,0.6775766054809093,0.755747055876255
1789075359114966300,7.25996630859375,0.2826291931450367,0.7452490427374839,0.6425986694715917
1789075359125018400,7.270018310546875,-0.34620296291112895,0.867940187382698,0.3850479496121406
1789075359135070500,7.280070556640625,-0.6317629488110542,0.8131359995275735,0.5220632415555417
1789075359145121300,7.290121337890625,-0.6626689592063426,0.8126549380123614,0.51252223688066
1789075359155173600,7.300173583984375,-0.5712871450603008,0.8359539805352687,0.6492964135445654
1789075359165224400,7.310224365234375,-0.6006815818488598,0.8346300384551286,0.6355487509600818
1789075359175276500,7.320276611328125,0.19201896615969016,0.9497989709019661,0.6233610311686992
1789075359185327600,7.33032763671875,0.47389878397583957,1.0043161585092544,0.5431104134984314
1789075359195379500,7.34037939453125,0.43324411750435826,1.0033289010375737,0.5333800237312912
1789075359205431600,7.350431640625,0.017366145342588422,0.7225655017644167,0.5797467842392623
1789075359215482400,7.360482421875,-0.02339256602525711,0.7228080783486366,0.580803745946288
1789075359225534500,7.370534423828125,-0.946667687138915,0.479155389329791,0.40603988423645493
1789075359235585500,7.38058544921875,-1.0748200197994708,0.4733797285377979,0.19200813423842192
1789075359245637400,7.390637451171875,-1.09876846614182,0.4747919334232807,0.20305428277924656
1789075359255688400,7.4006884765625,-0.6685679541170597,0.7853057433158159,0.10391279441714286
1789075359265740300,7.410740234375,-0.6913415114611386,0.7869447426944971,0.11741159680709243
1789075359275792400,7.42079248046875,-0.22644142371071502,1.3052940782934426,-0.041038258961588144
1789075359285843500,7.430843505859375,-0.13702944833291694,1.4794038600087165,-0.16053499147966502
1789075359295895300,7.440895263671875,-0.17387425592634825,1.4821487748026847,-0.13458207344710826
1789075359305946400,7.4509462890625,-0.2875298612007871,1.2295377033025026,-0.12925737129300832
1789075359315998500,7.46099853515625,-0.32387364220321174,1.2335194664150475,-0.09037526745200157
1789075359326049300,7.47104931640625,-0.6987912429451942,0.5731266354471445,0.5129179581999779
1789075359336101400,7.481101318359375,-0.9753069216459989,0.26158582059443,0.9473277584828436
1789075359346153200,7.4911533203125,-1.0077344425201415,0.2648077052503824,0.9858948780905454
1789075359356204300,7.501204345703125,-1.2894810076117516,0.08484159872233867,1.9604077998146414
1789075359366256400,7.51125634765625,-1.1281974627871065,0.2389712532043457,2.30285374827981
1789075359376307500,7.521307373046875,-0.8486141401439905,0.4162520661711693,2.4346561278805137
1789075359386359600,7.531359619140625,-0.6172953744541854,0.5492436555564403,2.3866420385569334
1789075359396410400,7.541410400390625,-0.6548994942486286,0.5470236414194106,2.3861472407773134
1789075359406462500,7.55146240234375,-0.3888164353001863,0.6012859774827957,1.9912138569667934
1789075359416514300,7.561514404296875,-0.45723983705453575,0.36030396897792816,1.928198013344407
1789075359426565400,7.5715654296875,-0.5934235735446214,0.11118483124673366,1.8590458589240908
1789075359436617500,7.581617431640625,-0.8444693684894591,-0.18343290585577487,1.7522244835838674
1789075359446668300,7.591668212890625,-0.9002683395355939,-0.18872984322011468,1.7453431996375321
1789075359456720400,7.601720458984375,-1.6114648905456066,-0.6770131263792515,1.2598051235333085
1789075359466771500,7.611771484375,-2.029003489395976,-0.9022527913510799,1.0387069422803819
1789075359476823300,7.6218232421875,-2.290797399783134,-0.9231582167357206,0.9154576522957533
1789075359486875400,7.63187548828125,-2.387265138891339,-1.0044985293388367,0.8182271851867436
1789075359496926200,7.64192626953125,-2.4508663811862466,-1.0096586885809897,0.8367796177044511
1789075359506978300,7.651978271484375,-1.7046458630681036,-1.3032926753431557,1.2107390409387648
1789075359517029400,7.662029296875,-1.7842103981703519,-1.5966940223932264,1.4322078090697525
1789075359527081500,7.67208154296875,-1.9160452187359331,-1.8425433446735142,1.6438785290248692
1789075359537132300,7.68213232421875,-1.4835732546478508,-2.0862036324769258,1.8537535977348685
1789075359547184400,7.692184326171875,-1.5274509748190641,-2.091495893666148,1.864153703457117
1789075359557236500,7.702236572265625,0.7157084754765033,-2.3918787701666355,2.2730589139968154
1789075359567287600,7.71228759765625,1.8879519276738166,-2.8660487722992896,2.178046926654875
1789075359577339400,7.72233935546875,2.361394200053811,-2.679726574742794,1.5659721363931893
1789075359587390500,7.732390380859375,2.517081605371833,-2.2258219465255737,0.8025895441371947
1789075359597442300,7.7424423828125,2.565240948385,-2.227151149302721,0.7293428869448602
1789075359607494400,7.752494384765625,1.8722258046232163,-1.3987719879359006,-0.9446818470839411
1789075359617545500,7.76254541015625,1.0824017801653594,-0.9881237331211566,-1.6838979663327336
1789075359627597300,7.772597412109375,0.42037294549345966,-0.618139497128129,-2.296290444241464
1789075359637648400,7.7826484375,0.02120513898357749,-0.45838148137032986,-2.9516987647950645
1789075359647700200,7.7927001953125,0.18848836261443794,-0.4543301601529121,-3.01678673851639
1789075359657751300,7.802751220703125,-0.10991115804910659,-0.40277591400444507,-3.6875101171016693
1789075359667803400,7.812803466796875,0.10707560582961886,-0.9948141706705093,-3.867586406005919
1789075359677855200,7.822855224609375,1.0759580839186906,-0.9400696040481329,-3.5836397005215286
1789075359687906300,7.83290625,2.4041461310654877,-0.5753378817558288,-3.0345030124709007
1789075359697958400,7.84295849609375,2.5383131939709185,-0.5754027636855841,-3.036701107037067
1789075359708009500,7.853009521484375,2.56645324678421,-0.04274433222711086,-1.1215293101347983
1789075359718061600,7.8630615234375,0.8963958820164203,-0.42356794214248655,-0.1218880115687847
1789075359728112400,7.8731123046875,-0.2788181104242802,-1.4346230535179376,0.6326227805107831
1789075359738164500,7.88316455078125,-0.5881377420961856,-2.35953132879138,1.422354523575306
1789075359748216300,7.89321630859375,-0.4611480234742164,-2.3657494726538655,1.4310259058088064
1789075359758267400,7.903267333984375,-0.4231856648266315,-1.9703654224663971,0.5378232668757439
1789075359768319500,7.913319580078125,-0.23897709842324255,-1.4211767119675873,0.14431085577905178
1789075359778370300,7.923370361328125,-0.09638765960931778,-1.4360112930059432,0.1424079447671771
1789075359788422400,7.93342236328125,0.4140297870118171,0.1952823336035013,-0.3847501357093453
1789075359798474200,7.94347412109375,0.5579635531067848,0.17540332865715025,-0.3897001593321562
1789075359808525300,7.953525390625,0.742364865603298,1.6732488542854784,-0.9467673481211065
1789075359818577400,7.963577392578125,0.743722417692095,2.21710029540956,-1.1766057390600442
1789075359828628200,7.973628173828125,0.8633236334979534,2.195761154782772,-1.1790075395047663
1789075359838680300,7.983680419921875,1.0872890407502651,2.4230425547152756,-0.7623940926752985
1789075359848731400,7.9937314453125,1.1836723164454102,2.4044074123501775,-0.7594017789915204
1789075359858783500,8.003783447265626,0.6415405387207865,1.8696213212132453,-0.00850435510352254
1789075359868835300,8.01383544921875,0.6345078636050224,1.5251333455264569,0.16594444930776953
1789075359878886400,8.023886474609375,0.6956321943923831,1.5094962159335612,0.15484277118742465
1789075359888938500,8.0339384765625,0.4085653110608458,1.4028209710657595,-0.36241087812930345
1789075359898989300,8.0439892578125,0.44677433794587845,1.389897776606679,-0.3847536428406834
1789075359909041400,8.05404150390625,0.26126287225037814,1.8750468533933162,-1.351198628117144
1789075359919093200,8.06409326171875,0.19307357151284812,2.188468659687042,-1.6606559146940707
1789075359929144300,8.074144287109375,-0.028058219748735427,2.6174510280936953,-1.7913496024005113
1789075359939196400,8.084196533203125,-0.4026107865706086,3.254153771394491,-1.7436280662827193
1789075359949247500,8.09424755859375,-0.41334100103005766,3.254607360380888,-1.7550288734801112
1789075359959299300,8.10429931640625,-2.1728302149198946,3.4959213773190974,-0.7265867201045155
1789075359969350400,8.114350341796875,-2.8354122264951465,2.8079414512455463,-0.016387801829725504
1789075359979402200,8.12440234375,-2.820043976971507,2.804993122833967,-0.01226589959412813
1789075359989454300,8.134454345703125,-3.6703155289337035,1.0122533812493086,0.9837116157673299
1789075359999505400,8.14450537109375,-3.391302480459213,0.2372276244074106,1.4378098668605088
1789075360009557500,8.1545576171875,-2.6069243733823297,-0.47886722003817556,2.1055220809310673
1789075360019608300,8.1646083984375,-1.8123668175965546,-1.3391150993525982,2.5272476100772616
1789075360029660400,8.174660400390625,-1.784111613970995,-1.351603409525752,2.5009680904388425
1789075360039712500,8.18471240234375,-0.6310650296747684,-1.8127116855114698,1.9218407532721757
1789075360049763300,8.194763427734374,-0.8917828352630138,-1.813207360073924,0.7938572985619307
1789075360059815400,8.2048154296875,-1.3894637691035865,-1.3629384580105541,-0.1895873368322849
1789075360069866500,8.214866455078125,-2.116758929738402,-0.7015805814027786,-0.6107071551702916
1789075360079918300,8.22491845703125,-2.1402014723852276,-0.6940203752815723,-0.6037976680427789
1789075360089969400,8.234969482421874,-3.3516090602353215,0.46755613695085046,-1.1340909778051078
1789075360100021200,8.245021240234376,-2.9285832621455192,0.2908890719681978,-1.4496147248141467
1789075360110073300,8.2550732421875,-2.07800805106163,-1.4879659366488456,-1.8562858926914632
1789075360120124400,8.26512451171875,-0.8384871522746979,-4.713510284152627,-1.7704288333162663
1789075360130176300,8.27517626953125,-0.8014969996601343,-4.717446454557776,-1.740365995746851
1789075360140227300,8.285227294921874,3.2656860960170624,-9.896376448154449,0.4394080469615757
1789075360150279200,8.295279052734376,3.261285815231502,-8.528227562019229,1.4964548019222914
1789075360160331500,8.30533154296875,1.6068040591277182,-4.529692762893438,1.7553676039151846
1789075360170382300,8.31538232421875,0.9009177433550357,0.998962522521615,0.2547413615271449
1789075360180434400,8.325434326171875,0.8391627134487032,1.0188239918112754,0.2812707642734051
1789075360190485500,8.335485595703124,0.44519846693128345,4.219927141019702,-1.2708653005994857
1789075360200537300,8.345537353515626,1.2679890145108104,3.932387379479408,-1.2876079072162507
1789075360210589400,8.35558935546875,2.759783569537103,3.0968466559201477,-1.1586898508802055
1789075360220640500,8.365640625,4.4490345873355865,2.098461056503653,-0.4821848201535642
1789075360230692400,8.3756923828125,4.399082223425805,2.1206606133520602,-0.40625615733563897
1789075360240743400,8.385743408203124,5.123862770891189,0.8632412159115076,1.9587899893544614
1789075360250795300,8.395795166015626,4.69099391644001,-0.24993045411407946,2.6553628255978223
1789075360260847400,8.405847412109376,4.170272883273661,-1.2618734542399643,2.4764655173450705
1789075360270898400,8.4158984375,3.3879905794322487,-1.7849995027214287,1.774211858986318
1789075360280950300,8.4259501953125,3.2901229103982446,-1.7679852395564317,1.7709844213724135
1789075360291001300,8.43600146484375,1.8784711287535727,-0.6271808817178011,0.3524536938689649
1789075360301053200,8.44605322265625,0.79326167075634,-0.0018576105654239655,-0.049213016784563655
1789075360311104300,8.456104248046875,0.2789944899044931,1.0254296736866235,-0.013895985013991594
1789075360321156400,8.46615625,-0.26716610494479537,1.6461504194796084,-0.3011231734737754
1789075360331209000,8.476208984375,-0.34054822508506477,1.6518775649547577,-0.32943624476641414
1789075360341260000,8.486260009765624,0.7485073869463056,1.3494412630558013,-0.9681476975411176
1789075360351312000,8.496311767578124,0.716743225351721,0.9647837740659713,-1.182910830553621
1789075360361363000,8.506363037109375,0.35934403790459035,0.6501227813661098,-0.9426866546787321
1789075360371414800,8.516414794921875,0.0412567240178585,0.4832967269182205,-0.6411167603507638
1789075360381467000,8.526466796875,-0.02796696126870811,0.49039983692169187,-0.6362072148688137
1789075360391518000,8.53651806640625,-0.5214893141251057,1.0230448243767023,-0.10373451524078846
1789075360401569800,8.54656982421875,-0.4168587268274277,1.2072323479920626,0.13640607400387525
1789075360411620900,8.556620849609375,-0.23722470179796218,1.2005711365371943,0.3259044173784554
1789075360421673000,8.5666728515625,0.059223757863044735,1.2432891652792692,0.513913691239059
1789075360431725000,8.57672509765625,-0.003251110750436783,1.2486001311689614,0.5258088578246534
1789075360441776000,8.586776123046874,-0.08415602761097252,0.9405255311220884,1.191063888001442
1789075360451828000,8.596827880859376,-0.11346742575857788,0.9598895722836256,1.5432468021050094
1789075360461879000,8.606879150390625,-0.06278470174763351,1.2154437114983796,1.793807370816171
1789075360471931000,8.616930908203125,0.018947861576080322,1.4893950926691293,1.7751183063067495
1789075360481983000,8.62698291015625,-0.04467855169270187,1.4907038371801375,1.7717888696230948
1789075360492034000,8.637033935546874,0.3054618054662831,1.7802853336811064,1.247128451181203
1789075360502086000,8.6470859375,0.42754970525503155,1.8147224408119915,0.8771585359744727
1789075360512137000,8.657136962890625,0.3568552898287773,1.8163287069648504,0.8860762941844761
1789075360522188800,8.667188720703125,0.1381616854995489,1.6095155100435017,0.8316792258255183
1789075360532241000,8.677240966796875,0.06901156777269206,1.6118325548142194,0.8546583156790584
1789075360542292000,8.6872919921875,-0.7589426370471716,1.1406728404134512,0.7015325044773518
1789075360552343800,8.69734375,-0.9105366355717182,0.9162725488752126,0.5569549605861306
1789075360562395000,8.707394775390625,-0.9633043491631745,0.919688494798541,0.5990137217018753
1789075360572447000,8.717447021484375,-1.1890279982596634,0.33533787002563475,0.45535796883068974
1789075360582498000,8.727498046875,-1.2363152346134185,0.3380331004589796,0.49733423929475246
1789075360592550100,8.737550048828124,-1.694531296288967,-0.08275777818560599,0.6027412908576428
1789075360602602000,8.74760205078125,-1.9016180494546888,-0.03202887694537639,0.6318729850567877
1789075360612653000,8.757653076171875,-1.9456325477480887,-0.032528643161058426,0.6499076773107052
1789075360622705000,8.767704833984375,-1.3327858963310717,0.9381254842430352,0.6006575433861464
1789075360632756000,8.777755859375,-1.3775906682193277,0.9367635482400655,0.6148629596754909
1789075360642808000,8.78780810546875,-0.0723532885491848,0.6257008722931147,1.2303139483720062
1789075360652860000,8.79785986328125,0.15276654943525791,0.1291080259501934,1.73212905940786
1789075360662911000,8.807910888671875,0.0988093337982893,0.12636077306866644,1.746936021786928
1789075360672962800,8.817962890625,-0.2455846069294959,-0.3486082704871893,2.200247944808006
1789075360683014000,8.828013916015625,-1.0576269660014659,-0.578864302316308,2.3309765576973556
1789075360693066000,8.83806591796875,-1.8769171773098408,-1.097179151123762,1.1049082840710878
1789075360703117800,8.848117919921876,-1.8892653483599424,-1.4605314017564057,0.431431807385385
1789075360713169000,8.8581689453125,-1.9493027606934308,-1.4665823723584412,0.43542460334859784
1789075360723221000,8.868220947265625,-1.077300146177411,-2.4382161584496496,0.36773726078383623
1789075360733271800,8.878271728515625,-0.1927643594332039,-3.248331933373213,0.8283286002233624
1789075360743324200,8.88832421875,0.6475574609227478,-4.099155566260219,1.5418798976659773
1789075360753376000,8.8983759765625,1.4639971781708299,-4.502866715288162,2.2234277448654174
1789075360763427000,8.908427001953125,1.4715017085820437,-4.505091405600309,2.1881970031388103
1789075360773479000,8.91847900390625,2.6013240691572426,-3.6935984971046447,2.4147061035245656
1789075360783530000,8.928530029296875,2.89066591168344,-3.177843854174018,1.6339102388486266
1789075360793582000,8.93858203125,2.833454662686586,-2.6051456732720135,0.46893180921822786
1789075360803634000,8.948634033203126,2.266106026118994,-1.6415864725649356,-0.6597503683459013
1789075360813685000,8.95868505859375,2.4324293917417523,-1.635882707965374,-0.7205527006372809
1789075360823736800,8.96873681640625,0.3100094405669719,-0.014413725277781486,-1.0389324215993285
1789075360833788000,8.978787841796875,-0.7262158409655094,0.8956003477245569,-1.433133984003961
1789075360843840000,8.988840087890624,-1.1524679076254367,1.1488169839024542,-1.9812350453965364
1789075360853891800,8.998891845703126,-0.7523556598722935,0.09881400997340678,-2.070476048121601
1789075360863943000,9.00894287109375,-0.599250672262907,0.0965390507787466,-2.0860919887959954
1789075360873995000,9.0189951171875,1.2972890510141848,-1.8168910170227288,-2.493505499473214
1789075360884045800,9.0290458984375,2.607519416666031,-2.4272353302299976,-2.6085885072022674
1789075360894098000,9.039097900390624,3.20357626132369,-2.710128142747283,-2.142326793976128
1789075360904150000,9.04914990234375,2.278593751770258,-2.525251467823982,-1.157521391622722
1789075360914201000,9.059201171875,2.3853566749215123,-2.52818342962265,-1.1164935079246758
1789075360924253000,9.0692529296875,0.07014489178471267,-3.021660189771652,1.1361381926584988
1789075360934304000,9.079303955078124,0.18090134155154228,-2.8685762449502943,1.5472309033051133
1789075360944355800,9.08935595703125,0.6883785700023174,-1.9289508775383233,1.2580182401165365
1789075360954408000,9.099407958984376,1.02880747955665,-1.0481880334615707,1.135008384910971
1789075360964459000,9.109458984375,1.1420702861212193,-1.0639601876109839,1.1324065318495034
1789075360974510800,9.1195107421875,1.1485296913936733,1.0462842456668615,0.9934815338272601
1789075360984562000,9.12956201171875,1.2165664319179952,1.9211755673617124,0.6777138219945132
1789075360994613800,9.13961376953125,1.1072023863576352,2.638641700160503,0.31056334812268616
1789075361004665900,9.149665771484376,0.7433924550853669,3.1902503312826154,-0.019613120551779866
1789075361014717000,9.159717041015625,0.8549978498317301,3.1675515927404163,-0.02432918928824365
1789075361024769000,9.16976904296875,0.9623207449533044,3.7667677782118316,-0.6222361187919974
1789075361034819800,9.17981982421875,1.485501300100982,3.6694787858486175,-0.9870373991891741
1789075361044872000,9.189871826171874,1.7148061686851084,3.6631115889042616,-1.2640922993332147
1789075361054924000,9.199924072265626,1.6229919544711708,3.882245338216424,-1.3864800771176815
1789075361064975000,9.20997509765625,1.6736591886520384,3.866685365512967,-1.408973063954711
1789075361075027000,9.22002685546875,1.101013906981051,3.9462352875679727,-1.3050868652835488
1789075361085079000,9.2300791015625,0.8417898470818996,4.0083723025292155,-1.0964945298604667
1789075361095129900,9.2401298828125,0.5740313292019069,4.123215656283498,-0.9515227259546518
1789075361105182000,9.250181884765626,0.34275779089331626,3.7426030587702988,-0.7395499543130397
1789075361115233000,9.26023291015625,0.3345570949114859,3.7403596637576815,-0.7684713667623698
1789075361125284900,9.270284912109375,-0.48617710466012354,2.5724317366719243,-0.36790567615330216
1789075361135337000,9.2803369140625,-1.2345467636361718,1.8501988278627395,-0.19744550298675895
1789075361145387800,9.2903876953125,-1.9502758435092866,1.042756656062603,-0.026749036846309898
1789075361155439900,9.30043994140625,-2.367674741628021,0.1535375338077545,0.18252894275337456
1789075361165491000,9.310490966796875,-2.3533491330251097,0.14413082303702832,0.1483170226804912
1789075361175543000,9.32054296875,-1.6583976143732666,-1.733867865899205,1.272790277312696
1789075361185595100,9.33059521484375,-0.6414834017060697,-2.339759875872731,1.904473146624863
1789075361195646000,9.34064599609375,-0.6627627749696373,-2.3396698595017194,1.8745270673029124
1789075361205698000,9.350697998046876,-0.26640388840064405,-2.7829174846261737,1.6100293047845362
1789075361215749000,9.3607490234375,-0.30456396157741544,-2.7748294552385806,1.602325598539412
1789075361225801000,9.370801025390625,-2.9116520010888576,-1.528946766334772,0.4605504959724843
1789075361235853000,9.38085302734375,-3.9414001224964856,-0.2987883007854223,0.8165496073633431
1789075361245904000,9.39090380859375,-3.937730786333978,-0.29683249054253097,0.8323433888226747
1789075361255956000,9.4009560546875,-4.100634991163015,1.6616723982602357,2.249832644449174
1789075361266007000,9.411007080078125,-4.10688148433715,1.6634458376735448,2.251242949638516
1789075361276059000,9.421058837890625,-3.392358126991987,1.997320649409294,2.047115923061222
1789075361286111000,9.431111083984375,-2.3729262324154377,1.0161673398226498,1.762532380978018
1789075361296161800,9.441161865234376,-2.3794950894117353,1.0169453384578226,1.7580575736515223
1789075361306214000,9.4512138671875,-0.5166892934322357,-2.394057867771387,2.108382000406831
1789075361316265000,9.461264892578125,-0.5209375985264778,-2.394218026769161,2.101869842033833
1789075361326316300,9.47131640625,2.142384953904152,-6.726994132855534,0.4928073364548385
1789075361336368400,9.481368408203124,3.51655236967653,-8.083801540765165,-0.8257650333456694
1789075361346419500,9.49141943359375,3.478684119053185,-8.07178377071321,-0.8082884133659303
1789075361356471300,9.50147119140625,2.896553800678253,-7.819138796943426,-3.5451007110297676
1789075361366522400,9.5115224609375,2.2372736071273684,-2.4478479101479054,-4.344654175406694
1789075361376574200,9.52157421875,0.9507438505366445,2.2517419852018357,-4.2674850110083815
1789075361386626300,9.531626220703124,-0.3587736906707287,5.1426323532909155,-3.4428280850350856
1789075361396677400,9.541677490234376,-0.37424861543923615,5.1581759593814605,-3.3557308163404462
1789075361406729200,9.551729248046875,1.0506946094550191,5.151531699061393,-0.06332016033120454
1789075361416781300,9.56178125,2.9884269054725765,3.989305198487639,0.9591503712888807
1789075361426832400,9.571832275390625,4.340756875707209,2.4310452439069747,1.4821879377692937
1789075361436884500,9.581884521484374,4.2768905527353285,2.44334416898787,1.477784149852395
1789075361446935300,9.591935302734376,4.796240589809417,0.631757688114047,1.5586992227807641
1789075361456987400,9.6019873046875,5.083205766332149,-2.434606735780835,-0.13999036223143338
1789075361467039200,9.612039306640625,4.742808274829388,-2.8286177440494296,-0.8322053685914724
1789075361477090300,9.62209033203125,3.8471278476059436,-2.2126737111389634,-0.6724565590534359
1789075361487142400,9.632142333984374,2.6558722364246843,-0.8130471522003412,-0.6793007989250123
1789075361497193200,9.642193115234376,2.569068397718668,-0.7993611566752195,-0.6730490450538694
1789075361507245300,9.652245361328125,0.4703529280625283,1.425849379953742,-1.0919801211759448
1789075361517297200,9.662297119140625,0.08751797832474112,1.5922504869878291,-1.2152724465847016
1789075361527348200,9.67234814453125,0.060989087035134434,1.4155483506917952,-1.2842092046886682
1789075361537400300,9.682400390625,0.4020834016956389,1.005363037213683,-0.9036701108030974
1789075361547451100,9.692451171875,0.3276677737891674,1.011347956842184,-0.921160393982008
1789075361557503200,9.702503173828125,0.04190905044674873,0.09175298554599284,0.8739308791648596
1789075361567555300,9.712555419921875,-0.7778641220729797,0.01627835010588169,1.377547705860436
1789075361577606400,9.7226064453125,-1.0990250712513923,0.2776256857693195,1.3602071333505212
1789075361587658500,9.732658447265624,-0.8952278611503541,0.6069347970247269,0.9366270623788236
1789075361597710300,9.74271044921875,-0.9502922343116254,0.6074813249915838,0.9103735539644956
1789075361607761400,9.752761474609375,0.0219991389054805,1.3018681954979896,0.30248218686729667
1789075361617813200,9.762813232421875,0.3322844007391482,1.5131997466266154,0.0861683172814548
1789075361627864300,9.7728642578125,0.5260581198779866,1.7197943323612213,-0.12334683207497
1789075361637916400,9.78291650390625,0.6810100870609284,1.9430495455175638,-0.009149521139264106
1789075361647968300,9.79296826171875,0.613031360334158,1.9465344650238752,-0.005525631553679704
1789075361658019300,9.803019287109375,-0.18768175893928854,1.1247598164886234,0.5739988882370293
1789075361668071200,9.8130712890625,-0.2508756077433936,1.1281845302402973,0.5851641331128776
1789075361678122200,9.823122314453125,-1.0110206245839595,0.017731471523642538,1.8292068932384251
1789075361688174300,9.83317431640625,-0.8236252448379993,0.037080315116047854,2.1615942428953945
1789075361698226200,9.84322607421875,-0.5598211271395906,0.45556993108093735,1.8513797082103787
1789075361708277200,9.85327734375,-0.3808195182621479,1.034157170021534,1.1501739514693616
1789075361718329300,9.863329345703125,-0.3320247999548912,1.4836767150223253,0.6055101710490882
1789075361728380400,9.87338037109375,-0.49997781260609625,1.6956775437146425,0.24922552071511744
1789075361738432500,9.8834326171875,-0.6568564735352993,1.6949802091002464,0.17277940989434717
1789075361748484400,9.893484375,-0.9775888951033354,1.7198025156676768,0.13808935091570018
1789075361758535400,9.903535400390625,-1.141288341963291,1.2753905229389666,0.37168219901733096
1789075361768587300,9.913587158203125,-1.2690987293183802,0.693043639203906,0.7049797953870147
1789075361778639400,9.923639404296875,-1.310285895231366,0.6963403426617384,0.7382021199006586
1789075361788690400,9.9336904296875,-1.4327099133729935,0.414512529027462,1.1505690882667898
1789075361798742300,9.9437421875,-1.0979951436817645,0.662289604499936,1.3456027078062296
1789075361808793300,9.95379345703125,-0.5295148727357387,0.8970680821895599,1.5267548092484473
1789075361818845200,9.96384521484375,-0.047380723323486744,0.9762719672858714,1.7094272521257399
1789075361828897300,9.973897216796875,0.40208325556516644,0.5930190843969583,2.1029493078336117
1789075361838948400,9.9839482421875,0.35887956219799816,0.23334698358178138,2.2791512395225464
1789075361849000200,9.994000244140626,-0.16229137016031892,-0.11111644218564033,2.2565625372260807
1789075361859051300,10.00405126953125,-1.0830266340654342,-0.3628109833627939,1.8291477103970943
1789075361869103400,10.014103271484375,-1.149039029155299,-0.3683271164357662,1.8170085059225558
1789075361879155500,10.024155517578125,-2.2403262726962567,-0.6528571747660636,0.1485148102749139
1789075361889206500,10.03420654296875,-2.418831074500084,-0.7645937946766614,-0.5562083069372922
1789075361899258400,10.04425830078125,-2.444651744455099,-0.9334639221727847,-0.8156124726437032
1789075361909310500,10.054310546875,-2.3578566735774276,-1.439605518105626,-0.7145731147710234
1789075361919361300,10.064361328125,-2.41937935603261,-1.4441501757979391,-0.7010489587441087
1789075361929413400,10.074413330078125,-1.541168972917646,-2.6085043360501525,0.5182417105060071
1789075361939464400,10.08446435546875,-1.5885219679839908,-2.6125942357122898,0.5283943442732095
1789075361949516300,10.094516357421876,0.7934246792983263,-3.738191672068834,2.0560805891528724
1789075361959568400,10.104568359375,1.8795634540349244,-4.099510371047258,2.615273684054613
1789075361969619200,10.114619140625,2.5254747551858423,-3.73525269600749,2.6240537873595953
1789075361979671300,10.12467138671875,3.0332804849386212,-3.2598429229468104,1.9646023288950323
1789075361989722400,10.134722412109374,3.106978173834085,-3.259761089882254,1.897951343640685
1789075361999774200,10.144774169921876,2.332769578593969,-2.331120057821274,-1.2032419631816447
1789075362009826300,10.154826416015625,1.3883616530805825,-1.8319471318572758,-2.023576495911181
1789075362019877400,10.16487744140625,1.5453203935086726,-1.8307389251112938,-2.094214066583663
1789075362029929500,10.174929443359375,-0.9214747936934232,-0.4484364259392023,-2.201913832193613
1789075362039981300,10.184981201171874,-1.6630565460950135,0.3790279586702585,-2.3547433638624846
1789075362050032400,10.195032470703126,-1.6483961525797843,0.571616815406084,-2.6318045476168392
1789075362060084200,10.205084228515625,-0.6359715064167976,-0.18015198448896408,-2.608932206073403
1789075362070135300,10.21513525390625,-0.48610710816383357,-0.18458792110979555,-2.632405436119437
1789075362080187400,10.2251875,2.3156337348759175,-1.0633674824148416,-3.3036709587574005
1789075362090239200,10.2352392578125,3.201398332762718,-1.4642857858538627,-3.4345927561312912
1789075362100290300,10.245290283203126,3.130485306149721,-1.8174188402891158,-2.46902572273314
1789075362110342100,10.255342041015625,1.6475719767153263,-2.0688900941044093,-1.0941882987447082
1789075362120393200,10.265393310546875,1.7576269271492957,-2.070018805873394,-1.0489449893087148
1789075362130445300,10.2754453125,-0.6403506713490933,-2.9046266324967145,0.3578168283373117
1789075362140497400,10.285497314453124,-0.11068740311861038,-2.5319307994574305,0.47578839711472387
1789075362150548200,10.29554833984375,0.39076457369327544,-1.9128046293795107,0.34048370848149057
1789075362160600300,10.305600341796875,0.5292001076981425,-0.9245365193516015,0.30080022512972354
1789075362170652400,10.31565234375,0.661669572905451,-0.942267990875244,0.307768895098567
1789075362180703500,10.325703369140625,0.7366378662586212,1.0148796380996703,-0.052565907409042115
1789075362190755300,10.33575537109375,0.8241163893558084,1.8417472258597611,-0.23573110223934052
1789075362200806400,10.345806396484376,0.7000408046148717,2.623680862393975,-0.39219577554017304
1789075362210858200,10.355858154296875,0.7881158323004841,3.0307085886240004,-0.5284875755146146
1789075362220910300,10.365910400390625,0.893144917396456,3.008943331539631,-0.5269296785481273
1789075362230961400,10.37596142578125,1.344455729728192,3.1958342688947914,-0.4946833594597876
1789075362241013200,10.38601318359375,1.5423312946952878,3.0675773068159815,-0.33426366492286325
1789075362251065300,10.3960654296875,1.5958075949475168,2.9274451980262994,-0.3080282766871154
1789075362261116200,10.4061162109375,1.533993528330326,2.8314871620059012,-0.35481165517196056
1789075362271168300,10.416168212890625,1.5641398063994942,2.8214970983892678,-0.37118425943255423
1789075362281219300,10.42621923828125,1.2953238884210585,2.7476772444188593,-0.5146481429934502
1789075362291271400,10.436271484375,0.3602431787014007,2.860521533310413,-1.0263247228302061
1789075362301323500,10.446323486328126,-0.19093276009187102,2.7836604119479653,-1.1743601520903408
1789075362311374300,10.456374267578125,-0.8681459390878676,2.5797218936800954,-1.1269473896607756
1789075362321426400,10.466426513671875,-0.8971160129845142,2.584787944898009,-1.139337792417407
1789075362331477800,10.476477783203125,-1.948463387259841,2.376396538874507,-0.486563327498734
1789075362341529600,10.486529541015624,-2.447057636553049,2.0583079098135233,-0.019863807377219198
1789075362351581700,10.496581787109376,-2.912968344384432,1.5489561196625232,0.37900866944789885
1789075362361632500,10.506632568359375,-3.047059711705148,0.9410416639506817,0.9037531129114329
1789075362371684600,10.5166845703125,-3.0309464890331026,0.9353104268223047,0.8924630726121365
1789075362381736400,10.526736328125,-1.8229905029416082,-0.688228347876668,1.676294067200273
1789075362391787500,10.53678759765625,-0.4809188918709755,-1.3435042742222547,2.046055454222858
1789075362401839600,10.546839599609376,0.5124629079088568,-2.185934172773361,2.0357281214758753
1789075362411890400,10.556890380859375,0.47605464683547616,-3.0257758083969355,1.9120704698860644
1789075362421942800,10.56694287109375,0.46642859422564503,-3.026518735718727,1.8946094858668743
1789075362431994600,10.57699462890625,-2.8644951131165026,-2.7267157049328086,0.2681007554464042
1789075362442045700,10.587045654296874,-3.976355116021633,-1.7079899127990006,-0.5459064739577472
1789075362452097500,10.59709765625,-4.1088092375293375,-0.5106149419546127,-0.7236892450973391
1789075362462149600,10.607149658203125,-4.067341793370247,-0.06720248165726661,-0.499572592806071
1789075362472200700,10.61720068359375,-4.033653166519105,-0.07616144866049289,-0.5022521872788668
1789075362482252500,10.62725244140625,-2.2182545800112186,-1.537992242577672,-0.3418140803024173
1789075362492303600,10.6373037109375,-0.3182043643951416,-2.96327054464519,0.26347441082000733
1789075362502355500,10.64735546875,2.326517240200937,-4.529771673348546,1.0410999748967587
1789075362512407600,10.657407470703125,3.1085552138924597,-6.101464525476097,1.6513671312145888
1789075362522458600,10.667458740234375,3.0854107774093746,-6.096478553757071,1.6447539966851472
1789075362532510500,10.677510498046875,0.9838494168028235,-5.365755464500189,0.5490523707680404
1789075362542562800,10.687562744140624,0.46212212920337914,-0.9590151275366544,-1.2861112389177083
1789075362552613600,10.697613525390626,1.112748183916509,3.310057444924116,-2.5788755059838295
1789075362562665700,10.707665771484375,1.976904468846321,4.613997185999155,-3.1214222942501304
1789075362572716800,10.717716796875,1.9502270359314977,4.634124028226733,-3.0396047195240854
1789075362582768600,10.7277685546875,3.3653014855012295,3.7948049551725385,-1.9330111127145588
1789075362592820700,10.73782080078125,3.870851253020763,2.956168603685498,-0.5767364965073764
1789075362602871600,10.74787158203125,4.104366578906775,1.7660551482766866,0.7802573738850652
1789075362612923600,10.757923583984375,4.057387385588884,0.45417584637403485,1.6875414374016224
1789075362622974700,10.767974609375,3.988548242640495,0.4748141452550888,1.7346166384398936
1789075362633026600,10.778026611328125,4.108889609289169,-1.9547569344460962,0.9105304250266403
1789075362643078700,10.78807861328125,4.099579052369296,-2.2917355574160814,0.10161562339067458
1789075362653129500,10.79812939453125,3.529084811252355,-2.123669147518277,-0.13870339116081595
1789075362663181600,10.808181640625,2.7974726642012593,-1.440161398422718,0.0012906243324279784
1789075362673233400,10.8182333984375,2.710362828285992,-1.425533738133311,-0.0012226005975157022
1789075362683284500,10.828284423828125,0.42969037054553627,0.8363461947232484,-0.0665063891518861
1789075362693336800,10.8383369140625,-0.13830708531960845,1.4008160609841347,-0.7491490458507091
1789075362703387600,10.8483876953125,-0.21562077275514602,1.5464116958767176,-1.3192834406793117
1789075362713439700,10.858439697265625,-0.09190802997723221,1.4178069432735443,-1.3954285227268934
1789075362723491600,10.86849169921875,-0.16445406461954115,1.4287006777316331,-1.3824388389028608
1789075362733542700,10.878542724609375,0.22956381178125737,0.5799532665967941,0.04936258132308721
1789075362743594800,10.8885947265625,-0.2372457445859909,0.32147242628037925,0.7939309483200311
1789075362753646600,10.898646484375,-0.5280431927479803,0.529777323064208,1.1285972757596523
1789075362763697700,10.90869775390625,-0.4573511154092848,0.7507073081433773,1.0385880651410668
1789075362773749500,10.91874951171875,-0.5209563762921839,0.7561743413776159,1.0350088914800435
1789075362783800600,10.928800537109375,0.302150982151553,1.2811837193876505,0.6170646344382316
1789075362793852700,10.938852783203124,0.528576130580902,1.4866916789293287,0.33417671729177234
1789075362803904500,10.948904541015626,0.6574199526369572,1.797410656005144,0.1022401850298047
1789075362813955600,10.95895556640625,0.6352279945731163,1.8963409858345985,0.0903019830200821
1789075362824007400,10.96900732421875,0.5610006192477419,1.9009002565741537,0.09318075332678855
1789075362834059800,10.979059814453125,-0.1365583419561386,1.4199848718345165,0.4636989500660449
1789075362844110800,10.98911083984375,-0.7011947969555854,0.8893126457571983,0.6975470881029963
1789075362854162700,10.99916259765625,-1.0886311030089855,0.2961567832380533,0.9642552201472222
1789075362864213800,11.0092138671875,-1.206953531050682,-0.04866144731640815,1.279314126123488
1789075362874265600,11.019265625,-1.2458511247217654,-0.04578559961915016,1.2970993736609815
1789075362884317700,11.029317626953125,-1.1688099706172943,0.21934125458300113,1.5867334771320223
1789075362894368800,11.03936865234375,-0.99910222325325,0.6608282997757196,1.4062923004381358
1789075362904420600,11.049420654296876,-0.8312976791620253,1.1226298187226056,1.078239399788901
1789075362914472700,11.05947265625,-0.7877320936799049,1.5476263323634862,0.7348421419482678
1789075362924523500,11.0695234375,-0.825541307592392,1.5503163020998239,0.7593330976694822
1789075362934575600,11.07957568359375,-0.9635141925215721,1.7092010421544312,0.4052572824914008
1789075362944626700,11.089626708984374,-1.158836273613572,1.356582951503992,0.49502618154808875
1789075362954678500,11.099678466796876,-1.3293413088351487,0.9554472059220075,0.6357091291535646
1789075362964730600,11.109730712890626,-1.2098837392836808,0.4221978228330612,0.7438840379945934
1789075362974781400,11.119781494140625,-1.249714229890704,0.4242430649250746,0.7757271831095218
1789075362984833800,11.129833740234375,-0.9543161560654639,0.026364275312423704,0.8774107571698725
1789075362994885600,11.1398857421875,-0.06156712438510731,0.23147417544722557,1.2952891093686223
1789075363004936700,11.149936767578126,0.6354676485478877,0.6145557934224605,2.055756764025986
1789075363014988500,11.159988525390625,1.3523212024062872,0.8042343156695365,2.9288544803023338
1789075363025039600,11.17003955078125,1.3064315578907728,0.8026929314464331,2.928698705218732
1789075363035091700,11.180091796875,0.5751624886563047,0.4863321490913629,4.027356696723401
1789075363045143600,11.1901435546875,-0.7945352708887309,0.3106143476575613,3.7517660239130257
1789075363055194600,11.200194580078126,-1.8955553884148597,-0.15232348184287547,2.7381203115224837
1789075363065246500,11.21024658203125,-2.3977438628077508,-0.6638438482046127,1.5841890533462166
1789075363075298600,11.220298583984375,-2.463539984798431,-0.6704425158172845,1.5551960369653999
1789075363085349600,11.230349609375,-2.0719033044457436,-1.5907506038188934,0.1345879186660051
1789075363095401500,11.2404013671875,-1.692694143989682,-1.761468405008316,0.17790384023599326
1789075363105452500,11.25045263671875,-1.037776456497237,-1.9506629431307314,0.4726668310280889
1789075363115504400,11.26050439453125,0.01386018304824829,-2.470681673246622,0.8681954773180186
1789075363125556700,11.270556640625,-0.02967339986041188,-2.4777742618560787,0.8373539104610681
1789075363135607800,11.28060791015625,1.226625615248084,-4.308021604058146,1.4827886801414192
1789075363145659600,11.29065966796875,1.4483542033590375,-5.136501303189992,1.3483409005984663
1789075363155711700,11.300711669921874,1.73572372289896,-5.278652935108542,0.709732396741584
1789075363165762600,11.310762451171875,1.7168062564611435,-4.39774045342803,-0.4100139754991978
1789075363175814700,11.320814697265625,1.784053161782026,-4.399020556366444,-0.472483875676617
1789075363185865700,11.33086572265625,1.2444406734019517,-2.3131693905889987,-1.7461955786831675
1789075363195917600,11.34091748046875,1.2448890016913414,-1.2958552188187837,-1.8575575200624763
1789075363205969700,11.3509697265625,0.889549961644411,-0.4499871625125408,-1.6434284471698104
1789075363216020500,11.3610205078125,0.3234720756649971,0.3899433204382658,-1.4328395311020314
1789075363226072600,11.371072509765625,0.5047147780001163,0.38804479334056374,-1.469471664059162
1789075363236124400,11.38112451171875,0.15014963580197654,1.111371927127242,-1.5330864964880049
1789075363246175500,11.391175537109374,0.3157189773201942,0.7164911502867937,-2.5612694144055244
1789075363256227800,11.401227783203124,1.005581063878536,-0.26864567597806455,-2.88762639785707
1789075363266278400,11.4112783203125,1.811805092060566,-1.0768442191034555,-3.432291493451595
1789075363276330800,11.421330810546875,1.9425123699009417,-1.0878168640166521,-3.4518569024041295
1789075363286382600,11.431382568359375,2.640037538433075,-2.0468787533044814,-2.688255333635211
1789075363296433700,11.44143359375,1.930357821726799,-2.0630068812847138,-1.453802385762334
1789075363306485800,11.45148583984375,0.6199870246909558,-2.2371873901486397,-0.4169792114019394
1789075363316536600,11.46153662109375,-0.011142010130733251,-2.24160637563467,0.09426189962700009
1789075363326588700,11.471588623046875,0.09899243528023362,-2.2516572295278308,0.1120120758511126
1789075363336640000,11.481639892578125,0.8804583081722259,-1.271325757718086,0.5498273006632923
1789075363346691000,11.491691162109374,1.0596775418557225,-0.34195758042633534,0.31399609905034304
1789075363356743200,11.5017431640625,0.8340801494874059,0.5050999779254198,0.193160519143939
1789075363366795000,11.511794921875,0.17098434317111968,1.2064251232624053,-0.05290960628017783
1789075363376846000,11.52184619140625,0.2914250785410404,1.1861655945658682,-0.04456847891435027
1789075363386898000,11.53189794921875,-0.2705364581607282,2.0572592775434253,-0.6673807901591062
1789075363396949000,11.541948974609374,0.16919117614403367,2.400854103782773,-0.837407248083502
1789075363407001000,11.5520009765625,0.7632629844643175,2.577464470142126,-0.8249130926914513
1789075363417053200,11.56205322265625,1.25747112762779,2.6175930669128893,-0.7674969687722623
1789075363427104300,11.572104248046875,1.3386316997498273,2.5971651959121225,-0.7749003768965601
1789075363437156000,11.582156005859375,1.7674655995965003,2.783506098169088,-0.443950658827275
1789075363447208200,11.592208251953124,1.6430945390403269,2.849969159635901,-0.41615795814692974
1789075363457259300,11.60225927734375,1.447663298485428,2.9215327591121194,-0.5848565284684301
1789075363467311000,11.61231103515625,1.2145023389950393,2.931114241927862,-0.773436734084785
1789075363477363200,11.62236328125,1.230424715270102,2.9245635051101444,-0.7875130441017448
1789075363487414000,11.6324140625,0.9084522305130958,2.905589924570918,-0.9972957583531736
1789075363497466000,11.642466064453124,0.050265375381708145,2.5404285786896943,-1.051514547535777
1789075363507517200,11.65251708984375,-0.3034288200676441,2.485867551940679,-0.9726048230804503
1789075363517569000,11.662569091796875,-0.7569416724883019,2.255204108354449,-0.8297052954040467
1789075363527621000,11.67262109375,-0.7808899727001786,2.258816453632712,-0.8445299395702779
1789075363537672000,11.682671875,-1.9649867981679736,1.6672317859530448,-0.4245958238855004
1789075363547724000,11.69272412109375,-2.327749996866286,0.8630793033480644,-0.07942132723927497
1789075363557776100,11.702776123046876,-2.3983212243042886,0.11003215408027171,0.226258778886497
1789075363567827200,11.7128271484375,-2.2146887042231858,-0.635573447009921,0.5833310724668205
1789075363577879300,11.72287939453125,-2.2108874122440816,-0.6399988622367382,0.5643411253146827
1789075363587930000,11.73293017578125,-1.3441897722683847,-2.0345114391624928,1.1425469637222587
1789075363597982200,11.742982177734374,-1.3234265318334102,-2.5149387481242416,1.325531541288644
1789075363608034000,11.753033935546876,-1.6262109165176748,-2.5018448732733725,1.3310731010638177
1789075363618085000,11.763085205078125,-2.104222688770294,-2.248853862544894,1.1471423286885023
1789075363628137200,11.77313720703125,-2.0777156439863145,-2.256910912272334,1.1408825376413763
1789075363638189000,11.78318896484375,-2.535281863451004,-1.2131120536804199,0.5779546401254833
1789075363648240000,11.793240234375,-2.068969881342351,-0.7611661583155394,0.32512466517761346
1789075363658292000,11.8032919921875,-1.9537647085383534,-0.135464701500535,0.26799203437492247
1789075363668343000,11.813343017578125,-2.1377382971420884,0.30588731913566586,0.33954686602279543
1789075363678395100,11.82339501953125,-2.135298795035481,0.30455519374907014,0.3360477718606591
1789075363688447200,11.833447265625,-3.4872225225567814,1.1364321341037749,0.43598596355840563
1789075363698498000,11.843498046875,-3.4180215605586763,1.540899654456973,0.2112150851421058
1789075363708550100,11.853550048828126,-3.0045328216210008,1.599520185729861,-0.13086992105618117
1789075363718602200,11.863602294921876,-2.0279253387704492,1.3406395324409006,-0.06596870207861065
1789075363728653300,11.8736533203125,-2.048067378567159,1.3460744169712067,-0.06550663752481341
1789075363738705200,11.883705078125,-0.25778116761445996,-0.6252098739057779,-0.09146993082091212
1789075363748756200,11.893756103515624,0.4022597811758518,-2.40632405962646,-0.4145902704387903
1789075363758808000,11.90380810546875,1.0931152626857161,-4.733514961305261,-0.7513952904075384
1789075363768860200,11.913860107421876,2.2612100707709786,-6.516356993731856,-1.4471325526095926
1789075363778911200,11.9239111328125,2.2328806328654287,-6.503458349192142,-1.4173730819009243
1789075363788963000,11.933963134765625,3.6698724613413214,-4.6240860338151455,-2.6458903561145064
1789075363799015200,11.94401513671875,2.934722787813842,-0.39790100144445895,-2.765166139358282
1789075363809066000,11.95406591796875,1.7348258972764015,2.2693021918118,-2.2617156822055575
1789075363819118000,11.9641181640625,0.5066632817193866,2.9607378112971783,-0.8152842636026442
1789075363829169200,11.974169189453125,0.4520598771333694,2.9829870525062083,-0.750489573739469
1789075363839221200,11.98422119140625,0.7963364020265639,2.5656729100614784,1.1274883646696805
1789075363849273000,11.994273193359374,2.341992164969444,1.868268153038621,1.340320091228187
1789075363859324200,12.00432421875,3.3731083598598834,0.9635083473026752,1.373325411990285
1789075363869376300,12.014376220703125,3.935541459596157,0.17496376819610596,1.14649350939095
1789075363879428000,12.024427978515625,3.8949414459213614,0.18513269551098346,1.1611470347739756
1789075363889479200,12.034479248046875,4.873046766114235,-1.306333942735195,-0.2839035969950259
1789075363899531000,12.044531005859374,4.45040821377635,-1.9182324996471405,-0.026164880282804368
1789075363909582000,12.05458203125,3.439302248996496,-1.7340958294361828,0.3333841786745935
1789075363919634200,12.06463427734375,2.4026526776373385,-0.8250304354608059,0.5205812593694776
1789075363929686000,12.07468603515625,2.3174071742892264,-0.8115390857249498,0.5148824632059782
1789075363939737000,12.084737060546875,0.34182021778225896,1.1006383516669274,-0.3574844545777887
1789075363949789000,12.094788818359374,-0.08311682075634598,1.5069219815313815,-0.8243269633665681
1789075363959841000,12.104841064453124,0.0504980150938034,1.2724866181910037,-1.200554039271921
1789075363969892000,12.11489208984375,0.43656069470643993,0.6759978118568658,-1.1941283901385962
1789075363979944200,12.124944091796875,0.3671499624151736,0.6847755770742893,-1.1934962297149
1789075363989995000,12.1349951171875,0.13067922078967092,0.11925590949952601,0.1717500668466091
1789075364000047000,12.145047119140624,-0.6393816071212292,0.19662731847167014,0.5900304239749908
1789075364010099200,12.15509912109375,-0.9743383688747882,0.5328115761935711,0.6095661684416234
1789075364020150300,12.165150390625,-0.6206478266872465,0.759620682439208,0.2582774266988039
1789075364030202000,12.1752021484375,-0.6776970169901847,0.7630898198544979,0.24463483192399144
1789075364040254200,12.185254150390625,0.3057061904150992,1.2895406288444995,-0.3747081957750022
1789075364050305000,12.195304931640624,0.46043139963746066,1.6092442918866872,-0.3887411050416529
1789075364060357000,12.205357177734374,0.37598208816833795,1.7770529276311398,-0.24468232432752846
1789075364070409000,12.215408935546876,0.07668693383932113,1.8572966771692037,0.021511282323300837
1789075364080460000,12.2254599609375,-0.003759717859700322,1.8618635466933249,0.021816256619244814
1789075364090512100,12.23551220703125,-0.09337620283365249,1.3827251084983347,0.5925013441331685
1789075364100563000,12.24556298828125,0.06484101322293281,0.8061608998179435,0.7072704636074603
1789075364110615000,12.255614990234376,0.1350853467941284,0.31324820329248904,0.9223369634807109
1789075364120667100,12.265667236328126,-0.1888145806278102,0.02158990051746368,1.1173263054870068
1789075364130718200,12.27571826171875,-0.24753101002322508,0.02345043369233608,1.1229830160744487
1789075364140770300,12.285770263671875,-1.0350082338929176,0.6439227576822042,0.8316473693825304
1789075364150822100,12.295822265625,-1.0081471149742602,1.2231424493074416,0.4920850135296583
1789075364160873200,12.305873291015626,-0.6778782187759876,1.6104846473366021,0.3033170302562415
1789075364170925000,12.315925048828126,-0.5936293252497911,1.7143547716557979,0.29820655537471175
1789075364180976000,12.32597607421875,-0.6387976697534322,1.7182815897107124,0.33181393368318673
1789075364191028200,12.3360283203125,-1.240273616850376,1.129095215344429,0.5010878927398472
1789075364201080000,12.346080078125,-1.5226064573973417,0.6993173126459121,0.8557309864118695
1789075364211131100,12.356131103515626,-1.4678151290237902,0.30075463242232797,1.1662883431851863
1789075364221183000,12.366182861328125,-1.3406284265249966,0.16271628104150293,1.154698954613134
1789075364231235000,12.376235107421875,-1.3774644114911556,0.1644219159156084,1.1799945047155023
1789075364241286100,12.3862861328125,-0.9404904598087072,0.5049848271131515,0.8001912508238106
1789075364251338000,12.396337890625,-0.6446954956203699,0.9080997638136148,1.0233637541327625
1789075364261389000,12.40638916015625,0.058430525126121936,1.0423878227502108,1.5401841996639967
1789075364271441200,12.416441162109376,0.8120710006445646,0.7322077748566865,2.1088433343082666
1789075364281493200,12.4264931640625,0.7656692418884485,0.7305225982487201,2.1140856188759205
1789075364291544300,12.43654443359375,0.1365196904461831,0.32018414003551005,2.562729257825017
1789075364301596200,12.44659619140625,-0.9708324796456843,-0.0398801749676466,1.6994687526911496
1789075364311648300,12.456648193359374,-1.765187133270502,-0.4420627992540598,0.5382488718766719
1789075364321699000,12.466698974609375,-2.0827543688058854,-0.7737783871293068,-0.1214572189360857
1789075364331751700,12.476751708984375,-2.1609686583429575,-0.7809984015107154,-0.12912220060601828
1789075364341802500,12.486802490234375,-2.344260109901428,-1.6382319014400242,-0.09824716987088322
1789075364351854600,12.4968544921875,-2.1829430281333626,-2.2066589808940886,0.3001019406672567
1789075364361906400,12.506906494140624,-1.4280799154847859,-2.9400188483953476,0.8186834045216441
1789075364371957500,12.51695751953125,-0.23775500928238033,-3.758893099313974,1.451263807195425
1789075364382009600,12.527009521484375,-0.2806138347346335,-3.76686480884552,1.4242805232018232
1789075364392061700,12.537061767578125,1.4193079954862593,-4.8684588538020845,1.752857520790398
1789075364402112800,12.54711279296875,1.9499819751292466,-4.774497544556856,1.6593803418003021
1789075364412164600,12.55716455078125,2.1294987304545936,-4.38580334739685,1.3628716763846576
1789075364422215700,12.567215576171876,2.199898985239863,-3.922008608806133,0.6084583533301949
1789075364432267800,12.577267822265625,2.2854262281388045,-3.9207279213458297,0.5469131667822599
1789075364442319600,12.587319580078125,1.6928543029874563,-1.450485808560252,-1.7810102869547904
1789075364452370700,12.59737060546875,1.3317214819699525,-0.4558744669854641,-1.9722348696000873
1789075364462422500,12.607422607421874,1.0187421587467194,0.37700434388816356,-1.392997203926742
1789075364472474600,12.617474609375,0.14871519168522207,1.3586498209059237,-0.9199347246445715
1789075364482525700,12.627525634765625,0.3114244949966669,1.362433431097865,-0.9307466260381042
1789075364492577500,12.63757763671875,-1.2032453241825103,1.871246292066574,-1.1972604045540094
1789075364502629600,12.647629638671875,-1.06098321762681,1.8695856653779743,-1.210181845447421
1789075364512680400,12.657680419921874,-0.379579162812233,0.5425672465324402,-1.575973013664782
1789075364522732800,12.66773291015625,0.6007844942340627,-0.6362210972636938,-2.367797491224855
1789075364532783600,12.67778369140625,1.5604630175828933,-1.7788702061861752,-3.0216642814248797
1789075364542835700,12.687835693359375,2.073269916623831,-2.7566040627181527,-3.0767852801442146
1789075364552887600,12.697887451171875,1.9971125596165655,-2.952656211650371,-2.4849603739678856
1789075364562938600,12.707938720703124,1.2324585591852664,-2.8677415476918218,-1.3350918351858854
1789075364572990700,12.71799072265625,0.5462007076639682,-2.88807355710268,-0.2687858151011169
1789075364583042600,12.72804248046875,0.22401319191679356,-2.586923787882924,0.4240525107890367
