time,seconds_elapsed,z,y,x
1789324135034640400,0.053640380859375,-0.02910802106261253,-0.31125388767011464,-0.7063566366981715
1789324135044602400,0.063602294921875,0.4832365211635828,-0.36527459699735043,-0.5010333130083978
1789324135054565400,0.0735654296875,1.127865965810418,-0.30617687666676935,0.00538052399456501
1789324135064527400,0.08352734375,1.5207348183065652,-0.2701382526233792,0.46277620919793844
1789324135074490400,0.093490478515625,1.7199971614569425,-0.21429916876256463,0.6532948355309665
1789324135084453400,0.103453369140625,1.8562077128887176,-0.2108580153327435,0.4868444825276732
1789324135094415400,0.113415283203125,1.9641537083446978,-0.380258815639466,0.3849357214093208
1789324135104378400,0.12337841796875,1.5387544591218232,-0.4241208998501301,0.7434579215370118
1789324135114340400,0.13334033203125,0.5616191530048847,-0.41653614380955695,1.0035136099547146
1789324135124303400,0.143303466796875,-0.0159989486426115,-0.35891719079464673,0.4292082861170172
1789324135134265300,0.153265380859375,-0.20769640949666499,-0.13969722450375557,-0.40686566753610964
1789324135144228400,0.163228271484375,-0.43450726930797096,-0.17338015226647258,-0.6551271655246615
1789324135154190300,0.1731904296875,-0.7399135269284248,-0.42355172166004773,-0.5666257291205227
1789324135164153300,0.1831533203125,-0.7243091305613517,-0.4260536214783788,-0.5757024772845208
1789324135174115300,0.193115234375,-0.45452422142028803,-0.3064011138767004,-0.524440492080897
1789324135184078300,0.203078369140625,-0.1788560994595289,-0.29667832289412616,-0.11310615469813347
1789324135194041300,0.213041259765625,0.17511691293120382,-0.35115021005496383,0.39488676818981766
1789324135204003300,0.22300341796875,0.515054970228672,-0.4502465441010892,0.7833579702489077
1789324135213966300,0.23296630859375,0.5162777900218963,-0.4318335200540721,1.1591921013139188
1789324135223927800,0.242927734375,0.12982523430883883,-0.2730130774073303,1.4406360301971435
1789324135233890800,0.252890869140625,-0.3439578143328428,-0.13632935550585387,1.521781404750049
1789324135243852800,0.262852783203125,-0.767035927131772,-0.052814913734048605,1.444530699548125
1789324135253815600,0.272815673828125,-1.0780448270648717,-0.048523646280914545,1.4847811691328883
1789324135263777800,0.28277783203125,-0.8929255755573511,-0.01662277962937951,-0.1656470737963915
1789324135273740800,0.29274072265625,-0.11259762065410614,0.5253033925205469,-2.4681249745011327
1789324135283702800,0.302702880859375,0.25120763444304467,0.6560211917549371,-2.781283453683555
1789324135293665500,0.31266552734375,0.1966846016168594,0.205875185418874,-1.5705276077404617
1789324135303628800,0.32262890625,0.09351122739017009,0.0017298925325274466,-0.17589695739299058
1789324135313590800,0.3325908203125,-0.19936346543729305,-0.16617475093230605,0.5344052751258015
1789324135323553800,0.3425537109375,-0.4930950673550367,-0.37095059680715203,0.9317001273706554
1789324135333515800,0.352515869140625,-0.6779436852276325,-0.5401787439607083,0.44673517497926946
1789324135343478800,0.362478759765625,-1.1416425622284412,-0.6435851962909102,-0.39476591828912494
1789324135353440800,0.372440673828125,-1.6792542321801185,-0.8810999670766293,-0.9274556216686963
1789324135363403800,0.38240380859375,-1.674969102206826,-1.0908306588798762,-1.382133572345972
1789324135373365800,0.39236572265625,-1.537163975059986,-1.2399059525817633,-1.5714461838901042
1789324135383328800,0.402328857421875,-1.4750211148798464,-1.490710559181869,-1.8037755148619412
1789324135393290800,0.412290771484375,-1.5804221020281315,-2.033327051683515,-2.054476953348517
1789324135403253800,0.422253662109375,-1.9354431621670722,-2.8391484904140234,-2.821142878124118
1789324135413216800,0.432216796875,-2.561152802288532,-3.5846000699862834,-3.692107381764054
1789324135423178800,0.4421787109375,-3.357479121312499,-4.48479855915606,-3.48802799372077
1789324135433141800,0.452141845703125,-3.525353808030486,-4.566292016494274,-3.565104219138622
1789324135443103700,0.462103759765625,-3.4273668965309856,-4.43482632150203,-4.392439424410462
1789324135453066800,0.472066650390625,-3.0592379330158233,-4.89608920352757,-5.419119974941015
1789324135463028700,0.48202880859375,-2.4673475603878496,-4.975851307028532,-5.734283071944117
1789324135472991700,0.49199169921875,-1.5461971763432025,-5.038375275480747,-5.138756388640403
1789324135482953700,0.50195361328125,-0.9264975902915,-5.55570462038219,-4.162199174672365
1789324135492916700,0.511916748046875,-0.8793325190126895,-6.301046602100134,-3.599948738026619
1789324135502879700,0.521879638671875,-0.9525082298606634,-6.79020725261569,-3.700876963675022
1789324135512841700,0.531841796875,-1.0693787055283783,-6.934060427755117,-3.6960190022498365
1789324135522804700,0.5418046875,-1.4120283598721026,-6.848817847016453,-3.111797556814551
1789324135532766700,0.5517666015625,-1.9924729171171782,-6.376886563721299,-2.1874726343870163
1789324135542729700,0.561729736328125,-2.6941908611640333,-5.744297100958228,-0.5860919154822826
1789324135552691700,0.571691650390625,-2.8947210322931407,-5.245629201906919,1.4953846884727477
1789324135562654700,0.58165478515625,-2.682197641031444,-4.447895061911642,2.6784073088377713
1789324135572616700,0.59161669921875,-1.9098428569644688,-3.683545305123925,2.8749843584269286
1789324135582580000,0.601580078125,-0.9994500137776136,-3.3685613640800116,3.167231859266758
1789324135592541700,0.611541748046875,1.9997838246524333,-3.3947365465611217,3.098192225310206
1789324135602504700,0.621504638671875,2.23277088888064,-3.9606837918981905,4.556842051103711
1789324135612467700,0.6314677734375,1.3208312546432017,-4.216449820297957,5.699112389841676
1789324135622430000,0.641429931640625,1.7990313890747724,-4.015988038229942,6.051376844748854
1789324135632393000,0.65139306640625,1.529156463562697,-3.719162561950087,7.06402828540504
1789324135642354700,0.661354736328125,1.035892469381541,-3.2962586366742848,7.547163684281706
1789324135652317700,0.671317626953125,0.7812497459232807,-2.7111320590928196,7.906268798863887
1789324135662280000,0.681280029296875,0.24410130956918,-2.110936214934289,8.326345391759276
1789324135672243000,0.691242919921875,-0.2932758209742605,-1.4701076238751412,8.550452253308892
1789324135682204700,0.70120458984375,-0.6258432033732533,-0.9748714528381824,8.803781702211499
1789324135692167700,0.711167724609375,-0.5235340447604656,-0.4483960939288139,8.75996827944815
1789324135702130700,0.721130615234375,-0.2518614221766591,-0.1479091725319624,8.614851952505111
1789324135712093000,0.731093017578125,-0.6411845648899674,0.0584235473960638,8.967156154900788
1789324135722055700,0.7410556640625,-10.61115553382635,2.207490171021223,13.289299223291874
1789324135732017700,0.751017578125,-12.96941961916089,6.400368561595678,13.19346335234642
1789324135741980700,0.760980712890625,-8.841958580392598,7.268720836910605,10.377054517006874
1789324135751943000,0.77094287109375,-6.880778919422626,3.4283629218310114,8.924195549574494
1789324135761905700,0.78090576171875,-2.101986892542243,-0.9684668464928865,7.560337638631463
1789324135771867600,0.79086767578125,0.10869769060611724,-0.6018325054496526,5.293171874326467
1789324135781831000,0.800830810546875,0.8726452963337302,-0.29084698639214035,3.6061095987439153
1789324135791793000,0.81079296875,2.7948762179672717,-2.421072131425142,2.8339538443803787
1789324135801755600,0.820755615234375,4.685979887670278,-2.8479280091971155,1.3191139293313026
1789324135811718700,0.83071875,5.123355405890941,-2.046418734577298,0.7603098337471484
1789324135821681000,0.840680908203125,-0.15142682526409626,-0.1382663149178028,-0.13545359558463096
1789324135831644000,0.850643798828125,1.9452081848561762,1.3874194037944079,0.13024316745996475
1789324135841605600,0.860605712890625,2.1843431041896344,2.3006501007556914,0.5028039759427309
1789324135851568600,0.870568603515625,5.857884317171573,2.4198925662517548,0.6846908214002847
1789324135861531000,0.88053076171875,-4.249811991673708,4.196263941359519,-1.3670125755816698
1789324135871494000,0.890493896484375,-4.5341696160465474,6.51892246030569,-3.7161768241375683
1789324135881455600,0.90045556640625,-4.897632341316342,6.653247344121336,-4.868216277217865
1789324135891418600,0.910418701171875,-5.061398423671722,5.970504149657487,-6.0779924644738434
1789324135901380900,0.920380859375,-2.0283315814837812,4.51424794100225,-6.458361316359043
1789324135911343900,0.93034375,1.6126956013843416,3.3276457085847855,-2.2021108160704372
1789324135921307000,0.940306884765625,-3.167923933184147,3.294298150256276,-0.6720388450980186
1789324135931268600,0.9502685546875,-3.4786119305998087,3.261807501018047,-1.3734469925433397
1789324135941231600,0.960231689453125,-1.8695868344217537,2.654878549212217,-0.949095791068673
1789324135951193900,0.97019384765625,-0.3598345979005098,1.8304057476341724,-0.6729010148853063
1789324135961156900,0.980156982421875,0.9802446703091263,2.1987661818176507,-2.1556232056617737
1789324135971118600,0.99011865234375,1.8703478819221258,0.4755015429973602,-0.19296119717955587
1789324135981081600,1.00008154296875,1.5109423230886458,-1.630440224650502,1.4526111301511526
1789324135991043800,1.0100439453125,0.7390992879360914,0.03867138369977474,0.5397013357073068
1789324136001006800,1.0200068359375,0.3749611476227641,-1.655301109662652,1.7077397374302148
1789324136010968600,1.029968505859375,1.0311305156767367,-3.1391040814131497,2.397391980630159
1789324136020931800,1.039931884765625,-0.3343549964681268,-2.2458447438567877,2.062213100558519
1789324136030894800,1.049894775390625,-1.3675444905012846,-0.42205052331686016,1.3747118979126214
1789324136040856800,1.05985693359375,-0.7191928104609251,-1.340391110637784,1.6403993086069821
1789324136050819800,1.06981982421875,-0.38292496610879895,-1.1032862358272075,1.1365940466672182
1789324136060781800,1.07978173828125,-0.9749670221671461,0.6312023923188448,0.277591198977828
1789324136070744800,1.089744873046875,-0.8053332168221473,0.8001169434785842,0.16026830336749553
1789324136080706800,1.099706787109375,0.5176762586429715,0.8627671686589717,-0.372527490735054
1789324136090669800,1.109669921875,1.793136339686811,-0.2621908007502556,0.1314268242865801
1789324136100631800,1.1196318359375,1.286995912797749,-0.19591127915680406,0.011309329521656036
1789324136110594800,1.1295947265625,0.29194062684774397,1.0524877764821052,-1.0111281766116618
1789324136120556800,1.139556884765625,1.0966489897698164,0.1425619662851095,-0.17182663921415806
1789324136130519800,1.149519775390625,1.6987135504096746,-0.8760866689592599,0.8813882824987173
1789324136140482600,1.159482666015625,1.0436790316045284,-0.9666881463825702,1.275535484367609
1789324136150444800,1.16944482421875,0.18011282152235508,-1.042823291558027,0.949032662704587
1789324136160407800,1.17940771484375,-0.36201135741770263,-1.1204384461581707,0.6317401524573564
1789324136170369800,1.189369873046875,-0.6216787771701813,-0.9792010064750909,0.6002104572057724
1789324136180332500,1.19933251953125,-0.9194222450777888,-0.6432593253374099,0.3005710925489664
1789324136190294800,1.209294677734375,-1.1871413077302277,0.05365092616677284,-0.26378303837776185
1789324136200257800,1.2192578125,-0.9781805773861706,0.5215449167698621,-0.7617664622962474
1789324136210219800,1.2292197265625,-0.4768576337814331,0.6476677894294262,-1.416104815530777
1789324136220182800,1.239182861328125,0.2361602874368429,0.8477958094984293,-2.2706366552859545
1789324136230144800,1.249144775390625,1.2459212673485278,0.9830418998122215,-2.7780092543184756
1789324136240107800,1.259107666015625,1.5771537478819488,0.7463233939707279,-4.997368726831675
1789324136250070800,1.26907080078125,0.8520300860673189,0.1263408993244171,-5.770416461598873
1789324136260032800,1.27903271484375,0.6299263810336589,1.0017325717568397,-3.4162089581787582
1789324136269995800,1.288995849609375,0.7855892364323138,1.0959586694180965,2.851051694175601
1789324136279957800,1.298957763671875,1.5367115551173687,1.0061778607279062,7.804471389165521
1789324136289920800,1.308920654296875,1.4206025653414427,0.20981413230299947,8.158762965986131
1789324136299882800,1.3188828125,-0.2380167289584875,-1.4170394660323857,4.866955463501811
1789324136309845800,1.328845703125,-1.3722177430093287,-1.748034338417649,2.658877263459563
1789324136319807700,1.338807861328125,-1.349894852042198,-1.676412871274352,0.841891553890705
1789324136329770800,1.348770751953125,-1.1072767667680978,-1.2750322110205887,-0.43293432090282435
1789324136339732700,1.358732666015625,-0.9540694878280163,-0.674820584771037,-0.5457803633600473
1789324136349695700,1.36869580078125,-0.7185493979908526,0.1577636270701885,-0.22681612050831318
1789324136359657700,1.37865771484375,-0.563662641531229,0.7461006911307573,0.009017419192194938
1789324136369620700,1.388620849609375,-0.5670166281342506,1.1237883411079646,0.07740355767607689
1789324136379583700,1.398583740234375,-0.3013433920957148,1.2724310886114836,0.017146365112066266
1789324136389545700,1.408545654296875,0.09739566760808228,1.11049923594594,-0.2799801399409771
1789324136399508700,1.4185087890625,0.5008049110800028,1.2376485290437935,-0.5682061301797628
1789324136409470700,1.428470703125,1.3457603825859725,1.2616601037502289,-0.26061726782321926
1789324136419433700,1.438433837890625,1.6972579447738825,0.8400684301167726,0.3536865966647863
1789324136429395700,1.448395751953125,1.4944021071761846,0.3478092290639877,0.945377062806487
1789324136439358700,1.458358642578125,0.9648504095613956,-0.16804595163166522,1.005187680646777
1789324136449320700,1.46832080078125,0.5939794538617134,-0.7709189060449599,1.0636381160497665
1789324136459283700,1.47828369140625,-0.12488310173153877,-0.3100912005662918,0.030846389162540434
1789324136469245700,1.48824560546875,-0.5085385740719736,0.34837329268753525,-0.2533978379637003
1789324136479208700,1.498208740234375,-0.26058402314074336,1.0480676219522953,-0.2390355506122112
1789324136489170700,1.508170654296875,-0.9478159073259681,2.4848878932535645,-0.877558202816546
1789324136499134000,1.518134033203125,-0.4321803607303649,2.325184822553396,-0.8721768020391464
1789324136509097000,1.528096923828125,-0.6384691684514284,3.622440555819869,-2.6397365096598864
1789324136519058700,1.53805859375,-2.1420663894742726,7.488451967594027,-4.333682699537277
1789324136529021700,1.548021728515625,3.125106535720825,4.872475688228011,-0.8590519475281239
1789324136538984000,1.55798388671875,2.1262463045299054,3.8799393993616103,-2.3509914639830587
1789324136548947000,1.567947021484375,-1.3252291973412036,5.307649312490224,-2.662467689166963
1789324136558908700,1.57790869140625,0.42332646153680975,1.4667700038850306,-1.748243597254157
1789324136568871700,1.58787158203125,-0.27220775237381456,0.4003934027820825,-3.5215754585355517
1789324136578834000,1.597833984375,-0.8953766219712793,0.2671908009946346,-2.388793371371925
1789324136588797000,1.607796875,-0.35446112470123914,-1.0718851353913545,0.35546909616738553
1789324136598758700,1.617758544921875,-0.5395511135816574,-3.229733615887165,0.26017566153556104
1789324136608721700,1.6277216796875,1.1880337265253067,-4.022478569293022,3.311527517476678
1789324136618684000,1.637683837890625,1.2445002946346997,-3.103976069408655,4.591839422465861
1789324136628647000,1.64764697265625,-1.2753607123225927,-3.153011026212573,3.1758164399996396
1789324136638609700,1.657609619140625,-0.005313303406428895,-2.2006483423024417,4.095432161822915
1789324136648571600,1.667571533203125,1.4876719221383332,-2.7140543762803078,5.083612593567371
1789324136658534700,1.67753466796875,0.2995820815116167,-5.419818478599191,2.7338161845877766
1789324136668497000,1.687496826171875,0.021945874348282813,-6.814643190214038,2.0628972834303974
1789324136678460000,1.6974599609375,0.18915769497705623,-5.985217734664678,1.4368743395760655
1789324136688421600,1.707421630859375,-0.03228665109872818,-3.3329344626426693,1.2873416574954986
1789324136698384600,1.717384521484375,-0.04600362628400326,0.18625790014863014,0.19095774840265511
1789324136708347000,1.727346923828125,-0.15064120957804844,0.291776376196742,-0.3009828882202506
1789324136718310000,1.737309814453125,-0.13908115669833496,0.8419447453826665,-0.716826081329584
1789324136728271600,1.747271728515625,0.22712650163173675,2.250575864031911,-0.9634820438176392
1789324136738235000,1.75723486328125,0.8726993646085262,-0.06028992578983307,0.8834367394611239
1789324136748198000,1.767197998046875,0.7338035196155309,-0.6621183395862579,0.03969751187711954
1789324136758160000,1.777159912109375,0.28176294997083023,-0.22391221576035023,0.3076668960288167
1789324136768122600,1.78712255859375,0.06363162830001674,0.03275076147913933,0.433056193716824
1789324136778084900,1.7970849609375,-0.054016270614136004,0.005468202278017998,0.3747776077494025
1789324136788048000,1.8070478515625,-0.20491991225434467,0.15106149908304214,0.45523178516775364
1789324136798009900,1.817009765625,-0.13543724723802877,0.11148176836669445,0.4561109060898423
1789324136807972600,1.82697265625,0.1117079966043122,0.044807694497704505,0.5015183200463652
1789324136817934800,1.836934814453125,0.25190732541130856,0.2748690805375576,0.38576983414590355
1789324136827897900,1.84689794921875,0.2440840844397433,0.37228959032595155,0.3518617193251848
1789324136837859800,1.85685986328125,0.20876727186487987,0.0733639268964529,0.05948153201639652
1789324136847822600,1.866822509765625,0.3033791539733298,-0.36902152844071384,-0.054684068606793874
1789324136857784800,1.876784912109375,0.22507543258713558,0.017597616010904312,-0.009662439097464084
1789324136867747800,1.886747802734375,0.11718434565616771,-0.18502280539572238,-0.24300591554790735
1789324136877709800,1.896709716796875,0.12875146759748457,-0.0640530777156353,-0.11020458803772926
1789324136887672600,1.906672607421875,0.1749701979368925,0.3201116593211889,-0.19323621472865343
1789324136897635600,1.916635498046875,0.2486795955364592,-0.031232758131623267,-0.15350480058193205
1789324136907597800,1.926597900390625,0.23408580098403617,-0.09305003961920738,-0.4148305089354515
1789324136917560800,1.936560791015625,0.19963234550654888,-0.2711789938479662,-0.33235534708350895
1789324136927522600,1.9465224609375,0.1844096601997502,-0.276153275129199,-0.19190905777812003
1789324136937485600,1.956485595703125,0.126533207026124,-0.16441490165293215,-0.20631547653228044
1789324136947447800,1.96644775390625,0.13554826986445112,-0.016795651978254316,-0.17858049738854168
1789324136957410800,1.976410888671875,0.4425111275434494,0.26753800699710845,-0.0620420301541686
1789324136967372500,1.98637255859375,0.3275000160068273,0.008453355568647384,0.08694704656898974
1789324136977335800,1.996335693359375,0.10049217231869698,0.06669102500379086,-0.15965893929749728
1789324136987297800,2.0062978515625,-0.07161213305937125,0.6549234596461058,-0.09883183789104223
1789324136997260800,2.0162607421875,-0.7728343842774629,2.803928708472848,-0.32252953411787744
1789324137007222500,2.026222412109375,0.7263222239494324,1.8007535366922616,0.08993424568623304
1789324137017185800,2.036185791015625,1.1402829643130301,2.0808400596171617,0.36085225051045416
1789324137027148800,2.046148681640625,0.5045125334262848,2.8820862993866205,0.24504735824763774
1789324137037110800,2.05611083984375,0.36064299167394637,3.649627837952971,-0.02351882275342941
1789324137047073800,2.06607373046875,0.004310264414548874,5.554056268653273,-0.1444122703269124
1789324137057035800,2.076035888671875,-0.007715104421973228,7.70487996507883,-0.4670473106458783
1789324137066998800,2.085998779296875,0.344198052829504,8.749890537548065,-0.5650093799650668
1789324137076960800,2.095960693359375,0.5942717513391748,8.382332651919127,-0.4833905426815152
1789324137086923800,2.105923828125,0.4820996991533786,7.073928917172551,-0.7088871050238609
1789324137096885800,2.1158857421875,-0.14972703560888767,5.118810748198628,-1.1423958648137749
1789324137106848800,2.125848876953125,-0.5991495499759912,3.4019980619966983,-1.7290346005238593
1789324137116810800,2.135810791015625,-0.9934048153292387,2.8767268181800842,-1.6259315150544047
1789324137126773800,2.145773681640625,-1.7902818270385263,-4.280212975156307,-1.5814911925643682
1789324137136735700,2.15573583984375,-0.8548556648820638,-27.20280937258005,1.6645711884416639
1789324137146698800,2.16569873046875,0.7351940971910953,-21.691609664356708,5.294689293152094
1789324137156661800,2.175661865234375,1.5063807142615318,-5.724824923247098,4.200065671730041
1789324137166623700,2.185623779296875,3.5118963605642315,-3.30111659809947,1.137967088586092
1789324137176586800,2.195586669921875,1.0904548113048076,-1.9691578002423047,-0.4295804804302752
1789324137186548700,2.205548828125,-1.5239339066088198,-0.5104021759867667,-0.40891456288993355
1789324137196511700,2.21551171875,-1.400256089013815,-0.788567375460267,-0.3811684778302908
1789324137206473700,2.2254736328125,-1.171451425036788,-1.588559815776348,-0.2966886981576681
1789324137216436700,2.235436767578125,-1.2579530659258364,-1.2147773565441369,-0.2540649235703051
1789324137226398700,2.245398681640625,-1.281536770609021,-0.704330756893754,-0.0836151256673038
1789324137236361500,2.255361572265625,-1.011098365995288,0.20676234351694583,0.2019238174445927
1789324137246323700,2.26532373046875,-0.48190381125509735,1.029804235509038,-0.004238222091645002
1789324137256286700,2.27528662109375,-0.24548867227435112,1.6125515167385338,-0.33703093767911196
1789324137266248700,2.285248779296875,0.6624632075011729,0.8366507306277752,0.058489452239125966
1789324137276211500,2.29521142578125,1.0620067154556512,0.10609247654378413,0.336569311516732
1789324137286174500,2.305174560546875,0.9205074099659919,0.27779928877055643,0.0329895386710763
1789324137296136700,2.31513671875,0.7231868485331535,0.13815525575876236,-0.3909169877760112
1789324137306099700,2.325099609375,0.532388382345438,0.47191491668224333,-0.6868044525533914
1789324137316061400,2.3350615234375,0.22441665815114972,0.968559200951457,-0.839193839239329
1789324137326024400,2.3450244140625,-0.1643336531102657,1.1425257748037576,-0.6559717996552586
1789324137335986700,2.354986572265625,-0.5234966353595256,1.301822602790594,-0.41744755956605073
1789324137345949700,2.36494970703125,-0.7014999173820018,1.1579454622536898,-0.16551789445877074
1789324137355911400,2.374911376953125,-0.6450339337944984,0.6751169373691082,0.12693886521756648
1789324137365874400,2.38487451171875,-0.3620820845663547,0.11153028368353843,0.36543943217024205
1789324137375836700,2.394836669921875,0.06607901231897995,-0.2735007147938013,0.3518716561973095
1789324137385799700,2.404799560546875,0.357609323066473,-0.4439660025268793,0.32383506375849247
1789324137395761400,2.414761474609375,0.6170107853591442,-0.3592120820879936,0.4568419968433678
1789324137405724400,2.424724365234375,0.8133563642799854,-0.192515206977725,0.4271474080644548
1789324137415686700,2.434686767578125,0.8715233065664768,-0.15246785874962807,0.2902458056285977
1789324137425649700,2.444649658203125,0.7827052054286002,-0.26813948002159593,0.272358997412771
1789324137435612700,2.45461279296875,0.6651321344494819,-0.4643769223928451,0.4427804460041225
1789324137445574400,2.464574462890625,0.5720014308094978,-0.6343751771360635,0.712035047660768
1789324137455537700,2.47453759765625,0.48736850640177726,-0.697454441383481,0.9563048456646501
1789324137465499600,2.484499755859375,0.49607671351432797,-0.6187088214486837,1.2190773918256164
1789324137475462700,2.494462646484375,0.5506172819972038,-0.3351391325831413,1.2904133200258017
1789324137485424600,2.504424560546875,0.4323170657873153,0.03825403507053852,1.2839536224924026
1789324137495387600,2.5143876953125,0.27288990768538784,0.1594716000318527,1.4339390167765318
1789324137505349600,2.524349609375,0.2650012002621777,0.09522972174584865,1.5496820958495139
1789324137515312600,2.534312744140625,0.31419688231945037,-0.07525251712203025,1.6096588640369474
1789324137525274600,2.544274658203125,0.33865327818393703,-0.1983931591004133,1.6283623954631388
1789324137535237600,2.554237548828125,0.2673497909486294,-0.2200309904128313,1.5146145818606018
1789324137545199600,2.56419970703125,0.20724457407593727,-0.19745324790179727,1.491271700195968
1789324137555162600,2.57416259765625,0.15815995117770507,-0.151869308334589,1.3317900171615182
1789324137565125600,2.584125732421875,0.10828737450586631,-0.04784311667084694,1.2081895025864242
1789324137575087600,2.594087646484375,0.06872340761423111,0.09102350222766399,1.1034219910360872
1789324137585050600,2.604050537109375,0.0675403535758145,0.14219956271350384,0.9050307316318154
1789324137595012600,2.6140126953125,0.12171029864801093,0.17525661366283893,0.7078899106800556
1789324137604975600,2.6239755859375,0.23238834941638634,0.21706512634456157,0.4465288387522101
1789324137614937600,2.6339375,0.3377496073424816,0.30416765573620796,0.2970874882169068
1789324137624900600,2.643900634765625,0.34656536648273467,0.3546896362274885,0.29846242983192206
1789324137634862600,2.653862548828125,0.38913375762104985,0.41395489514470096,0.2756868266612291
1789324137644825600,2.66382568359375,0.4418307440638542,0.4202373364150524,0.2251638232566416
1789324137654787600,2.67378759765625,0.490628969502449,0.40882396199703214,0.2405772270962596
1789324137664750600,2.68375048828125,0.551435612642765,0.2950017679840326,0.2861290179595351
1789324137674712600,2.693712646484375,0.6456161175966263,0.21798574832081793,0.3641016076952219
1789324137684675600,2.703675537109375,0.6387643520057201,0.24428046552836893,0.4668960656069219
1789324137694638600,2.713638671875,0.5658312177419662,0.2749561742991209,0.5746455155774951
1789324137704600600,2.7236005859375,0.5246656791388988,0.20464812784194944,0.6033548927113414
1789324137714563600,2.7335634765625,0.4459095378100872,0.10352642544806002,0.6617882308490574
1789324137724525600,2.743525634765625,0.3606336393237114,0.0030570494830608366,0.7081114444762467
1789324137734488600,2.753488525390625,0.27516601765751836,-0.0386076708137989,0.7177123626448214
1789324137744450600,2.763450439453125,0.17541618813872337,-0.059008653807640074,0.7179546469680964
1789324137754413600,2.77341357421875,0.06095861883163452,0.10378536864519118,0.8631215350545942
1789324137764375800,2.783375732421875,-0.003311910160118714,0.274597862380743,0.8655087224520742
1789324137774338600,2.793338623046875,-0.09601941081881522,0.38890053338706493,0.777764388025552
1789324137784300500,2.803300537109375,-0.07784779431223869,0.4869155019372701,0.9160914932198821
1789324137794263600,2.813263671875,0.0061491725627915,0.56541386911273,0.9449290267780422
1789324137804225800,2.823225830078125,0.0890928264260292,0.6029109483361244,0.9010893005296587
1789324137814188500,2.8331884765625,0.19367431388497353,0.7432260124772787,1.0761898468479514
1789324137824150500,2.843150634765625,0.2960416324257851,0.8603875800460576,0.994683383897692
1789324137834113500,2.853113525390625,0.3603144903719425,0.8946189354717731,0.9093230219982564
1789324137844076500,2.86307666015625,0.34002924271225926,0.9818617501169442,0.8731878787778318
1789324137854038800,2.873038818359375,0.2085235079705715,1.068417167019844,0.8399391046486795
1789324137864001500,2.88300146484375,-0.031873978644609446,1.1031430279642342,0.8889232080481946
1789324137873963500,2.892963623046875,-0.25843115595579147,0.9570616553813218,0.9569731003150344
1789324137883926500,2.902926513671875,-0.3951753758728504,0.7168471241176128,0.9393664242148398
1789324137893888800,2.912888671875,-0.45035541130304335,0.6265986979156732,0.7682717525370418
1789324137903851500,2.9228515625,-0.5129916079580783,0.593256400284171,0.7091761510983109
1789324137913813500,2.9328134765625,-0.4958090024888515,0.6026473289638757,0.6589709814712404
1789324137923776500,2.942776611328125,-0.4335293641865253,0.34499767877459525,0.7889597357787191
1789324137933738800,2.95273876953125,-0.1911830815911293,0.18830255771875382,0.8264096148595214
1789324137943701500,2.962701416015625,0.09927402870059013,0.17529869923889635,0.7661318178988993
1789324137953663500,2.97266357421875,0.23463760791420935,0.2857224829852581,0.6967452702008188
1789324137963626500,2.98262646484375,0.3099333796560764,0.46712885144948957,0.5174285674922168
1789324137973588700,2.992588623046875,0.27725860602259633,0.5148100555568933,0.2633823486223817
1789324137983551500,3.002551513671875,0.2833692161236889,0.4234428544580936,0.09496157232895493
1789324137993514500,3.012514404296875,0.3453472228646278,0.2755710913270712,0.10543708137497305
1789324138003476700,3.022476806640625,0.45378421670794483,0.14091887525320052,0.17644027048945427
1789324138013439700,3.032439697265625,0.6338648895263671,0.053704702180624,0.4178596474982798
1789324138023401500,3.0424013671875,0.9851321500897406,0.0675520257472992,0.8809988447897136
1789324138033364500,3.052364501953125,1.433012695711851,0.03595686404407024,1.158663693525642
1789324138043326700,3.06232666015625,1.5715163265168666,-0.21606676295697688,0.9559044481702148
1789324138053289700,3.072289794921875,1.343528239619732,-0.4587228421539068,0.6799832282312214
1789324138063251500,3.08225146484375,0.9677624976158141,-0.7807236762225628,0.5419783407285809
1789324138073214500,3.09221435546875,0.6231120248436928,-1.0997802735328674,0.4749857024297118
1789324138083176700,3.1021767578125,0.3363561071574688,-1.606834892657399,0.7916824387408793
1789324138093139700,3.1121396484375,0.2794832963347435,-2.2057629088371993,1.3819307432502508
1789324138103101400,3.122101318359375,0.5879997949302196,-2.6223627655327317,2.0155968953341246
1789324138113064400,3.132064453125,0.8508411685436964,-2.8332991798639298,2.4428186838090418
1789324138123027500,3.14202734375,0.9024866001069545,-3.0754660142391916,2.658881062851846
1789324138132989700,3.15198974609375,0.782267398533225,-3.465989764913916,2.8739772272109985
1789324138142952700,3.16195263671875,0.42001872522830963,-4.058151940220594,2.8823750532001253
1789324138152914400,3.17191455078125,-0.13982289671003817,-4.746331772780418,2.769177713087201
1789324138162877400,3.18187744140625,-0.678330638718605,-5.295363831412792,2.4491649840958414
1789324138172839700,3.191839599609375,-1.1091437296837567,-5.58313915527463,1.8944126481205223
1789324138182802700,3.201802734375,-1.4344932896584273,-5.582946847572923,1.3017812478668986
1789324138192764400,3.211764404296875,-1.636520421347022,-5.3836751520723105,1.0328415573783218
1789324138202727700,3.221727783203125,-1.9026292723238467,-4.9601481264621015,0.9092619394607842
1789324138212689700,3.231689697265625,-2.0816011071175335,-4.310619219335913,0.8480182931426912
1789324138222652700,3.241652587890625,-2.0601824715137482,-3.4539597199022767,1.0130581948261708
1789324138232615200,3.251615234375,-1.9450041867166756,-2.4920985552847386,1.26755632218197
1789324138242578200,3.261578125,-1.70504450699687,-1.4948779079943895,1.4503756261840461
1789324138252540400,3.27154052734375,-1.5883388665020466,-0.5664852977365255,1.7380708705469965
1789324138262503400,3.28150341796875,-1.60797061868906,0.22502514543831348,2.1373779393970964
1789324138272466400,3.291466552734375,-1.6318717187583445,0.6882441299676895,2.6061156873479483
1789324138282428200,3.30142822265625,-1.5313853916585445,0.7910603613197803,2.9428944038316605
1789324138292391400,3.311391357421875,-1.4472563251197337,0.7223141573518514,2.997877747645974
1789324138302353400,3.321353515625,-1.3919757519245146,0.6810083334952592,2.9426725777745246
1789324138312316400,3.33131640625,-1.3644541232705116,0.7029419328838586,2.9264228692412373
1789324138322278100,3.341278076171875,-1.6328560536205767,0.6201870773077011,2.935239505164325
1789324138332241400,3.351241455078125,-1.6375506411775946,0.15407997012138366,2.7061978175610304
1789324138342203400,3.361203369140625,-1.4191091119132935,-0.7622101144105196,1.8842859525121747
1789324138352166400,3.37116650390625,-0.9729179806828498,-1.830821927219629,0.7451517198428511
1789324138362128400,3.38112841796875,-0.3716811030387878,-2.8804630820989607,-0.5327461097419262
1789324138372091400,3.39109130859375,0.5293875930942594,-3.399385249149799,-1.654785415225476
1789324138382053400,3.401053466796875,1.192000730460137,-3.274870396208763,-2.0189254552349447
1789324138392016400,3.411016357421875,1.432960381002724,-3.134041537326574,-1.9697548893526196
1789324138401978400,3.420978271484375,1.4697916897937655,-3.0393630197226997,-1.9454560221374033
1789324138411941400,3.43094140625,1.289295421911776,-2.7608833474725483,-2.337819847720861
1789324138421904400,3.440904296875,1.0318100223734974,-2.333508414262533,-3.3776050867572427
1789324138431866400,3.450866455078125,0.5047647546216846,-1.3444459389865397,-4.30075102853328
1789324138441829400,3.460829345703125,0.2599380533874035,-0.21440204461514947,-3.5559839240938422
1789324138451791400,3.470791259765625,0.5750386065483093,-0.0795025757819414,-1.8824355023398995
1789324138461754400,3.48075439453125,1.0755942190423606,-0.490531938868761,-0.4681517647564411
1789324138471716400,3.49071630859375,1.7013392227381468,-1.2088602414548397,1.5476426989763974
1789324138481679400,3.500679443359375,2.2255668027207256,-1.844951574859023,2.6866411764368414
1789324138491641300,3.510641357421875,2.3473177439063786,-1.8975556223213672,2.2904183373376727
1789324138501604400,3.520604248046875,2.2594793014556167,-1.0815963820666075,1.2880705562919377
1789324138511566300,3.53056640625,1.9408698633909225,0.16994038707613943,0.39694180102348325
1789324138521529300,3.540529296875,1.8006103288292883,1.2591501667559146,-0.46190848645269866
1789324138531491300,3.5504912109375,2.1169132435172795,1.8869921427309513,-1.1047840731695293
1789324138541454300,3.560454345703125,2.423485037785768,2.359980241602659,-1.4765791579768062
1789324138551416300,3.570416259765625,2.6766893990039824,2.369603809994459,-1.6738079494729636
1789324138561379300,3.58037939453125,2.8654385314464568,2.3215292226552964,-1.9455171046748756
1789324138571342300,3.59034228515625,3.2533857096314427,2.479225629708171,-2.178364322040975
1789324138581304300,3.60030419921875,3.682570322611928,2.9680531027466057,-2.5321488261222838
1789324138591267300,3.610267333984375,4.177506633919477,3.2417356038480993,-2.5609268845781683
1789324138601229300,3.620229248046875,4.427196265015006,3.1994518748700616,-2.659406840291619
1789324138611192600,3.630192626953125,4.314740098658204,3.6422172694355246,-3.127538439042866
1789324138621154300,3.640154296875,4.260051061615347,4.247490270727873,-3.1094933715254065
1789324138631117300,3.650117431640625,3.956326473471522,4.255665978398919,-3.037445787924528
1789324138641079600,3.66007958984375,3.5040970849901436,4.18647203066349,-3.0003008831396696
1789324138651042600,3.67004248046875,3.154575791311264,3.5077918478548527,-2.84411517291069
1789324138661004300,3.68000439453125,2.800953492054343,4.38457351334095,-3.4594875434130428
1789324138670967300,3.68996728515625,2.494859252169728,5.247539419442415,-3.241547095538676
1789324138680929500,3.699929443359375,2.235804411357641,4.353646460157632,-2.884974129782617
1789324138690892500,3.709892578125,2.182931483826041,3.3611259533822535,-2.5989322055846453
1789324138700854300,3.719854248046875,2.086359699821472,3.087873075869679,-2.305012972140312
1789324138710817300,3.7298173828125,1.729397442486882,2.7375550788551566,-2.0487395787402987
1789324138720780300,3.7397802734375,1.4205039272725581,2.6032079832077026,-2.014568136808276
1789324138730742500,3.749742431640625,1.4046797506749629,2.4346312857002017,-2.0051982509166
1789324138740705300,3.759705322265625,1.0880091717183589,2.273575046825409,-1.913954968458414
1789324138750667300,3.769667236328125,0.4070709808498621,1.684596177729964,-1.2909165933728217
1789324138760630300,3.77963037109375,-3.0924101347774267,0.28004619091451166,0.7559095529615879
1789324138770592500,3.789592529296875,-8.070194455695152,-2.714765739420056,2.4566002486631273
1789324138780555300,3.79955517578125,-4.154638968551159,-4.340548493653536,2.9318887334316965
1789324138790517200,3.809517333984375,-0.8695791867613792,-5.816600705146789,3.5448809307992457
1789324138800480300,3.819480224609375,-2.902995231902599,-8.728185486218333,3.539656474149227
1789324138810442500,3.8294423828125,-4.5951118682652705,-11.661115837657452,4.443251912280917
1789324138820405200,3.8394052734375,-3.415154480689764,-11.219647497165202,3.1955528216049074
1789324138830367200,3.8493671875,-2.137200244742632,-6.576157090178132,0.37353374516814947
1789324138840330200,3.859330322265625,-0.09709025492072104,-3.4348756647258996,-0.3596206628888845
1789324138850292500,3.86929248046875,0.5176525855064392,-2.391416413351893,-0.16919541392773388
1789324138860255200,3.879255126953125,0.18219781110286712,-1.2024322542339563,0.32528672387152907
1789324138870217200,3.88921728515625,-0.5632938082188368,-0.24716683461964128,0.9126485131591557
1789324138880180500,3.899180419921875,-0.8333113570719957,0.42131811738908287,0.9966147903516888
1789324138890143500,3.9091435546875,-0.5757537690803408,0.9951607921510934,0.4122834548011422
1789324138900105200,3.919105224609375,-0.30741233674585816,1.5557809972465038,-0.22283114252537486
1789324138910068200,3.929068115234375,-0.0160252521276474,1.8970996952474115,-0.971436802214384
1789324138920030500,3.939030517578125,0.44094343983531,1.8663216951459645,-1.382286424820125
1789324138929993500,3.948993408203125,0.7230857262462377,1.6338532479643821,-1.6137401420012116
1789324138939955200,3.958955078125,0.8848997977510095,1.4686059871405361,-1.5663967915460466
1789324138949918200,3.968918212890625,1.2187673029631376,1.1505839935749769,-1.613800932277739
1789324138959880400,3.97888037109375,1.5016814505293965,0.7354828510046005,-1.5352610640481112
1789324138969843500,3.988843505859375,1.6446031900376081,0.2091109524697065,-1.1389847411960363
1789324138979805200,3.99880517578125,1.7566852623850107,-0.35697920846939085,-0.8534849610507488
1789324138989768200,4.008768310546875,2.1056918845400214,-0.7637906616002321,-0.548030188113451
1789324138999730400,4.01873046875,2.2726292904078957,-0.9472171377152204,-0.08729074544012547
1789324139009693400,4.028693359375,2.09662039707303,-0.9858061038285493,0.42896921666413546
1789324139019655400,4.038655517578125,1.665330920767784,-0.9048030603557825,0.781901780091226
1789324139029618200,4.0486181640625,1.2382467871978877,-0.6946276935249567,1.211767068812251
1789324139039581200,4.058581298828125,0.9040051879763603,-0.5647323165893554,1.5504697390958666
1789324139049543400,4.06854345703125,0.6479369617596268,-0.5300187306046485,1.751057777892053
1789324139059506400,4.07850634765625,0.5614663005307317,-0.5353402178883552,2.086534764127433
1789324139069468200,4.08846826171875,0.6859960587799548,-0.6029530339121818,2.3070994230255484
1789324139079431200,4.09843115234375,0.9311857481077312,-0.6949129402071237,2.412431728851795
1789324139089393400,4.108393310546875,1.1193769544064998,-0.7027268288284539,2.318896243803203
1789324139099356400,4.1183564453125,1.323307289367914,-0.6434381890356541,2.075884190775454
1789324139109318100,4.128318115234375,1.514127675126493,-0.41162089923918244,1.7970923838362096
1789324139119281400,4.138281494140625,1.6276315969705581,-0.014771452674269676,1.4343208557009697
1789324139129243400,4.148243408203125,1.6616729827821253,0.4526140038847923,1.1717641442477702
1789324139139206400,4.158206298828125,1.5569325053691863,0.7956798378139733,0.8527136844173073
1789324139149168000,4.168168212890625,1.4893334256097674,1.2056243282735346,-0.07877484602928161
1789324139159131400,4.17813134765625,1.375169578552246,1.6040893933415412,-0.5125564314112067
1789324139169093400,4.18809326171875,1.428325999200344,1.5866811624228954,-0.9432502799108624
1789324139179056400,4.198056396484375,1.435436269596964,1.6625585334450006,-1.1868418863922356
1789324139189018400,4.208018310546875,1.3943430655777453,1.7229191863834856,-0.9345616542816162
1789324139198981400,4.2179814453125,1.133877919576317,1.758475068411231,-0.82155369926095
1789324139208944400,4.2279443359375,0.7815292935170233,1.6858470545738935,-0.6698650081902742
1789324139218906400,4.23790625,0.370854589086771,1.5679250240266323,-0.2913411996498704
1789324139228869000,4.247869140625,0.07643544329628348,1.3847078067481517,0.061712944330275056
1789324139238831400,4.257831298828125,-0.23925313888564703,1.2739736418783665,0.3320389746107161
1789324139248794400,4.26779443359375,-0.39760340673737227,1.2529279312402009,0.6319485345110297
1789324139258756000,4.277756103515625,-0.411461324763298,1.3545289415836332,1.0256949004940688
1789324139268719000,4.287718994140625,-0.39674320971146226,1.373845636472106,1.0882637310013175
1789324139278681300,4.297681396484375,-0.33079262781143187,1.3393945008158683,1.2103272452674805
1789324139288644400,4.307644287109375,-0.2799721027649939,1.3635440226882696,1.1990924422867595
1789324139298606000,4.317606201171875,-0.28982465760707854,1.520384689694643,1.0428067788146436
1789324139308569000,4.327569091796875,-0.4072060054063797,1.822922113880515,0.88530896307379
1789324139318531300,4.33753125,-0.3902653189342469,2.1621347795128822,0.6071868720896542
1789324139328494300,4.347494384765625,-0.3166506321471184,2.4940824225783347,0.35049846814796326
1789324139338457300,4.357457275390625,-0.3919300372760743,2.6734593310415744,0.39475072071999306
1789324139348419000,4.367419189453125,-0.38028409621119497,2.747817529672384,0.6836985954925417
1789324139358382300,4.37738232421875,-0.34872225225567816,2.6280811431795357,1.113778111486137
1789324139368344300,4.38734423828125,-0.36186829568520185,2.381829085317254,1.5147963681682943
1789324139378307300,4.397307373046875,-0.3302257877089083,1.9523288305163382,1.8843331526547669
1789324139388269300,4.407269287109375,-0.2572363201480359,1.4017436972230672,2.213663598959148
1789324139398232300,4.417232421875,-0.1426819394029677,0.7836515463680028,2.473993574273586
1789324139408194300,4.4271943359375,-0.07881342447400093,0.028674305820465085,2.7571532210335135
1789324139418157300,4.4371572265625,-0.09037402534298598,-0.9149585436671972,2.900835423520207
1789324139428119300,4.447119384765625,-0.14039032133445142,-2.1106635354727503,2.8483523720890283
1789324139438082300,4.457082275390625,0.09497786587662994,-3.3165696032971144,2.88368116736263
1789324139448044300,4.467044189453125,0.4827121319632977,-4.495116539552807,3.176789668945968
1789324139458007300,4.47700732421875,0.5990823664912953,-5.434045156872272,3.7975054463028908
1789324139467969300,4.48696923828125,0.6616554713148624,-5.920227668359876,4.768020457497239
1789324139477932300,4.496932373046875,0.856358470660448,-5.540351568427681,5.2666614685416215
1789324139487895300,4.506895263671875,0.6909843685865402,-4.678375257885456,4.383466136620939
1789324139497857300,4.516857177734375,0.2919172459721565,-4.323208651795983,3.2319942542955276
1789324139507820300,4.5268203125,-0.3071580697238445,-3.9618659874200817,1.5804425602942704
1789324139517782300,4.5367822265625,-0.9300456381618976,-4.066001484677195,0.11079773162528872
1789324139527745300,4.546745361328125,-1.4161147524029016,-4.847670332795381,-0.9495628240585327
1789324139537707300,4.556707275390625,-1.690018202778697,-5.42255988626182,-1.7008888486221432
1789324139547670300,4.566670166015625,-1.8141624688416718,-5.506312520703673,-1.9352447169855236
1789324139557632300,4.57663232421875,-2.3006033390045166,-5.187292163750529,-1.3520868091285227
1789324139567595300,4.58659521484375,-3.0175562615841627,-4.425767693516612,0.4152109596204012
1789324139577557200,4.59655712890625,-3.1801492085069416,-3.2506238437026735,1.5815120892219245
1789324139587520300,4.606520263671875,-2.6487235337138175,-1.9185300212889909,2.0120304350242018
1789324139597482200,4.616482177734375,-1.903302057018876,-0.5616694218873978,2.3820691776834426
1789324139607445200,4.6264453125,-1.3491168534070253,0.6186088682055473,2.9114938879176973
1789324139617407200,4.6364072265625,-0.8453378949522972,1.3119669801861047,3.375502269259095
1789324139627370200,4.646370361328125,-0.26281738994969056,1.6815274378091096,3.6123704127043483
1789324139637333200,4.656333251953125,0.24701547998283058,1.9367928232103586,3.3491970306575296
1789324139647295200,4.666295166015625,0.5254794066745787,2.0160481462329627,2.855067067296803
1789324139657258200,4.67625830078125,0.2601414670050144,1.8003543082416056,2.5065809618845583
1789324139667220500,4.686220458984375,-0.7208744068723172,1.4704998380631207,2.4902608184635637
1789324139677183200,4.696183349609375,-1.9810475600004196,0.6757447138786316,2.566865334716439
1789324139687145200,4.706145263671875,-2.658840146319568,-0.6985030736535787,2.085315889856964
1789324139697108200,4.716108154296875,-2.188331735434383,-2.1246143194139004,0.36225159591436384
1789324139707070500,4.726070556640625,-0.8670984758615493,-2.945805030581355,-1.4758385687425732
1789324139717033200,4.736033203125,0.9292999343611299,-3.116092623659968,-2.2671304007306694
1789324139726995200,4.7459951171875,1.9762229163229463,-2.9773914244562385,-2.0955644582793114
1789324139736958200,4.755958251953125,1.9994012550756335,-2.7507641045182942,-1.9352187057614325
1789324139746920400,4.76592041015625,2.189226200056076,-2.2705080604702235,-2.761005220286548
1789324139756883500,4.775883544921875,1.9234747842147946,-1.5431664303451775,-3.3903128848999735
1789324139766845200,4.78584521484375,1.4310904954776167,-0.8015729875057935,-3.1617759319484233
1789324139776808200,4.79580810546875,0.5946507772520184,-0.31796938659548757,-3.692113519243896
1789324139786770400,4.8057705078125,0.05718523777276277,-0.028768413844704625,-3.894710559774935
1789324139796733400,4.8157333984375,0.29253596239238977,-0.06772796683609485,-2.8749299978911873
1789324139806696200,4.8256962890625,0.5698100582450628,-0.16040741957724095,-1.1240317944750189
1789324139816658200,4.835658203125,1.0105641129881142,-0.6420183853656053,0.2680225756436586
1789324139826621200,4.84562109375,1.4234879115194081,-1.203654489505291,0.5719847719356417
1789324139836583400,4.85558349609375,1.4592548059493302,-1.3779846359729766,0.11169979503154753
1789324139846546200,4.865546142578125,1.3720578762724995,-1.1038865398079156,-0.5555044695168734
1789324139856508200,4.875508056640625,1.4139888462901116,-0.5475614015579223,-0.8735223714292049
1789324139866471200,4.88547119140625,1.760641891056299,0.25976094325482846,-0.9504556812450289
1789324139876433400,4.895433349609375,2.040001268750429,0.6857640035897493,-0.7354740831762552
1789324139886396200,4.905396240234375,2.4157582429260014,1.0925859781146048,-0.5425011955589055
1789324139896358100,4.915358154296875,2.611540342745185,1.4332465044677256,-0.5872551140427589
1789324139906321400,4.9253212890625,2.6800112369030713,1.7210919709563255,-0.9481488656073808
1789324139916283400,4.935283447265625,2.761780588573217,2.066047564154863,-1.152573998348415
1789324139926246100,4.94524609375,2.9066338806658982,2.5275463007628916,-1.5292521790221332
1789324139936209200,4.955209228515625,3.2123224623590705,2.7487580253928896,-1.5752356393009423
1789324139946171400,4.96517138671875,3.571491874349117,2.920037552118301,-1.830352263881266
1789324139956134400,4.975134521484375,3.82499726434052,3.250845377498865,-1.8207631822809576
1789324139966096100,4.98509619140625,3.7068572071284054,3.4750159519344566,-2.207161377458274
1789324139976059100,4.99505908203125,3.5000521935135125,3.568067745119333,-2.487141809660196
1789324139986021400,5.005021484375,3.18766849809587,3.7531688764482736,-2.907781004874408
1789324139995984400,5.014984375,2.7279806103020903,4.212014468199015,-3.207342043597996
1789324140005946000,5.024946044921875,2.4427725065797565,4.340267923146486,-3.2201293367177244
1789324140015909000,5.0349091796875,2.2735756313472986,4.049173099473118,-3.124567606538534
1789324140025871400,5.044871337890625,2.0660575010269877,3.965400006765127,-2.9674951766029
1789324140035834400,5.05483447265625,1.996319363412261,3.861729788932204,-2.728682621091604
1789324140045796000,5.064796142578125,1.8168430862277745,3.5578146466523406,-2.51037246312201
1789324140055759000,5.074759033203125,1.6023656382888554,3.405273722666502,-2.1875191038772464
1789324140065721300,5.084721435546875,1.1286387037485837,3.044600335854292,-1.5339078958734869
1789324140075684400,5.094684326171875,-0.8195739236205816,2.1107769327193497,0.49378100379258394
1789324140085646000,5.10464599609375,-6.297023337933421,-0.10647943003475666,2.852389080259204
1789324140095609000,5.114609130859375,-4.451858997106552,-1.4139175346195696,3.6541298255473373
1789324140105572000,5.124572021484375,1.9049287814378737,-2.185716146108508,2.510215811255574
1789324140115534300,5.134534423828125,-0.10317805040180683,-4.79450105266571,0.015202829828858375
1789324140125497300,5.144497314453125,-4.219485242471099,-8.621305074167251,0.5528314509153366
1789324140135459000,5.154458984375,-3.2635265798956152,-11.747480115902423,3.4459017933920024
1789324140145422300,5.16442236328125,-3.3111364723324774,-10.721166060596705,2.922350505235791
1789324140155384300,5.17438427734375,-2.2843746732592582,-8.034570184606313,1.0221130964845417
1789324140165347300,5.184347412109375,0.7026981872558593,-4.711790036231279,0.45727381238937376
1789324140175309000,5.19430908203125,1.981203042823076,-2.322346384257078,0.1712058769673109
1789324140185272300,5.204272216796875,0.5147463426709175,-0.8473755382597445,0.507708699119091
1789324140195234300,5.214234375,-0.296970437708497,-0.1289513740837574,0.9443597024574876
1789324140205197300,5.224197265625,-0.5082572729125618,0.04248772711753845,0.6052572192013264
1789324140215159300,5.2341591796875,-0.2558013919740915,0.17865151679813862,-0.06595423516184092
1789324140225122300,5.244122314453125,0.02841273227483034,0.5536871909618377,-0.7956623021572827
1789324140235083800,5.254083740234375,0.48662177968770265,1.0166899023920297,-1.2883005656555295
1789324140245046800,5.264046875,0.7199719781398772,1.286796298572421,-1.584483067856729
1789324140255009800,5.274009765625,0.89164079644382,1.2957348073095083,-1.7948732464820145
1789324140264971800,5.2839716796875,0.7897092389717698,1.3868541711270808,-1.4495488199710844
1789324140274934800,5.293934814453125,0.8419558512985705,1.3654413807421921,-1.3949883777439593
1789324140284896800,5.303896728515625,1.108212878574431,1.1408996349066496,-1.5506103166103362
1789324140294859800,5.31385986328125,1.3755635463058948,0.7006207964599133,-1.398592247454822
1789324140304822000,5.323822021484375,1.612045905303955,0.07887538379430771,-1.033700366164744
1789324140314784800,5.33378466796875,1.7164815545514225,-0.448233596843481,-0.15461802252084017
1789324140324746800,5.343746826171875,1.6765853052318096,-0.7831471039772033,0.6785261612907052
1789324140334709800,5.353709716796875,1.499781754387915,-0.8154881156116723,1.2007558454543352
1789324140344672000,5.363672119140625,1.2610448944613337,-0.5842272906541824,1.5033409081742166
1789324140354634800,5.373634765625,1.0266370036497712,-0.2723632351964712,1.565804670871794
1789324140364596700,5.3835966796875,0.7840940294384956,-0.0006458966881036758,1.9632979682981966
1789324140374560000,5.39356005859375,0.773231566901505,0.03075461922585964,2.2197335665225983
1789324140384522000,5.40352197265625,1.0606909566819667,-0.07072071891129017,2.256726203355193
1789324140394484700,5.413484619140625,1.38219319357872,-0.007183774024248123,2.3298282644450663
1789324140404447700,5.42344775390625,1.4978735826790333,0.2360778698503971,2.2541180666834113
1789324140414410000,5.433409912109375,1.5081003776609896,0.4658469949454069,2.0660908187747
1789324140424373000,5.443373046875,1.5308008697688578,0.678740973085165,1.987031602846086
1789324140434334700,5.453334716796875,1.6022095709443092,0.8944044159382581,1.5862983005851505
1789324140444297700,5.463297607421875,1.7236740964040158,1.3618605996459723,0.7127335513189434
1789324140454260000,5.473260009765625,1.5280841581560671,1.7901497250914573,0.6523097700163721
1789324140464223000,5.483222900390625,1.292555592751503,1.8566928660571573,0.6195414728805423
1789324140474184700,5.493184814453125,1.1159259371697903,1.7545219468712805,0.5863938210383057
1789324140484147700,5.503147705078125,0.9680699561297893,1.6089467702448368,0.4118263586834073
1789324140494110000,5.51310986328125,0.8322456275366246,1.5304536637663841,0.16661621108949184
1789324140504073000,5.523072998046875,0.7078152380086481,1.4449392803490162,-0.030328064376860857
1789324140514034700,5.53303466796875,0.5438308367274701,1.396527423879504,0.008174684757739305
1789324140523997700,5.542997802734375,0.2539114865742624,1.3381126443117857,0.27192279795259233
1789324140533960700,5.552960693359375,0.08290624674558639,1.275945818734169,0.42509661301448937
1789324140543923000,5.5629228515625,-0.06834712164774537,1.169821193486452,0.6197817113772034
1789324140553886000,5.572885986328125,-0.25727964783310886,1.0634306107789278,0.9071108989067375
1789324140563847700,5.58284765625,-0.3897369842112064,0.9930699573516845,0.879143426181376
1789324140573810700,5.592810791015625,-0.3522632858633995,1.0187304683089256,0.8736093190602958
1789324140583773000,5.60277294921875,-0.31553076127171514,1.0741215161412954,0.6055956573754548
1789324140593736000,5.61273583984375,-0.26755904978513717,1.0994459270119668,0.471632008087635
1789324140603697700,5.62269775390625,-0.2247593341089785,1.1102578284054994,0.31811025637090207
1789324140613661000,5.632660888671875,-0.23989260583296418,1.1640081232935189,0.20047683350667356
1789324140623623000,5.642622802734375,-0.24622268563732502,1.4048095145344734,0.08608297708556055
1789324140633586000,5.6525859375,-0.1508977598886937,1.800642477533221,-0.06366787779033184
1789324140643547600,5.662547607421875,-0.08818097227811812,2.216794590461254,-0.017451339408010243
1789324140653511000,5.672510986328125,-0.09420739296078681,2.405532032465935,0.31867344321161506
1789324140663473000,5.682472900390625,-0.16785839317031204,2.213029684969783,0.8624516729690134
1789324140673436000,5.692435791015625,-0.19069208320379255,1.75012166608572,1.387759157142788
1789324140683399000,5.70239892578125,-0.28076230329461394,1.3085258998215197,1.6359543118968605
1789324140693361000,5.71236083984375,-0.23140995110459625,0.9620230771809816,1.7156753527350723
1789324140703324000,5.722323974609375,-0.06490187656469643,0.41460780609548087,1.785532294423878
1789324140713286000,5.732285888671875,0.4177028495013714,-0.4385422239124775,1.758974834626913
1789324140723249000,5.742248779296875,0.6516799476802349,-1.4355892682015896,1.5849137143589556
1789324140733211000,5.7522109375,0.3520527849178761,-2.5318565651774403,1.5750551681675016
1789324140743174000,5.762173828125,0.501349100959301,-3.644994332933426,1.6439057092927396
1789324140753135900,5.772135986328125,0.8702608854152262,-4.6345103971958155,1.9361090787298976
1789324140763099000,5.782098876953125,0.6476981845676899,-5.175507617932558,2.2112689589075742
1789324140773060900,5.792060791015625,0.26757194579932836,-5.106864289817214,2.6901976998746395
1789324140783023900,5.80202392578125,0.14300797475324942,-4.925998019579053,4.263973788017034
1789324140792985900,5.81198583984375,0.218455722186435,-4.8189621247053145,4.3944411196216935
1789324140802948900,5.821948974609375,0.21784078689217568,-4.556466203528642,3.476915940336883
1789324140812910800,5.831910888671875,-0.05862053127288818,-4.0919419816195965,2.01974524718523
1789324140822873900,5.841873779296875,-0.4370552002251148,-3.7832851977705952,0.225274517089501
1789324140832836900,5.8518369140625,-1.0229179831266402,-4.312556909400224,-1.2339590268760918
1789324140842798800,5.861798828125,-1.374181152036786,-5.176000369885563,-1.946959996959567
1789324140852761900,5.871761962890625,-1.646747800850868,-5.7393631516873835,-1.9934877932481467
1789324140862723800,5.881723876953125,-2.1775872001886367,-5.419909079492092,-1.546559872175753
1789324140872686800,5.891686767578125,-2.6843974891632794,-4.3039661911875005,-0.547726967383176
1789324140882648800,5.90164892578125,-2.614285257539153,-2.733098683968186,0.630699265102297
1789324140892611800,5.91161181640625,-2.0501964995503426,-1.1393909839093685,1.6912828158870339
1789324140902573800,5.92157373046875,-1.5071031833171844,0.09415478599071501,2.2508827380239964
1789324140912536800,5.931536865234375,-1.0422212340116501,0.913203808954358,2.674358910229802
1789324140922498800,5.941498779296875,-0.7089549095630645,1.4574474642664192,3.0367788484483955
1789324140932461800,5.9514619140625,-0.5233586881935596,1.8640391371667384,3.0676503720521926
1789324140942423800,5.961423828125,-0.2923882610173896,2.190479414987564,2.999410948562622
1789324140952386800,5.97138671875,-0.1267863780695945,2.2659476206868887,2.95327405128777
1789324140962349000,5.98134912109375,-0.3622410745203495,2.0380939738243815,2.812817240588367
1789324140972311800,5.991311767578125,-1.122959927459806,1.6663292841553687,2.547282974629104
1789324140982274800,6.00127490234375,-2.018252524409443,1.1072031170099974,2.0790087525367738
1789324140992236800,6.01123681640625,-2.742970674163103,0.2529495096743107,1.3571633817404507
1789324141002199800,6.02119970703125,-2.7652193308502433,-1.0813199032127856,-0.14957842091843485
1789324141012161800,6.031161865234375,-1.6266054687932132,-2.350351997035742,-2.0257403959468006
1789324141022124800,6.041124755859375,-0.04397387402206659,-2.9023236162513495,-2.8266525814563033
1789324141032086800,6.051086669921875,1.0406371796905993,-2.8736247605115173,-2.3314855301328
1789324141042049800,6.0610498046875,1.8593572629608213,-2.8170909723848103,-2.0460762047499417
1789324141052012000,6.071011962890625,2.172370050062239,-2.4025147304713723,-2.1269465617537495
1789324141061974800,6.080974853515625,2.131184053193033,-1.889763945531845,-2.847209339533746
1789324141071936800,6.090936767578125,1.7991186289668082,-0.965273018887639,-3.5041342021301385
1789324141081899800,6.100899658203125,1.2286588746413587,-0.07062602636516094,-3.8541836113363503
1789324141091862000,6.110862060546875,0.3661816288396716,0.6432756919503212,-3.604955752533674
1789324141101824800,6.12082470703125,-0.14152648575752974,0.6496656852483749,-2.073558962698281
1789324141111786800,6.130786865234375,-0.0027419921845197675,0.011615618991851807,-0.32100831589996814
1789324141121749800,6.140749755859375,0.3196615774661302,-0.795316849720478,1.3731079698473214
1789324141131713000,6.150713134765625,0.5134282458096743,-1.8051275139927863,2.3628327084243295
1789324141141674800,6.1606748046875,0.9602642508149146,-2.2838871820032596,2.10775495454967
1789324141151637800,6.1706376953125,1.1109247678816319,-2.2576269515872,0.588290010048449
1789324141161600000,6.18060009765625,0.8489329968348145,-1.8673118752270936,-0.5790276761844754
1789324141171563000,6.19056298828125,0.8314151680618524,-1.0775766250312329,-1.0675693180188537
1789324141181524700,6.200524658203125,1.2822481337487697,-0.13527531640827656,-1.1227885164156555
1789324141191487700,6.21048779296875,1.792630728252232,0.5947241347491741,-1.1701815512314437
1789324141201450000,6.220449951171875,2.2217264939054844,1.0213082098424433,-1.1628875948309898
1789324141211413000,6.2304130859375,2.2029747394233943,1.4615531460195779,-1.3394403857842088
1789324141221374700,6.240374755859375,2.0048522139579057,1.8354601084142923,-1.7277347699716685
1789324141231338000,6.250337890625,2.145610930213332,2.257507709121704,-1.9761308541253209
1789324141241300200,6.26030029296875,2.6722020244568583,2.655252058699727,-2.145804991480708
1789324141251263200,6.27026318359375,3.014702041196823,2.9683132149875164,-2.0460300275206564
1789324141261226200,6.280226318359375,3.072603026023507,3.253435393992066,-2.1486153727263213
1789324141271188200,6.290188232421875,3.0630571990430355,3.733773271104693,-2.2389915169611574
1789324141281151000,6.30015087890625,3.2034482510298488,3.930082025146484,-2.147405120153725
1789324141291113200,6.31011328125,3.113252431797981,4.035426898193359,-2.132701472018659
1789324141301076200,6.320076171875,3.0501416033685205,4.275954148668051,-2.0752029305130244
1789324141311038200,6.3300380859375,2.8681524665802716,4.633405650824308,-2.02965727712959
1789324141321001000,6.3400009765625,2.637854933696985,4.652115027469397,-1.9855442868977784
1789324141330963200,6.349963134765625,2.468650459679961,4.133398612123727,-1.945029613418877
1789324141340926200,6.35992626953125,2.099166574424505,3.9743256560206413,-2.025780727957189
1789324141350888200,6.36988818359375,1.9090233572751283,3.798856276389956,-2.1661180039301513
1789324141360851000,6.379850830078125,1.6560738476008177,3.5410306851118802,-2.3943328853204844
1789324141370813200,6.389813232421875,1.32454589125216,3.3538802200376985,-2.520167588688433
1789324141380776200,6.399776123046875,1.062111344873905,3.205820240858197,-2.2558231170356273
1789324141390739200,6.4097392578125,0.25226561906337736,2.8199551296442746,-1.199911211323738
1789324141400701000,6.419700927734375,-3.1270699447482824,1.630389955767989,0.3971528134256601
1789324141410664200,6.429664306640625,-5.556518274852633,-0.2057096195936203,1.3965896754607559
1789324141420626200,6.439626220703125,-2.461373162153363,-1.1001029296159743,1.905429716697335
1789324141430589200,6.449589111328125,-0.07215162849724292,-3.075939476969838,1.862185910515487
1789324141440551200,6.45955126953125,-1.2305576940000056,-6.511775511160493,0.6791971924200654
1789324141450514200,6.46951416015625,-3.7977275646209714,-8.782624932414294,1.1355845773637294
1789324141460476200,6.47947607421875,-4.030513991710543,-9.833266788768768,2.589741767913103
1789324141470439200,6.489439208984375,-3.953739964109659,-8.859088578891754,1.9227908936038611
1789324141480401200,6.499401123046875,-1.4005676391810178,-6.916306744399666,2.862881248179078
1789324141490364200,6.5093642578125,0.9158867644280194,-4.322787796035409,2.7965684088379144
1789324141500326100,6.519326171875,0.7385510064035654,-1.7070412337720393,2.237413600119948
1789324141510289200,6.5292890625,-0.12505962734222412,-0.15297463922798632,1.863788085015118
1789324141520251100,6.539251220703125,-0.2765986808091402,0.6449778196930885,1.7195920877873896
1789324141530214100,6.549214111328125,-0.21084698248207567,0.9292530264794826,1.3404700210928917
1789324141540177200,6.55917724609375,0.023006197056174276,1.1280611961215734,0.6678703272417187
1789324141550139100,6.56913916015625,0.2696002002239227,1.4360738368481396,0.0022927871122956273
1789324141560102100,6.57910205078125,0.700320936730504,1.4478975456327199,-0.5035048176884651
1789324141570064100,6.589064208984375,1.0526198784291743,1.3057552660644054,-0.7871618925765156
1789324141580027100,6.599027099609375,1.2716861154630779,1.1850076567023993,-1.2548819879174231
1789324141589989000,6.608989013671875,1.5254197612524032,1.0204396103143691,-1.6347633485466242
1789324141599952100,6.6189521484375,1.6770622750937938,0.6734481273740529,-1.8299957055285572
1789324141609914000,6.6289140625,1.8532538315191864,0.10067278958261013,-1.825902590996027
1789324141619877000,6.638877197265625,2.0349834405884146,-0.49189387487173075,-1.2325915379151702
1789324141629839000,6.648839111328125,2.1452219308957456,-1.0576982046067713,-0.587079757475853
1789324141639802000,6.658802001953125,2.000306971743703,-1.3941373138725757,-0.21822394099086523
1789324141649765400,6.668765380859375,1.7369357290372252,-1.3505302273362874,0.08576075939387083
1789324141659727000,6.67872705078125,1.3609735876783728,-1.0693009641170501,0.26709727749228473
1789324141669690000,6.688690185546875,0.8613166775897145,-0.746767046085,0.4513718948692083
1789324141679652000,6.698652099609375,0.45051995421499014,-0.5146779536098242,0.6562222672849893
1789324141689615400,6.708615478515625,0.23759265832751988,-0.4993079505205154,0.6707967360824346
1789324141699577000,6.7185771484375,0.23443448655754326,-0.5391454553902149,0.8746782634660601
1789324141709540000,6.7285400390625,0.40917087573856115,-0.6339911462545395,1.1076273337714373
1789324141719502300,6.73850244140625,0.6886243614569306,-0.6315741482406855,1.1421264002226292
1789324141729465300,6.74846533203125,0.8874540122784673,-0.5301449873328209,1.1404973377160728
1789324141739427000,6.758427001953125,0.9392238008737563,-0.3214554751455784,1.03880821069777
1789324141749390000,6.76839013671875,0.9880044906556605,0.14351941314041614,0.8552395496331154
1789324141759352300,6.778352294921875,1.1814124086894093,0.7794055793613195,0.3971858389124274
1789324141769315300,6.7883154296875,1.2948869583085179,1.3658248271018265,0.061203387372940773
1789324141779278000,6.798278076171875,1.179058977431059,1.9144296002328394,-0.26473756262362
1789324141789240000,6.808239990234375,1.189264875755459,2.334845800346136,-0.6014570962660014
1789324141799203000,6.818203125,1.2116529409132897,2.685280701738596,-1.0367445561662316
1789324141809165300,6.828165283203125,1.1638801129996776,2.9508149676978586,-1.0620604914695024
1789324141819128000,6.838128173828125,1.0480522782526909,2.951071572807431,-0.743132196713984
1789324141829090000,6.848090087890625,0.9327272784613072,2.6164661087095737,-0.26889424391165373
1789324141839053000,6.858052978515625,0.7003859647907317,2.1243711583077904,0.2172058499895036
1789324141849015300,6.868015380859375,0.504003853251785,1.709842847189307,0.7566277842335403
1789324141858978000,6.87797802734375,0.2659120132304728,1.386518071040511,1.2790939075015484
1789324141868940000,6.88793994140625,-0.06678038378767669,1.1687333982497452,1.7267691398099063
1789324141878903000,6.897903076171875,-0.2996028320387006,1.1002736100077628,2.1556848727211353
1789324141888865300,6.907865234375,-0.3643441842794418,1.1120721843510866,2.4363445193588733
1789324141898828000,6.917828125,-0.40993448052220044,1.182794072306156,2.3489438838034866
1789324141908791000,6.927791015625,-0.47635626013055443,1.3460159647822378,2.086951966626197
1789324141918753000,6.9377529296875,-0.4771744446456432,1.4105138636559247,1.8113576405540108
1789324141928716300,6.94771630859375,-0.42634091398715973,1.4383698388308286,1.5697807348959147
1789324141938678000,6.957677978515625,-0.35527927268370985,1.508183964291215,1.3417770120382309
1789324141948641000,6.96764111328125,-0.2804956151824444,1.592825072005391,1.094136276296526
1789324141958603300,6.977603271484375,-0.14263378941230476,1.750423863902688,0.8778487101957202
1789324141968566300,6.987566162109375,-0.05868716676831245,1.7986334757983684,0.646106093070656
1789324141978528000,6.997528076171875,0.02027589530944824,1.6066431694775818,0.6696133715167641
1789324141988491000,7.007490966796875,0.15315766764469443,1.201670037689805,0.9544070492193102
1789324141998453200,7.017453369140625,0.21249358064532278,0.6617062516540289,1.2036752400323747
1789324142008416300,7.027416259765625,0.2943360706169158,-0.049125557696819304,1.3000310431987046
1789324142018378200,7.037378173828125,0.3307330065786838,-0.8665642228543758,1.20759606673792
1789324142028341000,7.047341064453125,0.3262252468306571,-1.793175210392475,0.972035644890368
1789324142038304000,7.057303955078125,0.552374464395456,-2.88035260746181,0.7669068939246236
1789324142048266200,7.067266357421875,0.5783470735091716,-4.009262529367208,0.7924683284215629
1789324142058229200,7.077229248046875,0.33854459364507344,-4.880246322229504,0.8745382704734802
1789324142068191000,7.08719091796875,0.21379702792670577,-5.33697594473958,1.2195616682112216
1789324142078154000,7.097154052734375,0.23120763346552847,-5.631424755015969,2.7523388064891097
1789324142088116200,7.1071162109375,0.18723405170440674,-5.841066453361511,4.122416614860296
1789324142098079200,7.117079345703125,-0.19310265147686004,-5.635387228906154,4.1012686128914355
1789324142108041000,7.127041015625,-0.6456196247279644,-5.192277550947666,3.3612940034255385
1789324142118004000,7.13700390625,-0.9092658849835396,-5.051899358442426,1.5958794911399483
1789324142127966200,7.14696630859375,-1.2594301527410745,-5.453782707521319,-0.3843755302432924
1789324142137929200,7.15692919921875,-1.6819307579129934,-6.01188303875029,-1.0931269531235097
1789324142147892200,7.166892333984375,-1.9402742355853317,-6.013948739108443,-0.5422914983309806
1789324142157854200,7.176854248046875,-2.1833967632502316,-5.0844560586541885,0.050057139458507295
1789324142167817200,7.186817138671875,-2.253061251106858,-3.4701609131187197,0.4018006757641211
1789324142177779200,7.196779296875,-1.9799124184906483,-1.7522405579358338,0.779033531178534
1789324142187742200,7.2067421875,-1.5271610519617795,-0.44329847852885723,1.3038961941942573
1789324142197704200,7.2167041015625,-1.293180446651578,0.639434214091301,1.869316200786829
1789324142207667200,7.226667236328125,-1.265028118878603,1.2588146511912346,2.3285480153761804
1789324142217629200,7.236629150390625,-1.2336065601766109,1.3284358844280242,2.5382109026402233
1789324142227592200,7.24659228515625,-1.0293500620007514,1.1990852818936109,2.552178053194284
1789324142237554200,7.25655419921875,-0.7145534602224827,1.1053916836738586,2.260259053656459
1789324142247517200,7.26651708984375,-0.7870154698431492,1.04749946667552,1.9785782472774385
1789324142257479200,7.276479248046875,-1.2227462165314704,0.9227800310730934,1.8815994899071753
1789324142267442000,7.28644189453125,-1.8725392544865607,0.6705103203564882,1.8713716720119118
1789324142277405000,7.296405029296875,-2.055536545404047,0.04844225160777568,1.2989302423499525
1789324142287367200,7.3063671875,-1.9770672581925988,-0.7534843716412782,0.41292379853129385
1789324142297330200,7.316330078125,-1.3551802450992165,-1.5084142659157513,-0.877290345660597
1789324142307292000,7.3262919921875,0.09911752296462654,-2.073848008772731,-2.077120746833086
1789324142317255000,7.3362548828125,1.6138045855395495,-2.1216648219585417,-2.432004005936533
1789324142327217200,7.346217041015625,2.589901926910877,-2.095291194295883,-2.229075103102624
1789324142337180200,7.35618017578125,2.7912451679885386,-2.0834563795953986,-2.005467569377273
1789324142347142000,7.366141845703125,2.340226032079756,-1.6368226191639899,-2.0833311457805332
1789324142357105000,7.37610498046875,1.78844759734869,-0.9973217695772647,-2.4338925961621105
1789324142367067100,7.386067138671875,1.4696326998397706,-0.2894797896921634,-3.0061680216073987
1789324142377030100,7.396030029296875,0.9723837276756763,0.33999884757399557,-3.625149522517621
1789324142386992000,7.4059921875,0.22960165957361459,0.6193325063049793,-3.310765593193471
1789324142396955100,7.415955078125,-0.022170915275812147,0.4783855740010738,-1.2479384523898363
1789324142406918100,7.425918212890625,0.3305585267946124,-0.023105565777420997,0.8350961946621537
1789324142416880000,7.435880126953125,0.6857312703639269,-0.7101262914299965,2.2646023435577747
1789324142426843100,7.445843017578125,1.1677835501790046,-1.3098486728578804,2.38554722905755
1789324142436805000,7.45580517578125,1.3758248275905847,-1.523847981891036,1.375624921104312
1789324142446768000,7.46576806640625,1.0846718439891934,-1.4007429957479238,0.19342063138484955
1789324142456730000,7.475730224609375,0.9697305828183889,-0.7963754188627005,-0.6572595013782382
1789324142466693000,7.485693115234375,1.0939762634292245,0.30425358045399187,-1.4392872459366917
1789324142476655000,7.495655029296875,1.5337310780018567,1.054403254714608,-1.785320112977922
1789324142486618000,7.5056181640625,2.1594266895979644,1.5229337896555661,-1.8405188531085848
1789324142496580000,7.515580078125,2.3957038814127443,1.9414578924119472,-2.047191472515464
1789324142506543000,7.525543212890625,2.362346970734,2.169745839038491,-2.226387471453845
1789324142516506000,7.535506103515625,2.6268688447803257,2.308226088967919,-2.2455925226613878
1789324142526468000,7.545468017578125,3.1205133627116677,2.486403558513522,-2.0694898135632274
1789324142536431000,7.55543115234375,3.1038071425825358,2.7226860110253095,-1.9478043388292192
1789324142546393000,7.56539306640625,3.047440527716279,2.837446362671256,-1.92134800131917
1789324142556356000,7.575356201171875,3.0653134535372257,3.1479613416075707,-1.8539175561249255
1789324142566318000,7.585318115234375,2.9439065034836527,3.3834400765210386,-1.86060448654294
1789324142576281000,7.595281005859375,2.6697546313047407,3.704612058550119,-1.9236480949550865
1789324142586243000,7.6052431640625,2.407966566136479,3.841543325471878,-2.146717137889564
1789324142596206000,7.6152060546875,2.1529291442722083,3.8809120437860485,-2.3682550257340074
1789324142606168000,7.62516796875,2.0218629699915645,3.727481477484107,-2.367702652548253
1789324142616131000,7.635131103515625,1.7000059283077715,3.7970465966194866,-2.2540382794454694
1789324142626094000,7.645093994140625,1.627208403122425,3.7299084123700856,-1.95507637565881
1789324142636056000,7.65505615234375,1.6709902617037296,3.7383904095113274,-1.8126368667095898
1789324142646019000,7.66501904296875,1.606295963475108,3.9294209308892487,-1.6139228050917387
1789324142655981000,7.67498095703125,1.2819587954133749,3.1979806332737204,-1.5135741328969596
1789324142665944000,7.684944091796875,0.8997744185388088,3.043701341187954,-1.2340662866428493
1789324142675906300,7.69490625,0.6070493633151054,2.8080554330140353,-0.812381674028933
1789324142685869300,7.704869384765625,0.30146716460585593,2.3552701642155647,-0.11677256825119256
1789324142695831000,7.7148310546875,0.6803846486389636,1.8558429712295532,0.9820131412863731
1789324142705794000,7.7247939453125,-1.4828414332419633,0.8832564144581556,2.460033730243146
1789324142715756300,7.73475634765625,-5.701169906893372,-1.6981974175810812,3.0824373145565387
1789324142725719300,7.74471923828125,-2.692281520411372,-4.175717996937037,2.8532085799485443
1789324142735681000,7.754680908203125,-1.71116152857244,-6.715880033645034,2.5948770849749443
1789324142745644000,7.76464404296875,-5.6457817816704505,-10.963349846106768,2.305432366596162
1789324142755607000,7.77460693359375,-5.73888442825973,-14.67772809638977,5.294290649223328
1789324142765569300,7.7845693359375,-3.197202050116658,-11.902044070148467,4.176517038360238
1789324142775532000,7.794531982421875,0.3234615542709827,-4.534001273742318,1.1902250990897416
1789324142785494000,7.804493896484375,2.954350156086683,-0.4571761972337961,-0.6629477761477232
1789324142795457000,7.81445703125,2.1552245617330072,0.8785206181079148,-1.3272992816135287
1789324142805419300,7.824419189453125,0.5755199603244662,1.7328204026728868,-0.8067597424939275
1789324142815382000,7.834382080078125,-0.06623509792983531,2.0127824224352837,-0.7719368509158492
1789324142825344000,7.844343994140625,-0.4161430528387427,1.9908406397402285,-1.187482814644277
1789324142835307000,7.85430712890625,-0.3353121510624885,1.9780057080864906,-1.9737594488188623
1789324142845269200,7.864269287109375,0.13314064246714113,1.737454492214322,-2.4113752055361863
1789324142855232000,7.87423193359375,0.8599629248932004,1.118268700903654,-2.7576366206362843
1789324142865195000,7.884195068359375,1.480018192514777,0.49132396602928635,-2.793544677102566
1789324142875157000,7.894156982421875,1.8116916948139667,-0.03522971881330013,-2.5453502530008554
1789324142885120300,7.904120361328125,1.8606687839508056,-0.4385533298283815,-2.222913950124383
1789324142895082000,7.91408203125,1.7395722150206565,-0.7521545843422413,-1.8641010964870453
1789324142905045000,7.924044921875,1.6316586605295538,-1.098303771239519,-1.562621364660561
1789324142915007200,7.93400732421875,1.4749699692144989,-1.3993752145260572,-1.0164137157991529
1789324142924970200,7.94397021484375,1.3178612989217042,-1.5964853480786083,-0.4320359107583761
1789324142934932000,7.953931884765625,1.1514423639699816,-1.667451566183567,-0.11226707352548837
1789324142944895000,7.96389501953125,0.9409905182853341,-1.4204191715985535,0.21689356916993854
1789324142954857200,7.973857177734375,0.68345952603966,-0.91954119528234,0.44475773742645974
1789324142964820200,7.9838203125,0.5136091553345322,-0.3755407010763883,0.8755968396157026
1789324142974783200,7.993783203125,0.5310939586207271,-0.15914719038307665,1.2786986245736478
1789324142984745000,8.003744873046875,0.613107640440762,-0.07645604769289494,1.6735039980903268
1789324142994708000,8.0137080078125,0.6808654178932309,0.14256781150400638,2.2947122351393103
1789324143004670200,8.023670166015625,0.8484384913161397,0.2991296615689993,2.5033038399100302
1789324143014633200,8.03363330078125,1.0693360354304313,0.42618309307694435,2.0414064593732357
1789324143024595000,8.043594970703126,1.2328456588067114,0.6923357831954956,1.5590338615626096
1789324143034558000,8.053557861328125,1.2821933348216115,1.001847722569108,1.1872229946643114
1789324143044520200,8.063520263671874,1.5379402201294898,1.2732833215266466,0.824578892301023
1789324143054483200,8.073483154296875,1.6035644926846027,1.5561866554379462,0.5720666050001979
1789324143064445000,8.08344482421875,1.2737949243105948,1.5750339792490005,0.5099219912543893
1789324143074408000,8.093407958984375,0.8357308393038809,1.3571844245284794,0.31331717687547206
1789324143084371200,8.10337109375,0.5832732047997414,1.1778396647691727,0.3177007987871766
1789324143094333200,8.113333251953126,0.6362788188003003,0.9802233352601527,0.4680586796455085
1789324143104296200,8.123296142578125,0.799027248545736,0.9851473476588726,0.4779150338798761
1789324143114258200,8.133258056640624,0.8382242635548114,1.1197703376382588,0.24851211174875495
1789324143124221200,8.14322119140625,0.8333657176077366,1.3615057948589324,0.22853110773265362
1789324143134183200,8.15318310546875,0.7275169866919518,1.5567144787043332,0.22447394129633902
1789324143144146200,8.163146240234376,0.5194176954828202,1.6137398497402666,0.24521818476989865
1789324143154108200,8.173108154296875,0.11590119224414229,1.560593950486183,0.16677096325978635
1789324143164071200,8.1830712890625,-0.3119241881471127,1.434447112429142,0.19818872256949543
1789324143174033200,8.193033203125,-0.660640595183894,1.234253625908494,0.23188874759748576
1789324143183996200,8.20299609375,-0.8423498190522194,1.0522259106755256,0.5874883382767438
1789324143193959000,8.212958984375,-0.7984579242251812,0.8557312786728143,0.9618333998277783
1789324143203921200,8.222921142578125,-0.5380711041569709,0.6895943755328655,1.1569409613862633
1789324143213884200,8.23288427734375,-0.29025837284922595,0.7044312946587801,1.2153959268338979
1789324143223846100,8.24284619140625,-0.05303842029161751,0.7929735014647245,1.2614271717771888
1789324143233809200,8.25280908203125,-0.06516133121848106,1.0665057804405689,1.0282629974164068
1789324143243771400,8.262771484375,-0.2382570405203849,1.5008417848348616,0.5794270507656037
1789324143253734400,8.272734375,-0.4555027110636234,1.8920272142887113,0.14458032037019727
1789324143263696400,8.2826962890625,-0.5633668734550475,2.0784604710042474,0.026950112376362082
1789324143273659400,8.292659423828125,-0.6708008277356624,2.0549480779916047,0.09722878660857677
1789324143283621400,8.302621337890624,-0.6624328123629093,1.7657085267961024,0.5616073164366185
1789324143293584400,8.31258447265625,-0.5097008227843791,1.3334709559857845,1.1464449940741062
1789324143303547400,8.32254736328125,-0.42952078613229094,0.9035445847272873,1.5737987383656202
1789324143313509400,8.33250927734375,-0.52388008171916,0.4271896397709846,1.7379941520489752
1789324143323472400,8.342472412109375,-0.5874584911277517,-0.19944179137051105,1.9779856882117688
1789324143333434400,8.352434326171876,-0.5882756892621517,-1.0251146163880824,2.3189324841603636
1789324143343397400,8.3623974609375,-0.3502840947449207,-1.9915508338361978,2.459881754551828
1789324143353359400,8.372359375,0.022585925817489624,-3.029197015017271,2.307741958712786
1789324143363322400,8.382322265625,0.40588966211080546,-3.9897704779118297,2.0893867925576863
1789324143373284400,8.392284423828125,0.5265846645027399,-4.689074931076169,2.0179763378165663
1789324143383247400,8.402247314453126,0.11068331146538257,-4.889266079509258,2.3509189832687376
1789324143393209300,8.412209228515625,-0.24734631937239318,-5.015123579230904,2.9849449085757134
1789324143403172400,8.42217236328125,-0.4809183438817039,-5.1539697398632764,2.963296263608336
1789324143413135400,8.43213525390625,-0.8476169458001852,-4.9744361795336,1.854871495848894
1789324143423097300,8.442097412109375,-1.2757868287801741,-4.663112806823849,0.7436077783364802
1789324143433060400,8.452060302734376,-1.5172434690594672,-4.764292961406707,-0.028904022923111915
1789324143443022300,8.462022216796875,-1.7083441330641507,-4.990895146903395,-0.5235193586479873
1789324143452985300,8.4719853515625,-1.9604764811366795,-4.855870590385794,-0.26676103127524253
1789324143462947300,8.481947265625,-2.188953812855482,-4.192742781496047,0.6614715661153197
1789324143472910300,8.491910400390625,-1.984125652271509,-3.40703021094501,1.4845293863289057
1789324143482872300,8.501872314453125,-1.4189455919146536,-2.5987621097147464,1.7855746722608803
1789324143492835300,8.51183544921875,-0.9586321926336735,-1.5592092181295156,1.7517149266265333
1789324143502797300,8.52179736328125,-0.6740121909976006,-0.42612288732230663,1.511776581955701
1789324143512760300,8.53176025390625,-0.6576543459147215,0.5276596002578735,1.3192498306706546
1789324143522723300,8.541723388671874,-0.8153700421899557,1.2000199323952196,1.557381564310938
1789324143532685300,8.551685302734375,-0.7622083608448504,1.536844826108217,2.0020979468137026
1789324143542648300,8.5616484375,-0.6186550454348325,1.5723615451693533,2.2402155057981608
1789324143552610300,8.5716103515625,-0.6404501131355762,1.1416010611742735,2.185770506644249
1789324143562573300,8.5815732421875,-0.9426853395044803,0.30659459062218664,2.0111656348884104
1789324143572535300,8.591535400390624,-0.9857330385923385,-0.2861708112746477,2.0397803194761277
1789324143582498300,8.601498291015625,-0.9669945089180022,-0.7893658323615789,2.0656109263032674
1789324143592460300,8.611460205078124,-1.0894343822158872,-1.300323304143548,1.9609962672270833
1789324143602423600,8.621423583984376,-0.6712627461589873,-1.738228399196267,1.697895512025058
1789324143612385300,8.63138525390625,0.038718876103311775,-2.352106731748581,0.6576499620005488
1789324143622348300,8.641348388671876,0.6405730088628828,-3.1319851893186565,-0.9276607888519763
1789324143632311300,8.651311279296875,1.175471328202635,-3.525728486561775,-2.500409579773247
1789324143642273500,8.6612734375,1.974746414029598,-3.65026496681273,-3.1718139263600107
1789324143652236500,8.671236572265625,2.1783900410041213,-3.463862689757347,-3.14858707229048
1789324143662198300,8.6811982421875,1.7845371459066868,-2.8410259747236966,-2.9455463796451684
1789324143672161300,8.691161376953126,0.7894307142913342,-2.206826154154539,-3.1808801531299946
1789324143682123500,8.70112353515625,-0.41029345002770423,-1.7903128066986798,-4.198049363471568
1789324143692086500,8.71108642578125,-0.805175395911932,-1.1790882035255432,-4.869507778333127
1789324143702048300,8.72104833984375,-0.6288704422399402,-0.2141495311588049,-4.69664565859139
1789324143712011300,8.73101123046875,-0.45264761389344926,0.39194413886666296,-3.3782898541510105
1789324143721973500,8.740973388671875,-0.40007980678826566,0.1905079588085413,-1.1753355729937554
1789324143731936500,8.7509365234375,0.49394671574831006,-0.29840193181633945,-0.27263357657045123
1789324143741899300,8.760899169921874,1.068171083304286,-0.5292401474475861,0.1595598628371954
1789324143751861200,8.770861328125,1.615936483001709,-0.2603647543668747,-0.4358858641847968
1789324143761824300,8.78082421875,1.8809341578662395,0.5020452665299177,-0.6621843905597925
1789324143771786500,8.790786376953125,1.9314929632365703,1.0007330393254756,-0.767416450881958
1789324143781749200,8.800749267578125,2.1130933929681777,1.3197908056795595,-0.8190759109705686
1789324143791711200,8.810711181640626,2.5582389606684446,1.1612538561493158,-0.5734846551045775
1789324143801674200,8.82067431640625,2.743570978143811,0.9735866737246512,-0.7267997783333062
1789324143811636500,8.830636474609374,2.6961668374121186,1.190957505017519,-1.1195192854866385
1789324143821599200,8.84059912109375,2.736497094234824,1.577563789987564,-1.3632067535579204
1789324143831561200,8.850561279296874,2.709997209843993,1.8902280559122562,-1.6260849520504475
1789324143841524500,8.8605244140625,2.779627210909128,2.0973510494351384,-1.9256421913817523
1789324143851487500,8.870487548828125,3.1632763996392486,2.3285808947324753,-2.1526856909051535
1789324143861449200,8.88044921875,4.043412051728367,2.7938971438020466,-2.1164900496691463
1789324143871412200,8.890412109375,4.252804743748903,3.201827371829748,-2.274538338899612
1789324143881374500,8.90037451171875,4.133792579877376,3.5254479160547256,-2.138669148251414
1789324143891337500,8.91033740234375,3.953821797174215,3.74726286727488,-2.2349492558330297
1789324143901299200,8.92029931640625,3.5308506518810985,4.41249320140183,-2.3800457090318203
1789324143911262200,8.93026220703125,3.2086785528987645,4.822582068768144,-2.366511689198017
1789324143921224400,8.940224365234375,2.998954436966777,4.966003282231092,-2.3713807565391063
1789324143931187500,8.9501875,2.6853011600047347,5.1425101882159705,-2.349550617524981
1789324143941150500,8.960150390625,2.21987911247313,5.065387201046943,-2.3169576769560574
1789324143951112200,8.9701123046875,1.7719319313555955,4.691639813128114,-2.087738586959243
1789324143961075200,8.9800751953125,1.3788146570563315,4.2722488644093275,-1.5766896375015378
1789324143971037400,8.990037353515625,0.7744687074810266,3.939185953578353,-0.7331827573686838
1789324143981000400,9.00000048828125,0.668000383362174,3.5412685855209824,0.15410831943303346
1789324143990962200,9.009962158203125,1.518547537395358,3.3680344175964594,0.7053513321131467
1789324144000925200,9.01992529296875,1.2715677497804163,2.8934418061375617,1.247963294570148
1789324144010887400,9.029887451171875,-6.366241251066326,-0.09372574692368507,1.6058900130227207
1789324144020850400,9.039850341796875,-8.23827314055264,-4.6667573008060454,1.5117922179162502
1789324144030812200,9.049812255859376,-2.8492250632703304,-7.666869675636291,1.6348896052747963
1789324144040775400,9.059775390625,-6.314150998345017,-12.492315317142008,1.9078911383748054
1789324144050738400,9.069738525390624,-5.354650717639923,-15.945940690523384,8.361312660244106
1789324144060700400,9.079700439453125,-0.14109072468876838,-11.61620818991661,5.524085493281484
1789324144070663400,9.089663330078125,0.8856728279501199,-4.2495577246516945,-0.3738251293301582
1789324144080625400,9.09962548828125,1.4494512048155068,-1.1474363431990147,-0.49663902357220646
1789324144090588400,9.10958837890625,1.4667577289253473,-0.8537024031937122,0.6156804135382176
1789324144100550400,9.11955029296875,0.44181379292905326,-0.19466741657555103,0.9219774825185537
1789324144110513400,9.129513427734375,-0.051642508953809736,0.4932289228677749,0.682888740414381
1789324144120475400,9.139475341796874,-0.42642274705171584,0.8811340154767036,0.08572305773198605
1789324144130438400,9.1494384765625,-0.3039347237631678,1.1126023457050322,-0.7964820941075682
1789324144140401400,9.1594013671875,0.010351298144459724,1.5738596747726201,-1.490067292842269
1789324144150363400,9.16936328125,0.46708501230776306,1.8004893327981233,-1.7464955845430492
1789324144160326100,9.179326171875,0.9305199776753783,1.745516802638769,-1.9878861738488076
1789324144170288400,9.189288330078124,1.2765806095063685,1.6253426092505454,-2.061484494023025
1789324144180251400,9.19925146484375,1.6065712732851505,1.3601596409469843,-1.8781050719201564
1789324144190213400,9.20921337890625,1.91146315164268,0.890967427226901,-1.6851830377072095
1789324144200176000,9.219176025390626,2.1912509838819503,0.28363106366395946,-1.3162591244220734
1789324144210138400,9.229138427734375,2.2357085497677325,-0.3152981215596199,-0.8498305301964283
1789324144220101400,9.239101318359374,2.0328402910798786,-0.6839116537213326,-0.42170623992383477
1789324144230063400,9.2490634765625,1.8354753059834241,-0.7271452307701111,-0.0443242948949337
1789324144240026000,9.259026123046874,1.4562018481194972,-0.521315784189105,0.2395154430836439
1789324144249989400,9.2689892578125,1.0182643121019006,-0.26807109096050263,0.514957939594984
1789324144259951400,9.278951416015625,0.7690472669541836,-0.05961772561669349,0.8254223573878406
1789324144269914400,9.288914306640624,0.5204723191022873,0.017974048107862472,1.183224864938855
1789324144279876400,9.29887646484375,0.35716537869125603,-0.11516776340305805,1.4783131421625613
1789324144289839400,9.30883935546875,0.4147542288288474,-0.40395372561216353,1.6718728897571562
1789324144299801300,9.31880126953125,0.45690205646753307,-0.6054366674214601,2.0291858602255584
1789324144309764400,9.328764404296875,0.6405953668251634,-0.7523200040370226,2.2854960785046217
1789324144319726600,9.3387265625,0.7462453602984547,-0.7454471956580877,2.378854453420639
1789324144329689300,9.348689453125,0.7557187065646052,-0.5676356368154287,2.191632822806388
1789324144339652400,9.35865234375,0.778233320711553,-0.23540099350214003,1.9783406391292808
1789324144349614300,9.3686142578125,0.79679116005674,0.13416297125220297,1.7376362785220145
1789324144359577300,9.378577392578125,0.8254489531338214,0.5033037421584129,1.4096065395526587
1789324144369539300,9.388539306640626,0.8680956702053546,0.798153534451127,0.9967134284205734
1789324144379502300,9.39850244140625,0.9204372673392295,0.9101473439931869,0.6793659731157123
1789324144389464300,9.40846435546875,0.9794904909409582,0.9230980109810829,0.4457226369358599
1789324144399427300,9.41842724609375,1.1638356893360615,0.8777040410280227,0.2763457289613783
1789324144409389300,9.428389404296874,1.3397453600801528,0.9104425275474787,0.1385902861751616
1789324144419352300,9.438352294921875,1.4334253681659697,0.9675205055534839,-0.15825944776311515
1789324144429314300,9.448314208984375,1.4078877529360354,1.051592873468995,-0.5350903347805142
1789324144439277300,9.45827734375,1.11992187493816,1.1522820296645164,-0.7612696186900139
1789324144449240300,9.468240234375,0.7350045659683644,1.2496031707316637,-0.8139082990743219
1789324144459202300,9.478202392578124,0.2907856115937233,1.3079518993258477,-0.7806029724523424
1789324144469165300,9.488165283203125,-0.23185148432701824,1.265673431044817,-0.7267896953307091
1789324144479127300,9.498127197265624,-0.636834260725975,1.2078992874681949,-0.5253934088915586
1789324144489090600,9.508090576171876,-0.7891161684494465,1.124348313078284,-0.3104007049068808
1789324144499052300,9.51805224609375,-0.7352011114537715,1.1123393108546733,0.0316124050989747
1789324144509015300,9.528015380859374,-0.6022353871621191,1.260182432413101,0.12632204849347473
1789324144518977300,9.537977294921875,-0.40494032549671827,1.4522013803064822,0.060201955245435236
1789324144528940500,9.5479404296875,-0.28918402161598206,1.6364228061914443,-0.3345893897458911
1789324144538902300,9.55790234375,-0.262546190059185,1.6910434541732071,-0.6260631297342479
1789324144548865300,9.567865234375,-0.1731306344848126,1.7797990114688873,-0.26155995550081135
1789324144558828300,9.577828369140626,-0.32026188144683837,1.8705910430282353,-0.0665758741915226
1789324144568790500,9.58779052734375,-0.45013219700641927,2.0580945593237874,0.11146306366622448
1789324144578753300,9.597753173828124,-0.4695463609199971,2.1893781757473945,0.41319574734047054
1789324144588715300,9.60771533203125,-0.37649062221236523,2.2255969055980445,0.6237450620502233
1789324144598678300,9.61767822265625,-0.4174094195127487,2.195944110134244,0.8350506019547581
1789324144608640500,9.627640625,-0.45655828453116115,1.941846014946699,1.2375570513680576
1789324144618603500,9.637603515625,-0.3007669073820114,1.475204654753208,1.5998805434748529
1789324144628565200,9.647565185546876,-0.316529197724536,0.8303986844956874,2.0051355609439314
1789324144638528300,9.6575283203125,-0.13292721891216933,0.09748305363059043,2.4826225786700844
1789324144648491300,9.6674912109375,0.23919928980655966,-0.5738631330281496,3.0549925505310296
1789324144658453500,9.67745361328125,0.4733143351513892,-1.2921370750784873,3.4902637899488207
1789324144668416300,9.687416259765625,0.5762812270205467,-2.2346043879181146,3.4139112026304006
1789324144678378200,9.697378173828126,0.6544822917498648,-3.2279975858747956,3.2927640725567935
1789324144688341500,9.707341552734375,0.6734731887500732,-4.235992140635847,3.4506069023430346
1789324144698303500,9.717303466796874,0.30814941884875297,-4.845458501964807,3.3890947412818666
1789324144708266200,9.727266357421875,0.1558908189356327,-5.235608158630132,4.251663172498345
1789324144718228200,9.737228271484375,0.3211749411711469,-5.392615998896956,4.962378661993146
1789324144728191500,9.74719140625,0.17497662767767905,-5.145000835987926,4.4056554643362755
1789324144738154500,9.757154541015625,-0.2531698744267225,-4.751950197184086,2.8822373982951044
1789324144748116200,9.7671162109375,-0.7368178990006446,-4.344411014300585,1.5355793362170458
1789324144758079200,9.777079345703125,-1.0697516304939985,-4.371296683138609,0.37218700673431154
1789324144768041500,9.78704150390625,-1.2914876712590455,-5.020464355736971,-0.7645640571255237
1789324144778004500,9.79700439453125,-1.3849118048876523,-5.514360802602767,-1.4990845659039913
1789324144787966200,9.80696630859375,-1.5377601873874664,-5.384014759290218,-1.5138935741096735
1789324144797929200,9.81692919921875,-1.9549848979830742,-4.691838550570607,-0.9016732378974557
1789324144807891500,9.826891357421875,-2.055900264149904,-3.379564696392417,-0.11330459987968206
1789324144817854500,9.8368544921875,-1.7287988920718431,-1.8614748396366834,0.3244451950134709
1789324144827816200,9.846816162109375,-1.471650177142024,-0.5378887333273887,0.6904097835689783
1789324144837779200,9.856779296875,-1.4805354943871498,0.4857786068618297,1.0993096603464334
1789324144847742200,9.8667421875,-1.705872189992666,1.1180343076258896,1.5467517414860426
1789324144857704400,9.876704345703125,-1.890696257945895,1.3500129254639148,1.8193620833113788
1789324144867667500,9.88666748046875,-1.796752484357357,1.1638333512485026,1.917403063085675
1789324144877629200,9.896629150390625,-1.4799907199859619,0.893619403040409,2.04098370391652
1789324144887592200,9.90659228515625,-1.3879203390538692,0.7944815679401159,2.2275936323732135
1789324144897554400,9.916554443359376,-1.4173089306235314,0.8357914834499358,2.545421272410452
1789324144907517400,9.926517333984375,-1.2749322577774524,0.8912754702627659,3.0204230491921304
1789324144917479200,9.936479248046876,-1.0231564680576324,0.7653168482542038,3.389069899101555
1789324144927442400,9.9464423828125,-0.549067129945755,0.19270985276699065,3.0709763016045093
1789324144937404400,9.956404296875,-0.07908946493640541,-0.7281342418074608,1.9404403859324753
1789324144947367400,9.966367431640625,0.6165152569271624,-1.6840291914969683,0.27363150156661864
1789324144957330400,9.976330322265625,1.8686616824008524,-2.2870921155244113,-1.432738554945588
1789324144967292400,9.98629248046875,2.9289328062355517,-2.530564771801233,-2.366979306709766
1789324144977255400,9.99625537109375,3.4367794525206086,-2.643992998060584,-2.6659189986646172
1789324144987217400,10.006217529296874,3.265664176446199,-2.629925309741497,-2.4696844789028165
1789324144997180400,10.016180419921875,2.441888124960661,-2.3718559728354216,-2.1372762325882912
1789324145007142400,10.026142333984374,1.199500876957178,-1.9097353049367665,-2.436739510025829
1789324145017105400,10.03610546875,-0.5966612402915954,-1.4931886397331953,-3.304978826485574
1789324145027067400,10.0460673828125,-1.7475708125591276,-1.1282745466113089,-4.287599870537221
1789324145037030400,10.056030517578124,-2.0961112785071134,-0.8755150065511464,-3.94010540651083
1789324145046993200,10.0659931640625,-1.7547759216323493,-1.0015449402302503,-1.9305185652464627
1789324145056955400,10.075955322265624,-0.8996075375393032,-1.5929191800296305,-0.24216800341904163
1789324145066918400,10.08591845703125,0.04502659794539213,-2.1189906343132257,0.45981765165328975
1789324145076880400,10.09588037109375,0.9971937592834234,-2.314084751868248,0.21292408101707697
1789324145086843100,10.105843017578126,1.386793965372443,-2.109950418767333,-1.0125143702730537
1789324145096805400,10.115805419921875,1.6114339108854532,-1.519244872009754,-1.2999161846473812
1789324145106768400,10.125768310546874,2.4212340439885853,-0.9038894526422023,-1.0700868537977337
1789324145116730400,10.13573046875,3.2143922543704506,-0.11641337954998016,-1.1496218705445527
1789324145126693400,10.145693359375,3.5255987227022647,0.5887813006967306,-0.8494789402797818
1789324145136656400,10.155656494140626,3.6143338217318055,1.1018430512815713,-0.6625947249263524
1789324145146618400,10.165618408203125,3.794162565615773,1.6410294232040643,-0.8696174729451537
1789324145156581400,10.175581298828124,3.3807805019229646,2.2489619990944862,-1.1726084861174224
1789324145166543400,10.18554345703125,3.0431255871266125,2.2401941707491875,-1.242908933790028
1789324145176506400,10.19550634765625,3.083623017209768,2.135380043578148,-1.7164660647213459
1789324145186468400,10.20546826171875,3.3759844998180863,2.370873976060748,-1.9771745179593563
1789324145196431400,10.215431396484375,3.6050481069922444,2.8384195916175843,-2.0640888313025236
1789324145206393300,10.225393310546876,3.8375247374802828,3.3306314463973044,-2.196111283394694
1789324145216356400,10.2353564453125,3.6716251502275465,3.6559570409744975,-2.3869211477592587
1789324145226318300,10.245318359375,3.552036063250899,3.9524464171677827,-2.4515903115466235
1789324145236280800,10.25528076171875,3.447210245642066,4.27754112559855,-2.4201167303964493
1789324145246243800,10.265243896484375,3.198216780117154,4.621169854107499,-2.4110361828401685
1789324145256205800,10.275205810546876,2.9652672714203594,5.0774762827694415,-2.5298811734512445
1789324145266168800,10.2851689453125,2.9083582202404736,5.534903239893913,-2.4879487421289084
1789324145276130800,10.295130859375,3.1026661558538673,5.404787498205899,-2.1926842315554618
1789324145286093800,10.30509375,2.9988100600600243,5.202381596332788,-2.052079244557023
1789324145296055800,10.315055908203124,2.5259499714821576,5.119332726246118,-2.0481559336334465
1789324145306018800,10.325018798828125,2.231714511695504,4.847245385381579,-2.0471119775384663
1789324145315980800,10.334980712890625,1.8169067991137504,4.614087786892056,-2.021734667436778
1789324145325944000,10.344944091796876,1.0025801284968852,4.033506743785739,-1.4398323125988244
1789324145335906800,10.35490673828125,-1.601206531381607,2.6831203088343143,0.7088637241482735
1789324145345868800,10.364868896484374,-7.189893383911252,-0.26716391298770903,3.510080835574865
1789324145355831800,10.374831787109375,-5.288141478943825,-2.7980805669665334,6.419143404692411
1789324145365794000,10.3847939453125,-0.6074047526240348,-4.181732727181911,6.7751353556901215
1789324145375756800,10.3947568359375,-2.822348746782541,-9.219516466510296,2.2366034527808427
1789324145385718800,10.40471875,-6.590489566913247,-13.401872294026612,0.8623588801190256
1789324145395681800,10.414681884765624,-5.117525384563208,-13.037744382846356,1.966801592504978
1789324145405644000,10.42464404296875,-1.7898416820555925,-7.813432109734416,1.051079955510795
1789324145415606800,10.434606689453124,0.06347615461051463,-3.919986747589707,-0.09152940592318773
1789324145425569800,10.44456982421875,1.5404472345143556,-2.3590754017174245,0.2533563369095325
1789324145435531800,10.45453173828125,0.6530760782137512,-1.2444506102740764,0.809876997731626
1789324145445494800,10.464494873046876,-0.24194617736190557,-0.21969372128248213,1.2940765187084675
1789324145455456800,10.474456787109375,-0.20123188965767622,0.49790860511660573,1.2061369539707898
1789324145465419800,10.484419677734374,-0.1562298416316509,1.1918494854211807,0.7326113872215151
1789324145475381800,10.4943818359375,0.2029243727892637,1.4585305833280087,-0.06634323447942733
1789324145485344800,10.5043447265625,0.6394704544484615,1.4662269830495118,-1.0107587587773799
1789324145495306800,10.514306640625,0.6902507936149835,1.3490981487065552,-1.7238833552405237
1789324145505269800,10.524269775390625,0.6160089148402214,1.1491232733726502,-2.1892720850244163
1789324145515231700,10.534231689453126,0.8615753285259008,1.0104127218186856,-2.3882287232264874
1789324145525195000,10.544195068359375,1.2497002013653515,0.8986597352951764,-2.3208532230898737
1789324145535158000,10.554157958984375,1.474617210254073,0.7898889794528484,-2.2181924745604396
1789324145545119700,10.56411962890625,1.6459148571580648,0.5187152463018894,-1.8878525589525699
1789324145555082800,10.574082763671875,1.7964394728854298,0.07489128259420394,-1.38375065215379
1789324145565045000,10.584044921875,1.8259537366613745,-0.2528244219899177,-1.014779392595589
1789324145575008000,10.594008056640625,1.684904220765829,-0.4139630784511566,-0.4514385303646326
1789324145584969700,10.6039697265625,1.4754960389152167,-0.4066045323818922,0.24928572646975516
1789324145594932700,10.6139326171875,1.282516137035191,-0.26157997537553307,0.5219453142642975
1789324145604895000,10.62389501953125,0.982024539463222,-0.0045317982107400895,0.9204244078576564
1789324145614858000,10.63385791015625,0.734883131545782,0.20213994441330432,1.4554294024422765
1789324145624821000,10.643821044921875,0.5148211614727973,0.23329437661170957,1.9139245733201502
1789324145634782700,10.65378271484375,0.41760026590973137,0.10700374616980551,2.3397964084908365
1789324145644745700,10.663745849609375,0.500859417746216,-0.044237201133370395,2.5720646569252015
1789324145654708000,10.6737080078125,0.6429468983873724,-0.08535130181014537,2.5643355239778756
1789324145664671000,10.6836708984375,0.8172633085906506,0.0507160417586565,2.3829276942089197
1789324145674632700,10.6936328125,1.001788831988722,0.293615282061696,2.1845178762346507
1789324145684595700,10.703595703125,1.160782293114811,0.4966980602830648,1.8704384828150271
1789324145694558000,10.713557861328125,1.2957390450932085,0.5597264711260795,1.7099965764462948
1789324145704521000,10.72352099609375,1.3029841939158737,0.586777559658885,1.453138076634705
1789324145714483700,10.733483642578125,1.2891057445585727,0.7167886719286441,0.8015490221083164
1789324145724445700,10.74344580078125,1.2467697008714078,0.8610784849196672,0.323792978182435
1789324145734409000,10.753408935546876,1.1042543502070008,0.8327905480682849,0.07590206707194447
1789324145744371000,10.763370849609375,1.122323967643827,0.9045809420377016,-0.16056567887887357
1789324145754333700,10.773333740234374,1.1831224274776875,1.0396908387511967,-0.3488355033718049
1789324145764296000,10.7832958984375,1.2450747335217893,1.1825918277323246,-0.4163882597714662
1789324145774259000,10.793259033203125,1.1114658890210092,1.2852069835543631,-0.48808936802223324
1789324145784221000,10.803220947265626,0.7811306495882571,1.2723562698096036,-0.5632965846978127
1789324145794183700,10.81318359375,0.2726572497069836,1.1316028142511845,-0.6113628426000476
1789324145804146000,10.82314599609375,-0.2993431581892073,1.0029588986814022,-0.40188466425314545
1789324145814109000,10.83310888671875,-0.6243243232429028,0.8775596641212702,-0.014806670118123292
1789324145824072000,10.843072021484375,-0.7668843898318708,0.7765671410650015,0.3961712550424039
1789324145834034000,10.853033935546875,-0.7581484179295599,0.741063866007328,0.760940094474703
1789324145843996700,10.86299658203125,-0.6767351862207055,0.7408633749991654,0.8168564813554287
1789324145853959000,10.872958984375,-0.47560551482848823,0.8517465929508209,0.6793142429284751
1789324145863922000,10.882921875,-0.37227950732335446,1.1713199076116085,0.35544469237849113
1789324145873884000,10.8928837890625,-0.4277132252536714,1.6243886695265768,-0.2031220873184502
1789324145883846700,10.9028466796875,-0.7504664120595902,1.8456296202510594,-0.7617674852095544
1789324145893809000,10.912808837890625,-0.6938331821464002,1.9561463429778814,-0.5101562384016811
1789324145903772000,10.92277197265625,-0.49985155587792396,1.9484359147310255,-0.2286599948093295
1789324145913735000,10.93273486328125,-0.27932094537988306,1.8360452148258686,0.14497165777534246
1789324145923696600,10.942696533203126,-0.07431494401097297,1.7248592145353554,0.5504581459127367
1789324145933660000,10.952659912109375,0.06373612072095275,1.6500784065783023,0.8114932007566094
1789324145943622000,10.962621826171874,0.13694865644797682,1.5203613088190555,0.9635749827980995
1789324145953585000,10.9725849609375,0.14799743533730506,1.2238982361108064,1.0853593878619372
1789324145963547000,10.982546875,0.08744096756577491,0.7528343832999468,1.3550970968604088
1789324145973510000,10.992510009765626,-0.14328385081887243,0.05091302563548088,1.7646920432299376
1789324145983471900,11.002471923828125,-0.027046996879577637,-0.902705795815587,2.288903987251967
1789324145993435000,11.012434814453124,-0.05442008390836418,-2.2405887230247257,2.5492268021732567
1789324146003398000,11.02239794921875,0.0636649551808834,-3.907702435556054,2.641049930346012
1789324146013359900,11.03235986328125,0.8733891004383564,-5.5679971157222985,2.975803570742905
1789324146023323000,11.042322998046876,1.0043886392235755,-6.43190234850049,3.2617116394281385
1789324146033284900,11.052284912109375,0.9303297158002853,-6.741161189895868,5.035380185317993
1789324146043247900,11.062247802734374,0.917487769883871,-6.668927728334069,6.429777611431479
1789324146053209900,11.0722099609375,0.10781389350891113,-5.831549852475524,5.184885102608799
1789324146063172900,11.0821728515625,-0.8207078960865736,-4.824475335168838,2.7140695738494394
1789324146073134800,11.092134765625,-1.454788474190235,-4.113859214395284,0.5479419983733446
1789324146083097900,11.102097900390625,-1.8557073621511457,-3.955177887958288,-1.0570311920654027
1789324146093060600,11.112060546875,-2.0117267759025097,-4.677911732026934,-1.5558350655212998
1789324146103022800,11.12202294921875,-1.8292922334343193,-5.087231953108311,-1.4833350619778036
1789324146112985900,11.13198583984375,-1.849240796485543,-4.542607774046063,-0.7369299080077558
1789324146122947800,11.14194775390625,-2.075949364966154,-3.441404774233699,0.47898072688262905
1789324146132910800,11.151910888671875,-1.8775234726399181,-2.215537283876538,1.095548188921064
1789324146142872800,11.161872802734376,-1.4430430913388728,-0.9827700971335173,1.6352612150661647
1789324146152835800,11.1718359375,-0.9636936407417058,0.3288274652183056,2.063529736115038
1789324146162797800,11.1817978515625,-0.6964104122232645,1.6067933916032313,2.045263573192805
1789324146172761000,11.191760986328125,-0.7489929054409266,2.481238723096251,1.8193031927309928
1789324146182722800,11.201722900390624,-0.867421716466546,2.9459324563533067,1.6438573401063679
1789324146192685800,11.211685791015626,-0.7962760501414538,2.927076364713907,2.202986722122133
1789324146202648800,11.22164892578125,-0.5558820706576109,2.443091071009636,2.9446105600997803
1789324146212611000,11.231611083984374,-0.48568625240325924,1.7785761916756628,2.744809872289002
1789324146222573800,11.24157373046875,-0.6754653124153613,1.030255486407876,2.1892121715307233
1789324146232535800,11.251535888671874,-0.9304419440031051,0.4575292484551668,1.464923206974566
1789324146242499000,11.2614990234375,-0.947652606523037,0.0748626410216093,0.7384626705329865
1789324146252461000,11.2714609375,-0.7071148346543311,-0.16641104390621184,0.19033618243820963
1789324146262424000,11.281424072265626,-0.44011575683951376,-0.34623043543994425,0.044602965705841775
1789324146272386000,11.291385986328125,-0.18503266920261083,-0.7563204718500375,0.03465805640518665
1789324146282349000,11.30134912109375,0.27132000975385306,-1.3366150992304087,-0.1470262522175908
1789324146292311800,11.311311767578125,0.692699501941353,-1.9690444029957055,-0.8562481421537697
1789324146302274000,11.321274169921875,1.1965176233626902,-2.3590976135492325,-2.038531196197867
1789324146312237000,11.331237060546876,1.6667396185219288,-2.361634438550472,-2.917225417307019
1789324146322199000,11.341198974609375,2.0999618164554237,-2.072405993270874,-3.4889158824712037
1789324146332161800,11.351161865234374,2.4993340594962237,-1.5823609611362217,-3.4380683232873674
1789324146342124000,11.3611240234375,2.3314744242168963,-1.140659980931878,-2.820146268302202
1789324146352087000,11.371087158203125,1.1351353722915052,-0.8420517128884791,-2.693677943205833
1789324146362049000,11.381049072265625,-0.11725713689774274,-0.5146867214381694,-2.939466475209594
1789324146372011800,11.39101171875,-0.7397244340971112,-0.27077450470030306,-2.6911346884638068
1789324146381974000,11.40097412109375,-1.0032803857207298,-0.46559272792339323,-1.4660722308792173
1789324146391937000,11.41093701171875,-0.25428338862657546,-0.9750047238290309,-0.2073880741998553
1789324146401900000,11.420900146484374,0.9763438634783029,-1.4350889174640178,1.0346423231899737
1789324146411862000,11.430862060546875,1.5476725095927715,-1.9309698161453008,1.8780878285244107
1789324146421825000,11.440824951171875,1.501689633835852,-2.2503765420675275,2.1093968765377995
1789324146431787000,11.450787109375,1.0654638701722026,-2.4427502947479485,1.2319991249799727
1789324146441750000,11.46075,0.7196157120481133,-2.1672850018829104,0.32986557609438893
1789324146451712300,11.470712158203124,0.6248311037212609,-1.3894763363242149,-0.6664627985313535
1789324146461675000,11.480675048828125,0.6726391490787267,-0.5755144073665142,-1.3371385385826229
1789324146471637000,11.490636962890624,0.9747095402747392,-0.01773497865498066,-1.627102020138502
1789324146481600000,11.50060009765625,1.583783687415719,0.4015665382146835,-1.735986465488374
1789324146491563000,11.51056298828125,2.0356340134516357,0.7037070720374584,-1.7012758021131158
1789324146501525000,11.52052490234375,2.4684423698872324,0.8047726603299379,-1.3734639436781406
1789324146511488000,11.530488037109375,2.82824481908381,1.0270517219305038,-1.381924313509464
1789324146521450000,11.540449951171874,2.886268553507328,1.622670759692788,-1.7212725882202387
1789324146531413000,11.5504130859375,2.689855170047283,2.2363293120145795,-2.153136357282102
1789324146541375000,11.560375,2.801617508921027,2.8145155689388512,-2.5703219049111006
1789324146551338000,11.570337890625,3.164730690100789,3.2007880919098852,-2.6718612481951713
1789324146561300000,11.580300048828125,3.3278239877611395,3.578158931022882,-2.621047591280937
1789324146571263000,11.590262939453124,3.444308094459772,3.657800038492679,-2.396538286410272
1789324146581225000,11.600224853515625,3.435468954443931,3.6907466148048638,-2.3481682232558727
1789324146591188000,11.61018798828125,3.1555279774695633,3.8206408226966855,-2.2597987426683304
1789324146601151000,11.62015087890625,2.9158365932971235,3.8261879354298114,-2.3070620136246083
1789324146611113000,11.630113037109375,2.59782278303802,4.141407731056213,-2.542493110004067
1789324146621076200,11.640076171875,2.388295066460967,4.246521717956662,-2.5535434963285923
1789324146631038000,11.650037841796875,2.3685645300745963,4.129188885474205,-2.330209372717142
1789324146641001000,11.6600009765625,2.1310294471532103,3.990935430037975,-2.0841639433428645
1789324146650963000,11.669962890625,1.9969623374909162,3.9428924068808553,-1.8122756321817635
1789324146660926200,11.67992626953125,1.9812679247528313,3.7497260425180197,-1.7231050643444061
1789324146670888000,11.689887939453126,1.6223808368355035,3.3646780929058786,-1.73521986503005
1789324146680851000,11.699850830078125,0.9649451021075248,3.352812298545241,-1.8502794918835161
1789324146690814000,11.70981396484375,0.7603378907978534,3.2382384093821046,-1.8258885624706744
1789324146700776200,11.719776123046875,0.38357378540635106,2.859367687100172,-1.3540116397112607
1789324146710739000,11.729739013671875,-1.2201906137645244,1.9289134681373834,0.4819526188328862
1789324146720701000,11.739700927734376,-5.471606533503532,-0.17870704637765883,2.4702131789520383
1789324146730664000,11.749663818359375,-4.965552031332254,-2.385027589097619,3.9973917665705083
1789324146740626200,11.759626220703124,-0.7938105368107556,-4.116017269212008,6.087385146719217
1789324146750589200,11.769589111328125,-1.1025228502392768,-8.110419498577713,4.959693952953815
1789324146760551000,11.779551025390624,-4.924718501162529,-12.050094112455843,3.061491264900565
1789324146770514000,11.789513916015625,-5.851614735382795,-12.433446948587894,2.6969597413554784
1789324146780476200,11.79947607421875,-2.8775948331862686,-7.899751379793882,1.1826716149702667
1789324146790439200,11.809439208984376,-1.2227958278268576,-4.061049415227771,-0.2590703306421637
1789324146800402000,11.81940185546875,0.6409548477873206,-2.5301082602053877,-0.116956400385499
1789324146810364000,11.829364013671874,1.0248685326725244,-1.3119856848865747,0.5197840445771813
1789324146820327200,11.8393271484375,0.5156263403758407,0.2477496029436588,1.2360466468051075
1789324146830289200,11.8492890625,0.058736266607046124,1.4232465039789677,1.3925146811068057
1789324146840252000,11.859251953125,-0.20352906068414447,2.2001988449692726,0.9412067913845181
1789324146850214000,11.8692138671875,-0.19560674325227737,2.4576462505847214,0.05767097546309232
1789324146860177200,11.87917724609375,0.13425474118888378,2.1314713457018137,-0.6409741370096802
1789324146870139100,11.88913916015625,0.37779286391735073,1.5980559583961962,-0.8162818963378667
1789324146880102000,11.899101806640624,0.44284576632529493,1.1056178936451673,-1.0290943336740135
1789324146890064100,11.909064208984375,0.6088222182065248,0.880853444969654,-1.1389622371032833
1789324146900027100,11.919027099609375,0.9423340418487787,0.7397597976714372,-1.3110665242150426
1789324146909990100,11.928990234375,1.3319050218433142,0.6847369986295699,-1.511589388820529
1789324146919952000,11.938951904296875,1.4060940013870595,0.5526660312205552,-1.4099869171723722
1789324146929915000,11.948914794921874,1.426455529153347,0.20528291861414907,-1.2598220746681092
1789324146939877000,11.958877197265625,1.3496645504176616,-0.08380699497759342,-0.9978981081604957
1789324146949840100,11.968840087890625,1.1707391851142048,-0.18598551294803617,-0.6165612880259752
1789324146959801900,11.9788017578125,1.0527043418422342,-0.2334416761279106,-0.25956658972650765
1789324146969764900,11.988764892578125,0.9077125180616974,-0.2129588600695133,0.05837707790583372
1789324146979727000,11.99872705078125,0.6476183973297477,-0.2028776110380888,0.32926877924501896
1789324146989690000,12.008690185546875,0.47018940806388854,-0.24921967549622057,0.5341588991492986
1789324146999651800,12.01865185546875,0.44343262630254027,-0.35965105802714825,0.8405565058946609
1789324147009614800,12.02861474609375,0.4612582058504224,-0.5001882404863834,1.2463883003383873
1789324147019577900,12.038577880859375,0.5169286551460623,-0.6284989785790444,1.4468895376339554
1789324147029540000,12.0485400390625,0.6483204081192612,-0.6911001039206981,1.530793270984292
1789324147039503000,12.058503173828125,0.7674807482898235,-0.6222264741808176,1.5810022400036454
1789324147049464800,12.06846484375,0.966384487260878,-0.5627852741748094,1.9036153607517479
1789324147059428000,12.078427978515625,1.3064543542444704,-0.465772176143527,2.2214649203598498
1789324147069390000,12.08839013671875,1.6797648120507598,-0.1602209570944309,2.0864657905444504
1789324147079353000,12.09835302734375,1.8053591307915746,0.3425105381339788,1.8155653213769196
1789324147089314800,12.108314697265625,1.6433526054546237,0.7334948920577764,1.4699299292206764
1789324147099278000,12.118278076171874,1.46046286656484,1.112075106960535,1.0149946427814662
1789324147109241000,12.128240966796875,1.3054736726440488,1.467211317911744,0.42937312128990884
1789324147119203000,12.138203125,1.0999404325306414,1.7873644782871008,-0.00771262020394206
1789324147129166000,12.148166015625,0.8109666926644742,1.9266922849565744,-0.32571766263470053
1789324147139128000,12.158128173828125,0.5458534285962582,1.8096704181194305,-0.1805570581585169
1789324147149091000,12.168091064453124,0.22521862218379973,1.56718326574862,0.18632424338310957
1789324147159053000,12.178052978515625,-0.15673253045678137,1.3124322596102953,0.18654986883252858
1789324147169016000,12.18801611328125,-0.5067079245787114,1.1677502324312925,0.3305200944803655
1789324147178978000,12.19797802734375,-0.7494551161251962,1.115023435372114,0.6572605242915451
1789324147188941000,12.207941162109375,-0.8832078260760754,1.07441143899858,0.6437275273710489
1789324147198903000,12.217903076171876,-1.0529144774615764,1.0788140578716994,0.49053895313143725
1789324147208866000,12.227865966796875,-1.298373923641443,1.118054181370139,0.4412241564728319
1789324147218828000,12.237828125,-1.307552086353302,1.253332420387864,0.5950500057026743
1789324147228791000,12.247791015625,-1.2101567840714007,1.3389596165299416,0.6810803758181632
1789324147238754000,12.257754150390625,-1.1852759522497653,1.3954209239423274,0.6510740907415747
1789324147248715800,12.2677158203125,-1.1750981840413064,1.5186562584668397,0.6019675300061702
1789324147258679000,12.277678955078125,-1.1008511907000094,1.6911925072550773,0.5070845758713781
1789324147268641000,12.28764111328125,-0.9571066635668277,1.8821902954071759,0.48634179370254277
1789324147278604000,12.29760400390625,-0.6695522159140557,1.9715327126801012,0.5973946691326797
1789324147288565800,12.307565673828124,-0.33578678283691404,1.9219027125924824,0.798971426705271
1789324147298529000,12.317529052734375,0.011768763726949691,1.8166998783648014,0.9090950584612786
1789324147308491000,12.327490966796875,0.34234979461431503,1.7416612962543963,0.8776721845850348
1789324147318454000,12.3374541015625,0.5461328300595283,1.6592074694514274,1.010650329966843
1789324147328415700,12.347415771484375,0.5927659498861059,1.4670476517826319,1.1967514321185648
1789324147338379000,12.35737890625,0.5913432601392269,1.230928280878067,1.140010869373381
1789324147348342000,12.367342041015625,0.5024491711556911,0.8538216456592083,1.0049047720521689
1789324147358304000,12.377303955078125,0.3003963205039501,0.31971009278297424,0.888830122937262
1789324147368267000,12.38726708984375,0.2682546308338642,-0.2820890949189663,0.9459631921313703
1789324147378229000,12.39722900390625,0.2037678561423905,-1.1766525008112192,0.905618030000478
1789324147388192000,12.40719189453125,0.3157061178386211,-2.0854624587208033,0.7766622720025479
1789324147398154000,12.417154052734375,0.27263971405029297,-2.841552628946304,0.7197163959436118
1789324147408117000,12.427116943359374,0.38410686936974525,-3.534344923737645,0.832526490304619
1789324147418079000,12.437078857421875,1.226578853496909,-3.949957522961497,1.5863630363844334
1789324147428042000,12.4470419921875,1.2489812394410371,-3.9962335364460944,3.2701807770878073
1789324147438004000,12.45700390625,1.1497831985861062,-3.8894191753685474,4.797379822972417
1789324147447967000,12.466967041015625,1.1013953075140714,-4.052711794993281,5.273281178942322
1789324147457930000,12.476929931640624,0.9035382280517369,-3.922607159221172,3.991715474499762
1789324147467892000,12.48689208984375,0.6819920838356017,-3.4767157415896652,1.8354869964212177
1789324147477855000,12.49685498046875,0.5443371788144111,-3.269321529909968,0.3234289671756327
1789324147487817000,12.50681689453125,0.398269761691615,-3.9383395658820866,-0.6952602192748337
1789324147497780000,12.516780029296875,-0.04670622159540653,-5.029952315050363,-1.4743521295771003
1789324147507742000,12.526741943359376,-0.38872875701673326,-5.7295490291595454,-2.1992925437793134
1789324147517705000,12.536705078125,-0.6789807001251726,-5.526000386992097,-2.4291775503389537
1789324147527667000,12.5466669921875,-1.2215163094103336,-4.675708669024706,-1.9776418432101606
1789324147537630200,12.556630126953126,-1.7373130379170179,-3.7065199379980562,-0.8140405471518636
1789324147547592000,12.566592041015625,-1.930195324641466,-2.586411162185669,0.7659211708229035
1789324147557555000,12.576554931640626,-1.8459318180680273,-1.3997183288753032,1.56627389581874
1789324147567518000,12.58651806640625,-1.7797054879665373,-0.34194121381342407,1.863318860068172
1789324147577480200,12.596480224609374,-1.789210398414731,0.3173375184327364,1.9548795379124582
1789324147587443000,12.60644287109375,-1.914436029973626,0.5890232927590608,2.441678427732736
