time,seconds_elapsed,z,y,x
1789415913115120000,0.0271201171875,0.4948310973674059,-0.534658080843091,0.0015486724804155527
1789415913125176000,0.037176025390625,0.4850362640619278,-0.5220499436825513,0.005936842703074216
1789415913135231000,0.04723095703125,-0.4519464798867702,-0.5160521645724773,-0.49002566984705626
1789415913145287000,0.057286865234375,-0.4267056556463241,-0.4605436278402805,-0.5618737122878432
1789415913155342000,0.067342041015625,-0.044644612890481945,-0.3202560362279415,-0.47756833933405574
1789415913165398000,0.07739794921875,0.2424292847037315,-0.2720382410258055,-0.27117552324924615
1789415913175453200,0.087453125,0.23572306506335733,-0.2636199567705393,-0.29009412219822406
1789415913185509000,0.097509033203125,0.5463192925423384,-0.07820785979628563,0.12001871056556701
1789415913195564000,0.10756396484375,0.4334200585931539,-0.06053717854917049,0.14447984653725288
1789415913205620000,0.117619873046875,0.4214905513465404,-0.044829906329512594,0.1506466438049916
1789415913215675100,0.127675048828125,0.1933569184988737,-0.14359657002985476,0.17608221429940313
1789415913225731000,0.13773095703125,0.1824286972492933,-0.12904314402043818,0.1834710093764588
1789415913235786200,0.1477861328125,-0.014393851533532141,-0.15576280864179134,-0.011999211481958627
1789415913245841200,0.157841064453125,-0.23381343204975127,-0.06344517495036125,-0.08619924214268103
1789415913255897000,0.16789697265625,-0.23572598767280578,-0.06082710140645504,-0.08221002637604251
1789415913265952000,0.177951904296875,-0.2940209402531385,0.30475568475723264,-0.10062835678583942
1789415913276008200,0.18800830078125,-0.2963882539063692,0.3079664634972811,-0.09768889666730537
1789415913286063000,0.19806298828125,-0.2423690789490938,0.34944705939888954,-0.055793098427774385
1789415913296119000,0.208119140625,-0.0449906498491764,0.33709728091359137,-0.0925871348151937
1789415913306174000,0.218174072265625,-0.05155073901712894,0.3458873210906982,-0.09205117390812374
1789415913316230100,0.228230224609375,0.04425356774628162,-0.04873568159639835,-0.05261719920486212
1789415913326285000,0.23828515625,0.04130348576903343,-0.04481763136982918,-0.0547002616897691
1789415913336341200,0.24834130859375,0.024233693024516105,-0.005175356811285018,-0.04307247733608819
1789415913346396200,0.258396240234375,0.20140636944174764,0.20101006360054016,0.08178710652254521
1789415913356452000,0.2684521484375,0.19828326898515222,0.20524609373509883,0.0834758359276224
1789415913366507000,0.278507080078125,0.49739305680990215,0.6121276894927025,0.0939244113009423
1789415913376562200,0.288562255859375,0.3980997388869524,0.48885377652347084,0.16985069949869067
1789415913386618000,0.2986181640625,0.16550971115231514,0.30207156023979187,0.22881781571954488
1789415913396673300,0.30867333984375,-0.06091477968990802,0.21767595171928406,0.1471748303754255
1789415913406729000,0.31872900390625,-0.06555471445024014,0.224335994130373,0.15866766323782502
1789415913416784100,0.3287841796875,-0.4561819254994392,0.16734861701726914,0.012109594787564128
1789415913426840000,0.338840087890625,-0.5007569802850484,0.2388888356178999,0.012352646295819432
1789415913436895200,0.348895263671875,-0.4827350013822317,0.3142594261616468,-0.056317003570869564
1789415913446951200,0.358951171875,-0.32691958577036856,0.31704175035655496,-0.06374532694071532
1789415913457006000,0.369006103515625,-0.04384147981405258,0.254407307267189,-0.07061201610611752
1789415913467062000,0.37906201171875,0.24607553225159642,0.124733464127779,-0.014810341646242887
1789415913477117200,0.3891171875,0.19704817423224447,-0.06860299610495567,0.054180502998828886
1789415913487173000,0.399173095703125,-0.12999533017873763,-0.21940087581574916,0.05394477628050372
1789415913497228000,0.40922802734375,-0.3803291043967008,-0.1613888318300247,-0.009727741152327506
1789415913507283000,0.419282958984375,-0.39770694017708297,-0.0778039551705122,-0.06878684650557115
1789415913517339000,0.4293388671875,-0.33336803125739095,-0.04481880041360855,-0.10344899456398561
1789415913527394000,0.43939404296875,-0.18888240343332288,-0.015576339316368102,-0.1171174178997986
1789415913537450000,0.449449951171875,-0.05419628508985042,0.05618599760234356,-0.11651068417830392
1789415913547505200,0.459505126953125,0.00550035098195076,0.047857729718089104,-0.10572214539404957
1789415913557561000,0.46956103515625,0.05692191066145896,-0.012736731976270675,-0.09481814527027309
1789415913567616000,0.479615966796875,0.1292424659848213,-0.00820610280930996,-0.05478109924048185
1789415913577672000,0.489671875,0.18183657657504082,0.012687632137537002,-0.03709229781478643
1789415913587727000,0.49972705078125,0.1597065778315067,-0.0025847557961940766,-0.037175500852521505
1789415913597783000,0.509782958984375,0.08560790691971779,-0.10042202969193458,-0.041176607986353336
1789415913607838200,0.519838134765625,0.08854162228405475,-0.18001812897622585,-0.0034155075319111344
1789415913617894100,0.52989404296875,0.244008078327775,-0.12998714687228202,-0.03643043637257069
1789415913627949000,0.539948974609375,0.3673948040217161,-0.15353227311074732,-0.05882748855445533
1789415913638004000,0.55000390625,0.383747388407588,-0.16149053863883017,0.01952580759450793
1789415913648060200,0.56006005859375,0.3838981950551271,-0.1614677422851324,0.026928941724169996
1789415913658115000,0.570114990234375,0.0465419709444046,0.014214987835288047,0.08068477130383253
1789415913668171300,0.580171142578125,-0.1966512838691473,0.06435118387937545,0.06540368860699236
1789415913678226000,0.590225830078125,-0.367840794223547,0.049721185502409934,0.05480617888281122
1789415913688282000,0.6002822265625,-0.26428631172478195,0.06937865665256977,0.16359481744170187
1789415913698337000,0.6103369140625,-0.046513913893699646,0.08440320730507374,0.2517418874502182
1789415913708393200,0.620393310546875,-0.08419745559990406,-0.023797639694809913,0.2708417795165442
1789415913718448000,0.6304482421875,-0.2831868270277977,-0.13911504070162772,0.17604237547935916
1789415913728504000,0.640504150390625,-0.35212650774121285,-0.12065174777209758,0.0852288992731832
1789415913738559000,0.65055908203125,-0.22519348774254322,-0.054281625285744664,0.04677190724276006
1789415913748615000,0.660614990234375,-0.005730652606487274,-0.013818681994080543,0.03786753823729232
1789415913758670000,0.670670166015625,0.05515665455460548,-0.08871580980718136,0.05963721576845273
1789415913768726000,0.68072607421875,-0.027832594299316404,-0.20969898149073124,0.023208386831078676
1789415913778781200,0.69078125,-0.17344985650181768,-0.2436240474462509,-0.026689086819998917
1789415913788837000,0.700837158203125,-0.3214326787918806,-0.19544599973261356,-0.07111517985528334
1789415913798892000,0.71089208984375,-0.2882967173874378,-0.04459960470497608,-0.06939966290798037
1789415913808947200,0.720947265625,-0.0938467429548502,0.05963701483905315,0.0452454465941526
1789415913819003100,0.731003173828125,0.15301380219459532,0.08412672845125198,0.20069317967109382
1789415913829058000,0.74105810546875,0.3182289143145084,0.054853287693858145,0.23248822959428653
1789415913839114200,0.7511142578125,0.24188392578065393,-0.009860299757122992,0.18394343092748894
1789415913849169000,0.7611689453125,0.15014087710678575,-0.0397971728593111,0.1788718267516233
1789415913859225000,0.77122509765625,0.13270634270310402,0.008671966755390167,0.21325260058538986
1789415913869280000,0.781280029296875,0.05128361251354217,0.07370587220191956,0.18244259791048242
1789415913879336200,0.791336181640625,-0.005638298147916793,0.15022797086834908,0.1248519576746039
1789415913889391000,0.80139111328125,0.11313596531450748,0.22252572983801364,0.21468672504173592
1789415913899447300,0.811447265625,0.31407237915694713,0.2984878565341234,0.34226631758194415
1789415913909502000,0.821501953125,0.3267138340651989,0.28550913249552246,0.4498564488049596
1789415913919558100,0.83155810546875,0.05623509744107723,0.17254034044146538,0.46463831327538935
1789415913929613000,0.841613037109375,-0.2332534600794315,0.024415479332208632,0.41342056907229124
1789415913939669200,0.851669189453125,-0.5683130976855755,-0.07547872709333896,0.32206615438982844
1789415913949724000,0.861723876953125,-0.8988245704680681,-0.17019231601059437,0.23463329706527292
1789415913959780000,0.871780029296875,-0.9691413847535848,-0.4498036226391792,0.25534882590100166
1789415913969835000,0.8818349609375,-0.8697001827925444,-0.7377139710575342,0.45247265918534246
1789415913979890200,0.89189013671875,-0.8691016323775053,-0.7383119369506835,0.45642402715962377
1789415913989945900,0.90194580078125,-0.41498248462677,0.294993584677577,0.2568355207948014
1789415914000001000,0.9120009765625,-0.6034598143905401,0.37192309510111804,0.31900694948229935
1789415914010057000,0.922056884765625,-0.6264625043153762,0.20942893237769603,0.41621765244491393
1789415914020112100,0.932112060546875,-0.7065431722462177,0.0034708909809589386,0.5064434649562463
1789415914030168000,0.94216796875,-0.9869505976885556,-0.2504734749495983,0.5853713095901534
1789415914040223200,0.95222314453125,-1.1057774681210517,-0.42583822516202924,0.7053131189946085
1789415914050279000,0.96227880859375,-0.8842541933238506,-0.2664718390703201,0.6901406843040138
1789415914060334000,0.972333984375,-0.40218671593964095,0.2223398518770933,0.44819852553009987
1789415914070390000,0.98239013671875,-0.3207873666256666,0.31262042678296564,0.375343388406001
1789415914080445000,0.99244482421875,-0.35885727730095385,0.0884305631250143,0.44539227247033264
1789415914090501000,1.002501220703125,-0.5126560923933983,-0.23839491462111473,0.5584549168203026
1789415914100555800,1.0125556640625,-0.9567682253926992,-0.4707622395157814,0.6833966168712824
1789415914110612000,1.022612060546875,-1.2656529727786778,-0.5278016390770673,0.6772491270922124
1789415914120667000,1.0326669921875,-1.3887684803158045,-0.4276823917239904,0.5568957046795636
1789415914130723000,1.04272314453125,-1.3950637810677289,-0.23619302066266534,0.5098910115942359
1789415914140778000,1.052778076171875,-1.2357517555117605,-0.021270751565694808,0.35459092509336765
1789415914150833000,1.0628330078125,-0.9652566522747278,0.11758709950447081,0.26454671622663734
1789415914160888800,1.072888916015625,-0.6509732607156038,0.22320552879571914,0.19232710052710025
1789415914170944000,1.082944091796875,-0.4509463629335165,0.21828560805022715,0.16432159734629093
1789415914181000000,1.093,-0.33752573545873166,0.10371990219354629,0.233794617751427
1789415914191055000,1.10305517578125,-0.2965928365677595,0.004254150313138962,0.3508320474838838
1789415914201111000,1.113111083984375,-0.36164077053964133,0.012352408833801745,0.4083908678093925
1789415914211166000,1.123166015625,-0.29940087972581386,0.10301643009930848,0.49825793001092966
1789415914221222000,1.133221923828125,0.010776245558261871,0.27496552664935586,0.5412517800197005
1789415914231277000,1.143277099609375,0.18072364689707754,0.3387961937859654,0.4186760053824633
1789415914241333000,1.1533330078125,0.18381985934674738,0.3313938085749745,0.2815951739221811
1789415914251388200,1.16338818359375,0.1336088445007801,0.3038967298403382,0.03954429407678544
1789415914261444000,1.173444091796875,0.2042541600883007,0.29867022736370563,-0.15703487440422176
1789415914271499000,1.1834990234375,0.34350773247778416,0.19909926154315472,-0.09317457931432872
1789415914281555000,1.193554931640625,0.3238362328022718,0.23517098413854837,-0.10245309712812303
1789415914291610000,1.203610107421875,0.32833120613396166,-0.18464725008159874,0.1456415929261595
1789415914301666000,1.213666015625,0.2827203785598278,-0.19395137726068495,0.2899762314395979
1789415914311721000,1.223720947265625,0.2672626971870661,-0.16483195802122352,0.28101262479387223
1789415914321775900,1.23377587890625,0.18422201040685177,0.07603168480098248,0.3033964521680027
1789415914331831800,1.243831787109375,-0.1617459747046232,0.14089052594155071,0.09590743834432214
1789415914341887000,1.253886962890625,-0.5879606319636106,0.05556377405077219,-0.19586875518932936
1789415914351943000,1.26394287109375,-0.7545633990496396,-0.05655629221946001,-0.2862855967607349
1789415914361998000,1.273998046875,-0.8882879788845777,-0.14579934077113865,-0.25495631945207714
1789415914372054000,1.284053955078125,-1.037481930530071,-0.09450169973224401,-0.0940128933019936
1789415914382109000,1.29410888671875,-0.9325620048969984,0.17061580211967228,0.21430550717180594
1789415914392164900,1.304164794921875,-1.0325076492488383,0.3913388664498925,0.3992541696190834
1789415914402220000,1.314219970703125,-1.3454665142059326,0.5076967164203524,0.4061217903662473
1789415914412276000,1.32427587890625,-1.3570681046724318,0.3640700435131788,0.16698327256990594
1789415914422331100,1.3343310546875,-1.117649692222476,-0.01595715532749891,0.02334699158417061
1789415914432387000,1.344386962890625,-1.1228443382561206,-0.35802228778153655,0.12062910668202675
1789415914442442000,1.35444189453125,-1.1182552569001913,-0.37583530010879035,0.21437906559836117
1789415914452498000,1.364497802734375,-2.010820766973495,-0.1138780158534646,0.5192416082635521
1789415914462553000,1.374552978515625,-2.7461609946370125,0.1405865745589137,0.9320626040074974
1789415914472609000,1.384609130859375,-2.255133381205797,0.8106120340079068,0.9284915405876935
1789415914482664200,1.394664306640625,-2.1727865219086406,0.672304802557826,0.9847584214065224
1789415914492719900,1.404719970703125,-3.6839158920019863,0.013799392771720886,0.2291306079957634
1789415914502775000,1.414775146484375,-7.252803721332549,-2.0162217492341994,-0.35529490864425894
1789415914512830000,1.424829833984375,-10.596024600189924,-2.2209283292651176,-0.0016799707098864019
1789415914522886100,1.43488623046875,-9.663336338564752,-2.775413977128267,1.3712076891839504
1789415914532941000,1.444941162109375,-9.588972879236936,-2.803822325488925,0.8583725138965994
1789415914542997200,1.454997314453125,-6.846442934578657,-5.045360896584391,-0.1316464583866298
1789415914553052000,1.465052001953125,-1.7096330038309095,-4.650534480279684,-1.6547006595514713
1789415914563107800,1.47510791015625,4.414515647140145,-3.2578783448755737,-3.390907343661785
1789415914573163000,1.4851630859375,8.574300746408104,-1.608448173072934,-3.681391049699485
1789415914583219000,1.495218994140625,5.498331458821893,-1.2228200854852795,-1.4193746309816837
1789415914593274000,1.505274169921875,3.5352076780468225,-1.186938332504034,0.3582628185391426
1789415914603329800,1.515329833984375,1.59523271766901,-1.4641855403497814,0.819834328122437
1789415914613385000,1.525385009765625,0.015541268002986906,-2.018005417780578,0.7686828175559639
1789415914623441000,1.53544091796875,-1.5555471884906291,-1.9097557632029056,0.055087973232567304
1789415914633496000,1.54549609375,-0.5963315699458122,-1.3218074061989784,-0.029834289510548114
1789415914643552000,1.555552001953125,3.2282886777758595,-1.4032301363885402,0.5738128641456365
1789415914653607000,1.56560693359375,6.643513301092386,-1.687992542169988,1.0831830667361617
1789415914663662800,1.575662841796875,7.956442988830804,-0.9477686341181397,2.012542476199567
1789415914673718000,1.585718017578125,7.714438651540875,0.5861854389846325,2.424907179543376
1789415914683774000,1.59577392578125,5.397192220771313,1.4850833669498562,1.9979443342655896
1789415914693829000,1.6058291015625,1.6454864026129246,1.677791173890233,0.9231430191665887
1789415914703885000,1.615885009765625,-1.4821364998430013,1.5709110541000961,0.12800240279585123
1789415914713940000,1.62593994140625,-3.398836967617273,0.8976318535521626,-0.624400311088562
1789415914723996000,1.635995849609375,-3.6741853561043736,-0.3031204847708344,-0.9846052036061882
1789415914734051000,1.646051025390625,-2.593572724378109,-0.7729512886554002,-0.2621124748170376
1789415914744106000,1.65610595703125,-0.8179594741612672,-0.5835489530012011,0.8025918091595172
1789415914754162200,1.666162109375,0.17242518962919712,0.10610855089575051,1.2676719113856554
1789415914764216800,1.676216796875,0.33280104502439495,1.075030447679758,0.8888952971279621
1789415914774273000,1.68627294921875,-0.25408815831542014,1.4249723048582672,0.013511808001995087
1789415914784328000,1.696327880859375,-0.02061141087412834,1.4563576232030986,-0.2497328857153654
1789415914794384100,1.706384033203125,-1.9593594598054884,1.4737301982864737,-0.16360124718248842
1789415914804439000,1.71643896484375,-1.9586556954503058,1.1697387759000062,0.07677695021033287
1789415914814495000,1.726494873046875,-1.6131740325510502,0.8447089493989944,0.19218729019761085
1789415914824550000,1.7365498046875,-1.0586784478157758,-0.020512334413826463,0.5452700757503509
1789415914834605800,1.746605712890625,-1.1093255159914492,-1.0909376263856887,0.4154910186707973
1789415914844661000,1.756660888671875,-1.4012322405695914,-1.3131490295775234,-0.17935002045631407
1789415914854717000,1.766717041015625,-1.5476199026226996,0.03255655408129096,-0.8475953184902667
1789415914864772000,1.776772216796875,-0.07495148834884166,2.7041192577213047,-1.0572948845028876
1789415914874828000,1.786828125,1.8623942925691603,3.7231770582884547,-0.7357488084644079
1789415914884883000,1.796883056640625,1.1289078760787843,1.8577714550741016,0.41191257566213607
1789415914894939000,1.80693896484375,0.103530224840343,1.0033214483834803,1.3602297835737467
1789415914904994000,1.816994140625,0.446486168654263,1.3617632767513395,1.3109411442697048
1789415914915050000,1.827050048828125,1.3296867612719534,1.650170468775928,1.325836515584588
1789415914925105200,1.837105224609375,2.0205013262495397,1.668437946872413,2.122673122218251
1789415914935161000,1.8471611328125,2.5174928165212274,2.148936567504704,3.012183920896053
1789415914945216000,1.857216064453125,2.704666954731941,2.760114993448555,3.2808874645411965
1789415914955272400,1.8672724609375,2.663978385990858,3.129977941149473,3.4041438418537378
1789415914965327600,1.87732763671875,2.989414162944257,3.8787782466277476,3.973408541175723
1789415914975382300,1.88738232421875,3.490449667909741,4.10180169685483,4.008054907143116
1789415914985438500,1.8974384765625,3.4288872379660607,4.146750845649838,4.0362107420474285
1789415914995493400,1.907493408203125,3.3095547560989855,3.4583623387753963,3.342325975844264
1789415915005549300,1.91754931640625,3.1122271804034707,3.1920822228848933,3.1227555886805054
1789415915015604500,1.9276044921875,3.0780104380249975,3.1472809581279755,2.8242081109136343
1789415915025660200,1.93766015625,3.0387893114879727,3.2516607855349777,2.5658149488806723
1789415915035715300,1.94771533203125,2.5702210748851297,2.681608150705695,2.3596172535091635
1789415915045771300,1.957771240234375,1.8591379211217165,1.9274189917959272,1.9304478380978107
1789415915055826400,1.967826416015625,0.5242980148702859,2.240199577576667,0.5199883349776268
1789415915065882400,1.97788232421875,-1.7555939600169657,2.0607066415183244,-0.7444120073914527
1789415915075937300,1.987937255859375,-2.9720412955999373,1.7356329758755862,-1.2885451880663632
1789415915085993200,1.9979931640625,-3.2582109378308055,1.1310497834783046,-1.8318471786141395
1789415915096048400,2.00804833984375,-2.693838686725497,0.15781966810636222,-2.094481631478667
1789415915106104300,2.018104248046875,-1.9921756877362726,-0.9667932872574776,-2.1658973469167946
1789415915116159500,2.028159423828125,-1.5428361754775046,-1.8203667303092776,-1.987775406950712
1789415915126215400,2.03821533203125,-1.2357654917761682,-2.5574837583869696,-2.149980815860629
1789415915136270300,2.048270263671875,-1.5382634607344865,-2.5003902905508872,-2.9063533101588486
1789415915146326300,2.058326171875,-3.12498495516777,-2.4446102434009314,-3.5046658247888085
1789415915156381400,2.06838134765625,-4.842160044941306,-2.94158975097388,-3.9119168383806944
1789415915166437400,2.078437255859375,-5.1171396001160145,-3.574694177521765,-4.1303269495934245
1789415915176492500,2.088492431640625,-4.898324415233731,-4.329748867219687,-4.214637802439928
1789415915186548500,2.098548583984375,-4.508072467237711,-4.95105062777102,-4.064195312038064
1789415915196603400,2.108603271484375,-3.6817262730032203,-5.496409550848603,-3.8130093049049374
1789415915206659300,2.118659423828125,-2.637282686766982,-6.265027194213867,-3.5992870592474935
1789415915216714500,2.128714599609375,-1.5719003573983907,-7.0879802388787265,-3.1234289578974246
1789415915226770400,2.1387705078125,-0.37357378491759297,-7.453976282018423,-3.0027386316806077
1789415915236825300,2.148825439453125,0.2921317655056715,-7.341991240304708,-3.223761555740237
1789415915246881500,2.158881591796875,0.24524784925580023,-7.071310843628645,-2.880643699362874
1789415915256936200,2.168936279296875,-0.24539061872735618,-6.775168673437833,-2.3926018237441777
1789415915266992400,2.178992431640625,-0.8047606776311993,-6.670909842061996,-1.9572125109046696
1789415915277047300,2.18904736328125,-1.1733932067543267,-6.824326379838586,-1.4872428830713034
1789415915287102500,2.1991025390625,-1.3393519768483937,-6.52244946538806,-0.9938578928589821
1789415915297158400,2.209158447265625,-1.166889816209674,-5.949460192584991,-0.2497720486819744
1789415915307213300,2.21921337890625,-0.32874782411083575,-5.757116250520944,0.7677174796551466
1789415915317269200,2.229269287109375,0.7398311093419789,-5.63531942436695,1.6386165168434381
1789415915327324400,2.239324462890625,1.1717336760442703,-4.939942958301305,2.117837957146764
1789415915337380400,2.24938037109375,0.7776537672579288,-3.8874773936510083,2.460996730056405
1789415915347435500,2.259435546875,0.1287251641124487,-2.975320463401079,2.664733003750443
1789415915357491500,2.269491455078125,-0.31570494879484173,-2.3963784196734426,3.140534406477213
1789415915367546400,2.27954638671875,-0.8020587251961231,-1.5106319419652223,3.6172184372574088
1789415915377602300,2.289602294921875,-0.5293634815663099,-0.8408160336136817,4.159836537194252
1789415915387657500,2.299657470703125,0.39618075352311133,-1.11657884812057,4.816119594755769
1789415915397713400,2.30971337890625,0.992485435461998,-1.052073934984207,5.3952761580169195
1789415915407768600,2.3197685546875,1.4204174180328846,-1.1945499765515326,5.803158455249667
1789415915417824300,2.32982421875,1.8836463394343852,-1.4557149413853883,5.775189082828164
1789415915427879400,2.33987939453125,1.5982114412188528,-1.715029894438386,5.66631778922081
1789415915437935400,2.349935302734375,1.827466771572828,-1.0494921017974614,5.480872374498844
1789415915447990500,2.359990478515625,1.7550550308346746,0.07708148611485957,4.9716941873490805
1789415915458046500,2.37004638671875,1.6920482473015783,0.7031435929358005,4.805512276023626
1789415915468101400,2.380101318359375,1.8995687157094479,1.0534358709871767,4.821102059343457
1789415915478157300,2.3901572265625,1.8968695397533475,1.304402097889781,4.6445524832606315
1789415915488212200,2.400212158203125,1.7875123623251914,1.1792056924253702,4.467190421751141
1789415915498268400,2.410268310546875,2.1129589529335497,1.0432885709822177,4.134599804607033
1789415915508323300,2.4203232421875,2.5010008236646653,1.0972481247067452,3.8019016354352235
1789415915518379500,2.430379638671875,2.606060450029373,1.0494301424771546,3.4256364194765685
1789415915528434200,2.44043408203125,2.6889514992058277,0.9296838191121816,2.9525030669152734
1789415915538490400,2.450490478515625,2.8209926559984684,-1.0382891552597284,2.4589310296982525
1789415915548545300,2.460545166015625,2.302782436609268,-0.12662263887524605,2.154113093359768
1789415915558601500,2.4706015625,0.3626407413624227,2.9967198097825047,2.210788628044724
1789415915568656400,2.480656494140625,-0.7231202130377292,4.284686321178079,1.870214903192222
1789415915578712600,2.490712646484375,-0.4652759170591831,3.579287642791867,1.669352139107883
1789415915588767200,2.500767333984375,-0.19402400410547851,2.8838422031432387,1.694844892282784
1789415915598823400,2.510823486328125,-0.24362419357672332,2.797783045324683,1.767516453000903
1789415915608878300,2.52087841796875,-0.05485737934708595,2.806132940518856,1.8387337232574819
1789415915618934300,2.530934326171875,0.46933045314699406,2.513983054834604,2.0035653890177607
1789415915628989400,2.540989501953125,0.894970671518892,2.0937387041568756,2.331244560983777
1789415915639045400,2.55104541015625,1.3296999130144715,1.8665747931241987,2.3724720589071513
1789415915649100300,2.561100341796875,1.3801916444979607,1.8967565808981657,2.483013039292395
1789415915659156200,2.57115625,2.8207778442040086,1.9914467889398335,2.4009274612799287
1789415915669211400,2.58121142578125,1.939265058542788,1.9503420406132936,2.3607740223288536
1789415915679267300,2.591267333984375,1.0939360775493085,1.8931091643065212,2.4754253606423733
1789415915689322500,2.601322509765625,0.9580990356050432,1.9361200385153292,2.675482069040835
1789415915699377400,2.61137744140625,0.7155681902229786,1.8669377812176942,2.8314138045087454
1789415915709433300,2.621433349609375,0.7073008587457239,1.8072458213210105,3.1996459361374376
1789415915719488300,2.63148828125,0.8372389057792723,1.537207229679823,3.7163884210616347
1789415915729544400,2.64154443359375,0.8844600911594926,1.0379098005533218,4.143731205567717
1789415915739599400,2.651599365234375,0.8065605666600167,1.0603478423327206,4.216146453437209
1789415915749655600,2.661655517578125,0.9280768223069608,1.4948942746073006,4.239617637656629
1789415915759710200,2.671710205078125,1.0038264752961694,1.723759728860855,4.323962392772734
1789415915769766400,2.681766357421875,0.8291593519590794,1.7857541204810141,4.283953330728411
1789415915779821300,2.6918212890625,0.7862194971598684,1.7978624914258718,4.302625297972559
1789415915789877500,2.70187744140625,0.20344298983588813,1.7934031739294527,3.9641193193048236
1789415915799932400,2.711932373046875,-0.07173340308517218,1.689354185912013,3.8444267719537017
1789415915809988600,2.721988525390625,-0.17195917955264448,1.5373960302501917,3.873951264862716
1789415915820043300,2.732043212890625,-0.11924962588921188,1.542948988202214,3.878509658819437
1789415915830099500,2.742099365234375,0.060890668161958456,1.6942191615998743,3.9359786819696425
1789415915840154400,2.752154296875,0.37079847498536106,1.6396359230190514,4.226804625573754
1789415915850210300,2.762210205078125,0.7027646766208112,1.2595926498264074,4.475574219214916
1789415915860265500,2.772265380859375,1.105110090253502,1.1758370927751063,4.289948771750927
1789415915870321200,2.782321044921875,1.3059656939446926,1.2079372813910245,3.936363881894946
1789415915880376300,2.792376220703125,1.3048610937036573,0.9678945995628834,3.7916254483535883
1789415915890432300,2.802432373046875,0.9886183117050676,0.7813245647251605,3.591277648054063
1789415915900487400,2.8124873046875,0.573701439660415,0.6878560074329376,3.413981637518108
1789415915910543400,2.82254345703125,0.2273779191095382,0.5926864914417267,3.378676515381038
1789415915920598300,2.832598388671875,0.09120645757913588,0.5171832144290208,3.243342162261903
1789415915930654200,2.842654296875,0.037747400722652674,0.20507658238708973,3.171599406826496
1789415915940709400,2.85270947265625,0.13806655456200242,-0.6170861886829138,3.476225035463273
1789415915950764800,2.862764892578125,0.3685831370234489,-1.5205840116590261,3.634872167369723
1789415915960820000,2.872820068359375,0.6513678129911422,-2.1216636529147626,3.634909869031608
1789415915970875600,2.882875732421875,0.7573778719484806,-2.469273560014367,3.660100132128596
1789415915980930800,2.892930908203125,0.7053460714161396,-2.652780700150132,3.7256636144071815
1789415915990986800,2.90298681640625,0.6068284140408039,-2.881557307076454,3.7042438097596166
1789415916001042000,2.9130419921875,0.5284382564801723,-2.9597675049602983,3.3659193251386283
1789415916011097900,2.923097900390625,0.5217196888148784,-2.4358020830452443,3.1172099372521043
1789415916021152800,2.93315283203125,0.43488782959077504,-1.2038871292173863,2.993890431575477
1789415916031208700,2.943208740234375,0.37647652062177656,-1.2556670008152722,2.876293979720771
1789415916041263900,2.953263916015625,0.49797407156825063,0.904878463679552,2.239323525394499
1789415916051319800,2.96331982421875,0.582697048879601,1.2146084297180175,2.002218650583923
1789415916061375000,2.973375,0.7212637715160847,1.0047171405255795,1.8165812204211949
1789415916071431000,2.983430908203125,0.9380851522326469,0.5260498269736766,1.691728221566975
1789415916081485800,2.99348583984375,0.9129226539254188,0.07392039173543453,1.5955436833143233
1789415916091541800,3.003541748046875,0.42369887504577636,-0.35387598175704477,1.4545248548179863
1789415916101597000,3.013596923828125,-0.2162882967531681,-0.8321218550264835,1.0980629482209683
1789415916111652900,3.02365283203125,-0.6157388657271862,-1.1239274573177098,0.9125257635623216
1789415916121708000,3.0337080078125,-0.7894646165609359,-1.2947510569691658,0.8682897314727306
1789415916131764000,3.043763916015625,-0.821436210361123,-1.5445897411465643,0.834483907982707
1789415916141819000,3.05381884765625,-0.8916068941742181,-1.789340746796131,0.6532125640749931
1789415916151874800,3.063874755859375,-1.051025887235999,-2.185080186292529,0.5477472795188426
1789415916161929700,3.0739296875,-0.9720493811547756,-2.5791040540426966,0.41336628160178657
1789415916171986000,3.08398583984375,-0.6570645633280277,-2.656900410428643,0.08966448883414269
1789415916182040800,3.094040771484375,-0.47458559719622134,-2.623423672762513,-0.28129648323655126
1789415916192097000,3.104096923828125,-0.32902094196379184,-2.7733745802551506,-0.6618833617866039
1789415916202151700,3.114151611328125,0.03972586118876934,-3.2275586099356413,-0.8343751869112253
1789415916212207900,3.124207763671875,0.499726468193531,-3.4846097097098827,-1.0131675734847783
1789415916222262800,3.1342626953125,0.8485258773386478,-3.220458422541618,-1.3309282857656477
1789415916232319000,3.144319091796875,1.0791454817831516,-2.9182968459308145,-1.488393806672096
1789415916242374000,3.154373779296875,1.194523088544607,-2.7265561304569244,-1.6020201858520506
1789415916252429800,3.164429931640625,1.0562287165760993,-2.6584032162070272,-1.677091501188278
1789415916262484700,3.174484619140625,0.8262965098738669,-2.5681086127758026,-1.8733371268659829
1789415916272541000,3.184541015625,0.479144283413887,-2.513966688221693,-2.1743407656133176
1789415916282595800,3.194595947265625,0.10748480768501759,-2.5642162815123797,-2.4696459004580973
1789415916292651800,3.20465185546875,-0.2222486664623022,-2.652995219683647,-2.783025621175766
1789415916302707000,3.21470703125,-0.48176411052346224,-2.922701218369603,-2.9773242044389248
1789415916312762600,3.2247626953125,-0.44214521684050556,-3.2497651810467243,-3.038596127003431
1789415916322817800,3.23481787109375,-0.11829086385965347,-3.3063954152852295,-3.058492083084583
1789415916332873700,3.244873779296875,0.35078444548249244,-3.0218250249445435,-3.01528539404273
1789415916342929000,3.254928955078125,0.877949540221691,-2.7573393912553787,-3.0002433077335358
1789415916352984800,3.26498486328125,1.1517676504015921,-2.5710534340560436,-3.054901365116238
1789415916363039700,3.275039794921875,1.0738397765904664,-2.3243939644366503,-3.1448557768076655
1789415916373095700,3.285095703125,0.803884771579504,-2.0705238327860833,-3.2536995978862047
1789415916383150800,3.29515087890625,0.45976329111754893,-1.8890467371731996,-3.4116976182341574
1789415916393206800,3.305206787109375,0.11381460436158813,-1.7910589488908648,-3.4677953530311583
1789415916403262000,3.315261962890625,-0.11650983479493297,-1.73464177288115,-3.4390222630113363
1789415916413318000,3.32531787109375,-0.3712240069210529,-1.6760998598024248,-3.448524250850081
1789415916423372800,3.335372802734375,-0.6640829176574945,-1.603966643744707,-3.3985885458141563
1789415916433428700,3.3454287109375,-0.7155828032702207,-1.4677531697034836,-3.2273452594459053
1789415916443484000,3.35548388671875,-0.5123556481420993,-1.2026090721055864,-3.118970809444785
1789415916453539800,3.365539794921875,-0.3524515019118786,-1.0059671405866741,-3.0891087551444767
1789415916463595000,3.375594970703125,-0.2486217096030712,-1.0012959339052439,-3.0475720451414583
1789415916473651000,3.38565087890625,-0.1521422983233817,-1.1240694961369038,-3.019751725801825
1789415916483705900,3.395705810546875,-0.15324702642858026,-1.1709054815918207,-3.0393466531097886
1789415916493761800,3.40576171875,-0.31177933631632476,-1.157480475090444,-3.229021668225527
1789415916503817000,3.41581689453125,-0.47893794718682764,-1.1451076079905032,-3.23613939127624
1789415916513873000,3.425872802734375,-0.47049277492463587,-1.1504542297154665,-3.1223136901319024
1789415916523927800,3.435927734375,-0.46209261084794995,-1.252030982400477,-3.0463258444726464
1789415916533984000,3.44598388671875,-0.5304033460080624,-1.232022798116505,-3.0653561236351727
1789415916544038700,3.45603857421875,-0.5845341646462678,-1.1198846116676926,-3.075672350466251
1789415916554094800,3.4660947265625,-0.5663590410083532,-1.0012383584991096,-3.0561323682159185
1789415916564149800,3.476149658203125,-0.4142717060089111,-1.0002876336455344,-2.9919536182940005
1789415916574206000,3.4862060546875,-0.2967249385148287,-1.2097712188199161,-2.9246956070572137
1789415916584260900,3.4962607421875,-0.27263388709770514,-1.5579276538863778,-2.72451264193058
1789415916594317000,3.506317138671875,-0.3484107020884752,-1.825493717934191,-2.551767134305835
1789415916604371700,3.516371826171875,-0.49512043570280073,-1.8723343795642255,-2.441381929004192
1789415916614428000,3.526427978515625,-0.7127005258321761,-1.8552108108058571,-2.370447275081277
1789415916624482800,3.53648291015625,-1.0186118103653192,-1.9282702017977833,-2.277347551101446
1789415916634539000,3.5465390625,-1.1730799030214547,-2.132350174362957,-2.14805773884356
1789415916644594000,3.556593994140625,-1.1745856314092873,-2.523015379334986,-1.9143699790000914
1789415916654649900,3.56664990234375,-1.2157441557496786,-2.8836931500613687,-1.7104589332610367
1789415916664704800,3.576704833984375,-1.161548455181718,-3.117572048562765,-1.556567763710022
1789415916674760700,3.5867607421875,-1.147191428527236,-3.294745309501886,-1.5139765762180089
1789415916684816000,3.59681591796875,-1.073989414194226,-3.469005897864699,-1.6063357109636067
1789415916694871800,3.606871826171875,-0.9779729259848594,-3.503430730035901,-1.692259844225645
1789415916704926700,3.6169267578125,-0.8232441365659237,-3.441511157217622,-1.667643873885274
1789415916714982700,3.626982666015625,-0.4089432044625282,-3.375230466580391,-1.5885726752579212
1789415916725037800,3.637037841796875,0.10135494489418342,-3.3472084871888157,-1.3941419900476932
1789415916735093800,3.64709375,0.44590603067874907,-3.270792771506309,-1.2100982588171958
1789415916745149000,3.65714892578125,0.6552806025207042,-2.9729917281925675,-1.0875514910787343
1789415916755204900,3.667204833984375,0.6798071410119533,-2.4546359628528354,-0.9143792824745177
1789415916765259800,3.677259765625,0.6157704299092293,-1.825997283542156,-0.904869111329317
1789415916775315700,3.687315673828125,0.5363209725540131,-1.2773247058719397,-0.9875438874065875
1789415916785371000,3.697370849609375,0.6247744050979613,-1.125713756212592,-0.9515069438636302
1789415916795426800,3.7074267578125,0.7947101890642195,-1.263748600462079,-1.082440431675315
1789415916805482000,3.71748193359375,0.7085294506926089,-1.4945400543421505,-1.3564239615499973
1789415916815538000,3.727537841796875,0.5484954675376414,-1.4316934298068285,-1.646636157169938
1789415916825592800,3.7375927734375,0.2238332322400063,-1.2368635161459445,-1.8394792809277771
1789415916835648800,3.747648681640625,-0.1642950746655464,-1.1669815861463546,-1.8850217194408176
1789415916845704000,3.757703857421875,-0.21048640554137527,-1.2186235105782746,-1.7142308530151844
1789415916855760000,3.767759765625,-0.09346863035745918,-1.4350199438810347,-1.3516022404819725
1789415916865815000,3.77781494140625,-0.07612341820504516,-1.5178472801715135,-1.0008914447575807
1789415916875871000,3.78787109375,-0.2818143696308136,-1.638696596342325,-0.6022147827655077
1789415916885926000,3.79792578125,-0.4153693650525063,-1.8221487914204597,-0.19395429987013338
1789415916895981800,3.80798193359375,-0.27272848831228913,-1.8948124610930681,0.173811091029644
1789415916906036700,3.81803662109375,-0.04555179086327552,-1.8540625175535679,0.4684592232704162
1789415916916093000,3.828093017578125,0.18070143506526945,-1.7366466829627751,0.7493395269215106
1789415916926147800,3.83814794921875,0.2860661818563938,-1.5614175418287515,0.9866413856089115
1789415916936204000,3.8482041015625,0.40710663668513297,-1.1919137828290463,1.1968886486321686
1789415916946258700,3.8582587890625,0.6185504160165787,-0.7979881147563457,1.3180454233169554
1789415916956315400,3.8683154296875,0.8215233771879226,-0.5207143111646175,1.509340148589015
1789415916966370600,3.87837060546875,0.7876865009725094,-0.22014204957187175,1.6742840425521135
1789415916976426200,3.88842626953125,0.5896095682144165,-0.02097439896762371,1.9262772744148968
1789415916986481400,3.8984814453125,0.6029388592563569,0.0781435623884201,2.0729963603794572
1789415916996537300,3.908537353515625,0.25863690766096115,0.6119149235248565,2.3923504793316126
1789415917006592500,3.918592529296875,0.06299027078971266,0.8908867632061243,2.580489370921254
1789415917016648400,3.9286484375,-0.14080080183148383,1.0279711748629807,2.7433400919973847
1789415917026703400,3.938703369140625,-0.32299861293435095,1.1545797852128743,2.7876673095017668
1789415917036759300,3.94875927734375,-0.41026064373664556,1.2751380094826221,2.823259139625728
1789415917046814500,3.958814453125,-0.4793501812495291,1.3971867645710705,2.958790476621687
1789415917056870400,3.968870361328125,-0.3924189167715609,1.519968510109186,3.1239880530849096
1789415917066925600,3.978925537109375,-0.2636006675481796,1.687133002731204,3.3408424592882393
1789415917076981500,3.9889814453125,-0.25472894043698907,1.9179080899983643,3.5174192156389354
1789415917087036400,3.999036376953125,-0.24968203231096267,1.9668378328621385,3.619493688713014
1789415917097092400,4.00909228515625,0.016463497414439917,2.2836802612543106,3.888414089979231
1789415917107147500,4.0191474609375,0.10350114487633108,2.3077122942268846,3.9061715727269646
1789415917117203500,4.029203369140625,0.1892003833413124,2.2952923731148243,3.808679459007084
1789415917127258600,4.039258544921875,0.3311164529383182,2.2456997824281455,3.722279524926841
1789415917137314600,4.049314453125,0.4421978238105774,2.2618238187551496,3.60173620596528
1789415917147369500,4.059369384765625,0.40683315350599586,2.3578718711465596,3.567642505444586
1789415917157425400,4.06942529296875,0.42295770128965376,2.422296120262146,3.6434304446175694
1789415917167480600,4.07948046875,0.2525134563446045,2.4687147570878265,3.599922726802528
1789415917177536500,4.08953662109375,-0.0058184770204126835,2.5833102735608815,3.5370480452165007
1789415917187591700,4.099591796875,0.0386427421271801,2.730893282878399,3.5984254739820956
1789415917197647600,4.109647705078125,0.35362872899770736,2.745752998358011,3.645318450321257
1789415917207702300,4.119702392578125,0.5790108711801469,2.538316116580367,3.78570044221878
1789415917217758500,4.129758544921875,0.6990997243724762,2.2744062369525433,3.9350533838182686
1789415917227813400,4.1398134765625,0.7414627291318029,2.0707360142320392,4.036444550803304
1789415917237869600,4.14986962890625,0.5836543130718171,1.8779478355318306,4.045269662293792
1789415917247924500,4.159924560546875,0.45657823134064673,1.685735995414853,4.067131657750904
1789415917257980400,4.16998046875,0.46221886757612224,1.520705592212081,4.029567650771141
1789415917268035300,4.180035400390625,0.5013105225145816,1.527013167923689,3.9631089732185005
1789415917278091500,4.190091552734375,0.5166087024766951,1.5815350317060946,3.9914433795601125
1789415917288146400,4.200146484375,0.5964006165940314,1.6090864709764718,4.025864412339032
1789415917298202600,4.21020263671875,0.7586124552447349,1.6067331858485936,4.016606754650176
1789415917308257500,4.220257568359375,0.9804372702717781,1.4719406845211982,4.04993473149538
1789415917318313500,4.2303134765625,1.2158803493499755,0.9980500838518143,4.113232022407651
1789415917328368400,4.240368408203125,1.2246036079011857,0.9810562789529561,4.070241314204037
1789415917338424300,4.25042431640625,1.4570901752613483,0.32363924892544743,4.0191728057458995
1789415917348479500,4.2604794921875,1.362638598281145,-1.0876526133656501,3.786193486432731
1789415917358535400,4.270535400390625,1.3344739955484866,-1.9542168362200258,3.557269872251153
1789415917368590300,4.28059033203125,1.29078916760087,-2.6523282802075148,3.286732975699007
1789415917378646300,4.290646240234375,1.1353557370439171,-3.0417981379151344,3.0456904691785573
1789415917388701400,4.300701416015625,0.95761760876365,-2.9623078370928764,2.997153817285597
1789415917398757400,4.31075732421875,0.8789256917774677,-2.345944701987505,3.2408497609242795
1789415917408812500,4.3208125,0.8707247035346924,-1.3208283320337533,3.396541842417419
1789415917418868500,4.330868408203125,0.9812425953052938,-0.11196925962269305,3.3793057531952857
1789415917428923400,4.34092333984375,1.2470084780633448,0.8315811722785234,3.361695569963753
1789415917438979300,4.350979248046875,1.516092107067257,1.3375865746110678,3.2437887369856235
1789415917449034500,4.361034423828125,1.4704758726656435,1.300938805693388,3.151779730851948
1789415917459090400,4.37109033203125,1.7598937030375004,1.4519126264929771,2.4847630978301165
1789415917469145600,4.3811455078125,1.5457494325757026,1.428521814033389,2.019075969621539
1789415917479201500,4.391201416015625,1.3590344363093376,1.271387717038393,1.8656348819255828
1789415917489256400,4.40125634765625,1.3800199411928653,1.0669295588105916,1.9452251359909771
1789415917499312400,4.4113125,1.4214263028144836,0.9588239888787269,2.0029276756361125
1789415917509367600,4.421367431640625,1.3882663760125635,0.8374813362330198,2.1296347779244185
1789415917519423500,4.431423583984375,1.2668249391674995,0.5676356368154287,2.267357195223868
1789415917529478700,4.441478759765625,1.0389420662105082,0.1649275273501873,2.316954169824719
1789415917539534600,4.45153466796875,0.7314227619588375,-0.22690087618231772,2.2454227190524336
1789415917549589500,4.461589599609375,0.5090753843624144,-0.7558423329442739,2.2151398089915513
1789415917559645400,4.4716455078125,0.35854225653503086,-1.3272422907292842,2.127624607145786
1789415917569700400,4.481700439453125,0.48861003089547156,-1.6894897949904202,2.044540665745735
1789415917579756500,4.491756591796875,0.9752828831832855,-1.9122393967121838,1.9944944860726594
1789415917589811500,4.5018115234375,1.6027882476150987,-2.019407978054881,1.772732726344466
1789415917599867600,4.51186767578125,2.006171479862928,-2.07963126834929,1.4652297887057064
1789415917609922300,4.52192236328125,2.224651733702421,-2.0581337222903966,1.172986379519105
1789415917619978500,4.531978515625,2.341390107423067,-2.048975433322787,0.885872149914503
1789415917630033400,4.542033447265625,2.425604514157772,-2.0760084016770124,0.602965893393755
1789415917640089600,4.552089599609375,2.508020931559801,-2.1149632784932852,0.32603461962938307
1789415917650144500,4.56214453125,2.5335201144754884,-2.275458376353979,0.16591946099698543
1789415917660200400,4.572200439453125,2.5172107847094534,-2.368173484930396,-0.1222018998235464
1789415917670255400,4.58225537109375,2.5642215422093866,-2.7257489057272672,-0.1467968273758888
1789415917680311600,4.5923115234375,2.393409048473835,-3.2426737614810466,-0.4486772489577531
1789415917690366500,4.602366455078125,2.353089897567034,-3.7129666299194097,-1.0096247863113879
1789415917700422400,4.61242236328125,2.2758418227136135,-3.725257956215739,-1.613608916836977
1789415917710477300,4.622477294921875,2.168562182211876,-3.406895770910382,-2.092706438499689
1789415917720533200,4.632533203125,2.158700128889084,-3.155174341726303,-2.3945289924144744
1789415917730588400,4.64258837890625,2.192057624089718,-3.0689497642129657,-2.5590683972299098
1789415917740644400,4.652644287109375,2.0764123063027857,-2.9133956298857924,-2.7833973770976064
1789415917750699500,4.662699462890625,1.8440555028021335,-2.6237802311152216,-2.9552824685007333
1789415917760755500,4.67275537109375,1.5136638570070267,-2.3906483515888453,-3.152613551327586
1789415917770810400,4.682810302734375,1.2854805397987366,-2.3455519032776353,-3.28815424067378
1789415917780866300,4.6928662109375,1.1969359949052334,-2.492234748885035,-3.459390512779355
1789415917790921500,4.70292138671875,1.0465408507764338,-2.7204540141895412,-3.570322830569744
1789415917800977400,4.712977294921875,0.9885995339393615,-2.6720377738058567,-3.3854496627777815
1789415917811033600,4.72303369140625,1.1901578790724276,-2.320656823734939,-3.2190006249487397
1789415917821088500,4.733088623046875,1.3682418251156807,-1.8401850911095736,-3.175560711672902
1789415917831144400,4.74314453125,1.3257272099912165,-1.5314762848123906,-3.120928957775235
1789415917841199400,4.753199462890625,1.279433076328039,-1.4460481183737515,-3.0611323684602976
1789415917851255300,4.76325537109375,1.242384909915924,-1.547167774941027,-3.0238316885918377
1789415917861310500,4.773310546875,1.2306862888157366,-1.6256120738416908,-3.059534285613894
1789415917871366400,4.783366455078125,0.8880757974386214,-1.9515084540441632,-2.92248319170475
1789415917881421600,4.793421630859375,0.5103261881411075,-2.1056705494910477,-2.8696131867825985
1789415917891477500,4.8034775390625,0.1835165107523091,-2.1115303814351556,-2.744122766807675
1789415917901532400,4.813532470703125,0.08842296434044837,-2.002301652692258,-2.6227321833670136
1789415917911588400,4.82358837890625,0.2241910327017307,-1.7227230792894959,-2.7245786929041147
1789415917921643500,4.8336435546875,0.34359131910800933,-1.4870689878091214,-2.8571757300138474
1789415917931699500,4.843699462890625,0.4163841681182384,-1.4940017096817493,-2.952482024127245
1789415917941754600,4.853754638671875,0.4816846155464649,-1.612213663086295,-3.106796387526393
1789415917951809800,4.863809814453125,0.39399230356812476,-1.8135536892935633,-3.2594273278832433
1789415917961865000,4.873864990234375,0.12845219238996505,-2.1065753893762826,-3.344744727423787
1789415917971921000,4.8839208984375,-0.08107435514330863,-2.367705282896757,-3.354336147111654
1789415917981976000,4.89397607421875,-0.09249710017787292,-2.3587226427569985,-3.3510675007045267
1789415917992032000,4.904031982421875,-0.79365330042243,-2.2332734315752982,-3.303604907783866
1789415918002087000,4.9140869140625,-0.8918553159773349,-2.044996008297801,-3.0712884362936017
1789415918012142800,4.924142822265625,-0.7783458411753177,-1.8934499405682086,-2.911294858214259
1789415918022198000,4.934197998046875,-0.687750793492794,-1.888684041340649,-2.8409312821775674
1789415918032254000,4.94425390625,-0.5995557926893234,-2.1920561627849935,-2.7530963468581438
1789415918042309000,4.95430908203125,-0.6133680449426174,-2.860854126265645,-2.7328216205924747
1789415918052365000,4.964364990234375,-0.8296177632510662,-3.473343927069008,-2.867210217294097
1789415918062420000,4.974419921875,-0.8421709553539752,-3.9830069751262664,-2.8847154788464304
1789415918072476000,4.984475830078125,-0.7588999669492245,-4.312082277625799,-2.769503876301646
1789415918082531000,4.994531005859375,-0.7018412781655788,-4.210912059915065,-2.552936178085208
1789415918092587000,5.0045869140625,-0.6383692152082919,-3.5688378527089952,-2.2377450240314007
1789415918102642200,5.01464208984375,-0.463032522046566,-2.640961959801614,-1.8261054200917481
1789415918112698000,5.024697998046875,-0.4268307433307171,-2.480961367459595,-1.742314791727066
1789415918122753000,5.0347529296875,-0.29946232758946717,-0.8168696330979466,-1.0855296298623085
1789415918132809000,5.04480908203125,-0.5437140784800052,-0.27080606888234615,-0.9445189846724271
1789415918142864000,5.05486376953125,-0.8344060935061425,-0.0027881694138050077,-0.9179162244290113
1789415918152920000,5.064920166015625,-1.3140519697666166,0.12700199358165262,-1.1262269664317368
1789415918162975000,5.07497509765625,-1.73581724640131,-0.05210369672477245,-1.282383742827177
1789415918173031000,5.085031005859375,-1.6525310604274273,-0.5409849457770586,-1.2418185082048177
1789415918183085800,5.0950859375,-1.5543337210476398,-0.9193401197522878,-1.250723114672303
1789415918193142000,5.10514208984375,-1.4145815514862536,-1.1787328142166138,-1.2829215029656886
1789415918203197000,5.115197021484375,-1.098318968808651,-1.3397972363978623,-1.3362404206991194
1789415918213253000,5.125253173828125,-0.9181272368311881,-1.5424989063471555,-1.1891267824590206
1789415918223307800,5.135307861328125,-0.7579672161437571,-1.7610627468168734,-0.9317267231166362
1789415918233364000,5.145364013671875,-0.4760321427427232,-1.7246271593451499,-0.7915209645688533
1789415918243419000,5.1554189453125,-0.3493022441007197,-1.4023603678166865,-0.6279302387803792
1789415918253475000,5.16547509765625,-0.3980125720601529,-1.1756973920434712,-0.4082119675785303
1789415918263530000,5.175530029296875,-0.46648003215193745,-1.3439374049425123,-0.18285422918498515
1789415918273586000,5.1855859375,-0.3642003918945789,-1.7235130606234073,0.122894558262825
1789415918283640800,5.195640869140625,0.07396890705227852,-1.7518816614955663,0.3283043181270361
1789415918293696800,5.20569677734375,0.35167642588615416,-1.5289666400790214,0.48028000944554805
1789415918303752000,5.215751953125,0.23963673137575386,-1.3831979867070912,0.7500865458965301
1789415918313808000,5.225807861328125,0.08929156386852263,-1.2363058822631836,0.9805284556865692
1789415918323863000,5.235863037109375,0.005853402203321457,-0.8111720059782266,1.1382985124975442
1789415918333919000,5.2459189453125,0.0665421180523932,-0.4214513883799314,1.301983346310258
1789415918343974000,5.255973876953125,0.09946122183576225,-0.22789456339478492,1.4099328488975762
1789415918354029800,5.26602978515625,0.007559183207899332,-0.16560849535167216,1.4347738601654767
1789415918364086000,5.2760859375,-0.12051774612888694,-0.017909750699996948,1.3776245704889296
1789415918374141000,5.286140869140625,-0.37839375241994855,0.23308161064386365,1.3491133462756872
1789415918384197000,5.296197021484375,-0.6580968289852142,0.5102016849786043,1.4035007700234652
1789415918394252000,5.306251953125,-0.9113701637864112,0.7749123595952987,1.4470646019399165
1789415918404308000,5.316307861328125,-0.9620189855277538,0.8183698085278273,1.5701123049378394
1789415918414363000,5.32636279296875,-0.9775824653625488,0.6729933693438768,2.0049401845023036
1789415918424418800,5.336418701171875,-0.9811597393274306,0.6589665975570679,2.4610338471964
1789415918434474000,5.346473876953125,-0.9617942368611693,0.9147598062247038,2.7303961470112204
1789415918444530000,5.356530029296875,-0.9923685310840606,1.2742922063082456,3.037138037149608
1789415918454585000,5.366585205078125,-0.8985821400143206,1.4216227021694183,3.2747879786223173
1789415918464640800,5.376640869140625,-0.8124127998195588,1.321619774672389,3.5133006744042037
1789415918474696000,5.386696044921875,-0.6792331405162811,1.1705214507102966,3.5662118881195783
1789415918484752000,5.396751953125,-0.6804981920160352,1.2318529945075511,3.7116947102874516
1789415918494807000,5.40680712890625,-0.3197090698696673,1.2684171767950057,3.577197684775293
1789415918504863000,5.416863037109375,-0.32194545061960816,1.3696248039066792,3.634999593141675
1789415918514918000,5.42691796875,-0.3804125448964536,1.5395628528952598,3.694836806727946
1789415918524973800,5.436973876953125,-0.40089433804154395,1.8330618151009082,3.743954765640199
1789415918535029000,5.447029052734375,-0.35514147164821624,2.176465502682328,3.710215285384655
1789415918545085000,5.4570849609375,-0.19611863829717038,2.2517180198043585,3.780891580632329
1789415918555140000,5.46714013671875,0.08834580745100974,2.071786984589696,3.910738442251086
1789415918565196000,5.477196044921875,0.352667921141535,1.8439695780843495,4.081295499920845
1789415918575251000,5.4872509765625,0.5403356880880892,1.736663634097576,4.1270974661529065
1789415918585307000,5.497306884765625,0.7445172213315964,1.8123481128960848,4.066877098467946
1789415918595362000,5.507362060546875,0.8757726345740258,1.9695342323392628,4.047311104993522
1789415918605418000,5.51741796875,1.034110408270359,1.983351745289564,3.9941771884381767
1789415918615473200,5.52747314453125,1.1286463025331497,1.9239853640854359,3.8758044915139673
1789415918625529000,5.537529052734375,1.035649892797321,1.8881407282441853,3.717121119250357
1789415918635584000,5.547583984375,0.9319313057780265,1.8233002995431422,3.5501834211215373
1789415918645640000,5.557639892578125,1.0502841289579867,1.8063766372710466,3.5294109744668005
1789415918655694800,5.56769482421875,1.3357425541795789,1.6630243973910808,3.4269121385008097
1789415918665751000,5.5777509765625,1.6692461945153771,1.3685183039695024,3.173708946326375
1789415918675806000,5.587805908203125,1.8344240433648227,1.1628858412653207,2.894088287347555
1789415918685862100,5.597862060546875,1.934335054794699,0.9264508285403251,2.654496564157307
1789415918695916800,5.607916748046875,2.0309403026774526,0.7549538596719503,2.4258241482578216
1789415918705973000,5.617972900390625,1.9834781481482087,0.7204162147760391,2.294007155609876
1789415918716028000,5.62802783203125,1.8293280354000627,0.6918319253265858,2.1975530066356064
1789415918726084000,5.638083984375,1.784686929640919,0.5671060599833726,2.1573712183728815
1789415918736139000,5.648138916015625,1.8737622204102575,0.3581622807741165,2.1507707971945402
1789415918746195200,5.6581953125,1.902249186965078,0.0498445196211338,2.098595496538281
1789415918756249900,5.668249755859375,1.8594716831207274,-0.3864344355344772,2.0753519835948944
1789415918766306000,5.67830615234375,1.8998434409976004,-0.9153267924576998,2.082019917051494
1789415918776361000,5.68836083984375,1.8865607655763625,-0.9330535878062247,2.0148679965376854
1789415918786417000,5.6984169921875,2.170437182303518,-1.9684177955299615,1.9064774721845983
1789415918796473000,5.70847314453125,2.2234430885650216,-2.453327218341827,1.880752079297602
1789415918806527700,5.71852783203125,2.3191012648560108,-2.5517425843864676,2.0007193519368767
1789415918816584000,5.728583984375,2.3693534884952006,-2.2489871335357425,2.323125844196975
1789415918826638800,5.738638916015625,2.345118188035488,-1.5423925233632325,2.5889517865791913
1789415918836695000,5.748695068359375,2.4667279671847817,-0.5978589256435632,2.725341201709211
1789415918846750000,5.75875,2.692784793758392,0.2169546517074108,2.8638331420764325
1789415918856806100,5.76880615234375,3.0433143876969813,0.6653676967710256,2.9422417851418254
1789415918866860800,5.77886083984375,3.2886347176671027,0.8174807507336139,2.831813325220346
1789415918876917000,5.7889169921875,3.309519684785604,0.7224766544371843,2.725653628659248
1789415918886972000,5.798971923828125,3.168158910983801,0.7354507023006677,2.553804193091392
1789415918897028000,5.809028076171875,2.843701331412792,0.8997241496562958,2.3654683176249263
1789415918907083000,5.8190830078125,2.2724631400607525,1.0576946974754333,2.2166388153776526
1789415918917139000,5.829138916015625,1.811973580495268,1.1422376055121422,2.142141792798042
1789415918927193900,5.83919384765625,1.4503613053977489,0.9544155247867107,2.103855609023571
1789415918937249800,5.849249755859375,1.1970436199981718,0.5247755692541599,2.064754017212987
1789415918947305000,5.859304931640625,0.9790508574146777,0.08155717022418975,2.0552952839940786
1789415918957361400,5.869361328125,0.7294973468542099,-0.2617845580369234,2.0846245465919373
1789415918967416600,5.87941650390625,0.5728782867092639,-0.5092740487396716,2.068901200020313
1789415918977472500,5.889472412109375,0.7113129439312964,-0.7878396457076072,1.9938272543355822
1789415918987527400,5.89952734375,0.9371335505962372,-1.0455103386849165,1.9752567016392946
1789415918997583400,5.909583251953125,1.1961714402735233,-1.3308020290374756,1.9548101259380577
1789415919007638500,5.919638427734375,1.5091922645509241,-1.635845298564434,1.8345009079933166
1789415919017694500,5.929694580078125,1.8593208764731883,-1.9499784679979084,1.7002210323631763
1789415919027749600,5.93974951171875,1.8602128568768501,-2.075223973301053,1.5191957721710203
1789415919037805600,5.9498056640625,2.293981875038147,-2.2953087397277354,1.296169691595435
1789415919047860500,5.959860595703125,2.3980922378540037,-2.2255893068134784,1.1147300053834914
1789415919057916400,5.96991650390625,2.2581647117257115,-2.10743755916357,1.041454925814271
1789415919067971600,5.9799716796875,1.988480340349674,-1.9700158783763646,0.9784592481970786
1789415919078027500,5.990027587890625,1.628618269920349,-1.8550737404227255,0.9774842656850814
1789415919088082400,6.00008251953125,1.334553490525484,-1.7504384769499302,0.9944213719606398
1789415919098138600,6.010138671875,1.0662450836777686,-1.591497038272023,0.8300105619609356
1789415919108193300,6.020193359375,0.7559867098510265,-1.5739397542715072,0.5944254440635443
1789415919118249500,6.03024951171875,0.4690869997799396,-1.731264405402541,0.3335708603531122
1789415919128304400,6.040304443359375,0.4141548016309738,-1.9079297168195246,0.04450666572451591
1789415919138360600,6.050360595703125,0.601932458692789,-2.064951001089811,-0.2684463540136814
1789415919148416500,6.06041650390625,0.8600818750977516,-2.2490759808629748,-0.6081921036094426
1789415919158471700,6.0704716796875,0.9878478387892246,-2.3363065205484626,-1.0163789367467164
1789415919168527400,6.08052734375,1.0445511382639407,-2.392133037188649,-1.3958032012581825
1789415919178582500,6.09058251953125,1.0582616837084293,-2.5866554923355576,-1.753047782665491
1789415919188638500,6.100638427734375,0.943937385392189,-2.6346611060917375,-2.0960405513584615
1789415919198693600,6.110693603515625,0.5863035124063491,-2.5817092681050298,-2.415035189348459
1789415919208749600,6.12074951171875,0.10387479136115871,-2.5426906784027814,-2.7004811934798956
1789415919218804500,6.130804443359375,-0.29970132397711274,-2.447796472221613,-2.8475235200494526
1789415919228860400,6.1408603515625,-0.5484615652680397,-2.243894778832793,-2.993355301785469
1789415919238915300,6.150915283203125,-0.5849345621407032,-2.0401462301790714,-3.18091727026999
1789415919248971500,6.160971435546875,-0.42730888223648067,-1.9820710578292606,-3.2480203832060095
1789415919259026400,6.1710263671875,-0.1469575891618617,-2.069405057889223,-3.294467661604285
1789415919269082600,6.18108251953125,0.1434147654558532,-2.293558096668124,-3.2577778071105477
1789415919279137300,6.19113720703125,0.23405482132388278,-2.43480196609199,-3.281845495918393
1789415919289193500,6.201193359375,0.1474134797031991,-2.325502217939496,-3.4807214700996876
1789415919299248400,6.211248291015625,-0.07610476830350235,-2.1860101606190203,-3.6543250558584925
1789415919309304600,6.2213046875,-0.2021522376392968,-2.1875345937073227,-3.754408062854409
1789415919319359500,6.231359375,-0.35468671361804005,-2.2435063640370965,-3.783824711474776
1789415919329415700,6.241415771484375,-0.5421855537384748,-2.3360402708277106,-3.863973768466711
1789415919339470300,6.25147021484375,-0.6920341699004173,-2.322031326958537,-4.009269543629885
1789415919349526500,6.261526611328125,-0.7610562682002783,-2.214165411001444,-4.129453089368343
1789415919359581400,6.27158154296875,-0.743188018554449,-2.1165943868264554,-4.256804042518139
1789415919369637400,6.281637451171875,-0.6879091989248991,-2.156828489798307,-4.319495184230804
1789415919379692500,6.291692626953125,-0.5441407794594765,-2.3404209701299665,-4.288794341018796
1789415919389748500,6.30174853515625,-0.32648996218144893,-2.5117910977482794,-4.242553983369469
1789415919399803400,6.311803466796875,-0.14388415479958055,-2.759405383874476,-4.1189463084012266
1789415919409859300,6.321859375,0.12016834816932677,-3.1486195132553574,-3.96793098654747
1789415919419914500,6.33191455078125,0.40580899809002874,-3.5682352106407285,-3.8504941091686486
1789415919429970400,6.341970458984375,0.3295452580988407,-3.915335999174416,-3.817381528639793
1789415919440026600,6.352026611328125,0.13162965338230131,-4.187200929459929,-3.794931211900711
1789415919450081300,6.362081298828125,-0.0510907202899456,-4.46885397104919,-3.598201017576456
1789415919460137500,6.372137451171875,-0.22018588871359823,-4.778701425987482,-3.147835669401288
1789415919470192400,6.3821923828125,-0.4003659302532673,-5.049043969011306,-2.599180627387762
1789415919480248600,6.39224853515625,-0.24302200816618277,-5.093436068445444,-2.0805618271976707
1789415919490303500,6.402303466796875,0.2592740547870286,-4.93517968942225,-1.606954135122895
1789415919500359400,6.412359375,0.5705682196686044,-4.616516767604649,-1.2169114459633827
1789415919510414300,6.422414306640625,0.6342553501486778,-3.9312636361464857,-0.9360580303192139
1789415919520470300,6.43247021484375,0.6623416269481182,-3.0202488616690037,-0.5357838700026274
1789415919530525400,6.442525390625,0.61763388569355,-2.1142644825741645,-0.1867985828965902
1789415919540581400,6.452581298828125,0.5054910596022382,-1.1049065305054186,0.03446107252836227
1789415919550636500,6.462636474609375,0.2832569696545601,-0.11320552341938019,0.16534487597942352
1789415919560692500,6.4726923828125,0.22598777992539107,0.5762731167793274,-0.04557926339209079
1789415919570747400,6.482747314453125,0.2822259461063891,0.9499772500783205,-0.24766835440099239
1789415919580803300,6.49280322265625,0.27271694400496777,1.0144891774773597,-0.4046463840514421
1789415919590858500,6.5028583984375,0.3895674728631973,0.6137935768783093,-0.5331166966199875
1789415919600914400,6.51291455078125,0.3316881153464317,-0.002963525980710983,-0.712400666102767
1789415919610969600,6.522969482421875,0.24235804609842598,-0.3973807769626379,-0.9136901311665773
1789415919621025500,6.533025634765625,0.19349077401161194,-0.6110317109495401,-1.0533487772256136
1789415919631080400,6.54308056640625,0.08564407421164213,-0.7783996171891688,-1.1199772583872079
1789415919641136400,6.553136474609375,-0.00722702864408493,-1.0500175869762898,-1.1350175911307334
1789415919651191600,6.563191650390625,-0.009492635488510131,-0.951380687135458,-1.0524147112458944
1789415919661247500,6.57324755859375,0.03926474648304283,-1.679279366621375,-1.2270710209280251
1789415919671302700,6.583302734375,-0.04706577562279999,-1.8309645505607126,-1.1342828471153974
1789415919681358600,6.593358642578125,-0.17314239798784256,-2.0086270563215014,-1.0121838231444358
1789415919691413500,6.60341357421875,-0.14102518517188728,-2.104374079939723,-0.8264081535547971
1789415919701469400,6.613469482421875,-0.023811083698272704,-1.812707593858242,-0.5848644195139407
1789415919711524600,6.623524658203125,0.020516791393235326,-1.3352590084463356,-0.3931459158718586
1789415919721580500,6.63358056640625,0.11805237892866134,-1.0379805277019738,-0.19958441471159458
1789415919731636500,6.643636474609375,0.3315373817641288,-0.8738631476908921,-0.012381927189230918
1789415919741691400,6.65369140625,0.3353811977107078,-0.8813087875217199,0.24877076268494128
1789415919751747300,6.663747314453125,0.07503639015331864,-0.8260434118956327,0.5164186597973108
1789415919761802500,6.673802490234375,-0.31078217850513756,-0.5551473266422748,0.6697048491925001
1789415919771858400,6.6838583984375,-0.6212392897743731,-0.07230418871045112,0.81405662150383
1789415919781913600,6.69391357421875,-0.6841478005647659,0.437491253554821,0.9277315160006284
1789415919791969500,6.703969482421875,-0.5422936172228306,0.8290653900653123,0.9788163910716772
1789415919802024400,6.7140244140625,-0.49755317927505816,0.8432517363280058,1.0780454115867615
1789415919812080400,6.724080322265625,-0.5499287882763892,0.7133329785168171,1.1727093161433935
1789415919822135600,6.734135498046875,-0.5297415941637009,0.8418056291729211,1.1791162605762482
1789415919832191500,6.74419140625,-0.43859479434993115,1.1326327418208122,1.176122923979163
1789415919842246700,6.75424658203125,-0.5464438687700778,1.2624457011699677,1.241062721401453
1789415919852302600,6.764302490234375,-0.625340222287178,1.324857441419363,1.3676681168809532
1789415919862357500,6.774357421875,-0.7812590982735157,1.403013863289356,1.5918407371431589
1789415919872413400,6.784413330078125,-1.0295804366905241,1.3717851968109607,1.7058151991084216
1789415919882468400,6.79446826171875,-0.9603671997327357,1.4982318945974111,1.7882427224263548
1789415919892524500,6.804524658203125,-0.8510790689527988,1.608643987905979,1.906125297746062
1789415919902579500,6.814579345703125,-0.922396584713459,1.5822352889299391,2.030267225721478
1789415919912635600,6.8246357421875,-0.9336428589362651,1.5722902334988116,2.240146532215178
1789415919922690300,6.834690185546875,-0.7952256643056869,1.5695955875873564,2.5378724644660946
1789415919932746500,6.84474658203125,-0.6391840387225151,1.5672288584560155,2.8337881324246523
1789415919942801400,6.854801513671875,-0.4630021269083023,1.5066156920611857,3.1363647195771334
1789415919952857300,6.864857421875,-0.19655841795392334,1.4275795647472143,3.49822000965029
1789415919962912300,6.874912353515625,-0.07563596348166465,1.2508809355825186,3.904267200410366
1789415919972968400,6.884968505859375,0.023790040910243986,1.1839245376408098,4.189166676574946
1789415919983023400,6.8950234375,0.054719505246356125,1.217703473123908,4.287465430502594
1789415919993079300,6.905079345703125,0.35285131488442417,1.2341741309314966,4.6702948272824285
1789415920003135500,6.915135498046875,0.41926352294683455,1.1257938357114792,4.83097025014609
1789415920013190100,6.925190185546875,0.5525847096126526,1.0528963572829961,5.0078199782192705
1789415920023246300,6.935246337890625,0.7093734272360801,1.1736194167256355,5.146731605303287
1789415920033301200,6.94530126953125,0.911103548739478,1.2598492549359799,5.3837528934836385
1789415920043357400,6.955357421875,1.1275521506208925,1.1976000117719172,5.68103254327178
1789415920053412400,6.965412353515625,1.2939094915784894,1.2666384766846894,5.828619059720635
1789415920063468500,6.975468505859375,1.283433544141054,1.4229279395490884,5.767540613901615
1789415920073523200,6.985523193359375,1.2576093670547008,1.3819985477894543,5.647831699937582
1789415920083579400,6.995579345703125,1.252685354655981,1.3804349517345427,5.641123726731538
1789415920093634300,7.00563427734375,1.3991373141169547,0.870152018213272,5.383621960580348
1789415920103690500,7.0156904296875,1.261350307148695,0.12250643572807311,5.274377742007374
1789415920113745400,7.025745361328125,1.0426829332392662,-0.7784703443378209,5.189450803089142
1789415920123801300,7.03580126953125,0.6214859580118208,-1.588484996974468,5.150034153980016
1789415920133856300,7.045856201171875,0.24381460158228874,-2.0134423476487395,5.1197337082624435
1789415920143912200,7.055912109375,-0.14388349721245466,-2.122999869954586,5.274807950118184
1789415920153967400,7.06596728515625,-0.366077803139016,-1.5910428647637367,5.396498393288255
1789415920164023300,7.076023193359375,-0.32191374030709263,-0.41596798853278155,5.305204841947555
1789415920174078200,7.086078125,-0.0011234145393595098,0.7342097623288631,5.075181449830532
1789415920184134100,7.096134033203125,0.32512864723298696,1.564820043748617,4.861201137758791
1789415920194189300,7.106189208984375,0.6349905325554311,2.1502654780209065,4.570461703394353
1789415920204245200,7.116245361328125,0.7377671625494957,2.4899907693505288,4.215699586452543
1789415920214300400,7.126300537109375,0.574207452953793,2.420437925174832,3.8422488433927295
1789415920224356400,7.1363564453125,0.2632651154508814,2.0907062045931815,3.5281203501343725
1789415920234412500,7.14641259765625,-0.01628943775547668,1.7681594270795582,3.2397865156069394
1789415920244467200,7.15646728515625,-0.23056931729568167,1.3544710739165544,3.0433710863202807
1789415920254523400,7.1665234375,-0.41504093681573867,0.7201718846261501,2.9645237595766782
1789415920264578300,7.176578369140625,-0.4988765733659267,0.1475385856539011,2.9904882219165563
1789415920274634200,7.18663427734375,-0.5412544103682041,-0.11535364136397838,2.933324611453712
1789415920284689400,7.196689453125,-0.582318242162466,-0.30067747553288937,2.778183734102547
1789415920294745300,7.206745361328125,-0.5981026712715626,-0.5199602779269218,2.653933377316594
1789415920304800300,7.21680029296875,-0.6671463968813419,-0.7107569905489682,2.5057196688801047
1789415920314856200,7.226856201171875,-0.7960439949512481,-0.9753636202692985,2.268983042860031
1789415920324911400,7.236911376953125,-0.6966063001215458,-1.2736264358758926,1.9289917940706014
1789415920334967300,7.24696728515625,-0.5436147097587585,-1.4950667085647582,1.4439894322782754
1789415920345022500,7.2570224609375,-0.2827192095160484,-1.7418816610068082,0.8272212235033511
1789415920355078400,7.267078369140625,0.03839021040452644,-2.075499283111095,0.39070319889485833
1789415920365133300,7.27713330078125,0.3680862934172153,-2.3079724064677953,0.030029812082648277
1789415920375189200,7.287189208984375,0.5124281288564205,-2.343542317020893,-0.22189853785037994
1789415920385244400,7.297244384765625,0.6243780992567539,-2.2409452813774347,-0.3641805181503296
1789415920395300400,7.30730029296875,0.7909364426791667,-2.0885551640391347,-0.47930853406488894
1789415920405355500,7.31735546875,0.9726514387011528,-2.0272890866935254,-0.6142857443094253
1789415920415411200,7.3274111328125,1.0305037620805204,-2.1339462113827468,-0.7745774285525083
1789415920425466400,7.33746630859375,0.9307634310424328,-2.3700725965499876,-0.9611620764374732
1789415920435522300,7.347522216796875,0.7063608014166355,-2.5258698919832705,-1.2675070762127638
1789415920445578200,7.357578125,0.3771451771309599,-2.6102415351063013,-1.6062778432965277
1789415920455633400,7.36763330078125,0.04991933842301369,-2.698238967511058,-2.0490397307306525
1789415920465689300,7.377689453125,-0.15039629490626974,-2.9077918185293674,-2.5305682789325714
1789415920475744300,7.387744140625,-0.30203531988263127,-3.148333682051301,-2.926085600110888
1789415920485800200,7.39780029296875,-0.38194180029034613,-3.3373733218729495,-3.2692513872832056
1789415920495855400,7.40785546875,-0.35402737292647357,-3.5074148312360047,-3.542382684242725
1789415920505911300,7.417911376953125,-0.31361352947354315,-3.4681454816430803,-3.8727012648016212
1789415920515966500,7.427966552734375,-0.32620884368512776,-3.254655291175842,-4.16332671739757
1789415920526022400,7.4380224609375,-0.4258452394247055,-2.943484478679299,-4.370599933046102
1789415920536077300,7.448077392578125,-0.5213257210612297,-2.612718738874793,-4.63418481850326
1789415920546133200,7.45813330078125,-0.47971711486577984,-2.2462550782233475,-4.813285248112678
1789415920556188400,7.4681884765625,-0.39989597465395926,-2.084418502625823,-4.869856445640325
1789415920566244400,7.478244384765625,-0.3551730358302593,-2.0487267192587257,-4.899563017117977
1789415920576299500,7.488299560546875,-0.2823322560250759,-2.111598770496249,-4.942386844322085
1789415920586355500,7.49835546875,-0.2058615952849388,-2.3607687616318462,-4.978157245883345
1789415920596410400,7.508410400390625,-0.1840109980046749,-2.7340999699652193,-4.8996577096641065
1789415920606466300,7.51846630859375,-0.3721966513454914,-2.912875697664916,-4.780353284847736
1789415920616521500,7.528521484375,-0.6364777023732662,-2.868783750221133,-4.739672899413109
1789415920626577400,7.538577392578125,-0.8856061924546956,-2.740098041336238,-4.720506426650285
1789415920636632300,7.54863232421875,-1.1682599355190992,-2.5805387630209324,-4.7090948057979345
1789415920646688300,7.558688232421875,-1.4002794698894023,-2.469700553254783,-4.692413720110059
1789415920656743200,7.5687431640625,-1.4374427871137856,-2.497634269841015,-4.534537280315161
1789415920666799400,7.57879931640625,-1.3114900103241205,-2.6013974266543984,-4.245503480824828
1789415920676855300,7.588855224609375,-1.0991367149323223,-2.6516981656104326,-3.8932068772137165
1789415920686910500,7.598910400390625,-0.7527338455349206,-2.85221869212836,-3.419727195432782
1789415920696966400,7.60896630859375,-0.20955460458397865,-3.1825051239833235,-2.893778490746021
1789415920707021300,7.619021240234375,0.1835410424053669,-3.247174872292578,-2.505702717745304
1789415920717077200,7.6290771484375,0.31412790873646734,-3.0772043823391195,-2.1557126375108955
1789415920727132400,7.63913232421875,0.3448293364703655,-2.9067922860980033,-1.9185715223431585
1789415920737188400,7.649188232421875,0.2810895624876022,-2.80519302932024,-1.782921527403593
1789415920747243500,7.659243408203125,0.24608139573680235,-2.8799580551862713,-1.6814660630106926
1789415920757299500,7.669299560546875,0.18464346895562483,-3.2234587734013793,-1.743815843939781
1789415920767354400,7.679354248046875,0.046920759395230556,-3.8639129781901835,-1.7872329608619213
1789415920777410300,7.689410400390625,-0.12257772913230583,-4.665254495027661,-1.6838532504081725
1789415920787465200,7.69946533203125,-0.21345338385449722,-5.039404034006595,-1.5738982532173393
1789415920797521400,7.709521484375,-0.28601012255391106,-4.831236499866843,-1.4546101950138806
1789415920807576300,7.719576416015625,-0.29466566789746285,-4.116761950099468,-1.3887386696994304
1789415920817632500,7.729632568359375,-0.13395605050325393,-3.0627637690544125,-1.2752940768271683
1789415920827687200,7.739687255859375,0.10468081964757293,-2.0071914705604312,-1.1082289529263973
1789415920837743400,7.749743408203125,0.29154667736040424,-1.1611813754349947,-1.0471779796361922
1789415920847798300,7.75979833984375,0.29984338106261565,-0.6540700576871633,-0.9575818798631429
1789415920857854500,7.7698544921875,0.2232686936924234,-0.5461515347599983,-0.7430868962675332
1789415920867909400,7.779909423828125,0.09433712028767913,-0.5518091221302748,-0.6072901863336563
1789415920877965600,7.789965576171875,-0.07206804186701775,-0.5422650487154722,-0.5012625917196274
1789415920888021200,7.800021240234375,-0.08344404341671616,-0.4371130678921938,-0.41231648028790946
1789415920898076400,7.810076416015625,-0.3093336967298761,-0.6933277168422937,-0.8284960657447576
1789415920908132400,7.82013232421875,-0.4564274612257257,-0.6629337476223707,-1.0895376964598893
1789415920918187300,7.830187255859375,-0.604228460675478,-0.735215139979124,-1.2445336123824118
1789415920928243500,7.840243408203125,-0.6546481498360633,-0.9678320557206869,-1.2505921817690133
1789415920938298000,7.850298095703125,-0.6781400845825671,-1.1075210969179867,-1.1448019030421972
1789415920948354300,7.860354248046875,-0.7656839280009269,-1.1642734962314367,-1.0270330172300337
1789415920958409000,7.870408935546875,-0.7543313438594341,-1.2385849331110714,-0.9640051909089088
1789415920968465000,7.88046484375,-0.6787187612533568,-1.3228227207213639,-0.935535467749834
1789415920978519600,7.89051953125,-0.5759317194631323,-1.5069465314507484,-0.8184720998585223
1789415920988575700,7.90057568359375,-0.2668529473423958,-1.675136859989166,-0.7436684955477714
1789415920998630700,7.910630615234375,0.20857732051704078,-1.8369056310474872,-0.764034991750121
1789415921008686800,7.920686767578125,0.5487959117889404,-1.7894237489044664,-0.6024275487333536
1789415921018741800,7.93074169921875,0.6615712270975113,-1.6836697105348108,-0.2578513102412224
1789415921028798000,7.9407978515625,0.6997919444203377,-1.3505430868178605,0.12075813075602054
1789415921038852600,7.9508525390625,0.6734954736471176,-0.7373533210515976,0.33707974525690076
1789415921048908800,7.96090869140625,0.679761621369794,-0.2683440626829862,0.5077350026041269
1789415921058963700,7.970963623046875,0.8026339678008109,-0.06926759749352931,0.6652075377732515
1789415921069020000,7.98102001953125,0.8016589852888136,0.05767711294293403,0.7507277664095163
1789415921079075800,7.991075927734375,0.810069013172388,0.25543314318358895,0.8184498880267143
1789415921089130800,8.001130859375,0.9272154562372714,0.43784138216674323,0.9225842162400484
1789415921099186700,8.011186767578126,1.0531120458602905,0.4684001865595579,1.0133207182198762
1789415921109241600,8.02124169921875,1.1723977659761906,0.523428830820322,1.0583096145033837
1789415921119297800,8.0312978515625,1.1134557476639746,0.7686386861532926,1.0888286714076996
1789415921129352700,8.041352783203125,0.9948633435744791,1.0688508822619915,1.1716390565633774
1789415921139409000,8.051408935546876,0.980856956988573,1.1334838056921959,1.2840624896943569
1789415921149463600,8.061463623046874,0.5980430500388145,1.5095102444589137,1.2324734644934534
1789415921159519700,8.071519775390625,0.5001764769833534,1.7599615075767039,1.1520204561188816
1789415921169574700,8.08157470703125,0.4568832787018269,1.6870745505422353,1.155542492765188
1789415921179630800,8.091630859375,0.39720249778628347,1.4104711935579777,1.092069260764122
1789415921189685800,8.101685791015624,0.5086777633469551,1.137417053487897,1.0676423832550643
1789415921199742000,8.111741943359375,0.7122843462467193,0.9712550159066915,1.1895876779690384
1789415921209796600,8.121796630859375,0.8952934006672352,1.0594529393196106,1.272601476742327
1789415921219852800,8.131852783203126,1.0247931293487549,1.0903536890178918,1.2854895998880267
1789415921229907700,8.14190771484375,1.0934078889567405,0.9833815070301294,1.3325941731512545
1789415921239963600,8.151963623046875,1.0016881480932236,0.9790513688713312,1.3836615125656127
1789415921250019800,8.162019775390625,0.874385052673146,0.9751572840422391,1.5224740631893277
1789415921260074800,8.17207470703125,0.8459738547682761,0.9131295746743678,1.6852335988506675
1789415921270131000,8.182130859375,0.5571592875191942,0.6700695908516645,1.909948947687447
1789415921280185600,8.192185546875,0.3120890963852405,0.43929801071584224,2.010015295809507
1789415921290241800,8.20224169921875,0.18901801251173017,0.6239397078394889,2.0366768005028364
1789415921300296700,8.212296630859376,0.15038228464722633,0.9189671947866678,2.2348703453779217
1789415921310353000,8.222352783203124,0.3301240078348666,0.9321452407896518,2.659271231213212
1789415921320407800,8.23240771484375,0.7341572284240275,0.6713882722347975,3.424244088335335
1789415921330463700,8.242463623046875,1.045585742008686,0.6892103446513413,4.131507683810591
1789415921340518700,8.2525185546875,1.0606114617049693,1.1154109733849764,4.664961941821873
1789415921350574800,8.262574951171874,1.00669282451272,1.6035604010313749,4.991754978603124
1789415921360629800,8.272629638671875,0.9133703976929187,1.7936831599146126,5.045028888151049
1789415921370685700,8.282685791015625,0.6479214719295502,1.577076883253455,4.974235104003548
1789415921380740600,8.29274072265625,0.48478839024808257,1.0378595316708088,5.0334272976845496
1789415921390796500,8.302796630859374,0.4753448545983061,1.0569166988402605,5.110824425619841
1789415921400851700,8.312851806640625,0.28240820733811706,-0.1360959851413965,5.26479859727919
1789415921410907600,8.32290771484375,0.27063593647982925,-0.7979600577056407,5.569285401967168
1789415921420962800,8.332962890625,0.3666367521960288,-1.4084072467654942,6.075801091909408
1789415921431018800,8.343018798828124,0.21058104328857732,-1.7044938873767852,6.683333270305395
1789415921441075000,8.353074951171875,0.04503507351279259,-1.6134043341755866,7.195907529634237
1789415921451129600,8.363129638671875,0.12026768035795539,-1.1030617794215678,7.572776848965883
1789415921461185800,8.373185791015626,0.31056817042827606,-0.10300444740056991,7.704086184352636
1789415921471240700,8.38324072265625,0.4203168313920498,1.0223603492438793,7.568073201319575
1789415921481297000,8.393296875,0.36152328163981434,1.0187678777098654,7.546436539050936
1789415921491351800,8.403351806640625,0.17342063040733335,2.5269366444319483,6.736489690953492
1789415921501407700,8.41340771484375,-0.21840368147194383,2.8913199916779995,6.246657424786687
1789415921511462700,8.423462646484374,-0.7483850026756524,3.1292472887873646,5.755211293682455
1789415921521518600,8.4335185546875,-1.1261311048418283,3.1279169169664383,5.3199225186079735
1789415921531573800,8.44357373046875,-1.3841881667882203,2.7210166165083645,5.134331557935476
1789415921541629700,8.453629638671876,-1.6216443392544984,2.024609053829312,5.019053319895267
1789415921551684900,8.463684814453124,-1.6267670890957115,1.4160954631805418,4.84923802050352
1789415921561740800,8.47374072265625,-1.4067489581644534,0.9376151966333389,4.820040859852731
1789415921571795700,8.483795654296875,-0.9880331322282552,0.5166331793308258,4.877510467524826
1789415921581851600,8.4938515625,-0.6401262880086899,0.08888707472085952,4.8452156331196425
1789415921591906800,8.50390673828125,-0.65750068972297,-0.8880793045699595,4.501986717583239
1789415921601962800,8.513962646484375,-0.80118778758049,-1.8378057947576045,3.9548897186666725
1789415921612019000,8.52401904296875,-1.2926964625269173,-2.0594564953267573,3.3652103000864386
1789415921622073600,8.534073486328126,-1.735695665848255,-1.7892174126774072,2.838150419287383
1789415921632129800,8.5441298828125,-1.9880233903624116,-1.5719097097486256,2.469905428177118
1789415921642184700,8.554184814453125,-2.0662895562171935,-1.3961644357860088,2.1426856904163953
1789415921652240600,8.56424072265625,-2.0221879641622302,-1.514666312047839,1.9280068746864794
1789415921662295800,8.5742958984375,-1.6043021593093871,-1.3164093465477227,1.883167031484842
1789415921672351700,8.584351806640624,-0.8497422673910856,-1.4805062682926653,1.9027239648699759
1789415921682406700,8.59440673828125,-0.028677812951803206,-1.8678256699681282,1.9277128601759672
1789415921692462600,8.604462646484375,0.7468944718569517,-2.5533985348999497,1.6540543244719503
1789415921702517800,8.614517822265626,1.3123556872427462,-3.0543963382035493,1.2289105113148688
1789415921712573700,8.62457373046875,1.39519237588346,-3.2265076395779846,0.6623094782441854
1789415921722628900,8.63462890625,1.228427111712098,-3.1972289381235837,0.05144143342375755
1789415921732684800,8.644684814453125,0.8615379191249608,-3.1373160289525983,-0.45673722129464145
1789415921742739700,8.65473974609375,0.3194750784507021,-3.0325194374382494,-0.957076268428564
1789415921752795600,8.664795654296874,-0.2317606277057901,-2.982178074210882,-1.4289175353527068
1789415921762850800,8.674850830078125,-0.6247025089055299,-3.003531243363023,-1.697946073168516
1789415921772906800,8.68490673828125,-0.6887316212236881,-2.881486579927802,-1.9930062933415174
1789415921782962000,8.6949619140625,-0.6409364353477954,-2.88014744027853,-2.1337977428227664
1789415921793017900,8.705017822265624,-0.7280828038811683,-2.926646156603098,-2.209818906229734
1789415921803073500,8.715073486328125,-0.8530413089364767,-2.988994183966517,-2.536152216544747
1789415921813128700,8.725128662109375,-0.8694067528039217,-3.178943339848518,-2.9992274086892605
1789415921823184600,8.7351845703125,-0.7653051578164101,-3.3577070848494768,-3.288636471232772
1789415921833239800,8.74523974609375,-0.6142670396089553,-3.5598417685657737,-3.485075573655963
1789415921843295700,8.755295654296875,-0.5035597627460956,-3.617059447303414,-3.780437991645932
1789415921853350700,8.7653505859375,-0.4057639899045229,-3.488894255161285,-4.049726057180762
1789415921863406600,8.775406494140626,-0.3405646647632122,-3.375639631903171,-4.264505702936649
1789415921873461800,8.785461669921874,-0.333711145606637,-3.4202050420776007,-4.26522992555797
1789415921883517700,8.795517578125,-0.41307226709127426,-3.418554060000181,-4.112729333582521
1789415921893572900,8.80557275390625,-0.5928231964986771,-3.227379746237397,-3.892731660917401
1789415921903628800,8.81562890625,-0.8668466930575668,-3.124828303301334,-3.66520242370367
1789415921913683700,8.82568359375,-1.2263970671892166,-3.0679949477061625,-3.6638410722225903
1789415921923739600,8.83573974609375,-1.29274731593132,-2.8808909521222112,-3.822148304650187
1789415921933794800,8.845794921875,-1.1201450161695479,-2.64677035381943,-3.764425014477968
1789415921943850800,8.855850830078126,-0.7714508940298109,-2.5814991324856877,-3.7286587045699355
1789415921953906700,8.86590673828125,-0.8093611571639776,-2.6676886386856435,-3.760611009147763
1789415921963962000,8.875962158203125,-0.6447334895431995,-2.7364845270141958,-3.6230841144204136
1789415921974018000,8.88601806640625,-0.803704227380827,-2.759825070591271,-3.587066460099816
1789415921984073200,8.8960732421875,-0.8622573925059288,-2.81533857575953,-3.602444061973691
1789415921994129200,8.906129150390624,-1.0676455981254578,-2.8740371407046914,-3.189132140907645
1789415922004184000,8.91618408203125,-0.981149802455306,-2.9533737122699617,-2.944144988414645
1789415922014240000,8.926239990234375,-0.9088083504743873,-2.7732740424901245,-2.7848692032158375
1789415922024295200,8.936295166015626,-0.7459282571732997,-2.4310785616546866,-2.6486598208278416
1789415922034351000,8.94635107421875,-0.48980757011696696,-2.2003642646640538,-2.511308867189288
1789415922044406300,8.95640625,-0.3915529475919902,-2.0904326483488083,-2.449493923789263
1789415922054462200,8.966462158203125,-0.6668458064995706,-2.3421295276135203,-2.3044097455501555
1789415922064517000,8.97651708984375,-1.1003301625005901,-2.828457000529766,-2.232248180180788
1789415922074573000,8.986572998046874,-1.590315573402494,-3.286408858311176,-2.3062580037653446
1789415922084628200,8.996628173828125,-1.8379145158290862,-3.680145433552563,-2.4516607464343307
1789415922094684200,9.00668408203125,-1.7906114973843097,-3.993600557594001,-2.6358880175381896
1789415922104739000,9.016739013671875,-1.6707928394354878,-4.220907676489651,-2.7343191656738517
1789415922114795300,9.026795166015624,-1.5241614317543803,-4.206459756681323,-2.7207144186913967
1789415922124851000,9.036850830078125,-1.28890101576671,-4.082906149987876,-2.583814715951681
1789415922134906000,9.046906005859375,-0.7963397630274295,-3.7719901890352365,-2.422484336310625
1789415922144962000,9.056962158203126,-0.33422099482491613,-3.4390725318938493,-2.2336212220996616
1789415922155017200,9.067017333984374,-0.07352525493800639,-2.923929591120779,-2.1332892087787387
1789415922165073200,9.0770732421875,0.25779797261878845,-2.154552069298923,-2.0837714368939397
1789415922175128000,9.087128173828125,0.5010498257517815,-1.5882552798718212,-2.032117822024226
1789415922185184000,9.09718408203125,0.5156850848257541,-1.2866580591455101,-2.0456699620366097
1789415922195239200,9.1072392578125,0.2999127747707069,-1.114874382290244,-2.1160814688682557
1789415922205295000,9.117295166015625,0.24779738760814068,-1.043114383459091,-2.074127410236001
1789415922215350300,9.127350341796875,-0.6520617866046726,-1.2090396896749733,-2.400051555228233
1789415922225406200,9.13740625,-1.2363877153277396,-1.3370327401205897,-2.6506571321249006
1789415922235461000,9.147461181640624,-1.7363320640556512,-1.5006886400997639,-2.8999001884967086
1789415922245517000,9.15751708984375,-2.1624973292149603,-1.688994120427966,-3.1270892339706418
1789415922255572000,9.167572021484375,-2.444769233354926,-1.9092562892481684,-3.257216081574559
1789415922265628200,9.177628173828126,-2.5341712718605995,-2.1954107339099047,-3.307410145285725
1789415922275683000,9.18768310546875,-2.319785593858361,-2.5814348350778222,-3.286023073863983
1789415922285739300,9.1977392578125,-2.030501034477353,-3.0025337567582726,-3.235405231782794
1789415922295795200,9.207795166015625,-1.6892961721144615,-3.2486861536383627,-3.2176451186865567
1789415922305850000,9.21785009765625,-1.2339543507009745,-3.367626421317458,-3.0812942820012568
1789415922315906000,9.227906005859374,-0.7104186985053121,-3.485514549595117,-2.8949580559194086
1789415922325961200,9.237961181640625,-0.18204305893257258,-3.7798528852343556,-2.667042449736595
1789415922336017200,9.24801708984375,0.2881220914728939,-4.021569053232669,-2.413919921582937
1789415922346072300,9.258072265625,0.6285971782565116,-4.056883527719974,-2.176842519301176
1789415922356128000,9.2681279296875,0.9234422943741083,-3.8741701683104037,-1.9501047247260808
1789415922366183200,9.27818310546875,1.120019928485155,-3.538348314160108,-1.7148650592654942
1789415922376239000,9.288239013671875,1.2204114169083535,-3.1257395729273556,-1.4914929417312144
1789415922386294000,9.2982939453125,1.2535405101805925,-2.8321687145292755,-1.2228624633222818
1789415922396350200,9.30835009765625,1.1897662494063377,-2.6130513318300244,-0.9464660270869731
1789415922406404900,9.31840478515625,1.0430219559352845,-2.329222699767351,-0.6498387037277221
1789415922416461000,9.3284609375,0.9658499419927596,-1.8824895706146954,-0.30739129395782944
1789415922426516000,9.338515869140625,0.9435796579957008,-1.5131056386023758,0.10400339531004428
1789415922436572200,9.348572265625,0.8482004447765648,-1.3256892160683869,0.5299047488361597
1789415922446627000,9.358626953125,0.56220948358085,-1.2058745036423206,0.8315653901875019
1789415922456683300,9.368683349609375,0.33483225859105586,-1.0833546239107847,0.9778548525631428
1789415922466739200,9.3787392578125,0.02313307483885437,-0.6913678149461746,1.2001608021706343
1789415922476794000,9.388794189453124,-0.32700784857571125,-0.26342998715639115,1.5753203949749468
1789415922486850000,9.39885009765625,-0.35580724208056924,0.14893676201403142,1.9163561843812464
1789415922496905200,9.4089052734375,-0.19121581481695174,0.5172691391468047,2.2831541915535927
1789415922506961200,9.418961181640626,0.1400485586920753,0.7288608025163412,2.727077523982525
1789415922517016000,9.42901611328125,0.5424585254609584,0.8589712835073471,2.9879572421342133
1789415922527072300,9.439072265625,0.8410995267301797,0.7383300571292638,3.203234023757279
1789415922537127000,9.449126953125,0.9779518831968307,0.5772714801669121,3.3646912446483968
1789415922547183000,9.45918310546875,1.0553051719903945,0.5181231256276368,3.4734614159688353
1789415922557238000,9.469238037109376,1.1554466311752796,0.4881733930438757,3.6450881486967206
1789415922567294200,9.479294189453125,1.282268007493019,0.4893523736953735,3.708377840824425
1789415922577349000,9.48934912109375,1.238306116169691,0.4707926346540451,3.8597020824968813
1789415922587405300,9.4994052734375,1.4351730886161327,0.6517237868219614,4.07201563040018
1789415922597460000,9.5094599609375,1.7558710233926773,0.7771510784327983,4.237010670028627
1789415922607516200,9.51951611328125,1.9713667084634303,0.813784234303236,4.3603164394408465
1789415922617571000,9.529571044921875,2.074125656670332,0.8669804024398327,4.445483032333851
1789415922627627000,9.539626953125,2.1215385652303693,0.9650228435188531,4.535530967527627
1789415922637683200,9.54968310546875,2.0343921966969964,1.0349287389159203,4.646235906302929
1789415922647737900,9.55973779296875,1.8396107983529566,1.0935025084376335,4.71690723311454
1789415922657794000,9.5697939453125,1.6759283026278018,1.2187602887004614,4.787714169004559
1789415922667849000,9.579848876953125,1.5783505564510822,1.3433148891299962,4.8929111580133435
1789415922677905200,9.5899052734375,1.5308710123956202,1.3424924668312073,5.019324538052082
1789415922687960000,9.5999599609375,1.4762112014472484,1.3535498674184083,5.101065832671523
1789415922698016300,9.610016357421875,1.4816694668531416,1.390578160086274,5.235977576464414
1789415922708071000,9.62007080078125,1.5913210971832275,1.360486388683319,5.415648499438166
1789415922718127000,9.630127197265624,1.5753753400325774,1.382502990180254,5.5051510757088655
1789415922728182000,9.64018212890625,1.5224690947532653,1.4017249925225972,5.638354846540093
1789415922738238200,9.65023828125,1.4853940403342245,1.3397311854243277,5.715286110529303
1789415922748293000,9.660293212890625,1.4226432773888111,1.09149467574656,5.881030214959383
1789415922758349000,9.67034912109375,1.4171277288377284,1.1003244634121656,5.915243450206518
1789415922768404000,9.680404052734374,1.4524129772305487,-0.03116904524564743,6.425042984125017
1789415922778460000,9.6904599609375,1.439622469240427,-0.025579262414574623,6.444064495459199
1789415922788516000,9.70051611328125,1.4293921671271324,-1.3978157101243733,7.1626552483737465
1789415922798571000,9.710571044921876,1.3208745092630385,-1.3821078533828257,7.584497681897878
1789415922808627200,9.720627197265625,1.2798925105333328,-1.3754039718300104,7.6003873249471186
1789415922818682000,9.73068212890625,1.5640531510293483,0.17382979573011398,7.718292404359579
1789415922828738000,9.740738037109375,1.5115373663723468,0.17413199354708195,7.705251136478782
1789415922838793000,9.75079296875,2.317687744796276,2.4801766468226907,7.127689733454584
1789415922848849200,9.76084912109375,2.2767010698914527,3.3929894106328486,6.663277155226469
1789415922858904000,9.770904052734375,2.1973042925715447,3.741999832180142,6.166851482143998
1789415922868960300,9.780960205078125,2.002085671854019,3.7162463822424407,5.741351695156097
1789415922879015200,9.79101513671875,1.5724515615403651,3.476939613473415,5.258305143606663
1789415922889071000,9.801071044921875,1.2308242359817028,3.0913767000764607,4.816295828105509
1789415922899126000,9.8111259765625,0.9648802201777696,2.405171382459998,4.467762960942089
1789415922909182000,9.821181884765625,0.662220630916953,1.6642179910898207,4.12542982520163
1789415922919237000,9.831237060546876,0.13826923752725123,1.0797037001878023,3.7845705614060163
1789415922929293000,9.84129296875,0.005107552272081375,0.9928408247709274,3.5711665879175065
1789415922939348000,9.851347900390625,-0.7515589565366506,0.011622633254528045,3.2845532935723663
1789415922949404000,9.86140380859375,-0.9184534000456333,-0.3717167588740587,3.1156220835387707
1789415922959459800,9.8714599609375,-1.0610445924252272,-0.6984153953701258,2.923547898326814
1789415922969514500,9.881514404296874,-1.2727905695736408,-0.9852022927165031,2.713936010597646
1789415922979570700,9.89157080078125,-1.3398971896409988,-1.123787172064185,2.4713614722043276
1789415922989625600,9.90162548828125,-1.533075828963518,-1.704941631144285,2.186818554392457
1789415922999681800,9.911681884765626,-1.5497750348299741,-2.072650323420763,1.891690529680252
1789415923009736700,9.92173681640625,-1.5448397703848777,-2.2232284229010344,1.6624761158585548
1789415923019793000,9.93179296875,-1.0394412479043007,-2.4522978752940894,1.312923257997632
1789415923029847600,9.94184765625,-0.9961946652434766,-2.5979502088099715,1.1090198110431433
1789415923039903700,9.95190380859375,-0.34498131216168404,-2.2329957836776972,1.1452449706345795
1789415923049958700,9.961958740234374,0.03827325122766197,-1.9552724827527999,0.9810223766833543
1789415923060014800,9.972014892578125,0.09123736417405306,-2.099651727592945,0.8062783887177706
1789415923070069800,9.98206982421875,0.16672025598585605,-1.597308354899287,0.4809516250967979
1789415923080125700,9.992125732421876,0.24685528445243834,-1.5896774216294287,0.2627519417643547
1789415923090180600,10.0021806640625,0.29907362053282555,-1.6838368837952613,0.1256307052284479
1789415923100236500,10.012236572265625,0.26998656919300557,-2.028457545951009,0.1204027414470911
1789415923110292700,10.022292724609375,0.29028873145487155,-2.2014158195436,-0.03997545203566551
1789415923120347600,10.03234765625,0.0013648586124181746,-2.8623008179426193,0.4361883542627096
1789415923130403800,10.04240380859375,-0.3355623629638925,-2.8667928686648607,0.3010919015526771
1789415923140458800,10.052458740234375,-0.9960703082114457,-2.2494296166062355,-0.4118102843314409
1789415923150514700,10.0625146484375,-1.7874685231834648,-1.797666092070937,-1.1902999178916216
1789415923160569600,10.072569580078126,-1.8212842835456131,-1.9909148740202187,-1.3267010234594345
1789415923170625800,10.082625732421874,-2.380226910817623,-2.2855805419176813,-2.3849393262922765
1789415923180680700,10.0926806640625,-2.133839243876934,-2.8477999989032745,-2.779146733915806
1789415923190737000,10.10273681640625,-1.7096172217398882,-3.4715403847783803,-3.016249855160713
1789415923200791600,10.11279150390625,-1.1978349165063351,-3.9040368987858294,-3.0334125868856905
1789415923210847700,10.12284765625,-1.1712689811419694,-4.0422722340434785,-3.1140292613893745
1789415923220902700,10.132902587890625,-0.5579454329282045,-3.6921155650705098,-2.871152817440033
1789415923230958600,10.14295849609375,-0.6690538379378617,-3.0803640154138208,-2.9098709628909822
1789415923241013800,10.153013671875,-0.874274139644578,-2.7340929557025433,-2.9872534777790305
1789415923251069700,10.163069580078124,-1.04414197294116,-2.651997440817952,-3.126213035658002
1789415923261126000,10.1731259765625,-1.0382412975300104,-2.7641026017799972,-3.1808149789392948
1789415923271180500,10.1831806640625,-1.1116273631930351,-2.899550644406676,-3.1390929754972454
1789415923281236700,10.19323681640625,-0.9324503612160682,-3.0867014017418026,-3.199591575601697
1789415923291291600,10.203291748046874,-0.9227852187048643,-3.5294121435105796,-3.2071102806687355
1789415923301347800,10.213347900390625,-1.0807266134947537,-3.787633163847029,-3.2930010961830614
1789415923311402800,10.22340283203125,-1.093964353795722,-3.8746886392265556,-3.3277941771447654
1789415923321459000,10.233458984375,-1.2933869290091096,-3.6681489985495803,-3.539337325197458
1789415923331513600,10.243513671875,-1.7372259441554545,-3.359884428888559,-3.946162222331762
1789415923341569500,10.253569580078125,-1.8936527696639298,-3.1267955117210744,-4.04691450689137
1789415923351624700,10.263624755859375,-2.013596661427617,-2.914124528682232,-3.8715380662411447
1789415923361680600,10.2736806640625,-1.9863404057115315,-2.946974366621673,-3.8856238747388123
1789415923371735800,10.28373583984375,-1.5231366187512874,-2.714051745931804,-3.336070422580838
1789415923381791700,10.293791748046875,-1.204443009534478,-2.7358710712909695,-2.9395038846105335
1789415923391846700,10.3038466796875,-0.9242185394436121,-2.915178421649337,-2.5623119091957807
1789415923401902600,10.313902587890626,-0.7333779876798391,-3.0614997404679656,-2.4197289001226423
1789415923411958800,10.323958740234374,-0.7420142985999584,-3.051556146341562,-2.415591069665551
1789415923422013700,10.334013671875,-0.9421394691247492,-3.0905998704850672,-2.165704454693198
1789415923432070000,10.34406982421875,-1.1631114667147398,-3.141606419622898,-1.9601614238381384
1789415923442124500,10.35412451171875,-1.3955115248352288,-3.0941876658439633,-1.7131372125595807
1789415923452180700,10.3641806640625,-1.4788094012469053,-2.8678502687633034,-1.5725088446855544
1789415923462235600,10.374235595703125,-1.4755191275298594,-2.808657490560412,-1.5497276885569096
1789415923472291600,10.38429150390625,-1.3702671934634447,-2.3835861581176516,-1.3462538651913403
1789415923482346800,10.3943466796875,-1.340292326438427,-2.310240059138834,-1.3183388533055782
1789415923492402700,10.404402587890624,-1.069802410833165,-2.028876940406859,-1.1536194157481192
1789415923502457600,10.41445751953125,-0.3136258044332266,-1.415721953693032,-0.9712766432166099
1789415923512513500,10.424513427734375,-0.2617027980376035,-1.3335334998279809,-0.9378519279986619
1789415923522568700,10.434568603515626,0.5017389405271038,-0.47424219058603045,-0.8017512666821479
1789415923532624600,10.444624755859374,0.8144494202136993,-0.18119973997622726,-0.747647336050868
1789415923542679800,10.4546796875,0.8428402329176664,-0.1251870531141758,-0.7225380292356014
1789415923552735700,10.46473583984375,0.5228887325942516,-0.16613894896656273,-0.995266006091237
1789415923562792000,10.4747919921875,0.5416705899536609,-0.13577508262395857,-0.9813163911938667
1789415923572846600,10.4848466796875,0.1456026491552591,-0.8329504148051142,-1.609170057606697
1789415923582902800,10.49490283203125,0.015666958475578575,-1.1758283249467611,-1.8524872310608624
1789415923592957700,10.504957763671875,0.03891103767454624,-1.1609899445161223,-1.8457658138513564
1789415923603013600,10.515013671875,0.15163373687989076,-1.7873679854184388,-2.2182260845690966
1789415923613068800,10.52506884765625,0.13846328966147264,-2.0614353941842913,-2.3545348356783387
1789415923623124500,10.53512451171875,0.017279645236069334,-2.2365327256321907,-2.4593133070141078
1789415923633179600,10.5451796875,-0.11957446479625068,-2.326350066940486,-2.5434581556439397
1789415923643235600,10.555235595703126,-0.09590776713788508,-2.284087965272367,-2.5224001700460907
1789415923653290800,10.565290771484374,-0.16053835248053072,-2.2249755588293074,-2.6013147168070074
1789415923663346700,10.5753466796875,-0.21048633247613904,-2.049964444360137,-2.895955250263214
1789415923673401900,10.58540185546875,-0.17316577886343001,-1.991168264259398,-2.864993710288405
1789415923683457500,10.59545751953125,0.24186814368963241,-2.3489245945811272,-2.9247026213198897
1789415923693512700,10.6055126953125,0.2750900298118591,-2.2704726968958973,-2.881581272473931
1789415923703568600,10.615568603515625,0.37427988736033435,-2.584983467470109,-2.9399744247317314
1789415923713623800,10.625623779296875,0.3794470608651638,-2.342561489289999,-2.8610090245664117
1789415923723679700,10.6356796875,0.47107788133621215,-2.0318559562176466,-2.7843045550704
1789415923733735700,10.645735595703124,0.5221534040570259,-1.849291065368056,-2.6997049484103917
1789415923743790600,10.65579052734375,0.5421241789400577,-1.7057114464730023,-2.6079472866892814
1789415923753846500,10.665846435546875,0.7520914559781551,-2.063045459729433,-2.868237222254276
1789415923763901700,10.675901611328126,0.5671744125118479,-2.1145804166555404,-3.179614955499768
1789415923773957600,10.68595751953125,0.5628933741917833,-1.9198282444059849,-3.03813201662302
1789415923784012800,10.6960126953125,-0.40476738008260726,0.04811608839333057,-2.7858739963442085
1789415923794068700,10.70606884765625,-0.37069910626411434,0.2302916876643896,-2.637909878754616
1789415923804123600,10.71612353515625,-0.11694412542581557,1.2190864519149065,-1.91209735789299
1789415923814179600,10.7261796875,0.4950082074999809,0.5457569824844598,-1.4345482347160576
1789415923824234800,10.73623486328125,0.5589958552965894,-0.7955494894325733,-1.218609482052922
1789415923834290700,10.746290771484375,0.019746391542628406,-1.5852712956249713,-1.1331786852657795
1789415923844345900,10.756345947265626,0.04844290919490158,-1.4218366371810436,-0.9673094931513071
1789415923854401800,10.76640185546875,-0.31674196369238194,-1.0090700750380754,-0.155254274597764
1789415923864456700,10.776456787109375,-0.17313889085650444,-0.3417050669699907,0.5278185902118683
1789415923874512600,10.7865126953125,0.1308113227367401,0.3619569968819618,1.2267483648449182
1789415923884568600,10.796568603515626,0.3535832458881661,0.5034779296815395,1.833028497353196
1789415923894623700,10.806623779296874,0.37536468692235647,0.6304799232631921,1.9971850403308866
1789415923904679700,10.8166796875,0.5010287098985166,-0.3695283089190721,2.5196944182187315
1789415923914734600,10.826734619140625,0.7034569697339087,-0.3626771278500557,2.7979654161542653
1789415923924790500,10.83679052734375,0.7224352264482528,-0.2517734516322613,2.9613509747594593
1789415923934845700,10.846845703125,0.8318260138850658,0.28802082305550575,3.079245532777905
1789415923944901600,10.856901611328125,0.8448047379236668,0.37908290372788905,3.2246757479757067
1789415923954956800,10.866956787109375,0.08486315296702086,0.3200549606978893,3.067004475364089
1789415923965012500,10.877012451171876,-0.07469028012938797,-0.0818646287381649,3.1330425894170997
1789415923975067400,10.8870673828125,-0.29292138151340186,-0.6558323911845684,3.562532322824001
1789415923985123300,10.897123291015625,-0.2858486666481942,-0.6123638363361358,3.641034197130799
1789415923995178500,10.907178466796875,-0.1946457892656326,-0.5452729983597994,4.117083144877851
1789415924005234400,10.917234375,0.45243879344835874,1.5223188726276158,4.62653985670805
1789415924015290600,10.92729052734375,1.1457225980836898,1.8294260889470577,4.9697676032006735
1789415924025345500,10.937345458984375,1.1650959185302256,1.8061890057444572,4.930673610174655
1789415924035401500,10.9474013671875,4.16974301418066,1.3354296888381243,5.046154092788696
1789415924045456400,10.957456298828125,4.283204558187723,1.295795013064146,4.996786543029547
1789415924055512300,10.96751220703125,9.297643662285804,-0.49968146000802516,3.798020702348649
1789415924065567500,10.9775673828125,9.701642980605364,-1.9377590378940104,2.7719804955482483
1789415924075623400,10.98762353515625,9.639053545701502,-1.9656074142843483,2.7118051360487936
1789415924085678600,10.9976787109375,6.829330471736192,-4.012819345065951,2.486162735494971
1789415924095734300,11.007734375,-1.7650222980976105,-5.2017538198232645,4.039618212403357
1789415924105789400,11.01778955078125,-5.600099642425775,-3.4911429108709093,4.212622955486178
1789415924115845400,11.027845458984375,-8.599664904767275,-1.0471779796361922,3.716917705632746
1789415924125900500,11.037900634765625,-8.927098285278678,-0.9995137266635894,3.834506558702886
1789415924135956500,11.04795654296875,-11.56169334039688,3.400768812462687,0.7829229398325085
1789415924146011400,11.058011474609375,-9.764992878487705,3.4399984145671128,0.08129968833178282
1789415924156067300,11.0680673828125,-6.954058675166964,2.977913987025618,-0.17071341727524994
1789415924166123300,11.078123291015626,-4.280281364217401,2.720177827596664,-0.1422033621057868
1789415924176178400,11.088178466796874,-4.202372779628634,2.6453911744207144,-0.28792905311882494
1789415924186234400,11.098234375,1.2987146999031305,0.4935188457250595,0.01753624121248722
1789415924196289500,11.10828955078125,3.4966473535060882,-0.24543781886994837,-0.10230068304538727
1789415924206345500,11.118345458984376,4.354885646563768,-0.4288584497660398,-0.4376332923740148
1789415924216400400,11.128400390625,3.4765561671137806,-0.13973755651414393,-0.5910720419824123
1789415924226456300,11.138456298828125,3.409475266009569,-0.13152034778892993,-0.5683282952547073
1789415924236511500,11.148511474609375,0.48282852488458156,1.1420265931099653,-0.9388841936558484
1789415924246567400,11.1585673828125,-0.7803057430714369,1.2747265060722828,-1.0714239476203917
1789415924256622600,11.16862255859375,-1.6237275752693414,1.075019341763854,-1.1635749925732612
1789415924266678500,11.178678466796875,-2.1425826684333384,0.7902817781627177,-1.0607353803455828
1789415924276733400,11.1887333984375,-2.183390333509445,0.790915399891138,-1.0513491278409957
1789415924286789400,11.198789306640625,-1.9712451279103755,0.12333178063631058,-0.5655599995851517
1789415924296844500,11.208844482421876,-1.6413269448459147,-0.10841244392395019,-0.30302140831053254
1789415924306900500,11.218900390625,-1.2706931589029729,-0.25238895318210125,0.023197920235991477
1789415924316956400,11.228956298828125,-0.8377208440773188,-0.29933950492739675,0.4572767349988222
1789415924327011300,11.23901123046875,-0.8151233739525079,-0.27880992711782454,0.48742812763452525
1789415924337067300,11.2490673828125,-0.6723919693846255,-0.2689993117213249,1.9916133776783942
1789415924347122400,11.259122314453125,-0.878174069692567,-0.16071896974444388,3.015385931807756
1789415924357178400,11.269178466796875,-0.9071446550458669,0.11614742209017276,4.164965716776251
1789415924367233500,11.279233642578125,-0.6154946086425334,0.7506430107355118,5.049061504667997
1789415924377289500,11.28928955078125,-0.5605459708154201,0.7678472435146569,5.070380187028646
1789415924387344400,11.299344482421875,0.22944354640245437,1.9152011691272257,5.967859772628546
1789415924397400300,11.309400390625,0.2240343077700585,2.274353629982471,6.052226155054569
1789415924407455500,11.31945556640625,0.2605055510770529,2.2486609703212976,6.000873568958044
1789415924417511400,11.329511474609374,0.15673377256579696,2.1434300790429113,5.6549020767152305
1789415924427566600,11.339566650390625,0.1889041038084775,2.091595262387395,5.561609460511804
1789415924437622500,11.34962255859375,-0.4879857615172863,1.2717068659901618,4.613415586718917
1789415924447678500,11.359678466796876,-0.6313420930504798,0.9340221405774355,4.362811763387918
1789415924457733400,11.3697333984375,-0.5939232666950672,0.8553723822325467,4.23544795075655
1789415924467789300,11.379789306640625,-0.6376105057954787,0.6523281824558973,4.2369063328713175
1789415924477844500,11.389844482421875,-0.6170891112923622,0.552606994509697,4.089388205483556
1789415924487900400,11.399900390625,-0.15842410027291626,0.8719090910136699,3.718375795486569
1789415924497955600,11.40995556640625,0.04088551608528942,0.32038813817501066,3.3981174211710687
1789415924508011500,11.420011474609375,0.02983399724960327,0.1888473321199417,3.229920078369975
1789415924518066400,11.43006640625,0.10538118646927178,-1.0490098712384701,2.460157356622815
1789415924528122400,11.440122314453125,-0.07304945411980152,-1.475551860755682,1.8999398871093987
1789415924538177500,11.450177490234376,-0.281677628041245,-1.5507985326588154,1.3368255271106957
1789415924548233500,11.4602333984375,-0.5013076364377513,-1.4951111322283743,0.9259247588396072
1789415924558288600,11.47028857421875,-0.5252811806887387,-1.6332961986035108,0.7842337301701306
1789415924568344300,11.48034423828125,-0.6303963366329669,-1.1831009462982416,0.3600882804006338
1789415924578400300,11.490400146484374,-0.6422936951756477,-1.0503075098335741,0.07123977434933185
1789415924588455400,11.500455322265625,-0.6275977188903838,-1.0265917032033205,-0.21600246554911134
1789415924598511400,11.510511474609375,-0.4695593665320426,-1.1725228536605834,-0.5085112476736307
1789415924608566500,11.52056640625,-0.4861217212110758,-1.3535685721188784,-0.6576900017499924
1789415924618622500,11.53062255859375,-0.15390454048924146,-1.8971867890089749,-1.0787035832345484
1789415924628677400,11.540677490234375,-0.06352225877456366,-2.264059614983201,-1.3267992231369017
1789415924638733300,11.5507333984375,-0.12950608535706995,-2.5762510026991365,-1.3603461034297943
1789415924648788500,11.56078857421875,-0.27037761433720586,-2.5874434278428553,-1.538562735942006
1789415924658844400,11.570844482421874,-0.32013262904398143,-2.734572848173976,-1.6311287914365529
1789415924668899600,11.580899658203125,-1.2505103487044573,-2.0608377205520867,-1.6930588856488464
1789415924678955500,11.59095556640625,-1.5371633905380964,-1.5142285051524638,-2.0615987680524586
1789415924689010400,11.601010498046875,-1.8692109868466853,-0.98656948941648,-2.401277297630906
1789415924699066400,11.61106640625,-2.1340531788885593,-0.8448974577084183,-2.5923276927530763
1789415924709121500,11.62112158203125,-2.147376624711603,-0.9554247018292545,-2.6527047123044727
1789415924719177500,11.631177490234375,-1.8744049022279679,-1.0870067166775463,-2.5654046145141125
1789415924729233400,11.6412333984375,-1.5073954442620277,-1.1293369151458144,-2.3937971710085866
1789415924739288600,11.65128857421875,-1.4999211628586053,-1.2083724579378963,-2.4355682742893694
1789415924749344300,11.66134423828125,-1.0712737254947424,-1.084368477128446,-1.8982570485889911
1789415924759399400,11.6713994140625,-1.0840928750574588,-1.1448165160894392,-1.9268302321225403
1789415924769455400,11.681455322265625,-1.1764976755756884,-1.0883861883372068,-1.7656857304424047
1789415924779510500,11.691510498046876,-1.5643255382299421,-0.8974196721062063,-1.0039362192809582
1789415924789566500,11.70156640625,-1.5816057588547467,-0.9739829795658588,-1.0378864196777342
1789415924799621600,11.71162158203125,-2.1647252343975008,-1.442322960370779,-1.282645024111867
1789415924809677300,11.72167724609375,-2.149594300761074,-1.5377806456536054,-1.327166302883625
1789415924819732500,11.731732421875,-2.9890871229469775,-2.810288306632638,-1.9847592739999294
1789415924829788400,11.741788330078125,-3.0209394742816684,-3.258512258864939,-2.1160914057403803
1789415924839843600,11.751843505859375,-2.535975690934062,-3.3393335160300133,-2.2380086434036492
1789415924849899500,11.7618994140625,-1.8533909019023178,-3.2520939162552356,-2.21452723005116
1789415924859955500,11.77195556640625,-1.1735801806937902,-3.023735534740984,-1.9166788404643536
1789415924870010400,11.78201025390625,-0.5131382498871535,-2.6180250285893676,-1.5683219143897293
1789415924880066300,11.79206640625,-0.007429273217916488,-2.1266651144638655,-1.3049199842840433
1789415924890121500,11.80212158203125,0.07545830535981804,-2.091682648409903,-1.2938415409088133
1789415924900177400,11.812177490234374,0.10221653015958145,-0.8998018910676241,-1.3656985703736544
1789415924910232600,11.822232666015625,0.15241468552397563,-0.8585726395785808,-1.3497814547955989
1789415924920288500,11.83228857421875,0.22372575327754018,0.18408026384860277,-1.5695008950412273
1789415924930343400,11.842343505859375,0.35810850476026534,0.07835135992020369,-1.916177905204892
1789415924940399400,11.8523994140625,0.3518839311569929,0.097636782887578,-1.9079127656847237
1789415924950454500,11.86245458984375,-0.36234278132915493,-1.0901719027101993,-2.9885908638626337
1789415924960510500,11.872510498046875,-0.37021219953000545,-1.0660217963159084,-2.9780922662019726
1789415924970566400,11.88256640625,-1.2737965317457913,-1.7797279920592903,-4.642015073737502
1789415924980622300,11.892622314453124,-1.5035124653488396,-2.066824393746257,-5.053323838287592
1789415924990677200,11.90267724609375,-1.4523334822535514,-2.0135101521879433,-5.03018144763112
1789415925000733400,11.9127333984375,-1.5351637411534784,-2.3542013659402725,-5.0140696862638
1789415925010789000,11.9227890625,-1.4453028529644012,-2.2776333823055026,-4.978218620681762
1789415925020844300,11.93284423828125,-1.2238263399183749,-2.1597990300416945,-4.790401216131449
1789415925030900200,11.942900146484375,-1.229769758492708,-2.0667747093856335,-4.725537991076708
1789415925040955400,11.952955322265625,-1.1198352195680141,-1.9753566548824308,-4.6755935182124375
1789415925051011300,11.96301123046875,-1.0647416203122586,-2.84816240247488,-4.533402138805389
1789415925061066200,11.973066162109374,-1.0032510865610091,-4.1717341879978775,-4.627804762077331
1789415925071122200,11.9831220703125,-0.8605494926095009,-5.865695867705345,-4.9425429116666315
1789415925081177300,11.99317724609375,-0.8327988044399768,-7.168138063699007,-5.5667339639186855
1789415925091233300,12.0032333984375,-0.7321021225251257,-6.948646002468466,-5.424727877950668
1789415925101288200,12.0132880859375,-0.1991113903723657,-7.523388256418705,-4.094468869748711
1789415925111344400,12.023344482421875,-0.5612624485217035,-4.513394539043307,-3.5141257270514963
1789415925121399000,12.03339892578125,-0.785392764012143,-1.7205173859387635,-3.5919168227404352
1789415925131455200,12.043455322265626,-0.12208557996749878,0.157503514829278,-3.443165354165435
1789415925141511200,12.05351123046875,-0.17211247041821479,0.39593233171999453,-3.2463650172144174
1789415925151566300,12.06356640625,3.020755349886417,0.047723289683461186,-2.6004344268411397
1789415925161622300,12.073622314453125,2.9893571720600125,-0.9941326181471347,-2.499589203301072
1789415925171677400,12.083677490234376,2.324672781378031,-1.988601920902729,-1.9324416422635315
1789415925181733400,12.0937333984375,1.5111178257860243,-2.014402717113495,-0.6904284882694482
1789415925191788300,12.103788330078125,1.7300212734736502,-1.7963158465057611,-0.38705987395644187
1789415925201844200,12.11384423828125,0.8079273249685763,-0.3443909450531006,5.51993246525526
1789415925211899400,12.1238994140625,2.324265954142809,2.1587007134109735,8.637111130586266
1789415925221955300,12.133955322265624,2.4202524856053294,2.307006191784143,8.891687364679575
1789415925232010200,12.14401025390625,3.506193765008449,2.894519079980254,10.334349347746372
1789415925242066200,12.154066162109375,3.5092017146527765,2.9926778409153223,10.500438904613256
1789415925252121000,12.16412109375,1.7758267468370497,0.4685515777289867,8.936119211602211
1789415925262177300,12.17417724609375,1.327539227849245,0.05187456414401531,8.797235641568898
1789415925272233200,12.184233154296875,1.3122143790759146,0.13751461976766585,8.955369855517148
1789415925282288400,12.194288330078125,1.4184977020166813,1.4996756636649369,10.094358688366412
1789415925292344300,12.20434423828125,1.3333375388644635,1.5719821904629467,10.210104543918371
1789415925302399200,12.214399169921874,-0.8251872334577143,4.096965362739563,10.109166965919732
1789415925312455200,12.224455078125,-3.213444159865379,4.345467829877138,8.220764956390857
1789415925322510300,12.23451025390625,-3.2820483250141144,4.358111622872948,8.223861753362417
1789415925332566300,12.244566162109376,-5.272400304454565,1.9126316109001635,4.48336180435121
1789415925342621400,12.254621337890624,-5.276695371299982,1.9052496839553117,4.465646407179534
1789415925352677400,12.264677490234375,-1.2357412341177463,0.5233984356820583,4.353544753348827
1789415925362732300,12.274732177734375,0.38557401931285856,0.7754185555517673,2.8566458609208465
1789415925372788200,12.284788330078126,0.2732745778877288,0.7812795565396546,2.8362349410548804
1789415925382843100,12.294843017578126,-2.8254642484545704,0.5202314960837364,-0.8455687810987234
1789415925392899300,12.3048994140625,-2.8706372691333293,0.5211959572017193,-0.8549272688135504
1789415925402955300,12.314955322265625,-5.561497816830873,0.2902227170139551,-1.8701894764900207
1789415925413010400,12.325010498046876,-5.529118811273574,-0.19534020127058027,-2.4657313573628663
1789415925423066000,12.335066162109374,-5.539871675956249,-0.19861293933093546,-2.4752295458093285
1789415925433121300,12.345121337890625,-3.8790778140962123,-2.750620312133431,-2.2285911189779637
1789415925443177200,12.35517724609375,-3.830326350408792,-2.742161111345887,-2.1986551226586104
1789415925453232400,12.365232421875,1.5634415950022638,-1.3067606437146664,1.4191303008317946
1789415925463288300,12.375288330078124,3.835064484846592,0.2484767481744289,2.3545415576800703
1789415925473343500,12.385343505859375,3.891691796475649,0.2553577398598194,2.387054711011052
1789415925483399200,12.395399169921875,4.113427837240696,0.39181203691959376,2.5975027573034164
1789415925493454300,12.405454345703125,3.04042568051815,-0.8897381776928901,2.164464976026118
1789415925503510300,12.41551025390625,-0.3585807253818959,-2.911636218997836,1.1892074464797973
1789415925513565200,12.425565185546875,0.0005599719703197479,-2.1685744571715593,1.1318652645796536
1789415925523621400,12.435621337890625,-0.06284077931642532,-2.182189725548029,1.08545188845098
1789415925533677300,12.44567724609375,-0.18737433695793151,-1.702939059150219,-0.5194356695309281
1789415925543732200,12.455732177734374,-2.214351288962364,-2.3767367306143043,-1.7909511046022175
1789415925553788200,12.4657880859375,-4.105099569356441,-2.5565415091007946,-2.5635446658611296
1789415925563843300,12.47584326171875,-4.398472274833917,-1.4898369912177323,-2.318595507290959
1789415925573899300,12.485899169921876,-4.46059058509469,-1.4839830044925213,-2.3179721146956083
1789415925583954400,12.495954345703124,-2.5850539023578167,1.0250830522060395,-0.40952597278654573
1789415925594010400,12.50601025390625,-2.134262437725067,2.0473399410754443,0.5248769838020205
1789415925604065300,12.516065185546875,-2.6801485995471475,2.5851304747253656,0.6758946437433362
1789415925614121200,12.526121337890626,-4.038424326443672,1.7462801882266998,0.4499062062308192
1789415925624176400,12.53617626953125,-4.041912753081322,1.7335387800753115,0.423317182251811
1789415925634232300,12.546232421875,-5.595104318356514,-1.125434354749322,-0.8084607011929154
1789415925644287200,12.556287353515625,-3.7235564129948613,-1.331000766479969,-0.20992460694015025
1789415925654343400,12.566343505859376,-3.5947827335655687,-1.3423989433288575,-0.20980185734331608
1789415925664398000,12.576398193359376,3.6967186749517915,-1.4507903444647787,3.098149847473204
1789415925674454300,12.586454345703125,3.7644133240401745,-1.462054665800929,3.0909748412773013
1789415925684510200,12.59651025390625,3.968421984934807,-0.21112813751101492,4.6659512451201675
1789415925694565400,12.6065654296875,1.4200130750156938,0.9062918376088142,4.415385707972944
1789415925704621300,12.616621337890624,-1.4691875864207744,1.4427455696970224,4.118397150085866
1789415925714676200,12.62667626953125,-3.052747401952743,1.9499784679979084,3.796858672831952
1789415925724732200,12.636732177734375,-3.105191874939203,1.9055571424692868,3.7025881515070793
1789415925734787300,12.646787353515625,-1.9596563969254492,2.1934733361065386,4.092648084062338
