time,seconds_elapsed,z,y,x
1789335391498371300,0.052371337890625,-0.14719605582654474,0.4745598782330751,0.0785702268352732
1789335391508343300,0.06234326171875,0.38102526996731756,0.404652229270339,0.21836605287529526
1789335391518314200,0.072314208984375,0.8658540287584066,0.2377846737682819,0.15930225308062507
1789335391528286200,0.0822861328125,1.2488017912209033,0.05138005862534046,0.030461682427581398
1789335391538258400,0.092258544921875,1.574434259790182,-0.03475917869210243,-0.15941857293667272
1789335391548229000,0.10222900390625,1.7982360009133815,-0.03104045042991638,-0.43292595493327823
1789335391558201300,0.112201416015625,2.036597597786784,0.0742240508571267,-0.6117666741605847
1789335391568172300,0.12217236328125,2.2221815441966055,0.20516601423621175,-0.761758717381209
1789335391578144300,0.132144287109375,2.311253912356496,0.3691925010934472,-0.8528970781601964
1789335391588116500,0.142116455078125,2.2397224615842104,0.6155258074983954,-0.7096624733105301
1789335391598087400,0.15208740234375,2.083162949606776,0.8456503219023347,-0.2911998366841115
1789335391608059400,0.162059326171875,1.8956950891464948,0.952294294849038,0.29390098540158943
1789335391618030300,0.1720302734375,1.9055898756951093,0.9690206809833646,0.9277410144813358
1789335391628002300,0.182002197265625,2.2404525294244286,0.876582635782659,1.534437472705543
1789335391637974300,0.191974365234375,2.6380291212201117,0.6189686414286494,1.8664910603635012
1789335391647945500,0.201945556640625,2.912327708393335,0.22176585138142108,1.7315994825758039
1789335391657917200,0.211917236328125,3.009079525139928,-0.23477321699261663,1.2338589275024832
1789335391667888400,0.221888427734375,2.896792285609245,-0.6244479496225714,0.6299703663058579
1789335391677860400,0.2318603515625,2.531290747988224,-0.9356243150770663,0.1807988310251385
1789335391687831300,0.241831298828125,1.974871501713991,-1.003770215064287,-0.08631248412565327
1789335391697803300,0.25180322265625,1.3221294777601957,-0.8449716919884085,-0.13881769258971324
1789335391707775200,0.261775146484375,0.7891723556160927,-0.5589271374419331,0.1357937325255014
1789335391717746200,0.27174609375,0.3722410750091076,-0.20501813019812107,0.5435558922436088
1789335391727718400,0.281718505859375,0.10324117876589298,0.08324088552743196,0.9605030280068516
1789335391737689300,0.291689453125,0.0015969138026237486,0.24373656791001558,1.3683927778936922
1789335391747661300,0.301661376953125,0.0023690672188997268,0.20210019692480563,1.6866991413585841
1789335391757633500,0.311633544921875,0.04500701646208763,0.01975216369628906,1.8432130606286226
1789335391767604200,0.321604248046875,0.04183072451353073,-0.11576163764297961,1.7517951522558926
1789335391777576400,0.331576416015625,-0.08269406529963017,-0.2127285584449768,1.4803551693841814
1789335391787547400,0.34154736328125,-0.2758925783663988,-0.2940335074737668,1.0868223730865865
1789335391797519400,0.351519287109375,-0.5737742857009173,-0.3140294167980551,0.630461145497486
1789335391807490300,0.361490234375,-0.9328449134916067,-0.3304898454725742,0.10765079363537952
1789335391817462500,0.371462646484375,-1.3665326831102371,-0.368887088406086,-0.3088541330520063
1789335391827434200,0.381434326171875,-1.86220841460824,-0.34920156020522114,-0.6083937636613845
1789335391837405400,0.391405517578125,-2.359618422552943,-0.3390738416835665,-0.8227397672403604
1789335391847377400,0.40137744140625,-2.7578163611173627,-0.21934651528000831,-0.9723645115185529
1789335391857348400,0.411348388671875,-2.993772650414705,0.0020478724405169485,-0.9945774393051862
1789335391867320300,0.4213203125,-3.1641753943055866,0.20764087991714475,-0.8579210438020527
1789335391877292300,0.431292236328125,-3.186032421326637,0.44883243951946494,-0.6342191097915172
1789335391887263200,0.44126318359375,-3.076828534764051,0.5977823532760143,-0.46236543643996114
1789335391897235500,0.4512353515625,-2.982245294228196,0.6193690389230847,-0.3483563050201163
1789335391907206400,0.461206298828125,-2.9106337639570237,0.5279334487631917,-0.35988483025040474
1789335391917178400,0.471178466796875,-2.7902117332875727,0.3709714934647083,-0.45809057213235643
1789335391927150300,0.481150390625,-2.519782681024074,0.10088087937533854,-0.5251191585274413
1789335391937121300,0.491121337890625,-2.1936323260605333,-0.11275690286904573,-0.5662624122334644
1789335391947093200,0.50109326171875,-1.8840455678850412,-0.10923691204935311,-0.649136181481555
1789335391957064400,0.511064453125,-1.6261667851150035,0.007425181564688682,-0.7671290122427046
1789335391967036200,0.5210361328125,-1.5354063177376984,0.11717121217995881,-0.820802661697939
1789335391977008400,0.53100830078125,-1.5332517700523136,0.2056611042767763,-0.8068580883018672
1789335391986979300,0.540979248046875,-1.4868617747992277,0.3452063530892133,-0.7192414719082415
1789335391996951300,0.550951416015625,-1.335523212340474,0.5525318834468722,-0.5953397824294865
1789335392006922200,0.560922119140625,-1.0447177270025014,0.7416378665030002,-0.40194150900691744
1789335392016894500,0.57089453125,-0.6509066252201795,0.934222339324653,-0.2865635003866628
1789335392026866400,0.580866455078125,-0.24362170935869215,1.1090738793179393,-0.31894261554181574
1789335392036837400,0.59083740234375,0.06180266844034195,1.2581088410094379,-0.42357269138284026
1789335392046809300,0.600809326171875,0.19546353538930414,1.3239561086654663,-0.5852030038185417
1789335392056780300,0.6107802734375,0.16527297978699207,1.368520934318006,-0.7776159194655716
1789335392066752500,0.62075244140625,0.1700947008550167,1.3616604008987545,-0.8521938983269035
1789335392076723500,0.630723388671875,0.41797172957062717,1.3917834442228079,-0.8349721298910677
1789335392086695400,0.6406953125,0.9557266073852777,1.4600345581501721,-0.8866011948414146
1789335392096667400,0.65066748046875,1.7512538849860428,1.5349848774552344,-1.0485415230743587
1789335392106638300,0.660638427734375,2.6193396183192728,1.5706319448977708,-1.2868689254172145
1789335392116610300,0.6706103515625,3.138845722737908,1.4654387552812695,-1.4696131183564662
1789335392126581500,0.68058154296875,3.0911265247076747,1.3470330328702926,-1.5602648646622894
1789335392136553200,0.69055322265625,2.5232757838368416,1.342272686600685,-1.5323613970838486
1789335392146525400,0.700525390625,1.820312808164954,1.3794783816620706,-1.2721109167464077
1789335392156496400,0.710496337890625,1.4567150583386421,1.3757432867869734,-0.7921119892645627
1789335392166468400,0.72046826171875,1.5312357540547847,1.1767802188441157,-0.2927619166353717
1789335392176439300,0.730439208984375,2.114163068026304,0.6739096074059605,0.16770974194724111
1789335392186411300,0.740411376953125,3.132361621415615,0.06654606357514858,0.3630823111174628
1789335392196383200,0.75038330078125,4.090460218629241,-0.48055561151653525,0.19227084029521793
1789335392206354000,0.76035400390625,4.398153125882149,-0.9131383425027132,-0.28290592772718515
1789335392216326000,0.770325927734375,3.9116637404024597,-1.2544707767680288,-0.9366054350689053
1789335392226296800,0.780296875,2.792535207799077,-1.4804691511526702,-1.4870612428940833
1789335392236269000,0.79026904296875,1.2588853783398866,-1.5128396811425684,-2.1005457538232206
1789335392246240000,0.800239990234375,-0.286933027818799,-1.2213824538975953,-2.4854715383604167
1789335392256212000,0.8102119140625,-1.2605933513015508,-0.7257865096375345,-2.3152158017247912
1789335392266184200,0.82018408203125,-1.817496581700444,-0.2656497090324759,-1.898154757258296
1789335392276155000,0.83015478515625,-1.917664344370365,0.15887304961681364,-1.3133233632311223
1789335392286127000,0.840127197265625,-1.1091139190673827,0.23742256245762108,-0.3083964889449999
1789335392296098000,0.85009814453125,0.3131593559652567,0.04533668680787086,0.6545914512127637
1789335392306070000,0.860070068359375,1.730607987320423,-0.21194442232996225,1.0845829966619611
1789335392316042000,0.8700419921875,2.7962755633711813,-0.7358762342363595,1.1602694482218474
1789335392326013200,0.88001318359375,3.3163469004571438,-1.2353916900277138,0.8062869373504072
1789335392335985000,0.88998486328125,3.105242728343606,-1.6329516229495404,0.20891100945081562
1789335392345956000,0.8999560546875,2.366502336847782,-1.9564178533956407,-0.32648634545225647
1789335392355928000,0.909927978515625,1.4225474157989024,-2.204127416589856,-0.6608541648693382
1789335392365900000,0.919900146484375,0.39612756203114985,-2.24015150065124,-0.9528599659077822
1789335392375871000,0.92987109375,-0.6679325788229703,-2.157386415942013,-1.0481737126752733
1789335392385843000,0.939843017578125,-1.6940484812080858,-1.9942127465218304,-0.8657415082946419
1789335392395814000,0.94981396484375,-2.4855261911571023,-1.7782769164681433,-0.5518830641493201
1789335392405786000,0.9597861328125,-2.969393411439657,-1.488761470940709,-0.23925876490883527
1789335392415757800,0.9697578125,-3.2656559931397435,-1.160554183447361,0.0009353811539709567
1789335392425729000,0.97972900390625,-3.376572528839111,-0.8768836645558475,0.11420421560052782
1789335392435701000,0.989700927734375,-3.459839425590634,-0.6135059921085834,0.04950827340409159
1789335392445672000,0.999671875,-3.616023089993,-0.4906365682870149,-0.05815459426157176
1789335392455644000,1.009643798828125,-3.7471798651665447,-0.44439942550808187,-0.19157982582375407
1789335392465615000,1.019614990234375,-3.7676135813862084,-0.47431291773468254,-0.29526549695413556
1789335392475586800,1.0295869140625,-3.638935763546824,-0.5763768694147468,-0.2651768308237195
1789335392485559000,1.03955908203125,-3.301833806458115,-0.4746425880804658,-0.23829317127969116
1789335392495530000,1.049530029296875,-3.032079876977205,-0.22791706748753784,-0.24392880254648625
1789335392505502000,1.059501953125,-2.8684494037002324,-0.019933950003981588,-0.1130584430988878
1789335392515473000,1.069472900390625,-2.605751237949729,0.03876724528968334,0.15118547252258285
1789335392525444900,1.07944482421875,-2.187923885285854,0.1894327307924628,0.15273423633454367
1789335392535417000,1.0894169921875,-1.7839888643741606,0.29515257463157174,-0.07009737198171205
1789335392545388000,1.099387939453125,-1.422162215873599,0.24602964728325605,-0.3227736450720578
1789335392555360000,1.109360107421875,-1.1809797163605689,0.22289368636757134,-0.5810793114846572
1789335392565331000,1.1193310546875,-1.0383873549371958,0.17459727297127245,-0.7309366589423268
1789335392575303200,1.12930322265625,-0.7303969260424376,0.11602408797144889,-0.6737482062991708
1789335392585275000,1.13927490234375,-0.20395020870566366,-0.020037410378456116,-0.43388201354909683
1789335392595246000,1.14924609375,0.49010114623606205,-0.2102928557306528,-0.05344892818811349
1789335392605218000,1.159218017578125,1.371311149558425,0.01883037267625332,0.09169671618095598
1789335392615189000,1.16918896484375,2.0895634642988443,0.10784516543000935,0.5139858796924353
1789335392625161000,1.179160888671875,2.525150930058956,0.12364157723784445,0.8978374591268599
1789335392635132200,1.189132080078125,2.808387441447377,0.2099701996475458,0.93818189060539
1789335392645103900,1.199103759765625,2.8888357736468313,0.07085574346780776,0.9524322420150041
1789335392655076000,1.209076171875,2.7891771295428276,-0.07581921109408139,0.7109621577322482
1789335392665047000,1.219047119140625,2.622666716915369,0.06577566372454166,0.09195090100457891
1789335392675019000,1.22901904296875,2.448151861530542,0.12274024448394774,-0.2440420171299949
1789335392684990000,1.238989990234375,2.2589590769737957,0.09637187751829623,-0.08043204778493382
1789335392694962000,1.2489619140625,2.054214503020048,0.6395709922134876,-0.12234474236033856
1789335392704934100,1.25893408203125,1.7727058383375405,1.1905687979608774,0.07473627469558268
1789335392714905000,1.268905029296875,1.4374854572117328,1.6814049804732203,0.5599089880861342
1789335392724877000,1.278876953125,1.2283008549839258,1.971891316859424,1.158359742143005
1789335392734848000,1.288847900390625,1.4819892003268003,1.8644903880655765,2.160037222711742
1789335392744820200,1.2988203125,2.0152426750689743,1.7230010194480418,2.7113094614863393
1789335392754792000,1.3087919921875,2.615139244019985,1.3379638834908605,2.823518375083804
1789335392764763100,1.31876318359375,3.221143482196331,0.6168953422859311,2.7007348759800194
1789335392774734800,1.32873486328125,3.570490588352084,-0.10326865129470825,2.2348795515976847
1789335392784706000,1.3387060546875,3.5122897437959906,-0.7841656333699822,1.6616434644266962
1789335392794678000,1.348677978515625,3.0139643745720384,-1.3694970858737825,1.196182400058955
1789335392804650000,1.35864990234375,2.080921892681718,-1.513771409034729,0.7977936150975525
1789335392814621000,1.368620849609375,0.8664175078600644,-1.2746619164034723,0.4831869829334318
1789335392824593200,1.37859326171875,-0.2055956378251314,-0.8955544627562164,0.33412831157278267
1789335392834564000,1.388564208984375,-0.8878682921677827,-0.48014673845469946,0.28127343115452674
1789335392844536000,1.3985361328125,-1.1285422576367854,-0.27349165470451114,0.4720779982894659
1789335392854507000,1.408507080078125,-0.701699239346385,-0.32872225127816196,0.8792950365465134
1789335392864479000,1.41847900390625,0.30377076537311076,-0.5354261426061392,1.3163536708377301
1789335392874451000,1.428450927734375,1.208068798816204,-0.7863768796786665,1.5783280523583292
1789335392884422100,1.438422119140625,1.548635801666975,-0.9405626482620835,1.4742476462893188
1789335392894393900,1.448393798828125,1.275997841182351,-1.0154933860838413,1.0817392246033997
1789335392904366000,1.458365966796875,0.6452297486275435,-1.0561363621175288,0.5763039503090083
1789335392914337000,1.4683369140625,-0.17643384074866772,-1.038136887307465,0.16397618144210427
1789335392924309000,1.47830908203125,-1.1461030487686394,-0.9293491803303361,-0.16447496127709746
1789335392934280000,1.488280029296875,-2.079181186494231,-0.7941758629918098,-0.3299431348426267
1789335392944252000,1.498251953125,-2.9977164196044206,-0.6694739630460739,-0.2986260959610343
1789335392954222800,1.508222900390625,-3.70953373286128,-0.4597311424136162,-0.2211016518516466
1789335392964195000,1.518195068359375,-4.1623230933129785,-0.19403759423941372,-0.1776799318196252
1789335392974167000,1.5281669921875,-4.515615137702226,-0.02697188581675291,-0.1800670826844871
1789335392984138000,1.538137939453125,-4.770706335580349,-0.008542202895879744,-0.18257665435262024
1789335392994110200,1.548110107421875,-4.887637601524591,-0.06597498568892479,-0.3012600977264345
1789335393004081000,1.558080810546875,-4.891224227839708,-0.08258680553287268,-0.5275019985433668
1789335393014053000,1.56805322265625,-4.720711593833565,-0.11191986752301454,-0.6974868092831223
1789335393024025000,1.578025146484375,-4.213675094887614,-0.15228607244193554,-0.6979688937116414
1789335393033996000,1.58799609375,-3.3990076480090616,-0.09539601822346448,-0.6009408173069357
1789335393043968000,1.597968017578125,-2.6322575520813465,-0.0685039196446538,-0.47217568651027975
1789335393053939200,1.607939208984375,-1.9090882392048834,-0.027195173178613183,-0.3483254349578172
1789335393063911000,1.617910888671875,-1.3155588671982288,0.007883446726202965,-0.30748905524387954
1789335393073883100,1.627883056640625,-1.061191891941428,0.10305296271741389,-0.2959516160547733
1789335393083854000,1.63785400390625,-1.2154203306227922,0.295223009519279,-0.33193083806112406
1789335393093826000,1.647825927734375,-1.5510130521923302,0.5493810182005167,-0.42914618066623805
1789335393103797000,1.657796875,-1.8231594297677278,0.8044242852836847,-0.503964690285176
1789335393113769000,1.66776904296875,-1.8938076679646967,1.0578004959374665,-0.5136018488109112
1789335393123740000,1.677739990234375,-1.6508932300925254,1.2705246704682707,-0.5278986697107553
1789335393133712100,1.687712158203125,-1.1186930637955665,1.403989722584188,-0.44241599660590286
1789335393143683800,1.697683837890625,-0.49768940940797324,1.4977707068264483,-0.3471637707673013
1789335393153655000,1.707655029296875,0.096560678088665,1.5335507529988883,-0.26130685752257704
1789335393163627000,1.717626953125,0.6271557472765446,1.568831617477536,-0.2570186588093638
1789335393173598000,1.727597900390625,1.0409919844776392,1.604600557734072,-0.3850632933117449
1789335393183570000,1.73756982421875,1.27622346663177,1.597782402151823,-0.6425218048430978
1789335393193542000,1.7475419921875,1.386083771276474,1.5634841189697384,-0.9294586320541799
1789335393203512800,1.757512939453125,1.6259125180929899,1.5451584809452295,-1.1219674092911183
1789335393213484800,1.76748486328125,1.9706962618559598,1.658745697158575,-1.2713647745542227
1789335393223455700,1.777455810546875,2.394856324672699,1.7884256777778267,-1.28889137115553
1789335393233427700,1.787427734375,2.787074019783735,1.8880933819711208,-1.2149781398132442
1789335393243399700,1.797399658203125,2.966955955159664,1.9837392833024263,-1.239162879129499
1789335393253371000,1.807370849609375,2.779457699561119,2.0902458936050534,-1.4316754557587206
1789335393263342600,1.817342529296875,2.269090594887733,2.2214359865263105,-1.6600618943236767
1789335393273313800,1.827313720703125,1.7781670263528824,2.408727905897796,-1.6807390639103947
1789335393283285500,1.837285400390625,1.480613235798478,2.532122230376303,-1.4872067888446152
1789335393293257700,1.8472578125,1.6516332348048686,2.3979493222519754,-1.1571030200801788
1789335393303228700,1.857228759765625,2.3941519757956264,1.8363786845639347,-0.743448276925832
1789335393313200600,1.86720068359375,3.753717742502689,0.9531488658517598,-0.2501245153814554
1789335393323171600,1.877171630859375,5.18755052242577,0.20886106936186552,-0.026112200247496366
1789335393333143800,1.887143798828125,5.9986962249189615,-0.3551517007812857,-0.15430881044119596
1789335393343115800,1.89711572265625,5.695438085243105,-0.7219184360325336,-0.6131783675894141
1789335393353086700,1.907086669921875,4.248786740279197,-0.8162868647739291,-1.2237329625464974
1789335393363058700,1.91705859375,2.511978729274869,-0.6198772807061672,-1.6252729050152004
1789335393373029600,1.927029541015625,1.2830991976201533,-0.48077363818138835,-1.7183793509967624
1789335393383001900,1.937001953125,0.9017255526065826,-0.5789598716452717,-1.5390347373679278
1789335393392973600,1.9469736328125,1.3814929363548756,-0.909470175383985,-1.1835884375542403
1789335393402944800,1.95694482421875,2.092510623666644,-1.510389657641947,-0.770456256969273
1789335393412916700,1.966916748046875,2.484083006611466,-2.0930469225004313,-0.48159664500206706
1789335393422887700,1.9768876953125,2.550608027398586,-2.549806355626881,-0.18883666459545492
1789335393432859600,1.986859619140625,2.3102362597465516,-2.9059768780618906,0.14393413142114878
1789335393442830800,1.996830810546875,1.6752794833302498,-3.1424095526993274,0.3848511118657887
1789335393452802600,2.006802490234375,0.8852817828059196,-3.1353204712212084,0.5950568738348782
1789335393462774800,2.01677490234375,0.008530512458086014,-2.9026410116374493,0.6914236367866397
1789335393472745700,2.026745849609375,-0.9446768055826426,-2.554054660721123,0.8617584300078451
1789335393482717700,2.0367177734375,-1.8970739762842654,-2.189157226473093,1.0707378650523722
1789335393492688600,2.046688720703125,-2.7469693884104487,-1.8127935185760258,1.2137427527993916
1789335393502660900,2.056660888671875,-3.3758313550829886,-1.457817466622591,1.3048304063044487
1789335393512632600,2.066632568359375,-3.7470945249706507,-1.171684064748883,1.4251022148482502
1789335393522603800,2.076603759765625,-3.9433272911667823,-0.8991226766318082,1.5321775649495422
1789335393532575500,2.086575439453125,-4.076601789146662,-0.6735746763631701,1.6026690051496029
1789335393542546700,2.096546630859375,-4.134579930862784,-0.4856020812511444,1.7056914265982805
1789335393552518700,2.1065185546875,-4.127173453998566,-0.3208285754188895,1.7514863785676658
1789335393562490600,2.11649072265625,-4.133364125332236,-0.2285249702528119,1.7911406358249484
1789335393572461600,2.126461669921875,-4.108954491218924,-0.21212240924537182,1.7549495246335862
1789335393582433800,2.136433837890625,-3.9728532453805205,-0.2126847193032503,1.5928674498423934
1789335393592404500,2.146404541015625,-3.831457400265336,-0.2184709014892578,1.3814151949435471
1789335393602376700,2.156376708984375,-3.7394939868390558,-0.263010592700541,1.186841009609401
1789335393612348700,2.1663486328125,-3.719750590971112,-0.349500250890851,1.002769951980561
1789335393622319600,2.176319580078125,-3.791312436881661,-0.41665304818749427,0.8349244913570583
1789335393632291800,2.186291748046875,-3.7877848472774027,-0.3989072558775544,0.6672821520902216
1789335393642262800,2.1962626953125,-3.745693426001072,-0.29545711053609847,0.47695334924086924
1789335393652234800,2.20623486328125,-3.625862931483984,-0.17602847481817005,0.38830066779777406
1789335393662206700,2.216206787109375,-3.406170379245281,-0.06968962229788303,0.32280805879831315
1789335393672177700,2.226177734375,-3.1891888395309445,-0.026430034025013444,0.24922230584472416
1789335393682149600,2.236149658203125,-2.8667805937051773,0.015550912614166735,0.1947450118564069
1789335393692120800,2.246120849609375,-2.411368483534455,0.09412176050394773,0.15695640234053135
1789335393702092500,2.256092529296875,-1.9090707035481929,0.1025426751077175,0.2513660398751497
1789335393712064800,2.266064697265625,-1.1993863106667995,0.0377145213663578,0.4113783226549625
1789335393722035700,2.27603564453125,-0.17473405109345913,-0.03844166659712791,0.5183602953843772
1789335393732007700,2.286007568359375,0.9689940852373838,-0.16089987926930188,0.3885683788232505
1789335393741978600,2.295978515625,2.110005948346853,-0.34759207918196916,0.013549363533407448
1789335393751950800,2.305950927734375,3.124683341872692,-0.4437938608303666,-0.5500733843788504
1789335393761921500,2.315921630859375,3.810186648699641,-0.4875216511368751,-1.028909770887345
1789335393771893800,2.325893798828125,4.235761254489422,-0.381426398114115,-1.2158362179473041
1789335393781865500,2.335865478515625,4.3334740252226585,0.01601458460316062,-1.0983961256980896
1789335393791836700,2.345836669921875,4.229189474883675,0.6239090204402804,-0.6240126269452273
1789335393801808600,2.35580859375,4.159354306635261,1.084400041310489,0.12291384748518466
1789335393811779800,2.36577978515625,4.145462559404969,1.1442504066392778,0.9334893488749861
1789335393821751600,2.37575146484375,4.242501960921287,0.8725491424828767,1.4132391969665885
1789335393831723800,2.385723876953125,4.456998698082566,0.264833570344001,1.3772469693481921
1789335393841694700,2.39569482421875,4.664989706611633,-0.45943581272885203,0.8613384510301053
1789335393851666700,2.405666748046875,4.64045206220448,-1.0723621052533387,-0.07186272855326532
1789335393861637600,2.4156376953125,4.312232499751448,-1.5479821600638328,-0.9931967986017465
1789335393871609600,2.425609619140625,3.829879191163182,-1.6558049675315618,-1.8056888011373577
1789335393881581800,2.435581787109375,3.289131561273336,-1.4850710919901728,-2.1999681049533186
1789335393891552800,2.445552734375,2.7911621658802033,-1.1066581234131008,-1.9076786646679043
1789335393901524700,2.455524658203125,2.2714362812310456,-0.7918083301428706,-0.9865073839657008
1789335393911495700,2.46549560546875,1.6922060682117939,-0.44407508892454206,0.28369083102717996
1789335393921468000,2.475468017578125,1.2921148632466792,0.024025164840370414,1.4300269578993319
1789335393931439600,2.485439697265625,1.2271247969418764,0.3498166964288801,2.478678517219424
1789335393941410800,2.495410888671875,1.4084201062470674,0.33750564251877363,3.403489177337289
1789335393951382500,2.505382568359375,1.6587608947277068,0.14894056140631437,3.8449420279994606
1789335393961353700,2.515353759765625,1.7612971400946378,-0.001284632983058691,3.707730775092542
1789335393971325700,2.52532568359375,1.5252666165173052,-0.09957586119137704,3.06383169054687
1789335393981297700,2.535297607421875,1.0641086561709643,-0.13182751404196022,2.220469625712186
1789335393991268600,2.5452685546875,0.3942413098931312,-0.14789134461432696,1.5141307438664138
1789335394001240800,2.55524072265625,-0.43673079057633873,-0.17582009276449678,1.0009314845070243
1789335394011211500,2.56521142578125,-1.197346913793683,-0.11447452044188976,0.6425007620550691
1789335394021183700,2.575183837890625,-1.8502514348328112,-0.05115304493643343,0.4815884616956114
1789335394031155700,2.58515576171875,-2.510496966284513,0.0066826195690780875,0.4740953294612467
1789335394041126700,2.595126708984375,-3.1407050868690014,0.10383242265731096,0.5027656897589564
1789335394051099000,2.605098876953125,-3.662175769358873,0.27017880382947623,0.502316046295315
1789335394061069800,2.61506982421875,-3.941827992519736,0.42204643166363237,0.5864462818779052
1789335394071041800,2.625041748046875,-4.141937892410159,0.5238356580555439,0.685095018287003
1789335394081013800,2.635013671875,-4.4200440551728,0.6316875454872847,0.6686379506133496
1789335394090984700,2.644984619140625,-4.759274840983748,0.7140861349716782,0.5905446571074425
1789335394100956700,2.654956787109375,-4.972515440604091,0.8468316406413913,0.48526700407788154
1789335394110928000,2.664927978515625,-4.925484809359908,1.0207734453786164,0.3813065711267292
1789335394120899600,2.674899658203125,-4.607252387914062,1.14381997933276,0.28439620281755923
1789335394130871800,2.684871826171875,-4.001471437099576,1.1536696115653962,0.1902953389711678
1789335394140842800,2.6948427734375,-3.3786738850325344,1.059777422033623,0.1530149712383747
1789335394150814700,2.704814697265625,-2.9213819524645803,0.9440783282328397,0.10949176359325646
1789335394160785700,2.71478564453125,-2.6120745957523583,0.958907210182771,-0.06247223826497793
1789335394170758000,2.7247578125,-2.4211574716210364,1.0556050317198038,-0.2986525455765426
1789335394180729600,2.7347294921875,-2.381264437171817,1.1485954501062632,-0.5661135418146849
1789335394190700800,2.74470068359375,-2.34393920738399,1.2060566552761942,-0.8188678211778402
1789335394200672500,2.754672607421875,-2.1879846755623817,1.2745187085404992,-1.094961036682874
1789335394210644200,2.764644287109375,-1.8858616773962973,1.3381032919615505,-1.415774268402159
1789335394220616400,2.774616455078125,-1.4517682495862245,1.2999988944947718,-1.7640866246826945
1789335394230588400,2.78458837890625,-0.9903086759448051,1.1623751883294433,-1.996582106001675
1789335394240559400,2.794559326171875,-0.39463644669055936,0.9840827141020446,-2.0783565722383557
1789335394250531300,2.80453125,0.42596039023697374,0.8530234810188412,-2.131565161465108
1789335394260502300,2.814502197265625,1.3954285227268934,0.7687336709603667,-2.149601022762805
1789335394270474500,2.824474609375,2.483128482365608,0.7038048333235084,-2.189207641486078
1789335394280446200,2.8344462890625,3.3898131186842915,0.6300583368502557,-2.3335429010540247
1789335394290417400,2.84441748046875,3.9876147611826656,0.6110628367401659,-2.5842992845982313
1789335394300389400,2.854389404296875,4.0670886953920125,0.5782393022857606,-2.883704255977273
1789335394310360300,2.8643603515625,3.6607764239549634,0.5918062014758586,-3.1494863592177627
1789335394320332300,2.874332275390625,2.8744664720326663,0.8991873393658548,-3.2979560882419348
1789335394330304500,2.884304443359375,2.0644225933015345,1.3320984985888003,-3.2698674733549353
1789335394340275200,2.894275146484375,1.2814490923255681,1.6226757281288504,-2.917404573266208
1789335394350247400,2.904247314453125,0.8193582350432872,1.8089036715306341,-2.556527480575442
1789335394360218400,2.91421826171875,1.3244915307164191,1.8737625126712023,-2.325319554848969
1789335394370190300,2.9241904296875,2.9330846652179954,1.294269118671119,-1.860535512959957
1789335394380161300,2.934161376953125,4.846590136343241,0.32754100560434163,-1.5830945361077784
1789335394390133500,2.944133544921875,6.7505608864039175,-0.5240222666688263,-1.6460340996235607
1789335394400105200,2.954105224609375,8.165813469019533,-1.2869614260062574,-1.863614774274826
1789335394410076400,2.964076416015625,8.294068093010782,-2.007063168005645,-2.1315464567646383
1789335394420048100,2.974048095703125,7.219488896229863,-2.585916072145104,-2.391254062397033
1789335394430019300,2.984019287109375,5.33162172423005,-2.657275965742767,-2.678507262080908
1789335394439991300,2.9939912109375,3.3651018712759018,-2.265092172901332,-2.7436463814675807
1789335394449963300,3.00396337890625,1.8780600637346505,-1.8048346685260532,-2.485375969031453
1789335394459934200,3.013934326171875,0.9779875390321016,-1.5010785162001847,-1.8534195434749126
1789335394469906400,3.023906494140625,0.6322188758850097,-1.4075693346366285,-1.017222694094479
1789335394479877000,3.033877197265625,0.6952893723040818,-1.4538509010791778,-0.1979185273259878
1789335394489849300,3.043849365234375,1.1058131239563227,-1.62049911474213,0.4133081216737628
1789335394499821300,3.0538212890625,1.6608692651838064,-1.9049862107135354,0.6900161080762743
1789335394509792300,3.063792236328125,2.001135823783278,-2.1966791464105246,0.6995186804369091
1789335394519764500,3.073764404296875,1.918479167884588,-2.3767735554933545,0.47634033190906044
1789335394529735400,3.0837353515625,1.4984294629961252,-2.4842080942958593,0.18303367740511894
1789335394539707400,3.093707275390625,0.8435124330908059,-2.531530986484885,-0.0014949147328734396
1789335394549679400,3.103679443359375,0.10270634123682976,-2.4727792300477622,0.02101443871706724
1789335394559650300,3.113650390625,-0.6174363172948361,-2.265297924606502,0.24883330652713775
1789335394569622300,3.123622314453125,-1.2603946138590574,-1.9722263940326867,0.6595978811979294
1789335394579593500,3.133593505859375,-1.720721384078264,-1.6863965051501988,1.0799760873883961
1789335394589565200,3.143565185546875,-2.077588364344835,-1.453629805674404,1.5452368068784474
1789335394599537400,3.153537353515625,-2.3742092579632996,-1.233711335725337,2.1263750454761086
1789335394609508400,3.16350830078125,-2.591270877176523,-1.0479869579315184,2.5560885046362873
1789335394619480300,3.173480224609375,-2.8304069655537605,-0.9270051014222204,2.7342227195620534
1789335394629451300,3.183451171875,-3.1154473114937544,-0.8447695935450493,2.672794729653001
1789335394639423500,3.193423583984375,-3.490440315559506,-0.8423733460582792,2.4993428273245692
1789335394649395200,3.203395263671875,-3.8351229370355604,-0.9258104848101735,2.3398612904205915
1789335394659366400,3.213366455078125,-4.029428534561395,-1.007240083131939,2.19613817140162
1789335394669338000,3.223338134765625,-4.034319813734292,-1.024667018751055,2.1040409024626014
1789335394679309300,3.233309326171875,-3.918886092871427,-0.9784918352924287,2.031433054630458
1789335394689281300,3.24328125,-3.8486739080041645,-0.9533477494247257,1.977274617332965
1789335394699253200,3.253253173828125,-4.003277609738707,-0.9766802558258175,2.0427853465110064
1789335394709224200,3.26322412109375,-4.396566148951649,-0.8925149489298463,2.1265908801838753
1789335394719196400,3.273196533203125,-4.730857140272856,-0.7130205515667796,2.1309109353400766
1789335394729167000,3.2831669921875,-4.955204240319133,-0.5512836369514466,2.12651752268672
1789335394739139300,3.293139404296875,-5.1379678686112165,-0.46329906402826304,2.1172698018699885
1789335394749111300,3.303111328125,-5.336525278362632,-0.3978010482013225,1.9771509909532963
1789335394759082200,3.313082275390625,-5.417334260568023,-0.26994915979206563,1.7021769887365399
1789335394769054500,3.323054443359375,-5.339986232471466,-0.2083797155857086,1.4634708162091672
1789335394779025400,3.333025390625,-5.145192559167742,-0.3119207540810108,1.3456716813892124
1789335394788997400,3.342997314453125,-4.746355738177895,-0.4626134198516607,1.2851051306150854
1789335394798969300,3.35296923828125,-4.199287673094869,-0.6014382454350591,1.2321167600102723
1789335394808940300,3.362940185546875,-3.580499941191077,-0.7579061336062848,1.2100813076823949
1789335394818912300,3.372912353515625,-2.8669360765278338,-0.8371184942699968,1.0675624498866498
1789335394828883500,3.382883544921875,-2.079336084794998,-0.8246661321930587,0.7507473478928208
1789335394838855200,3.392855224609375,-1.1806173127889632,-0.8370295008122921,0.21791355986744165
1789335394848827400,3.402827392578125,0.03396013726890087,-0.8656003462582826,-0.4204728987365961
1789335394858798300,3.41279833984375,1.4200935929059981,-0.8615427414305508,-1.072066921699047
1789335394868770300,3.422770263671875,2.758853302949667,-0.8997821634538471,-1.5121771255806087
1789335394878741200,3.4327412109375,3.7851702808648344,-1.0146524052150547,-1.5374778633147477
1789335394888713500,3.44271337890625,4.70867219647169,-1.1704138986825943,-1.2300506212607025
1789335394898685200,3.452685302734375,5.667925224417448,-1.2102858903437852,-1.0166222439832986
1789335394908656400,3.462656494140625,6.63278089467585,-1.1177276528295128,-1.1117613648362457
1789335394918628000,3.472628173828125,7.4200079614430665,-1.1896996869761496,-1.4595302618898451
1789335394928600300,3.482600341796875,7.848346771249175,-1.3921150142647325,-1.8768368055500089
1789335394938571500,3.492571533203125,7.714629790198803,-1.5688172966912388,-2.3035746099002656
1789335394948543200,3.502543212890625,7.107322652730345,-1.639077850744873,-2.4380275040097534
1789335394958514400,3.512514404296875,6.166972478175163,-1.593517584314197,-1.9256594347774982
1789335394968486400,3.522486328125,5.2293233792722225,-1.321605892277509,-1.0339429427489637
1789335394978458400,3.532458251953125,4.436768980002403,-0.8115697731241583,-0.211783532679826
1789335394988429300,3.54242919921875,3.705162093648314,-0.35738219977971164,0.5876052426546812
1789335394998401300,3.5524013671875,3.15130071516335,0.030397576815960926,1.1081832140885293
1789335395008372200,3.562372314453125,2.9280028319090605,0.2740848530909978,1.404604201220721
1789335395018344400,3.572344482421875,2.9428643009543416,0.34842399996146556,1.4695330388575791
1789335395028316200,3.582316162109375,3.0906419560611247,0.31411307649351655,1.3950951991192995
1789335395038287400,3.592287353515625,3.0322990726858374,0.293848506295681,1.2473255811884998
1789335395048259300,3.60225927734375,2.5346207691937686,0.3993967929601669,1.0974037536598742
1789335395058230500,3.61223046875,1.7203811923384666,0.5565564627878368,0.9705626497283577
1789335395068202200,3.6222021484375,0.775047968673706,0.712010790002346,0.8623537655524909
1789335395078174500,3.632174560546875,-0.09020692514777183,0.8148528864480554,0.8091985139481723
1789335395088145200,3.642145263671875,-0.8383961129903793,0.8517337334692477,0.7626654569625854
1789335395098117400,3.652117431640625,-1.5816694717407225,0.8698989202350378,0.6639826721534132
1789335395108088300,3.66208837890625,-2.227848483917117,0.8410977000992744,0.6772156632140278
1789335395118060300,3.672060302734375,-2.7237603622585533,0.8487708650756627,0.7254623922497033
1789335395128032500,3.682032470703125,-3.1622002948403356,0.9067916038244962,0.7009191948845982
1789335395138003500,3.69200341796875,-3.6000691495358943,0.9615469110365956,0.635040070785582
1789335395147975400,3.701975341796875,-4.074364239352941,0.9906883229121565,0.5459072046101093
1789335395157946400,3.7119462890625,-4.4997132196933025,0.9799155844852327,0.4401692405924201
1789335395167918300,3.72191845703125,-4.807021511542797,0.9557331101913005,0.29582901258841154
1789335395177890300,3.731890380859375,-4.869851184943318,0.9446564203817397,0.06154416363462805
1789335395187861500,3.741861572265625,-4.748115733587742,0.9154610863618552,-0.21598682958856225
1789335395197833200,3.751833251953125,-4.484656520336866,0.8305147851560264,-0.44700420117899775
1789335395207804400,3.761804443359375,-4.217906448847055,0.721732119680196,-0.6159150990769267
1789335395217776000,3.771776123046875,-4.000051633429527,0.6361290350660681,-0.7164110707879066
1789335395227747800,3.781747802734375,-3.8312954877018925,0.6025988136470317,-0.7421982768647373
1789335395237719000,3.791718994140625,-3.6458038957506416,0.6432745229065417,-0.7269121526665985
1789335395247691000,3.80169091796875,-3.427261682590842,0.7280081312097608,-0.7002741749793291
1789335395257663000,3.8116630859375,-3.3021880267232655,0.8683549056634307,-0.6910596257798374
1789335395267634000,3.821634033203125,-3.1722680998682975,0.9958134108409284,-0.7435948457896709
1789335395277606000,3.83160595703125,-2.8996745630472898,1.0192688129693268,-0.8157885598629713
1789335395287576800,3.841576904296875,-2.602828043979406,0.9459294359922409,-0.889974178405851
1789335395297549000,3.851549072265625,-2.2813731533557173,0.8168671488799154,-0.9210838946796953
1789335395307520800,3.861520751953125,-1.8302017494946716,0.7858180767521261,-0.9884899360850453
1789335395317492000,3.871491943359375,-1.2318939110398293,0.793059280052036,-1.2127179397962986
1789335395327464000,3.8814638671875,-0.5205968222647905,0.7237326458476483,-1.3444073605418205
1789335395337435000,3.891434814453125,0.2197171021580696,0.5776588720493018,-1.4315185116313398
1789335395347406800,3.90140673828125,1.045813121023774,0.44722997275888915,-1.537665494841337
1789335395357379000,3.911379150390625,1.850429129487276,0.32454927644245324,-1.7099414852581918
1789335395367349800,3.921349853515625,2.48929752638936,0.2093835588660091,-1.9533457524739204
1789335395377322000,3.931322021484375,3.029871553277969,0.13276201841309665,-2.237813120831549
1789335395387293000,3.94129296875,3.365121160498261,0.0839607972998172,-2.5891420484542844
1789335395397265000,3.951264892578125,3.395530911809206,0.13695632829777896,-2.9248601499691604
1789335395407237000,3.961237060546875,3.0417092905879017,0.4341272570144385,-3.1778046912074087
1789335395417208000,3.9712080078125,2.4481834257125854,0.9471893729254602,-3.255857068181038
1789335395427180000,3.981179931640625,1.8521219048798083,1.375027831993997,-3.119030430677533
1789335395437152000,3.991152099609375,1.5404098251134157,1.5914286492109297,-2.721441271661222
1789335395447123000,4.001123046875,1.586357337296009,1.4629001767143606,-2.0410395257569847
1789335395457095000,4.011094970703125,2.762982365578413,0.9513454696916043,-1.4593487678430974
1789335395467066000,4.021066162109375,4.86013117043972,0.086347911632061,-1.1808394311070443
1789335395477037800,4.031037841796875,6.774952400338649,-0.830378810751438,-1.1946683422341942
1789335395487010000,4.041010009765625,8.054056390842796,-1.5452987661987543,-1.449611363813281
1789335395496981000,4.05098095703125,8.22747409864068,-2.166452642711997,-1.6387389741793275
1789335395506953000,4.060952880859375,6.952725380736589,-2.53357272144556,-1.8011841831944881
1789335395516924000,4.070923828125,4.768956277042627,-2.306694495486468,-2.06714441948086
1789335395526895900,4.080895751953125,2.7277029624044893,-1.8118458624623714,-2.128909970781207
1789335395536867800,4.090867919921875,1.0880436585098505,-1.465674317602813,-1.9790752370141445
1789335395546839000,4.100839111328125,0.06789221748709678,-1.3656276970945298,-1.5967968982458114
1789335395556810800,4.110810791015625,-0.15507248829007148,-1.5461293718039988,-0.8930462793275713
1789335395566782000,4.120781982421875,0.15316870049536227,-1.8870165465198456,-0.08319280860200524
1789335395576754000,4.13075390625,0.8038654823571443,-2.1445029689714312,0.61178720549196
1789335395586726000,4.140725830078125,1.6199112318515776,-2.231361460474133,1.0427578251063823
1789335395596696800,4.15069677734375,2.356030042672157,-2.3424705961361525,1.2059918464116752
1789335395606669000,4.1606689453125,2.678665082991123,-2.5766899786382913,1.264789341686666
1789335395616639700,4.1706396484375,2.454989014074206,-2.8052646332517264,1.1811373911403118
1789335395626612000,4.180612060546875,1.8792554109990596,-2.8436148221731186,1.02238212268427
1789335395636584000,4.190583984375,1.1824170556873081,-2.711558175550401,0.8689718685179948
1789335395646555000,4.200554931640625,0.39383915883302684,-2.5193986501425503,0.8652453953407704
1789335395656527000,4.210527099609375,-0.4014069637387991,-2.3342529490195214,1.0476631328046322
1789335395666498800,4.220498779296875,-1.1859300322443247,-2.15608702378124,1.235151597661525
1789335395676470000,4.230469970703125,-1.9583780475527046,-2.004587133280933,1.3954517574720084
1789335395686442000,4.24044189453125,-2.6936399492830034,-1.8503749150820075,1.5816747324377298
1789335395696413000,4.250412841796875,-3.4291970345675944,-1.688322797037661,1.7557292768344281
1789335395706385000,4.260385009765625,-4.175197772455215,-1.478672038602829,1.9272882050231097
1789335395716357000,4.270357177734375,-4.850408233326673,-1.2381874582260846,2.0768562506780026
1789335395726327800,4.280327880859375,-5.383877396646142,-0.9835115631505846,2.2246536333985625
1789335395736300000,4.290300048828125,-5.751661492246389,-0.7102300440654158,2.294379057662189
1789335395746271000,4.30027099609375,-5.948997835770249,-0.4268023940190673,2.186808179128915
1789335395756243000,4.310242919921875,-6.073403967639804,-0.2941024810567498,2.0674831499159336
1789335395766215000,4.32021484375,-6.114950614514947,-0.24508389086574314,1.8523802635550497
1789335395776186000,4.33018603515625,-5.980689443585276,-0.24643676677942275,1.5568439503028988
1789335395786157800,4.34015771484375,-5.6850873716205355,-0.2925570051804185,1.20268864014782
1789335395796129000,4.35012890625,-5.331802926015854,-0.38670623821318145,0.8006170019552111
1789335395806100700,4.360100830078125,-5.0876510553032155,-0.47510289906859393,0.5030488175492733
1789335395816073000,4.370072998046875,-4.982725284451246,-0.4950020700201392,0.29670857190191746
1789335395826044000,4.3800439453125,-4.9619741728454825,-0.44470980663150544,0.17596125480085612
1789335395836015900,4.390015869140625,-4.772678512436151,-0.3788128546148538,0.15200038736835123
1789335395845988000,4.399988037109375,-4.494405176413059,-0.26644465880244966,0.15259148512929677
1789335395855959000,4.409958984375,-4.179778085982799,-0.1488961377426982,0.15218166221939025
1789335395865931000,4.419930908203125,-3.705917880451679,-0.09962474183440208,0.23490539200492203
1789335395875902000,4.42990185546875,-3.05279065657258,-0.14362404255867003,0.39145343274027106
1789335395885874000,4.4398740234375,-2.3083652051776644,-0.2645706816241145,0.548330997690931
1789335395895846000,4.449845947265625,-1.399448279762268,-0.40113194618970155,0.6540664044253528
1789335395905817000,4.459817138671875,-0.33168402369320393,-0.4590662487640977,0.5283412989117204
1789335395915788800,4.469788818359375,0.7527215705752373,-0.6005836744323373,0.26542167243026193
1789335395925760000,4.479760009765625,1.9170570261269806,-0.7867099110253155,-0.08514503864832222
1789335395935732000,4.48973193359375,3.1644518731594085,-0.8652646845631301,-0.5948262068841607
1789335395945704000,4.499703857421875,4.432268161451816,-0.8265094219721854,-1.0510817821417002
1789335395955675000,4.5096748046875,5.629007172480225,-0.7304262982673942,-1.1552234168786555
1789335395965647000,4.519647216796875,6.593683979040384,-0.5677189311847091,-0.9302334158189595
1789335395975617800,4.52961767578125,7.240977089938521,-0.36011955232173204,-0.5173473920147865
1789335395985590000,4.539590087890625,7.76243432842493,-0.1000400446370244,-0.04199826310016214
1789335395995562000,4.54956201171875,8.325258765566348,0.09089110801964997,0.2035548527125269
1789335396005533000,4.559532958984375,8.726695539921522,0.06587342501059174,0.11146627853661775
1789335396015505200,4.569505126953125,8.703784035411477,-0.14818755108192563,-0.21253917335271835
1789335396025476000,4.57947607421875,8.137377648130059,-0.4707962879158556,-0.68442442554906
1789335396035448000,4.589447998046875,6.928668213322759,-0.7025510338701307,-0.8962630494169891
1789335396045420000,4.599419921875,5.395929653489589,-0.6923609176367521,-0.7328195500794797
1789335396055391000,4.609390869140625,4.013834659588337,-0.39640316410213705,-0.3370204162850976
1789335396065363000,4.619363037109375,2.7694992001265284,-0.01265738312974572,0.31021464428287
1789335396075335000,4.6293349609375,1.790098287165165,0.3141223557785153,0.9871687704838812
1789335396085305900,4.639305908203125,1.2467647324353455,0.5564234840579331,1.620820017259568
1789335396095278000,4.649278076171875,1.1279413691341875,0.6656419836677611,2.146394189545512
1789335396105249000,4.6592490234375,1.2869377528697252,0.4548736193798482,2.462250237248838
1789335396115221000,4.669220947265625,1.477104935416579,0.0607262713804841,2.521945412015915
1789335396125193000,4.67919287109375,1.3193921617507933,-0.22191417381092904,2.2027333318829534
1789335396135164000,4.689163818359375,0.7382792037248611,-0.398011914473027,1.5314322995401919
1789335396145135900,4.699135986328125,-0.11922259175181388,-0.4549478536598384,0.8788461968004703
1789335396155107000,4.709107177734375,-1.0905886668175457,-0.45188378991410133,0.3452483656000346
1789335396165078800,4.719078857421875,-2.010561823776364,-0.42163726634085175,-0.02067358939014375
1789335396175051000,4.729051025390625,-2.837293802458048,-0.3895053674124181,-0.20529186910558492
1789335396185022000,4.73902197265625,-3.5305759265929457,-0.31783801530078054,-0.3039079818867147
1789335396194994000,4.748993896484375,-4.070879904368519,-0.22779577919542787,-0.28493085768353194
1789335396204964900,4.75896484375,-4.460483033066987,-0.14036416397988796,-0.2045766152420081
1789335396214937600,4.7689375,-4.697152439069748,-0.06786679078489542,-0.07905435709040612
1789335396224909800,4.778909912109375,-4.859623220917582,0.020816870318353175,-0.03771653979350813
1789335396234880800,4.788880859375,-4.990284321528673,0.026718495577573775,-0.046405923474580044
1789335396244852700,4.798852783203125,-5.061203193360567,0.011141279478371144,-0.10727528398702851
1789335396254823700,4.80882373046875,-4.973592714446783,0.050663434788584705,-0.21906358841909093
1789335396264796000,4.8187958984375,-4.7177083203643555,0.08887567654401063,-0.36958639578185976
1789335396274767600,4.828767578125,-4.3449359149575235,0.10778934358954428,-0.5247522614438086
1789335396284738800,4.83873876953125,-3.92930636459887,0.042108372411131856,-0.6543244708396494
1789335396294710500,4.84871044921875,-3.6006238608092067,-0.03004091799855232,-0.7511280177734792
1789335396304681700,4.858681640625,-3.390414591708779,-0.07254734981656075,-0.8114961233660578
1789335396314653700,4.86865380859375,-3.1805449298262594,-0.04062807072550058,-0.8186708373010158
1789335396324625700,4.878625732421875,-2.871187888753414,0.1144727668762207,-0.7319870447780936
1789335396334596600,4.8885966796875,-2.501733229592442,0.3063856240466237,-0.549195359435305
1789335396344568800,4.89856884765625,-2.217653837639093,0.49789866824448104,-0.43167365331724283
1789335396354540800,4.908540771484375,-2.1207605665951967,0.6684621556550264,-0.4149290008738637
1789335396364511700,4.91851171875,-2.1558359716296196,0.7809469635844231,-0.45153746069446205
1789335396374483700,4.928483642578125,-2.0799790588736533,0.95377342749089,-0.5730371670654043
1789335396384454700,4.93845458984375,-1.9363228676110504,1.1043638019308448,-0.7685117718379945
1789335396394427000,4.948427001953125,-1.6803186465412376,1.23565940105319,-0.9720968735583126
1789335396404398600,4.958398681640625,-1.2347633289963007,1.3583160589069128,-1.0573606432154774
1789335396414369800,4.968369873046875,-0.7511597280859946,1.396369310708344,-1.0119428539954125
1789335396424341800,4.978341796875,-0.34795243692696093,1.4236520160399377,-1.0071803157687187
1789335396434312700,4.988312744140625,0.17622691999971865,1.470570272950828,-0.9328115226786583
1789335396444284700,4.99828466796875,0.775057321023941,1.4674367972306905,-0.8285906852256506
1789335396454257000,5.0082568359375,1.4784551809817552,1.3912773943968118,-0.7474428995199501
1789335396464227600,5.0182275390625,2.426059272187948,1.3266406715743242,-0.6191149180315435
1789335396474199800,5.02819970703125,3.4336949305087328,1.3286657476611434,-0.7097206332385539
1789335396484170800,5.038170654296875,4.2220811041831965,1.3117944000981747,-1.0294131903648376
1789335396494142700,5.048142822265625,4.600803942427039,1.2532011952236295,-1.4275726966150104
1789335396504114700,5.05811474609375,4.390257988718152,1.2270327347442507,-1.7602618056975303
1789335396514086000,5.0680859375,3.524368888646364,1.4871142882555721,-2.078870513109863
1789335396524057600,5.0780576171875,2.4700872144848107,1.9241595516085623,-2.4075813662111756
1789335396534029800,5.08802978515625,1.5669412736862898,2.17411645533815,-2.4135645322740076
1789335396544000500,5.09800048828125,1.103408400902152,2.2829788349866864,-2.259663718111813
1789335396553972700,5.10797265625,1.8096645729005336,2.0471092010594902,-1.8299246861189602
1789335396563943700,5.117943603515625,3.925754809597134,1.1991108547262848,-1.178002015724033
1789335396573915600,5.12791552734375,6.067250705707073,0.15078662766441703,-0.6678402243643998
1789335396583888000,5.137887939453125,7.5957292700082055,-0.6409165616035462,-0.5964039775948972
1789335396593858800,5.14785888671875,8.064214796763657,-1.3456862944364547,-0.6420097636677324
1789335396603830800,5.157830810546875,6.814421071895957,-1.9149682371541856,-1.0443385914918035
1789335396613801700,5.1678017578125,4.511078663316368,-1.9396464590758085,-1.6458777400180697
1789335396623773700,5.177773681640625,2.408296821004152,-1.5586017537556587,-2.057802882900834
1789335396633745700,5.18774560546875,0.7979922064095735,-1.2559525397583842,-2.213099096944183
1789335396643716900,5.197716796875,-0.019893033471703528,-1.1481981213517487,-2.0216823527276513
1789335396653688600,5.2076884765625,0.01476034675836563,-1.3704961799137294,-1.3770103841133414
1789335396663659800,5.21765966796875,0.8380524141192436,-1.814759704082459,-0.5781917002843693
1789335396673631700,5.2276318359375,2.1143542066842316,-2.0756198407508433,0.27951668714769184
1789335396683603700,5.237603759765625,3.3964415969133377,-2.202959103462845,1.1557461986437438
1789335396693574700,5.24757470703125,4.161558538681269,-2.4355915090344844,1.7245770365931092
1789335396703547000,5.257546875,4.194394640356302,-2.7925188411861654,1.7861603631943463
1789335396713517600,5.267517578125,3.592082242435217,-3.1076272853925824,1.3305306647501884
1789335396723489800,5.27748974609375,2.510346744158864,-3.3032527333453294,0.5863876104932279
1789335396733461500,5.28746142578125,1.1949813537061214,-3.356348655977845,-0.05864822299741208
1789335396743432700,5.2974326171875,-0.040168344259262086,-3.2331419630259273,-0.38818011015802617
1789335396753404700,5.30740478515625,-1.0990917067468167,-3.0664053404271603,-0.4133210907531902
1789335396763376600,5.317376708984375,-1.9971616594552992,-2.8742808863326905,-0.2483711689081043
1789335396773347600,5.32734765625,-2.7043133189886808,-2.61774036642909,0.07833649114463478
1789335396783319800,5.33731982421875,-3.3102596894979475,-2.348748068970442,0.5006299563718959
1789335396793290500,5.34729052734375,-3.822490249955654,-2.034829419070482,0.9555434328380972
1789335396803262700,5.3572626953125,-4.2047459385007615,-1.7463962158218025,1.3386086111351847
1789335396813234700,5.367234619140625,-4.627310841080546,-1.5037924513339995,1.5751995450742542
1789335396823205600,5.37720556640625,-5.022996504563093,-1.3176447335615753,1.7044184840530157
1789335396833177900,5.387177734375,-5.331130725842714,-1.1443480217948556,1.6524940894179045
1789335396843148800,5.397148681640625,-5.4718356660842895,-0.968687795767188,1.4580819627776742
1789335396853120800,5.407120849609375,-5.470246935588121,-0.8948094896078109,1.2014838674679398
1789335396863092700,5.4170927734375,-5.379304097381234,-0.855116361644864,0.9433065401427447
1789335396873063700,5.427063720703125,-5.238621368971467,-0.7743722613692283,0.7206988311097026
1789335396883035600,5.43703564453125,-5.032522457799315,-0.6586170534670353,0.5957942481987178
1789335396893006800,5.4470068359375,-4.858530164983868,-0.5498357762306928,0.5458734119383618
1789335396902978600,5.456978515625,-4.72831213196516,-0.46168227648139,0.5044230285119266
1789335396912950800,5.46695068359375,-4.73111082277298,-0.3602870178431272,0.3519623301554471
1789335396922921700,5.476921630859375,-4.8107408243268726,-0.2477563249453902,0.18633207962969317
1789335396932893700,5.486893798828125,-4.751559152039885,-0.10443857185691595,0.001713361522834748
1789335396942864600,5.49686474609375,-4.506140037870407,0.015116905111074446,-0.08375718275280669
1789335396952836900,5.5068369140625,-4.101586592799425,0.1262491293877363,0.003105436935741454
1789335396962808600,5.51680859375,-3.567897649249434,0.2412476737037301,0.24551784356990827
1789335396972779800,5.52677978515625,-2.9148727167010304,0.36952304822206494,0.5200061628952622
1789335396982751500,5.53675146484375,-2.2392852392107248,0.45543578330725426,0.8003730371315032
1789335396992723700,5.5467236328125,-1.5476719250708817,0.5340799886941909,1.08112525742352
1789335397002694700,5.556694580078125,-0.7759194908112287,0.6125269179433583,1.2299924613326787
1789335397012666600,5.56666650390625,0.25124095219075676,0.6923828372076153,1.3393611830681562
1789335397022637600,5.576637451171875,1.4188941539883613,0.7524860082536935,1.4283824055626988
1789335397032609800,5.58660986328125,2.549014036205411,0.7511667423486709,1.411459035551548
1789335397042581800,5.596581787109375,3.63202496124506,0.7087102871522307,1.2771116476431488
1789335397052552700,5.606552734375,4.675228776553273,0.8233093107566237,1.1288828877680004
1789335397062524700,5.616524658203125,5.336196777060628,1.0484984145849943,1.0015651793006808
1789335397072495600,5.62649560546875,5.521719348672032,1.328189070060104,1.1319004820235072
1789335397082467800,5.6364677734375,5.56562512589395,1.5606865972056985,1.4543758017361164
1789335397092439600,5.646439453125,5.909003679034114,1.6329126061134038,1.7694257937535642
1789335397102410800,5.65641064453125,6.644442690896987,1.485123114438355,1.958397921296954
1789335397112382700,5.6663828125,7.449471371814608,1.059084690529108,2.0069909795522687
1789335397122354000,5.67635400390625,8.045365134865046,0.51834115229249,1.8905017582871018
1789335397132325600,5.68632568359375,8.172693876183033,-0.007565320687741041,1.4352464461132883
1789335397142297900,5.6962978515625,7.624413512700795,-0.6155747612066567,1.0373193603795021
1789335397152268500,5.7062685546875,6.500035389006137,-1.1857469307623802,1.022039373661205
1789335397162240800,5.71624072265625,5.121033100423216,-1.2472472552552818,1.12556609137021
1789335397172211700,5.726211669921875,3.796081550979614,-1.0001153458185494,1.514709566667676
1789335397182183700,5.73618359375,2.560507490122318,-0.6831732564441859,2.076476457580179
1789335397192155600,5.74615576171875,1.6481401319921016,-0.2254384024143219,2.44352157138139
1789335397202126800,5.756126953125,1.1454098058074713,0.09149082747846841,2.786436890923977
1789335397212098600,5.7660986328125,0.8816863886624574,0.13624211561381816,3.003245119898021
1789335397222070800,5.77607080078125,0.7053297048032283,-0.04752046058773994,2.9875892856046558
1789335397232041500,5.78604150390625,0.4861597151339054,-0.3408779684960842,2.6065385889351367
1789335397242013700,5.796013671875,0.003652677288651466,-0.5967202770024538,1.9689030948288737
1789335397251984600,5.805984619140625,-0.7579612247943878,-0.7440966578319669,1.2405967113249003
1789335397261956600,5.81595654296875,-1.6376503021597861,-0.8399301906898617,0.5365588729631156
1789335397271928600,5.825928466796875,-2.516130003735423,-0.904479527489841,-0.06136807641535997
1789335397281899800,5.835899658203125,-3.335945334896445,-0.959707785975933,-0.5083072495341301
1789335397291871500,5.84587158203125,-4.053005224981904,-0.9644900518164038,-0.8146296721514313
1789335397301842700,5.8558427734375,-4.575652550035715,-0.9140703626558184,-0.9952212901666759
1789335397311814700,5.865814697265625,-4.964530871590972,-0.8551414960861206,-1.077259960297495
1789335397321786600,5.87578662109375,-5.252399718955159,-0.8378907938167452,-1.0968361829049884
1789335397331757600,5.885757568359375,-5.463123951840401,-0.8327487547531723,-1.068003690848127
1789335397341729500,5.8957294921875,-5.603142663383483,-0.8154930840477347,-1.0385586198508738
1789335397351700500,5.905700439453125,-5.63524635913074,-0.7425032511606812,-0.9909845293797552
1789335397361672700,5.915672607421875,-5.635146405887603,-0.6699205377697944,-1.0098599833067505
1789335397371644400,5.92564453125,-5.455550886237621,-0.5880579548582434,-1.170619650387764
1789335397381615600,5.93561572265625,-4.950507022413611,-0.49722412998378274,-1.4056741685397922
1789335397391587600,5.945587646484375,-4.117016217121481,-0.5618737122878432,-1.567998819915205
1789335397401559600,5.9555595703125,-3.462102109825611,-0.7539706938534975,-1.6650570722624658
1789335397411530500,5.965530517578125,-3.256611685940623,-0.9268906812623142,-1.8353572325617074
1789335397421502500,5.97550244140625,-3.3432629644334315,-1.032288453540206,-2.040899971155822
1789335397431473400,5.985473388671875,-3.4342426275193687,-1.026383905671537,-2.234153575410694
1789335397441445600,5.995445556640625,-3.2760634053856132,-0.7341434190943836,-2.4672730338469147
1789335397451417600,6.00541748046875,-3.2253549624115228,-0.3852180454820394,-2.441233898835629
1789335397461388500,6.015388427734375,-3.240220523110032,-0.06540420006364583,-2.3847173541046676
1789335397471360800,6.02536083984375,-3.0198312207788227,0.2580249132424593,-2.258443090275675
1789335397481332500,6.03533251953125,-2.5829554687738416,0.5041457459405064,-2.0410775196798143
1789335397491303700,6.0453037109375,-2.0240292081147433,0.6313681042745709,-1.743722904959321
1789335397501275600,6.055275634765625,-1.335150287374854,0.7093228660926222,-1.4781392469003796
1789335397511246600,6.06524658203125,-0.42094051624834533,0.804552295577526,-1.3249826752342282
1789335397521218600,6.075218505859375,0.5897568677306175,0.8452873338088392,-1.269222355698049
1789335397531190500,6.0851904296875,1.6050807424664497,0.7343234518364071,-1.327422761862725
1789335397541161500,6.095161376953125,2.798173505946994,0.4692858833529055,-1.4832137736856936
1789335397551133700,6.1051337890625,4.0233477533429856,0.2385574117064476,-1.880777652130276
1789335397561104600,6.115104736328125,5.096393749207258,0.106538466745615,-2.361028581611812
1789335397571076600,6.12507666015625,5.739766471791267,0.05766790672317147,-2.727647140564024
1789335397581048600,6.135048583984375,5.70783111834824,0.14918912933990358,-2.936220040634274
1789335397591019500,6.14501953125,5.041882406818867,0.5566843269512057,-2.7793723593652246
1789335397600991500,6.154991455078125,3.996570221054554,1.335202602083981,-2.343402616289258
1789335397610963500,6.16496337890625,3.2369179744333025,2.1146546509355306,-1.7443400139443574
1789335397620934400,6.174934326171875,3.12147957739532,2.606598210167885,-0.8916920151744038
1789335397630906600,6.18490673828125,3.971547423478961,2.6195439087197183,-0.11053663300368934
1789335397640877600,6.194877685546875,5.6007151439756155,1.9579938705407083,0.21547827727822585
1789335397650849500,6.204849609375,7.002205158698558,0.9089012894548475,0.01197418663855642
1789335397660821800,6.21482177734375,7.777901946669816,-0.2639358908519149,-0.4070239268377423
1789335397670792700,6.224792724609375,7.534801630836725,-1.3189587387695907,-0.9969877153173089
1789335397680764700,6.2347646484375,6.092792558720707,-1.8211168180242179,-1.7464912006288766
1789335397690735600,6.244735595703125,4.032064728283882,-1.697808856654912,-2.1900343015685677
1789335397700707600,6.25470751953125,2.0936364128261804,-1.2287404154449701,-2.442813569242507
1789335397710679600,6.264679443359375,0.5267997685581446,-0.7900761725880205,-2.453590253192186
1789335397720650800,6.274650634765625,-0.2853735234171152,-0.4121260722823441,-2.249146123489737
1789335397730622500,6.28462255859375,-0.17717735259234904,-0.3541604977868497,-1.6411476427562535
1789335397740594700,6.2945947265625,0.6477823557198047,-0.7737066370673478,-0.7329477065037936
1789335397750565600,6.304565673828125,1.727564381840825,-1.325505237803608,0.09657060582763514
1789335397760537600,6.31453759765625,2.5097990471482277,-1.6615663075372575,0.7219030192676931
1789335397770508500,6.324508544921875,2.95786196359992,-1.8402286379903554,1.0751859305024147
1789335397780480500,6.33448046875,3.027213147723675,-2.0307707913294433,1.2629742550887166
1789335397790452500,6.344452392578125,2.657650352013111,-2.2337799197927115,1.1937656212408094
1789335397800423700,6.354423583984375,2.0271499704837797,-2.355397882248461,1.0002527084626256
1789335397810395400,6.3643955078125,1.2961089013189078,-2.3536703278034925,0.7489829685688019
1789335397820367600,6.37436767578125,0.5818640686541795,-2.258162081377208,0.5528475983325392
1789335397830338600,6.384338623046875,-0.11110884340107441,-2.1171113964378834,0.4305592988671735
1789335397840310500,6.394310546875,-0.8113836029022932,-2.0065064109057187,0.37065102933868765
1789335397850281500,6.404281494140625,-1.4951426964104175,-1.908363432061672,0.2910447739865631
1789335397860253700,6.414253662109375,-2.1858166838735342,-1.8388988506913184,0.24701887751631438
1789335397870225700,6.4242255859375,-2.9157494995355604,-1.8158213419646023,0.286198977923207
1789335397880196600,6.434196533203125,-3.5945237903684375,-1.7815271504357457,0.3474175263326615
1789335397890168600,6.44416845703125,-4.173701980939507,-1.681832558235526,0.3923778541088104
1789335397900140500,6.454140625,-4.627755662238598,-1.5370254433721302,0.45663098444119093
1789335397910111700,6.46411181640625,-4.905621001982689,-1.3697899313405155,0.4923119541533291
1789335397920083500,6.47408349609375,-4.9601200694113965,-1.1798629872903228,0.4346456548653543
1789335397930054700,6.4840546875,-4.826697102871537,-1.005047979915142,0.2450511211073026
1789335397940026600,6.494026611328125,-4.6143163349509235,-0.8973127046003937,0.1087075544130057
1789335397949998600,6.50399853515625,-4.37435314809978,-0.8552385267198085,0.09737035050373524
1789335397959969500,6.513969482421875,-4.091739737045764,-0.7871972561508417,0.13637315811496228
1789335397969941500,6.52394140625,-3.759768128582835,-0.7142229130938649,0.1455148247413337
1789335397979913500,6.53391357421875,-3.3615380413144824,-0.6637102849528194,0.16234503657631574
1789335397989884700,6.543884765625,-2.96310278686285,-0.5850181487709284,0.11980258359685539
1789335397999856400,6.5538564453125,-2.7269980290055273,-0.5044438521042466,-0.0450264152823016
1789335398009827600,6.56382763671875,-2.5631682337641712,-0.4343129157796502,-0.16019191366303712
1789335398019799600,6.573799560546875,-2.412256372284889,-0.34755174717158077,-0.13558303065057842
1789335398029771500,6.583771484375,-2.28203950830996,-0.2482207275867462,-0.019546704252064225
1789335398039742500,6.593742431640625,-2.0804431692540644,-0.12672405342310666,0.2443679976813495
1789335398049714700,6.603714599609375,-1.8973259052187204,-0.009218786983191967,0.48674748842660337
1789335398059686700,6.613686767578125,-1.6861907534450291,0.12072393622547388,0.6148840024635195
1789335398069657600,6.62365771484375,-1.353908763858676,0.24179887784570453,0.6906308789737522
1789335398079629600,6.633629638671875,-0.7817547728359698,0.32394583065658805,0.7645832732826471
1789335398089600500,6.6436005859375,-0.12288052973747253,0.3954992009997368,0.7944139095313847
1789335398099572700,6.65357275390625,0.4348275873035192,0.4815133506327867,0.763205262927711
1789335398109544400,6.66354443359375,0.9227227479279041,0.618717589277029,0.5842391272224485
1789335398119515600,6.673515625,1.2354910587489605,0.7952768099710344,0.37431090355310587
1789335398129487600,6.683487548828125,1.4186100763499736,1.0829171092763543,0.22990818650582803
1789335398139459600,6.69345947265625,1.5891291400969028,1.4638792508795857,0.3845486948531121
1789335398149430500,6.703430419921875,1.8784961170643566,1.8690411832377314,0.8768127912767231
1789335398159402500,6.713402587890625,2.7544933541744947,2.1610741645440457,1.7044092778332531
1789335398169373400,6.72337353515625,4.153429008239508,2.1674194419175383,2.622431739115715
1789335398179345700,6.733345703125,5.714942411658168,1.864455901274085,3.280817906436324
1789335398189317600,6.743317626953125,7.049767704862356,1.4334773906141518,3.460871691247821
1789335398199288600,6.75328857421875,7.821388037174939,0.8533040515258907,3.019804625032842
1789335398209260800,6.7632607421875,7.823976300102472,0.15958119788616895,2.052428204125166
1789335398219232500,6.773232421875,7.180771335300803,-0.519590567831695,1.0467248290412128
1789335398229203500,6.783203369140625,6.05608458404839,-1.0651970359295606,0.37055366991143673
1789335398239175700,6.79317578125,4.623526061844825,-1.222222411853075,0.1743696564941667
1789335398249146400,6.803146484375,3.234194686949253,-1.0668307746112347,0.5111275311192497
1789335398259118600,6.81311865234375,2.1350988885492086,-0.7953411073789,1.2217495336443185
1789335398269090300,6.82309033203125,1.5189064338356255,-0.41132717698961496,1.9758317250482738
1789335398279061500,6.8330615234375,1.2816273715019226,-0.18529782294481992,2.7468919392600655
1789335398289033500,6.843033447265625,1.1666665288478135,-0.22226064916104077,3.347439081074297
1789335398299005400,6.85300537109375,0.9802607446610927,-0.386149481113255,3.5198253999978304
1789335398308976400,6.862976318359375,0.5361304914832115,-0.6378489907264709,3.1697745294868946
1789335398318948600,6.872948486328125,-0.31404198401868344,-0.8632149124264716,2.3317606938123703
1789335398328919300,6.882919189453125,-1.3530647142499685,-1.014975207428634,1.4216969364494085
1789335398338891500,6.8928916015625,-2.4158342307716607,-1.120001223784685,0.5792717506060376
1789335398348863500,6.902863525390625,-3.3840392114579676,-1.122067800925672,-0.14975319296345113
1789335398358834400,6.91283447265625,-4.186806961706281,-1.0410925222426652,-0.7005597869876772
1789335398368806700,6.922806640625,-4.775298339545727,-0.9444847901418805,-1.078888146021217
1789335398378778400,6.9327783203125,-5.140483066302537,-0.8144304232522844,-1.2610565848991273
1789335398388749600,6.94274951171875,-5.260542108878493,-0.6667348934710026,-1.3015813413806259
1789335398398721500,6.952721435546875,-5.215012529847026,-0.5295002596884966,-1.2453693325541912
1789335398408692500,6.9626923828125,-4.956113171857595,-0.4106611142963171,-1.1195817562635988
1789335398418664400,6.97266455078125,-4.611853744229674,-0.38459845227897166,-0.9896043270677327
1789335398428636700,6.98263671875,-4.359710874763131,-0.38288492635935545,-0.8883772646032273
1789335398438607400,6.992607421875,-4.112294449296593,-0.35047494114190336,-0.9011611967220902
1789335398448579600,7.00257958984375,-3.822123170208931,-0.23046090675145386,-1.0822495852783323
1789335398458551300,7.01255126953125,-3.531749062025547,-0.14768003995120524,-1.31966893286556
1789335398468522500,7.0225224609375,-3.301756065046787,-0.13834756346046923,-1.509117299618572
1789335398478494500,7.032494384765625,-3.043464609822631,-0.1890066143348813,-1.6032788076110183
1789335398488465700,7.042465576171875,-2.7118910607665776,-0.14517331782728432,-1.668643406316638
1789335398498437400,7.052437255859375,-2.4006179569393393,-0.03564209900647402,-1.673270481595397
1789335398508409600,7.06240966796875,-2.0934329992085696,0.1527206644669175,-1.5948028018191456
1789335398518380300,7.07238037109375,-1.8571277503430843,0.3955380717054009,-1.5402861987337468
1789335398528352500,7.0823525390625,-1.837967122799158,0.6450771884143353,-1.5180001326456665
1789335398538324500,7.092324462890625,-1.9529139369279145,0.9034721040129661,-1.4951188771434127
1789335398548295400,7.10229541015625,-1.9988000743120908,1.1761369525045156,-1.419598648995906
1789335398558267600,7.112267578125,-1.916767103269696,1.3894658149302006,-1.3445910465456545
1789335398568238600,7.122238525390625,-1.6537386826515197,1.5086062813565133,-1.2467707237847148
1789335398578210600,7.13221044921875,-1.075531967461109,1.5795710381567478,-1.129920706383139
1789335398588182500,7.1421826171875,-0.2418640520364046,1.6415665988206862,-1.0094655040964484
1789335398598153500,7.152153564453125,0.6067997724682093,1.653156206588447,-1.0293444359775632
1789335398608125400,7.16212548828125,1.4607336463302374,1.585995225985348,-1.0766498655751346
1789335398618097700,7.17209765625,2.4397084428340197,1.397792329248786,-1.1419549161132425
1789335398628068400,7.182068359375,3.327476197236776,1.187008767391741,-1.2948926573969424
1789335398638040600,7.19204052734375,3.8722809935629368,1.0283613432243466,-1.607245519284904
1789335398648011500,7.202011474609375,3.999133349540829,1.0170651654452085,-1.9714936958439646
1789335398657983500,7.2119833984375,3.6851194225728507,1.2188158182799815,-2.0941315028667447
1789335398667955500,7.22195556640625,3.1796868516921997,1.5945795144572854,-1.9291911160349844
1789335398677926700,7.2319267578125,3.1129175007551906,1.938075994888693,-1.5007869859077037
1789335398687898400,7.2418984375,3.954667015826702,1.9394607272453606,-0.7102701568800955
1789335398697870600,7.25187060546875,5.724571825268864,1.4467302554190158,0.07495206373757682
1789335398707841300,7.26184130859375,7.5773168304830785,0.7137326453588902,0.30660876527801156
1789335398717813500,7.2718134765625,8.92550838573873,-0.20684709919095037,0.09749060674938373
1789335398727784400,7.281784423828125,9.146613727384805,-1.1787057800792158,-0.5492045291224494
1789335398737756400,7.29175634765625,7.722406269419193,-2.0611104000136256,-1.4292784776195884
1789335398747728600,7.301728759765625,5.198012295207381,-2.4415108160808683,-2.059506033556908
1789335398757699600,7.311699462890625,2.570125213295221,-1.9995628753781318,-2.4565683922201393
1789335398767671600,7.321671630859375,0.33145196850299835,-1.142622659306973,-2.8079280072420834
1789335398777642500,7.331642578125,-1.2133248196482658,-0.24314035558253524,-2.9177406733527778
1789335398787614500,7.341614501953125,-1.7046587225496768,0.32809418250769373,-2.417183599554002
1789335398797586400,7.35158642578125,-1.0001789125740528,0.32193332179039713,-1.2959241924017666
1789335398807557600,7.3615576171875,0.6615238808244467,-0.18220643280074,-0.10803427652763202
1789335398817529300,7.371529296875,2.2887200089871884,-0.7759482785142958,0.7211869799528271
1789335398827501600,7.38150146484375,3.574216330876946,-1.210599778598547,1.289181440143287
1789335398837472500,7.391472412109375,4.32384694969952,-1.588352602766454,1.570104560022801
1789335398847444500,7.401444580078125,4.096483716702461,-2.0388075289212164,1.386423086233437
1789335398857415400,7.41141552734375,3.1814339876204727,-2.4566823739886283,0.8593594791073351
1789335398867387600,7.4213876953125,1.9496283393859861,-2.7417189205363393,0.30394345505889503
1789335398877359400,7.431359375,0.729265876185894,-2.828971087531745,-0.14881216751998289
1789335398887330600,7.44133056640625,-0.34016426726877685,-2.7609388770520686,-0.38704358040876685
1789335398897302300,7.45130224609375,-1.1921277178406715,-2.627963654279709,-0.502013483152166
1789335398907274500,7.4612744140625,-1.8865508287042378,-2.540684307016432,-0.520800089751929
1789335398917245400,7.471245361328125,-2.538494395756721,-2.4950398694336413,-0.5414515403755009
1789335398927217400,7.481217529296875,-3.193541189521551,-2.4855218072429297,-0.5657783915761858
1789335398937188400,7.491188232421875,-3.8472657947719093,-2.453219666314125,-0.626593071892485
1789335398947160600,7.50116064453125,-4.527691359943152,-2.411752514415979,-0.6505752013087273
1789335398957132500,7.511132568359375,-5.14711797427237,-2.318320197480917,-0.6010795681905001
1789335398967103500,7.521103515625,-5.61277266151607,-2.1212810833379625,-0.5392143559079617
1789335398977075500,7.531075439453125,-5.847551139205694,-1.8748858176127075,-0.4149932982817292
1789335398987046400,7.54104638671875,-5.828206971788406,-1.6170789310351013,-0.17343619330264626
1789335398997018600,7.5510185546875,-5.534034055843949,-1.3927034816771744,0.10141060233786701
1789335399006990300,7.560990234375,-5.084449044391513,-1.2195885562181472,0.34013664860948917
1789335399016961500,7.57096142578125,-4.5698318810582155,-1.051511040404439,0.4934291216149926
1789335399026933500,7.58093359375,-4.108667490971088,-0.9023045215383172,0.5773415497284382
1789335399036905500,7.590905517578125,-3.746213065961003,-0.7183420388504862,0.604561199761182
1789335399046876400,7.60087646484375,-3.3603649058818816,-0.5274807365596295,0.6371686803121119
1789335399056848600,7.6108486328125,-2.9141058239817617,-0.35479397338479757,0.6567464372895657
1789335399066819300,7.6208193359375,-2.530299983385205,-0.16005875227004288,0.5134467313144355
1789335399076791600,7.63079150390625,-2.320997892257571,-0.033765199218690395,0.28170418725460766
1789335399086763300,7.64076318359375,-2.1984832732230424,0.010084171640872955,0.103389866521582
1789335399096734500,7.650734375,-2.047640385326743,0.01882861911058426,0.061958516589179634
1789335399106706700,7.660706787109375,-1.7062503756552934,0.03935848918110132,0.20634594473578036
1789335399116678400,7.670678466796875,-1.181302372443676,0.10793021336495875,0.45149639803171154
1789335399126649600,7.680649658203125,-0.5701479118973016,0.20385756198614835,0.736680755552277
1789335399136621600,7.69062158203125,0.12708441116809843,0.2993216770097613,1.069517164150998
1789335399146592500,7.700592529296875,0.8601490951150655,0.3570505201399326,1.3777007044650613
1789335399156564500,7.710564453125,1.6463444807469845,0.45525048986822364,1.565683674840629
1789335399166536400,7.720536376953125,2.298588492050767,0.5507254185467958,1.620194140446186
1789335399176507400,7.73050732421875,2.6986200757831336,0.6264639656201004,1.4748060108244418
1789335399186479600,7.740479736328125,2.9920395430117845,0.7612807246059179,1.2429084953986107
1789335399196451300,7.750451416015625,3.2476807759881017,0.9580746318161487,1.1081319953579456
1789335399206422500,7.760422607421875,3.5601819603055715,1.2398369789987802,1.1411851738497614
1789335399216394200,7.770394287109375,3.8658091672003265,1.5882710619628428,1.2974778515845535
1789335399226365400,7.780365478515625,4.143459987410902,1.7712749287515879,1.6209556263379752
1789335399236337200,7.790337158203125,4.650608714559674,1.802239391335845,1.9310181853316724
1789335399246309400,7.800309326171875,5.451092153263092,1.7169994409456848,2.035902455129474
1789335399256280000,7.810280029296875,6.17003595739901,1.4441013682201504,1.8916893606364726
1789335399266252300,7.820252197265625,6.51618163716495,0.9719856682687997,1.4841910942852496
1789335399276223200,7.83022314453125,6.2329644149988885,0.36846477134078737,0.7314439508773386
1789335399286195200,7.8401953125,5.3927814185917375,-0.30407471675574776,-0.015646555008366703
1789335399296167200,7.850167236328125,4.214177199190855,-0.9920938057959079,-0.460415909807384
1789335399306138400,7.860138427734375,3.0006688396692276,-1.3597548595383762,-0.6628809945218265
1789335399316110000,7.870110107421875,1.9748890373706816,-1.3569722430825233,-0.6647523413516581
1789335399326082300,7.880082275390625,1.2941308792442083,-1.1317448530703782,-0.43851171917635945
1789335399336053200,7.89005322265625,0.9641589201658963,-0.8606710731625556,-0.05049268133156001
1789335399346025200,7.900025146484375,0.8860136042118072,-0.6754480690196156,0.4758857200093567
1789335399355996200,7.90999609375,0.9420581475168466,-0.6914554932296275,0.9729597009327262
1789335399365968100,7.919968017578125,0.925097075843811,-0.8392635434746741,1.3821974313624203
1789335399375940400,7.9299404296875,0.685880323445797,-0.9512143906578421,1.5701923844367265
1789335399385911300,7.939911376953125,0.16741116085946559,-0.9809627554506063,1.5597694823607802
1789335399395883300,7.94988330078125,-0.6350619903564453,-0.9117565327554941,1.2931868763923644
1789335399405855200,7.959855224609375,-1.478552211615443,-0.8235182773321866,0.9792536134451627
1789335399415826400,7.969826416015625,-2.3316145633399485,-0.698472678515315,0.7410176157128066
1789335399425798100,7.979798095703125,-3.083602558943629,-0.5509884533971547,0.5460220631614328
1789335399435769300,7.989769287109375,-3.6752789965599773,-0.38962446374744175,0.4146368129942566
1789335399445741000,7.999740966796875,-4.167196252307296,-0.20610767900049684,0.2656994664583355
1789335399455713300,8.00971337890625,-4.509588717019557,-0.05850830307006836,0.12446699521131813
1789335399465684200,8.019684326171875,-4.768237899640202,0.06069470719844103,0.005315203673392534
1789335399475656200,8.02965625,-4.943877375140786,0.16210428662300108,-0.11390475772991776
1789335399485627100,8.039627197265625,-4.963926475957035,0.25292963593006135,-0.23857392444983122
1789335399495599400,8.049599365234375,-4.818580431911349,0.3214423234030604,-0.3381957436747849
1789335399505571300,8.0595712890625,-4.5482039866179225,0.3666623980939388,-0.5272117834251374
1789335399515542300,8.069542236328125,-4.16547191273272,0.40829000125080345,-0.7242707713123411
1789335399525514200,8.07951416015625,-3.7006373097002503,0.39144992560893294,-0.8139651438280939
1789335399535486200,8.089486328125,-3.2747090681672093,0.35579175225049253,-0.8742321271337569
1789335399545457400,8.09945751953125,-2.7540876959830523,0.3814177764162421,-0.8648208132531493
1789335399555429000,8.10942919921875,-2.1702391755133865,0.4450158038407564,-0.8006454973973334
1789335399565400300,8.119400390625,-1.662296667638421,0.5006128956392407,-0.7348626002144069
1789335399575372300,8.129372314453125,-1.299127956879139,0.48132045840919013,-0.6851287013608962
1789335399585344300,8.13934423828125,-1.1469605423808098,0.4405769446104765,-0.7152353780720383
1789335399595315200,8.149315185546875,-1.1432342153340578,0.4344467712923884,-0.75933236701712
1789335399605287400,8.159287353515625,-1.1942056931585072,0.5461430591925979,-0.7803308775126934
1789335399615258000,8.169258056640626,-1.3553583781450986,0.727960346545279,-0.8164264193750917
1789335399625230300,8.179230224609375,-1.500458922997117,0.8992939415454864,-0.7900339408814907
1789335399635202000,8.1892021484375,-1.4737000954091548,1.0347399383455513,-0.6149013919897377
1789335399645173200,8.19917333984375,-1.3856822047382593,1.1596019972890614,-0.3735477006282657
1789335399655145200,8.209145263671875,-1.2388596583992242,1.2815741800099612,-0.1309759387139231
1789335399665117200,8.2191171875,-0.9660697222232818,1.444104290829599,0.006328947293199599
1789335399675088100,8.229088134765625,-0.6286041925191879,1.5058511374294756,0.022844357557967303
1789335399685060400,8.239060302734375,-0.3523316749244928,1.4261670676007867,-0.05941544451024383
1789335399695031000,8.249031005859376,-0.13903671476840973,1.2908154710859059,-0.17354798311404881
1789335399705003300,8.259003173828125,0.03887479731738567,1.2045222122505306,-0.3152289653135463
1789335399714975200,8.268975341796875,0.2603910578519106,1.2149015674456953,-0.42116409587115045
1789335399724946200,8.2789462890625,0.6305009660512209,1.293720837138593,-0.5083302650835365
1789335399734918400,8.28891845703125,1.004016298779845,1.3847396631911397,-0.5570844321846962
1789335399744889300,8.298889404296874,1.2615712564229964,1.452625158676505,-0.481843715098314
1789335399754861300,8.308861328125,1.3154840483963488,1.5655258539304135,-0.385153090487048
1789335399764833300,8.318833251953125,1.3946955322772263,1.6093080047726631,-0.02018509348714724
1789335399774804500,8.328804443359376,1.5920803911179304,1.5773729435905812,0.4978980106573552
1789335399784776200,8.338776123046875,2.150508639127016,1.4006098708875476,1.0142458702407777
1789335399794748400,8.34874853515625,3.296252791455388,0.9024290247008204,1.2732982268348336
1789335399804719000,8.358718994140625,4.771283258685469,0.2229299267247319,1.3175098551355302
1789335399814691300,8.36869140625,6.0498167558252804,-0.4369890031211078,0.9824769594058393
1789335399824662300,8.378662353515624,6.7077966804325575,-1.1240051987290383,0.3509651358116418
1789335399834634200,8.38863427734375,6.360306015798449,-1.793993102646619,-0.39884894981905816
1789335399844606200,8.398606201171875,5.115238150408864,-2.2521093572095037,-1.2484379263445735
1789335399854577400,8.408577392578126,3.458146065676212,-2.2504417162582278,-1.987367118410766
1789335399864549000,8.418549072265625,1.8929525124400852,-1.8848143603004515,-2.572825996686518
1789335399874520300,8.428520263671874,0.7462444835156202,-1.47490304145813,-2.722527897854149
1789335399884492000,8.438491943359375,0.32291677986979483,-1.2473903169877827,-2.3063094416916368
1789335399894464300,8.44846435546875,0.7553162632435559,-1.2124972827829419,-1.4805641359597443
1789335399904435200,8.458435302734374,1.875079002097249,-1.4577595989555119,-0.5444586863022297
1789335399914407200,8.4684072265625,3.0437609624207016,-1.824793606840819,0.20504903679303824
1789335399924379400,8.47837939453125,3.7365555952996012,-2.0302495439343153,0.6433557714492082
1789335399934350300,8.488350341796876,3.9871798768967386,-2.233453902708739,0.7111014200724661
1789335399944322300,8.498322265625,3.8409208096593614,-2.439938306067139,0.3953401379805058
1789335399954293200,8.508293212890624,3.337701823174953,-2.633502583706379,-0.1935142279524356
1789335399964265500,8.518265380859376,2.496768885183334,-2.838570982787013,-0.8529450089551508
1789335399974237200,8.5282373046875,1.4910019433438777,-2.9625805165544152,-1.411247292497009
1789335399984208400,8.53820849609375,0.5053834710419177,-2.9348168958380816,-1.753285536944121
1789335399994180000,8.54818017578125,-0.41959436233639713,-2.8050167959704995,-1.9239596451222896
1789335400004151300,8.5581513671875,-1.2475514988988636,-2.6696897493749856,-1.9792000324375927
1789335400014123300,8.568123291015626,-2.100805573803186,-2.6449986679717896,-1.899197982700914
1789335400024095200,8.57809521484375,-2.8782793083190916,-2.6095716730207204,-1.6955360894173384
1789335400034066200,8.588066162109374,-3.500943004873395,-2.4760309253200887,-1.4313073530986904
1789335400044038400,8.598038330078126,-3.965364935451746,-2.2144620558604595,-1.1064292100280522
1789335400054009000,8.608009033203125,-4.315007225161791,-1.916534171296656,-0.7595440370064228
1789335400063981300,8.617981201171874,-4.599565925064683,-1.629776500044763,-0.48114904736503955
1789335400073953000,8.627953125,-4.793337269583344,-1.3274255383417009,-0.24139321965426205
1789335400083924200,8.63792431640625,-4.871952541136741,-1.0413722159668803,-0.031098318096995353
1789335400093896200,8.647896240234376,-4.946061148920655,-0.7985776050820946,0.09265636412650347
1789335400103867400,8.657867431640625,-4.9865691003978245,-0.5956590775117278,0.17439751261547207
1789335400113839000,8.667839111328124,-4.855467270281911,-0.3636515258401632,0.277280671723932
1789335400123811300,8.677811279296876,-4.656252273404598,-0.11607786398530005,0.39758156023174523
1789335400133782300,8.6877822265625,-4.413478705307841,0.11841039858609437,0.4577737247355282
1789335400143754200,8.697754150390624,-4.191559709191322,0.3044511488527059,0.46416035703271624
1789335400153726500,8.7077265625,-3.8816649079799648,0.4501031901076436,0.3787098326317966
1789335400163697200,8.717697265625,-3.5377906802773476,0.5203416784599423,0.16549100645184517
1789335400173669400,8.72766943359375,-3.1251819390445945,0.4614131041511893,-0.023711861107498407
1789335400183640300,8.737640380859375,-2.6856933741927147,0.36692806329280137,-0.15549378244206308
1789335400193612300,8.7476123046875,-2.3151690399736164,0.3223562233775854,-0.2526527186848223
1789335400203584300,8.757584228515626,-1.904051998603344,0.3288262961745262,-0.18835954860299825
1789335400213555500,8.767555419921875,-1.302820381656289,0.3724786831572652,0.019442805486172436
1789335400223527700,8.777527587890624,-0.5730652606487274,0.41587855668365953,0.4383665750846267
1789335400233498600,8.78749853515625,0.25175650049746034,0.4272124361246824,0.9437588139548897
1789335400243470600,8.797470703125,1.2959557565838098,0.5268272410869598,1.4446261227466166
1789335400253442600,8.807442626953126,2.426854221957922,0.5647054285824299,1.8955539271101354
1789335400263413800,8.817413818359375,3.377726959571242,0.5850307159915566,2.0425437928400934
1789335400273385500,8.827385498046874,4.116694145560264,0.6004195699118078,1.9148181611590087
1789335400283356700,8.837356689453125,4.532595498597622,0.6347784972399473,1.5924254051633178
1789335400293328600,8.84732861328125,4.5671308054059745,0.7187297229938209,1.2765705265037715
1789335400303300600,8.857300537109374,4.246804042029381,0.8544843473516404,1.1495591805718839
1789335400313271600,8.867271484375,4.047912285757064,1.0322266403503715,1.1895515837423503
1789335400323243500,8.877243408203125,4.225964667618275,1.072660942069441,1.4392697102800012
1789335400333215700,8.8872158203125,4.794540800154209,0.9509769286401569,1.720419186261296
1789335400343186700,8.897186767578125,5.459309946510196,0.7311154495753347,1.7956261106759308
1789335400353158700,8.90715869140625,5.836980645352602,0.4375865306228399,1.539479412395507
1789335400363129600,8.917129638671875,5.996067045459151,0.07864661653973162,0.9571067366320639
1789335400373101800,8.927101806640625,5.8610173545002935,-0.25358378898985684,0.1605260044556111
1789335400383073500,8.937073486328124,5.378765168198943,-0.6112918962556868,-0.5537719466358423
1789335400393044700,8.947044677734375,4.603252504622936,-0.8770438235536218,-0.8464009941391646
1789335400403016400,8.957016357421875,3.5990766313672062,-0.9100892571303993,-0.5944891569495201
1789335400412987600,8.966987548828126,2.620691617450118,-0.7252256608843803,-0.040501083344966174
1789335400422959600,8.976959716796875,1.928762661489844,-0.59392976950109,0.733029977959767
1789335400432931600,8.986931640625,1.561205944904685,-0.47431525582224127,1.6065948002912103
1789335400442902500,8.996902587890625,1.6035679998159407,-0.35699396764710545,2.433292876703292
1789335400452874800,9.006874755859375,1.8564426906883715,-0.358497942469269,3.1899200764149427
1789335400462845400,9.016845458984376,1.91334706569314,-0.3862383284404874,3.55848743134737
1789335400472817700,9.026817626953125,1.539409123638272,-0.4574678736567497,3.298139628115296
1789335400482789600,9.03678955078125,0.5847738186210394,-0.6100871235758066,2.5019220301628113
1789335400492760600,9.046760498046876,-0.6025011984914541,-0.6928435865871608,1.5328195161148905
1789335400502732500,9.056732666015625,-1.6745353869646786,-0.7777249327979981,0.6752542269479483
1789335400512704500,9.06670458984375,-2.6886644989579915,-0.8178880163602531,-0.09049443685226143
1789335400522675500,9.076675537109375,-3.5210774458855387,-0.835682031726092,-0.5592699595302343
1789335400532647700,9.086647705078125,-4.123419654422999,-0.7750503067612647,-0.7041410064753144
1789335400542618600,9.09661865234375,-4.51297894397974,-0.6908908450841903,-0.6749116240553558
1789335400552590600,9.106590576171875,-4.778888472992182,-0.5403751433156431,-0.5745035498235375
1789335400562562800,9.116562744140625,-4.9450809057116505,-0.40324250860288735,-0.44889184155650436
1789335400572533500,9.126533447265626,-5.029866974854469,-0.28657807690128684,-0.3409413891211152
1789335400582505700,9.136505615234375,-5.06438591504991,-0.19224413495138287,-0.22980353882126509
1789335400592476700,9.1464765625,-5.033679811140894,-0.0906023542061448,-0.13340206988230346
1789335400602448600,9.15644873046875,-4.948075411352515,-0.00371785147935152,-0.10485928148701787
1789335400612420600,9.166420654296875,-4.742008064362406,0.06489435084536671,-0.18120821554362773
1789335400622391800,9.176391845703124,-4.335267922902107,0.15888766266405582,-0.3462158954579383
1789335400632363500,9.186363525390625,-3.9099358936965465,0.1850844724550843,-0.6413428241916
1789335400642334700,9.196334716796875,-3.570635549780726,0.19082447741180658,-0.8950634643688797
1789335400652306400,9.206306396484376,-3.2202398113548756,0.171116152857244,-0.9753658122263849
1789335400662278700,9.216278564453125,-2.905302924323082,0.2360264319241047,-0.9150665340863168
1789335400672249600,9.22624951171875,-2.6639298706740138,0.3553406474821269,-0.9570494534868746
1789335400682221600,9.2362216796875,-2.460226330205798,0.485036702453345,-1.076396694531664
1789335400692192500,9.246192626953125,-2.2523984032839537,0.6246468331955373,-1.0993223736975342
1789335400702164700,9.256164794921874,-2.0242022265940904,0.783154264370352,-1.1024004659686237
1789335400712136400,9.266136474609375,-1.7634663008272646,0.9406189084939658,-1.0872383334763347
1789335400722107600,9.276107666015625,-1.4687860198825597,1.058949519842118,-1.0380329885415733
1789335400732079900,9.286079833984376,-1.0988532218158245,1.1578567610569297,-0.9307975525077432
1789335400742051600,9.296051513671875,-0.6745002667754888,1.2311590208940206,-0.7528579833712429
1789335400752022800,9.306022705078124,-0.14720307008922098,1.32864441261217,-0.5497120037205517
1789335400761994500,9.315994384765625,0.43524084427952764,1.3908360803700983,-0.3912678470402956
1789335400771965700,9.325965576171875,1.033618240839243,1.3977819539852439,-0.24945962173193692
1789335400781937700,9.335937744140624,1.6756904022186994,1.367654819007963,-0.18303038946948944
1789335400791909600,9.34590966796875,2.3045009309649465,1.3030148813150821,-0.19164098142646252
1789335400801880600,9.355880615234375,2.8597113859713077,1.2275808701463042,-0.3556037553977221
1789335400811852800,9.365852783203126,3.4389158800274133,1.1099104762725531,-0.5786274248205125
1789335400821823500,9.375823486328125,3.928844592306018,1.0363920894667507,-0.8403207243774086
1789335400831795700,9.385795654296874,4.2523248512774705,0.9755014213047921,-1.1676851313058285
1789335400841767400,9.395767333984375,4.3591041410416365,0.9840063609302043,-1.5165601629704235
1789335400851738600,9.405738525390625,4.186019026198983,1.123547371958941,-1.694226614253968
1789335400861710600,9.415710693359374,3.851366215828061,1.2681187783703207,-1.6823017831824718
1789335400871681800,9.425681884765625,3.7951591754376888,1.3037301899775862,-1.4406329614572226
1789335400881653500,9.435653564453125,4.299765816888213,1.0268478699214756,-0.99424396956712
1789335400891625700,9.445625732421876,5.103811331987381,0.4951454240135848,-0.5187358141658828
1789335400901596700,9.4555966796875,5.738342576467991,0.03156593560874462,-0.4545314548786729
1789335400911568600,9.465568603515624,6.067806001502275,-0.3856377321988344,-0.7729808070108294
1789335400921540900,9.475540771484376,5.687912365913391,-0.9482029338821768,-1.172882480753213
1789335400931511600,9.485511474609375,4.406398391658067,-1.4828189291492104,-1.5573007541596888
1789335400941483800,9.49548388671875,2.6373265259087084,-1.5358699897266923,-1.880633129093051
1789335400951454700,9.505454833984375,0.916266119134426,-1.267662120644003,-2.220933005440235
1789335400961426700,9.5154267578125,-0.5522036744058132,-1.0033369382135569,-2.3107642291434107
1789335400971398700,9.525398681640626,-1.4995739568561315,-0.6454597579911351,-2.247303272102028
1789335400981369900,9.535369873046875,-1.776951805344224,-0.38523178174644707,-1.8441789830513298
1789335400991341600,9.545341552734374,-1.3247078038156033,-0.4321745885767042,-0.9888969094507396
1789335401001312800,9.555312744140625,-0.08573767077922821,-0.7068200894914567,-0.07041895948573947
1789335401011284500,9.565284423828125,1.3452350435376166,-0.9345926339417695,0.7555607395239174
1789335401021256700,9.575256591796874,2.533701900783181,-1.121034658485651,1.4048309957139193
1789335401031227600,9.5852275390625,3.2338609249502417,-1.4003173176817596,1.6991969500124453
1789335401041199600,9.59519970703125,3.2064497709333897,-1.7874615089207886,1.5351162487499415
1789335401051170600,9.605170654296876,2.524717799338698,-2.1750679108440876,0.9812135884065181
1789335401061142800,9.615142822265625,1.556703957310319,-2.385877776186168,0.41379035223275423
1789335401071114500,9.625114501953124,0.5296148259788751,-2.3338488982632755,-0.021697233349457383
1789335401081085700,9.635085693359375,-0.22493396002352237,-2.1505432720489797,-0.2919616696357727
1789335401091057700,9.6450576171875,-0.6692448304653167,-1.992720608267933,-0.37661746346242725
1789335401101028600,9.655028564453126,-1.0154302577197551,-1.8866387992486358,-0.36831871393360194
1789335401111000600,9.66500048828125,-1.4248638760477303,-1.811403525522351,-0.3857168618496507
1789335401120972500,9.67497265625,-1.8754045807898043,-1.6893628076098859,-0.4734817276075482
1789335401130943500,9.684943603515626,-2.4174907658070324,-1.581757296154648,-0.5411146365713327
1789335401140915700,9.694915771484375,-2.995530307736993,-1.4720149188011884,-0.5745449047472327
1789335401150887700,9.7048876953125,-3.498105735620856,-1.281340955775976,-0.6003206395819782
1789335401160858600,9.714858642578125,-3.8638364058226347,-1.0452490574002264,-0.554586989345774
1789335401170830800,9.724830810546875,-4.082505460232496,-0.7303694535136223,-0.35888431143835187
1789335401180801500,9.734801513671876,-4.094988509708643,-0.44348172614127396,-0.011242109504342079
1789335401190773800,9.744773681640625,-3.967710621795058,-0.17315379616469143,0.28396522752176967
1789335401200745500,9.754745361328125,-3.7745962798804045,0.07528261999934911,0.48943698323890567
1789335401210716700,9.764716552734376,-3.560702769309282,0.25146482407450677,0.599157806347683
1789335401220688100,9.774688232421875,-3.375733155405521,0.33787206467837094,0.609160181456618
1789335401230659000,9.7846591796875,-3.086431644889712,0.40817455817759035,0.5243750986944884
1789335401240631000,9.794631103515625,-2.7930191919237375,0.42367140251696106,0.38826070111356675
1789335401250603300,9.804603271484375,-2.6458921096801755,0.3727537007063627,0.22183909928072243
1789335401260574200,9.81457421875,-2.538027362766862,0.30077070677429435,0.009817081669904292
1789335401270546200,9.824546142578125,-2.458294485360384,0.23459113842397927,-0.14287406444158404
1789335401280517000,9.83451708984375,-2.3688369172751904,0.193673437102139,-0.1836950639232993
1789335401290489000,9.844489013671875,-2.2035656910538672,0.19317834706157444,-0.11032627818863838
1789335401300461000,9.8544609375,-1.8565040654867886,0.21105010383874176,0.02907126924879849
1789335401310432300,9.864432373046874,-1.4707541050851345,0.20582623171061276,0.24770532541051504
1789335401320404000,9.874404052734375,-1.060138583496213,0.12420242599099873,0.5413265988215804
1789335401330376200,9.884376220703125,-0.5397352379769087,0.030849019511044025,0.9014764001511036
1789335401340347100,9.89434716796875,-0.003887655088305473,-0.0796294170320034,1.2072699035234749
1789335401350319000,9.904319091796875,0.5307487984448671,-0.19810966598391533,1.4324921789690852
1789335401360290000,9.9142900390625,1.039621280646324,-0.26624387553334233,1.4615614754565058
1789335401370262300,9.92426220703125,1.4672510654002426,-0.2718570392400026,1.3541909418009221
1789335401380234200,9.934234130859375,1.8755530493497847,-0.17185674209147692,1.2050791885461658
1789335401390205200,9.944205078125,2.30719849948585,0.0037839024528861045,1.137096150970459
1789335401400177200,9.95417724609375,2.7484716096669435,0.187002288775146,1.1197400886304676
1789335401410148000,9.964148193359375,3.1286031456649304,0.4320893945112824,1.164536311886087
1789335401420120300,9.974120361328126,3.34166195897758,0.6156719379708171,1.4210314582780004
1789335401430092000,9.984092041015625,3.418143725633621,0.6457286380603909,1.8033353698790073
1789335401440063200,9.994063232421874,3.5466280667275187,0.6654511372707784,2.0625848564803597
1789335401450035200,10.00403515625,3.859428526252508,0.6581431523449719,2.178383026741445
1789335401460007200,10.014007080078125,4.306964788481593,0.5676520034283399,2.1020693101286887
1789335401469978000,10.02397802734375,4.653990173691511,0.3101378161869943,1.857701604708284
1789335401479950000,10.0339501953125,4.550908569401503,0.017714228127896785,1.3233984747827052
1789335401489921000,10.043921142578125,4.034896736839413,-0.2617817815579474,0.6969703111283481
1789335401499893200,10.053893310546876,3.2429028940618037,-0.6542838465683162,0.42560690062418577
1789335401509865000,10.063864990234375,2.22942786206305,-0.8867869266718625,0.4961842290094122
1789335401519836200,10.073836181640624,1.2816875772565604,-0.7779251315452158,0.6623049481995403
1789335401529808100,10.08380810546875,0.4745511104047298,-0.5556137751102447,0.8547541042037308
1789335401539779000,10.093779052734375,-0.18785247586369513,-0.35211247921586036,1.0911076491903513
1789335401549751000,10.1037509765625,-0.5898235032260417,-0.19518939462304113,1.3106354393213986
1789335401559723300,10.11372314453125,-0.644883711668849,-0.15370266124159096,1.5265598711982369
1789335401569694000,10.12369384765625,-0.3730085522502661,-0.33343145188242196,1.7176362775444984
1789335401579666200,10.133666259765626,0.03544716095626354,-0.5818403955176472,1.7444469814501702
1789335401589637000,10.14363720703125,0.09366846377849579,-0.7423626736462116,1.4414203124426304
1789335401599609000,10.153609130859374,-0.2550999657064676,-0.8248284831479191,0.8181938674390316
1789335401609581300,10.163581298828126,-0.8254197270393371,-0.8637205238610506,0.18046579967848955
1789335401619552300,10.17355224609375,-1.4144383436232804,-0.8696089973777532,-0.26938728812560436
1789335401629524200,10.183524169921874,-1.9917729521542786,-0.832551770876348,-0.5965240237779915
1789335401639496200,10.19349609375,-2.599670456731319,-0.8329410624548792,-0.7707346355192363
1789335401649467100,10.203467041015625,-3.170671770587563,-0.7360469146281481,-0.9586972206939012
1789335401659439000,10.213439208984376,-3.622990590918064,-0.6071048928946257,-1.1004168909359722
1789335401669410300,10.223410400390625,-3.90828754196763,-0.4873790277957916,-1.1636308144137262
1789335401679382000,10.233382080078124,-4.063426081231237,-0.3938642932742834,-1.173873245356232
1789335401689354200,10.243354248046876,-4.1878713760674,-0.29707448260486125,-1.1316264143224806
1789335401699325200,10.2533251953125,-4.226813393402099,-0.19541823494285343,-1.0596052072718738
1789335401709297200,10.263297119140624,-4.254119918000698,-0.07739771245718002,-1.028621455465257
1789335401719268000,10.27326806640625,-4.198175912460685,0.043025194995105265,-0.9856617269217968
1789335401729240000,10.283239990234375,-3.964437299212813,0.14423282210677862,-0.9130036832723766
1789335401739212000,10.2932119140625,-3.4987674143999814,0.2453068859666586,-0.8717060427222401
1789335401749183200,10.303183349609375,-2.9614012436419723,0.3117027274161577,-0.8909712996844201
1789335401759155000,10.313155029296874,-2.4899206267237664,0.31734131782501934,-0.8993877573087811
1789335401769126100,10.323126220703125,-2.125535525912046,0.3246776520624757,-0.8443967416446655
1789335401779098000,10.33309814453125,-1.817414748635888,0.36171646612435576,-0.7857817633297294
1789335401789070000,10.343070068359374,-1.5263415522724388,0.4378445970371365,-0.7480377966731786
1789335401799041000,10.353041015625,-1.3068570898264646,0.5547229637503623,-0.728827484768629
1789335401809013200,10.36301318359375,-1.2015011108636855,0.6832470523327588,-0.7143126372039318
1789335401818985200,10.372985107421876,-1.1902613394469022,0.7940528211340308,-0.6907048940580338
1789335401828956200,10.3829560546875,-1.203126666238904,0.8793415791019796,-0.7389153096713126
1789335401838928100,10.39292822265625,-1.1040811855971813,1.015491924779117,-0.7377702312894165
1789335401848899000,10.402899169921875,-0.8732833019763231,1.1763716380432248,-0.6443055464547127
1789335401858871300,10.412871337890625,-0.6475111375629902,1.3229974927663801,-0.5191226580590009
1789335401868843000,10.422843017578124,-0.44938393592238424,1.4407093876942991,-0.46811837394349276
1789335401878814200,10.432814208984375,-0.06135492467284202,1.494834361113608,-0.5069378608770668
1789335401888786200,10.4427861328125,0.5447954439759254,1.4617387317195534,-0.5098417656250298
1789335401898757000,10.452757080078126,1.2019856795102357,1.3715849980637431,-0.553265166157484
1789335401908729000,10.46272900390625,1.8297341319829223,1.2405407433539628,-0.7238602908153087
1789335401918701000,10.472701171875,2.502970662432909,1.1073917714498938,-1.0385735251590609
1789335401928672000,10.482672119140625,3.059367112353444,1.020161962416768,-1.3504171223506332
1789335401938644200,10.492644287109375,3.3312580538630483,1.0148168019965291,-1.5923174147441983
1789335401948616000,10.502615966796874,3.1339386614739895,1.2152312377914785,-1.8093924779608845
1789335401958587100,10.512587158203125,2.666078573140502,1.5484529924459753,-1.9758511604011058
1789335401968559000,10.52255908203125,2.2345897748708725,1.812791180488467,-1.979883923048526
1789335401978530000,10.532530029296876,2.111702815392613,1.9356760941401123,-1.8121210261419414
1789335401988502000,10.542501953125,2.67717805930376,1.8187768307693302,-1.4870014755308627
1789335401998474200,10.55247412109375,4.221649142506719,1.3137795825660228,-1.0018046140797436
1789335402008445000,10.56244482421875,5.787861517396569,0.6731111505046486,-0.4190541545124724
1789335402018417200,10.572417236328125,6.976682594907284,0.0871735488012433,-0.2416116116452962
1789335402028388000,10.58238818359375,7.301161217266321,-0.6209120305813849,-0.21555939795672893
1789335402038360000,10.592360107421875,6.343717284569144,-1.1193991662383078,-0.5667737227564678
1789335402048332300,10.602332275390625,4.431775409498811,-1.1207388904094695,-0.9825365806385874
1789335402058303200,10.61230322265625,2.546502930167317,-0.769937786053121,-1.274715838547796
1789335402068275200,10.622275146484375,0.8373620937675237,-0.44174818034693597,-1.5492334752991794
1789335402078247200,10.6322470703125,-0.4607195689290762,-0.20323855330497026,-1.6342679662451147
1789335402088218000,10.642218017578125,-1.0352151546418666,-0.22347835438773034,-1.3392552384756504
1789335402098190000,10.652190185546875,-0.8811468749582767,-0.5800922366760671,-0.7004083227530121
1789335402108161300,10.662161376953126,-0.012419921112060545,-1.1785844917871058,0.1283471976455301
1789335402118133000,10.672133056640625,1.2362462610304354,-1.5849289119280874,0.732397159948945
1789335402128105200,10.682105224609375,2.412938509330153,-1.8054935708262025,1.2484404105626046
1789335402138076200,10.692076171875,3.3461873274475336,-2.1471017532929775,1.5947624698087572
1789335402148048100,10.702048095703125,3.7731881666481493,-2.5689701980412005,1.59670629735291
1789335402158019000,10.71201904296875,3.701223585155606,-2.902175147691369,1.2642293697163463
1789335402167991000,10.721990966796875,3.1723031711816785,-3.100678781428933,0.6761527101576328
1789335402177963000,10.731962890625,2.2710241932988167,-3.1680367459088563,0.008029431068152189
1789335402187934200,10.741934326171876,1.1414572687894105,-3.0368659422099586,-0.5493030575934797
1789335402197906000,10.751906005859375,0.08272621400356292,-2.8071277967751023,-0.8198232222065329
1789335402207878100,10.761878173828125,-0.8074111921399831,-2.577200850769877,-0.752998049429059
1789335402217849300,10.771849365234376,-1.5173042593359947,-2.3490783238381145,-0.572330041709356
1789335402227821000,10.781821044921875,-2.165494611334801,-2.132994902007282,-0.35177035124730316
1789335402237792300,10.791792236328124,-2.7442133677005764,-1.9072721296936272,-0.11976093641221523
1789335402247764200,10.80176416015625,-3.285242152619362,-1.6739257306337356,0.13106800091154872
1789335402257736200,10.811736083984375,-3.8172617016524075,-1.4505901457175612,0.36630273446869105
1789335402267707100,10.82170703125,-4.268552932500839,-1.1922399460434914,0.6596279840752483
1789335402277679000,10.83167919921875,-4.629738360488415,-0.8919885869681835,0.8665197991907596
1789335402287650000,10.841650146484374,-4.952978965485095,-0.6045756666779518,0.925584713230282
1789335402297622300,10.851622314453126,-5.162905325990915,-0.34788317108303307,0.8251996545478701
1789335402307594200,10.86159423828125,-5.231402523633838,-0.13157207797616718,0.607319923884794
1789335402317565200,10.871565185546874,-5.149823726099729,0.0037549686193466183,0.4177266687683761
1789335402327537400,10.881537353515625,-4.864138652515411,0.13193681963533163,0.2749765595000237
1789335402337509000,10.891509033203125,-4.513796690103411,0.216950560054183,0.19324702838361263
1789335402347480300,10.901480224609376,-4.141228282836079,0.2984992547109723,0.22940043791308998
1789335402357452000,10.9114521484375,-3.8222090949267145,0.41331864306777716,0.16212569473721086
1789335402367423200,10.92142333984375,-3.5337264995783566,0.5051905788183212,0.05544621208570897
1789335402377395200,10.931395263671876,-3.286165112683177,0.5685477832242846,-0.09622355508878827
1789335402387367200,10.9413671875,-3.0459739622950552,0.5683078369885682,-0.17683701472207902
1789335402397338000,10.951338134765624,-2.7531267419964074,0.5062538241356611,-0.14297482140231876
1789335402407310300,10.961310302734375,-2.355172549059987,0.47554041370302436,0.039950975181534884
1789335402417281000,10.971281005859375,-1.7773919503271578,0.48925505080074067,0.3473879714446142
1789335402427253200,10.981253173828126,-1.0652069728016853,0.506936545702815,0.688225936723873
1789335402437225200,10.99122509765625,-0.2872814028650522,0.48760143837481734,1.0268357410922646
1789335402447196200,11.001196044921874,0.5495177963227034,0.4333393945723772,1.340126029960811
1789335402457168100,11.011168212890626,1.371104228809476,0.4569458956092596,1.5273543825767932
1789335402467140000,11.02114013671875,2.1184078659892083,0.43929596488922834,1.5599227732263505
1789335402477111000,11.031111083984374,2.7296979356139897,0.4768105797693133,1.4700745983883738
1789335402487083300,11.041083251953125,3.0668057379215954,0.5507125590652228,1.3223428282499312
1789335402497054200,11.05105419921875,3.207827489027381,0.7114093169778585,1.1595577197559177
1789335402507026200,11.061026123046876,3.261177386420965,0.9932020592987537,1.1486908733047545
1789335402516998400,11.070998291015625,3.3408144022375343,1.2030655837014317,1.3904147862181067
1789335402526969000,11.080968994140624,3.6869524832189082,1.2259437704637646,1.7966953473426401
1789335402536941300,11.09094140625,4.328793758451939,1.05735114473477,2.2464047158271074
1789335402546912300,11.100912353515625,5.007385093933344,0.7131584987327456,2.5074454697594044
1789335402556884200,11.11088427734375,5.561843853789568,0.24449936897605656,2.428493513597548
1789335402566856200,11.120856201171875,5.864146884697675,-0.19901538265198468,1.9377163677960634
1789335402576827400,11.130827392578125,5.9496069075793026,-0.7478197700083256,1.2111916800770908
1789335402586799000,11.140799072265626,5.648582810565829,-1.2915301952265201,0.46659551175776864
1789335402596771300,11.150771240234375,4.938055537119507,-1.7887673308223484,0.06630220834929496
1789335402606742000,11.160741943359374,3.76645388995707,-2.1878866220153865,0.2910854347905144
1789335402616714200,11.17071435546875,2.3983465048760175,-2.12131834660843,0.7225707624614238
1789335402626685200,11.180685302734375,1.11881698243618,-1.8008314242340624,1.192259235265851
1789335402636657200,11.1906572265625,0.07967150260806083,-1.3905693922579287,1.7331401361465453
1789335402646629000,11.200629150390625,-0.46573009056746956,-0.9578767711564898,2.3152122945934535
1789335402656600300,11.210600341796875,-0.5127203898012638,-0.5847518990501761,2.910963434302807
1789335402666572000,11.220572021484376,-0.3238818255096674,-0.3967833955913782,3.237499573713541
1789335402676544300,11.230544189453125,-0.21415186924636362,-0.44924978814870115,3.078305621579289
1789335402686515200,11.24051513671875,-0.43612814850807186,-0.6294225231647491,2.3819823761828243
1789335402696487200,11.250487060546876,-1.0261252547353505,-0.7175634556934237,1.3815595718502998
1789335402706458000,11.2604580078125,-1.6635083815157412,-0.7250371525749564,0.49153205582201476
1789335402716430000,11.27043017578125,-2.2153426380872725,-0.7110220712259412,-0.1628030825421214
1789335402726402300,11.28040234375,-2.785268431666493,-0.6549941867947578,-0.667738736751303
1789335402736373200,11.290373291015625,-3.3082653008103367,-0.5863999585181474,-1.0126198034089058
1789335402746345200,11.30034521484375,-3.7045781562805176,-0.48140813669264315,-1.2203763455949723
1789335402756316200,11.310316162109375,-3.9825814431905746,-0.3200757112249732,-1.3214844578549265
1789335402766288400,11.320288330078125,-4.156471444675326,-0.19889321757704018,-1.3010986724302172
1789335402776260000,11.330260009765626,-4.260450290066004,-0.07195142975002526,-1.2668727238319812
1789335402786231300,11.340231201171875,-4.290542061468958,0.048185646498203276,-1.2433547778613865
1789335402796203300,11.350203369140624,-4.235038200911879,0.18494184911400077,-1.2240123640097678
1789335402806175200,11.36017529296875,-4.160083789953589,0.30097704300135375,-1.243815527240932
1789335402816146200,11.370146240234375,-4.034069638365507,0.38480858789831396,-1.3679467876918614
1789335402826118100,11.3801181640625,-3.8313498482376334,0.4477668561145663,-1.5205267285138369
1789335402836089000,11.390089111328125,-3.47920580483973,0.4608323816537857,-1.7651178674265742
1789335402846061300,11.400061279296875,-3.0469010140120982,0.45358489474356173,-1.9373709153592584
1789335402856033300,11.410033203125,-2.6197031909346578,0.4459291192933917,-2.041739052328467
1789335402866004200,11.420004150390625,-2.175975088816881,0.45921617862880226,-2.1131886700361964
1789335402875976400,11.4299765625,-1.8452520191103219,0.517874996085465,-2.1532810264497995
1789335402885947100,11.439947021484375,-1.6197615942478178,0.6106269295409321,-2.172298592261225
1789335402895919400,11.44991943359375,-1.5172060596585273,0.7917721628509461,-2.157183586846292
1789335402905891000,11.45989111328125,-1.4802765511900187,1.0432865251556038,-2.084146115425229
1789335402915862300,11.4698623046875,-1.3820821344196796,1.2918204103447497,-2.01139009129405
1789335402925834200,11.479834228515625,-1.2385995461583137,1.4783420759961008,-1.9681420473285018
1789335402935806200,11.48980615234375,-1.0672165590584277,1.5508920561611652,-1.9832925624482332
1789335402945777200,11.499777099609375,-0.6145172149777413,1.5493945110797882,-1.9748630261465905
1789335402955749400,11.509749267578124,0.17349428016543386,1.4243451128706335,-1.8745128926470875
1789335402965720000,11.519719970703125,1.140202884814143,1.2563264876373113,-1.6155309709407388
1789335402975692300,11.5296923828125,2.41264624838531,1.1405421997711063,-1.3995403419598935
1789335402985664300,11.539664306640624,3.7474189346194264,0.8886750785060227,-1.2287317937470972
1789335402995635200,11.54963525390625,5.003609082525968,0.44832799712866545,-1.0964068515770136
1789335403005607200,11.559607177734375,5.809826680967212,0.14753303269594906,-1.2222961346764116
1789335403015579100,11.5695791015625,5.779148049587011,-0.03934709100425243,-1.5079432874031364
1789335403025550000,11.579550048828125,4.883807229581475,-0.0011221358977258206,-1.7098517611481248
1789335403035522300,11.589522216796874,3.832980664309859,0.4040172923676669,-1.772581627435982
1789335403045493200,11.5994931640625,2.9136680170863865,0.9133404409460723,-1.7753785646781324
1789335403055465200,11.60946533203125,2.1780986568421126,1.378983876143396,-1.5889038069084285
1789335403065437400,11.6194375,1.9090496607601641,1.7568704096935688,-1.2567716010563075
1789335403075408100,11.629408203125,2.2515742274194954,1.7889724980056285,-0.8585628488369286
1789335403085380400,11.63938037109375,3.589748246529698,1.1058823898002506,-0.4041076009996235
1789335403095351300,11.649351318359376,5.177460505566001,0.221577635332942,-0.005861074053123593
1789335403105323300,11.6593232421875,6.183982649686932,-0.5116153511688113,-0.16655381337776778
1789335403115295200,11.669295166015624,6.163460670661926,-1.2720213387668131,-0.4861080945445224
1789335403125266400,11.679266357421875,4.935294840234517,-1.8268441096298396,-0.9293161548435688
1789335403135238100,11.689238037109375,2.8341677793920037,-1.9542795261926948,-1.2139451435036956
1789335403145210400,11.69921044921875,0.7325280928522347,-1.668971615357697,-1.512261735124141
1789335403155181000,11.70918115234375,-0.9879109671533107,-1.1107324601799249,-1.8102623926632104
1789335403165153300,11.7191533203125,-2.1380834573179484,-0.3803422561392188,-1.8399227869115768
1789335403175124200,11.729124267578126,-2.458796005141735,0.11995149054825305,-1.4385335049599408
1789335403185096200,11.73909619140625,-1.8632523707032203,0.08172171313613652,-0.6756740597952157
1789335403195068200,11.749068115234374,-0.21262626711428165,-0.46197366064339873,0.22362640282260252
1789335403205039400,11.759039306640625,1.7026099733263254,-0.9391485436804592,1.1054340615108609
1789335403215011600,11.769011474609375,3.514391099989414,-1.301014062886685,1.807293167594075
1789335403224983600,11.778983642578124,4.711578439307212,-1.7687695218019186,2.0789868329659105
1789335403234954500,11.78895458984375,4.96337644085884,-2.2344825151041148,1.809583616618812
1789335403244926500,11.798926513671875,4.497265242019296,-2.552974756529927,1.201029913155362
1789335403254897700,11.808897705078126,3.466061076584458,-2.6808494412928816,0.5207169415131211
1789335403264869400,11.818869384765625,2.211152200660109,-2.5738833967849613,0.087435277610505
1789335403274841600,11.828841552734374,1.092871224796772,-2.3046121362544594,-0.01008420817349106
1789335403284812500,11.8388125,0.27011691757440565,-2.0591630653381348,0.014806067329924552
1789335403294784500,11.848784423828125,-0.36454759789705277,-1.924072750107944,0.13975416972222737
1789335403304756500,11.858756591796874,-1.0409715262115,-1.8911723510250449,0.2712970672696829
1789335403314727400,11.8687275390625,-1.7757979591339825,-1.900379739831388,0.37720289866756646
1789335403324699400,11.878699462890625,-2.4332991603136063,-1.853125821225345,0.4368210992082953
1789335403334670600,11.888670654296876,-3.0619992144227024,-1.809788783802092,0.5467804072480649
1789335403344642300,11.898642333984375,-3.7100638942152258,-1.7448299894183874,0.616671762663126
1789335403354614500,11.908614501953124,-4.347659202441573,-1.6128259497657418,0.6824070943772792
1789335403364585500,11.91858544921875,-4.9127410631209605,-1.440340554381907,0.7223839346524328
1789335403374557400,11.928557373046875,-5.392668021345139,-1.196167933142185,0.8422057344064116
1789335403384528400,11.9385283203125,-5.8006315671205515,-0.8586427822053432,0.9863504398383199
1789335403394500600,11.94850048828125,-6.033876259371638,-0.47327626816332335,1.072466150149703
1789335403404472600,11.95847265625,-6.012454116636515,-0.12187047591209411,1.084342465904355
1789335403414443500,11.968443603515626,-5.736546925222873,0.11990297523140907,1.0333006262574345
1789335403424415500,11.97841552734375,-5.181292046552896,0.23744535881131887,0.9441683446038514
1789335403434387500,11.988387451171874,-4.3278848269134755,0.20073738413900136,0.7545508318290114
1789335403444358700,11.998358642578125,-3.5969589085608717,-0.020367080724239348,0.467185842333734
1789335403454330400,12.008330322265625,-3.2361031509190794,-0.2395025836020708,0.15937955610053614
1789335403464301600,12.018301513671876,-3.087286215892434,-0.374234002391994,-0.11326488892380147
1789335403474273500,12.0282734375,-2.9232109214574096,-0.3815475402757525,-0.2279527781217359
1789335403484245500,12.03824560546875,-2.674345466226339,-0.22073563155084847,-0.20624575403062625
1789335403494216400,12.048216552734376,-2.46921218521595,-0.03588409106880426,-0.10871613957826047
1789335403504188400,12.0581884765625,-2.1586831777542828,0.09450140747129916,0.013608400244265795
1789335403514160400,12.068160400390624,-1.637514108559489,0.1529205709531903,0.16819588149636983
1789335403524131600,12.078131591796875,-0.8698644334435462,0.19182897827923298,0.45148397694155573
1789335403534103300,12.088103271484375,0.06401917544603347,0.2825765861749649,0.7702294624760746
1789335403544074500,12.098074462890626,1.170714342933893,0.3556657877832651,0.9852828836720436
1789335403554046500,12.10804638671875,2.22025203743875,0.3429676342517137,1.13663489013426
1789335403564018400,12.118018310546875,3.1632939352959393,0.30911387996673584,1.236288346606493
1789335403573989400,12.1279892578125,3.9135160902708765,0.24607640903443095,1.2173053406517953
1789335403583961600,12.137961669921875,4.249608578056097,0.19163637831658123,1.107112223856151
1789335403593932300,12.147932373046874,4.140077943757176,0.3096168610528111,0.9999100325047969
1789335403603904500,12.157904541015625,3.615124095326662,0.8462249069198966,1.0835419631764291
1789335403613876500,12.16787646484375,3.2520214355409145,1.488174318702519,1.3205414779163895
1789335403623847400,12.177847412109376,3.112051823836565,1.9147975567623972,1.687479624211788
1789335403633819600,12.187819580078125,3.040859980282187,2.2339111449569464,1.9247633627206087
1789335403643791400,12.197791259765625,3.0667958010494707,2.323110646627843,2.075480140019208
1789335403653762600,12.207762451171876,3.226988701093197,2.0566025672003625,2.225660472353548
1789335403663734500,12.217734619140625,3.540499354714155,1.5197344090923666,2.193203871515393
1789335403673705500,12.22770556640625,3.8557670811355114,0.9324690659165382,1.9342833246074616
1789335403683677400,12.237677490234375,3.9024809015154838,0.3851318285033107,1.651384228479862
1789335403693649400,12.2476494140625,3.546239944192767,-0.11655395706444978,1.577695891934633
1789335403703620400,12.257620361328126,2.891342788031697,-0.5732525999143719,1.7373244360938667
1789335403713592600,12.267592529296875,2.283648112550378,-0.7758969867184757,1.939938866151124
1789335403723564300,12.277564208984375,1.9672464136630297,-0.8290317800566553,2.2108026565700767
1789335403733535500,12.287535400390626,1.873165277430415,-0.8335133093848824,2.4097990422606466
1789335403743507500,12.297507568359375,1.8933482337594032,-0.8043509277865291,2.4294191040098667
1789335403753478400,12.307478515625,1.9018799152612684,-0.8665884805127978,2.365424770744145
1789335403763450400,12.317450439453125,1.785424450135231,-1.0312783997148274,2.2555074752151967
1789335403773422600,12.327422607421875,1.4473650461912155,-1.1769348248839377,1.9967776285737753
1789335403783393300,12.337393310546876,0.8196528340756892,-1.2765642428934574,1.5823400644786656
1789335403793365500,12.347365478515625,-0.06575286737084389,-1.3087787055388092,1.16709293756634
1789335403803337500,12.35733740234375,-0.9527443767040967,-1.2930436685293911,0.7671733628410845
1789335403813308400,12.367308349609376,-1.7713158452838658,-1.2467124177262185,0.5034991551326587
1789335403823280600,12.37728076171875,-2.5142718086481093,-1.1444546970397234,0.3676426778355613
1789335403833251600,12.38725146484375,-3.2335002749443054,-1.0117793339967727,0.2859110643599182
1789335403843223600,12.3972236328125,-3.744408062365651,-0.8358917289540171,0.2480554540224373
1789335403853195500,12.407195556640625,-4.0427188087672,-0.6777005241215228,0.2517176663244143
1789335403863166500,12.41716650390625,-4.251767801916599,-0.5922679737687111,0.2445042643468827
1789335403873138400,12.427138427734375,-4.385013073801994,-0.5114873408749699,0.16029256102591752
1789335403883110400,12.4371103515625,-4.397201524245738,-0.42937429033368824,-0.0425961193954572
1789335403893081300,12.447081298828126,-4.422207370686531,-0.4216434038206935,-0.2783341262996197
1789335403903053600,12.457053466796875,-4.377810595077276,-0.44745121429413554,-0.572369204675965
1789335403913024500,12.4670244140625,-4.119561809951067,-0.5128904856711626,-0.850499661629647
1789335403922996500,12.47699658203125,-3.7492210156053303,-0.49855304049998517,-1.0761525105122476
1789335403932968700,12.48696875,-3.4478789386838673,-0.4272048373401165,-1.2701403473258017
1789335403942939400,12.496939453125,-3.1966917625069615,-0.31694384294003247,-1.4248865262709558
1789335403952911600,12.50691162109375,-2.917292637324333,-0.1944526047810912,-1.5114720460511744
1789335403962883600,12.516883544921875,-2.6345266660571096,-0.03882803556621074,-1.5740058052450419
1789335403972854500,12.5268544921875,-2.424920039024949,0.08329320023655891,-1.612704369212687
1789335403982826500,12.536826416015625,-2.303496722358465,0.20941899550557136,-1.642452734005451
1789335403992797700,12.546797607421874,-2.256254494190216,0.36671968123912807,-1.6430454392015934
1789335404002769400,12.556769287109375,-2.3136036903530357,0.5760939608201384,-1.6384534352362154
