time,seconds_elapsed,z,y,x
1789929254727322600,0.048322509765625,0.12313479675948619,0.18787702578306198,-0.10461776434872298
1789929254737349600,0.058349609375,0.0005827683240175247,0.2541857734709978,0.07462211026400327
1789929254747376600,0.068376708984375,-0.04673603221178055,0.2551931969478726,0.2725300065981224
1789929254757403600,0.078403564453125,0.031997897285223,0.16573387529700995,0.31897695620283484
1789929254767429600,0.0884296875,0.11275251895487308,0.08449643854647874,0.2397854921966791
1789929254777456600,0.09845654296875,0.08650105636715888,0.07353782215863466,0.10079166672192513
1789929254787483600,0.108483642578125,-0.04115092555582523,0.06238719033002853,-0.00831628518551588
1789929254797510700,0.1185107421875,-0.15663842243254184,0.061000996668636794,-0.08716971287634223
1789929254807537700,0.12853759765625,-0.15464812539815903,0.055280280934274194,-0.08854344891496002
1789929254817564700,0.138564697265625,-0.2359644726037979,0.03795709795057774,-0.12276647490374744
1789929254827590700,0.148590576171875,-0.2422691257059574,0.023320962093770502,-0.10125943036414682
1789929254837617700,0.15861767578125,-0.18837036225795745,0.015028057783842086,-0.08563917884081601
1789929254847644700,0.168644775390625,-0.10174246464073658,0.017337211509048937,-0.09452431342285125
1789929254857671700,0.178671630859375,-0.07726268790066242,-0.012400924150645733,-0.09479049007836729
1789929254867698700,0.18869873046875,-0.04188450052738189,-0.03199965085089206,-0.07731028990205377
1789929254877725700,0.1987255859375,-0.03362637526988983,-0.024951778165996072,-0.07497790143173187
1789929254887751700,0.208751708984375,-0.05916179854273796,-0.04730564879328012,-0.07471990808267145
1789929254897778700,0.21877880859375,-0.06125730951726436,-0.05203121601045131,-0.08619144242871553
1789929254907805700,0.2288056640625,-0.08421382221281527,-0.046263446263968944,-0.10866356914080678
1789929254917832700,0.238832763671875,-0.04935001410245895,-0.021917525036633013,-0.1374819230744615
1789929254927859700,0.248859619140625,-0.0067681789606809616,-0.043401042570173735,-0.131736292094551
1789929254937886700,0.25888671875,0.002028290957212448,-0.06558101793527603,-0.11534206052403896
1789929254947912700,0.26891259765625,-0.002773556366562843,-0.06807721866518258,-0.07964114400241523
1789929254957939700,0.278939697265625,0.005401566782593727,-0.04052139548063278,-0.08150080039445311
1789929254967966500,0.288966552734375,0.03675415190160274,0.005645020149648189,-0.0667818085597828
1789929254977993700,0.29899365234375,0.04426175105273723,0.019843933632969855,-0.05961520486604422
1789929254988020700,0.309020751953125,0.041785716328024865,0.018140344585478304,-0.04566602836009115
1789929254998047500,0.319047607421875,0.06618424452543259,0.019030863684415818,-0.03858516672104597
1789929255008073500,0.329073486328125,0.061173138365149496,0.01985328598320484,-0.055762365362793206
1789929255018100700,0.339100830078125,0.09443184936642646,0.0358344067081809,-0.04804368074424564
1789929255028127700,0.349127685546875,0.10625322006344795,0.029574469530582428,-0.05647369196992367
1789929255038154500,0.359154541015625,0.03637947337031364,0.01950783354640007,-0.03794230224024504
1789929255048181800,0.369181640625,0.08911620730161667,0.09632657707184553,-0.0655815293919295
1789929255058208800,0.379208740234375,0.17628654123246668,0.155073365072906,-0.017083382878452538
1789929255068234800,0.38923486328125,0.2519599141150713,0.13154548223018644,0.06596789836101234
1789929255078261500,0.399261474609375,0.38101299500763414,0.09632803837656974,0.10566880777161568
1789929255088288800,0.409288818359375,0.34254911657869813,0.041807343637943264,0.1670844131231308
1789929255098315800,0.419315673828125,0.10757716214358806,-0.007776771481335163,0.16186766485553233
1789929255108342500,0.429342529296875,0.09313537981510162,0.08364099076092242,0.053190359450317914
1789929255118369500,0.43936962890625,0.4260656041771173,0.2251326974660158,-0.03704834907520562
1789929255128395500,0.4493955078125,0.9851613761842251,0.26642946123331784,-0.01647372654750943
1789929255138422800,0.4594228515625,1.8848054463416337,0.13144085281193255,0.1506833134204149
1789929255148449500,0.469449462890625,2.759466466411948,-0.41486733381450175,0.5111017025582492
1789929255158476500,0.4794765625,3.3859102660268543,-1.078984153741598,1.209143515375629
1789929255168503800,0.48950390625,3.825124105590582,-1.3757111380830407,1.769778844974935
1789929255178530800,0.49953076171875,4.138494473958016,-1.3373086344525218,2.345943679074198
1789929255188556500,0.509556640625,3.5980151396155353,-1.1908446922928093,2.9802772090256213
1789929255198583600,0.51958349609375,2.8275077369809147,-1.147769520676136,3.4559850882500407
1789929255208610800,0.52961083984375,1.9902344905406235,-1.3363058871507645,3.499163135719299
1789929255218637800,0.539637939453125,0.6766495537638664,-2.068181069052219,2.239145976870507
1789929255228664600,0.54966455078125,-0.6321282749921083,-2.071053409618139,1.4196040558233856
1789929255238691600,0.559691650390625,-2.084800779941678,-2.302648288835585,0.7689784395016729
1789929255248717800,0.5697177734375,-2.94066708317101,-2.981318827033043,0.20420345281437038
1789929255258744800,0.579744873046875,-3.325554289263487,-3.140703917825222,-0.2866191395640373
1789929255268771600,0.589771484375,-3.2927766397774216,-3.142604198488593,-0.7910667910605669
1789929255278798600,0.599798583984375,-3.443657521596551,-2.6772376805365083,-1.743933332839608
1789929255288825900,0.609825927734375,-5.278251953092217,-1.7793600355297325,-1.994784408929944
1789929255298852600,0.6198525390625,-8.028467191556096,-1.5724147366613148,-1.1073040931664406
1789929255308878600,0.629878662109375,-7.291509591823816,-1.4160828959599137,-0.3406743356827646
1789929255318905600,0.639905517578125,-3.3596313309103247,-0.6187815944239496,0.2649960674293339
1789929255328932900,0.649932861328125,0.7289958270728588,0.3468076508060097,0.05275839777383953
1789929255338959600,0.659959716796875,1.61067520147264,0.1548120837882161,0.09650222589969634
1789929255348985900,0.66998583984375,4.886748543730378,1.7940633914038537,-1.453613585191965
1789929255359012900,0.680012939453125,5.765965911930799,3.851343711735308,-2.9738942299902438
1789929255369038800,0.690038818359375,-0.6392044969886541,1.317899000583589,-1.0554227339554578
1789929255379065900,0.70006591796875,-2.1704443426966664,0.9375698961868881,-1.1062559723529963
1789929255389092900,0.7100927734375,-1.7238468226224184,1.1594397924646735,-1.0403284060023725
1789929255399120000,0.720119873046875,-1.4677157603025435,1.0274190939381718,0.04609605380780995
1789929255409147000,0.73014697265625,-1.4956459697574376,0.9148474845081567,0.8365050385467707
1789929255419173600,0.740173583984375,-1.3088409571200608,1.3783423633694647,0.5731329555900767
1789929255429200000,0.750199951171875,-1.195205810111761,1.5605235155984758,0.10480645532123743
1789929255439227000,0.760226806640625,-1.4707862537890672,0.9784478500202297,-0.02697480842620134
1789929255449254000,0.77025390625,-2.1478835513204335,0.30503070230633017,0.1900043932005763
1789929255459280600,0.78028076171875,-2.6377269234031435,0.05084639014005661,0.35678470881059765
1789929255469308000,0.790307861328125,-2.552769589346647,-0.03644201721251011,0.28367373376190663
1789929255479334000,0.800333984375,-2.3424673812657595,-0.2463958502471447,0.006323357802629471
1789929255489361000,0.81036083984375,-2.5440607977122065,-1.803537029930949,0.330033333876729
1789929255499387600,0.8203876953125,-2.312840304765105,-2.7054227415353056,0.8636763924583792
1789929255509415000,0.830414794921875,-1.667013174766302,-3.213676215055585,0.23941782792806623
1789929255519442000,0.84044189453125,-1.8433879788041114,-3.790945357134938,-0.9436530154928564
1789929255529468700,0.85046875,-2.027878284758329,-4.402545223361254,-1.988665049266815
1789929255539494700,0.86049462890625,-1.8947405649006366,-5.012981891027093,-2.6676667191147803
1789929255549522000,0.87052197265625,-2.3642981048017737,-5.628743553107976,-2.5845535516202447
1789929255559549000,0.880548828125,-2.1655323129966852,-5.627699012491107,-1.2890180662751196
1789929255569575700,0.89057568359375,-1.8544599924385547,-5.655969998207688,0.3954565309017896
1789929255579602700,0.900602783203125,-1.4845552514225244,-6.112673317232727,1.035531380984187
1789929255589630000,0.9106298828125,-0.8722750017166138,-6.919689957097172,1.1147194839894772
1789929255599656000,0.920656005859375,-0.8291027994662523,-7.3963465153485535,1.1186328580409288
1789929255609682700,0.9306826171875,-0.8039337252877652,-6.545884116989374,1.2196230430096386
1789929255619709700,0.940709716796875,-0.2098351750910282,-5.659181945991516,2.1154069306075574
1789929255629737000,0.950737060546875,0.5646136586457491,-5.362513121578097,2.996037088215351
1789929255639763700,0.960763671875,1.8492893118023872,-4.712492339281738,3.6115251940518616
1789929255649790700,0.970790771484375,1.989821233564615,-4.042892996290326,4.155689938908815
1789929255659816700,0.980816650390625,1.203780673168227,-3.5598832696199416,3.958374638172984
1789929255669844000,0.990843994140625,0.6128501585483551,-3.1033003621041773,4.1128275332599875
1789929255679870700,1.00087060546875,-0.30583368925228716,-2.4609338939532637,4.482981280601025
1789929255689897700,1.010897705078125,-0.6214239256262779,-1.1707735988404602,4.659108247357606
1789929255699925000,1.020925048828125,0.030048224522173404,-0.3855216315384954,5.146742711219192
1789929255709952000,1.030951904296875,-2.2603157522797583,0.38645102134309706,7.131964926555752
1789929255719977700,1.040977783203125,-2.6833380432382223,1.7327856236204504,6.93980043271184
1789929255730004700,1.051004638671875,-1.9586802453696726,2.1929814609363674,7.160241172969341
1789929255740031700,1.06103173828125,-1.5479825984552502,2.4933304351672527,7.825884179550409
1789929255750059000,1.07105908203125,-1.6420393308989703,2.9194799182355404,7.93746648568213
1789929255760085800,1.081085693359375,-1.2198517371989785,2.5341078512355684,8.99613616566956
1789929255770111700,1.09111181640625,-1.3411131413020192,3.087614424933493,8.540569157198071
1789929255780138800,1.101138671875,-1.7262287493228912,3.2972382953613995,7.779172112736106
1789929255790166000,1.111166015625,-1.9096854744456708,3.2100486722081896,6.808293528926372
1789929255800192800,1.12119287109375,-1.7630233793653547,3.2009757234364744,6.437644107022881
1789929255810219800,1.1312197265625,-1.9572960975348948,3.3868846640169616,6.514936021018028
1789929255820247000,1.1412470703125,-0.8938965394813567,3.5185455893203614,6.688013537076115
1789929255830273000,1.15127294921875,-1.6227870795488357,3.1308833655565977,6.665011431673169
1789929255840299800,1.1612998046875,-2.341904486685991,3.1779315324574706,5.8987120021224015
1789929255850326800,1.171326904296875,-3.068218527328968,3.0270319459378716,5.324446133512258
1789929255860354000,1.18135400390625,-3.5109178709208964,3.1466935136288403,4.831228316560387
1789929255870380800,1.191380859375,-4.003407958120108,3.312016762298345,4.313455319544673
1789929255880407800,1.20140771484375,-4.316168085634708,3.345276057821512,3.850850667521357
1789929255890433800,1.211433837890625,-4.291877693986892,3.2559283798515795,3.098020960396528
1789929255900460800,1.221460693359375,-3.7450609733164306,3.0820167510569094,2.6355729602396485
1789929255910487800,1.23148779296875,-3.2906232611358166,2.889907202270627,2.0519804603576657
1789929255920514800,1.241514892578125,-3.11278832141757,2.846605820682645,1.3792173926383255
1789929255930541800,1.251541748046875,-3.244421481931209,3.194786805668473,0.7278852354824542
1789929255940567800,1.26156787109375,-3.2477035723417997,3.5757080307394262,-0.19469605814814567
1789929255950594800,1.2715947265625,-2.7754057938218115,3.767285956867039,-0.884275820633769
1789929255960621800,1.281621826171875,-2.1607868720352648,3.790508719283342,-1.6883447166085241
1789929255970648800,1.29164892578125,-1.8520371492058039,3.6609009271174666,-2.8258056092381474
1789929255980675800,1.30167578125,-1.888091043883562,3.2455414258718487,-3.5888147650718687
1789929255990702800,1.311702880859375,-1.5892396147340535,2.3352456133186816,-4.818166005891562
1789929256000728800,1.321728759765625,-2.270424473839998,1.3037547398969531,-5.646777222448587
1789929256010755800,1.331755859375,-2.457204936558008,-1.8125988727867601,-6.546103897219896
1789929256020782800,1.341782958984375,-2.596841955307126,-3.516569613072276,-5.735179728522897
1789929256030809900,1.351809814453125,-0.6978507472246885,-2.5819287560746074,-4.426009685578942
1789929256040836900,1.3618369140625,0.10922087423000484,-1.7028285845130682,-4.165166207784414
1789929256050862800,1.37186279296875,-1.158944410163164,-1.6600553184524178,-3.727387953981757
1789929256060889600,1.3818896484375,-0.6184633222550153,-1.5308812415286899,-2.740820218130946
1789929256070916900,1.391916748046875,-0.2599532509565353,-0.4371402481600642,-1.7526023769855499
1789929256080943900,1.40194384765625,0.8110697146475314,0.9374708197265863,-1.1444582041710614
1789929256090971000,1.411970947265625,3.002521774059534,-0.241768190446496,-0.26271803949475286
1789929256100998000,1.421997802734375,0.8114601752698422,-0.6301604820504785,-0.96323829818964
1789929256111023900,1.43202392578125,1.0244354019522666,-0.22463059316277503,0.5393552987486123
1789929256121051000,1.44205078125,2.402259878927469,-0.4501572583824396,2.812231257393956
1789929256131078000,1.452077880859375,1.7628887932002544,-1.6798334933727979,2.2534330070286988
1789929256141105000,1.46210498046875,1.0447230607647449,-1.6866902273997664,2.2930799577623606
1789929256151132000,1.4721318359375,0.678609967116639,-0.9819219558715819,2.436921442463994
1789929256161158000,1.482157958984375,-0.16957096924185752,-0.21916911288648844,1.4027134190380572
1789929256171185000,1.492184814453125,-0.47618894073963164,0.4520902722716331,1.0698732110470532
1789929256181212000,1.5022119140625,-0.40372576207518573,0.48760611454993485,1.38819857147336
1789929256191239000,1.512239013671875,-1.0823334641695022,0.55352440161556,0.8533721483260392
1789929256201266000,1.522265869140625,-1.0624890190798788,1.0324901135921478,0.9744728089094161
1789929256211292700,1.532292724609375,-0.4096479917310178,0.9996776850536465,1.0304489631533622
1789929256221318700,1.542318603515625,-0.3139197458785027,0.2946431638047099,-0.908959010991454
1789929256231346000,1.552345947265625,-0.09895831381492316,-0.678041592644155,-2.6670991483598945
1789929256241373000,1.562373046875,0.5496551589667796,-1.8413640717610715,-3.158404409688711
1789929256251399700,1.572399658203125,0.632824440562725,-1.8120353936851024,-3.140056267571449
1789929256261427000,1.582427001953125,-1.4861819758415222,-3.6142800457179542,-3.803528359854221
1789929256271454000,1.592453857421875,-1.3868179307699202,-3.434401325212419,-4.121672518494725
1789929256281480000,1.60247998046875,1.6659306402266025,-2.0894532819226384,-2.939347817265987
1789929256291506700,1.612506591796875,1.5939736575186252,-1.5555504033610223,-2.2444190949678418
1789929256301534000,1.622533935546875,-0.3435188383936882,-1.2705007050707935,-2.332066983282566
1789929256311561000,1.63256103515625,-0.26474633045196533,-1.5020558367997408,-1.321933078405261
1789929256321587700,1.642587646484375,-0.287722863022238,-1.532070743574202,-0.8109919732362032
1789929256331613700,1.65261376953125,-0.24760347247123718,-2.1311779157131907,-0.09733224698305129
1789929256341641000,1.662640869140625,-0.273833307749033,-1.477752293409407,0.4340010733515024
1789929256351668500,1.67266845703125,-1.0595790499173103,-0.6211342950299382,0.10372925454378128
1789929256361695200,1.6826953125,-0.4058730032369494,0.7876189886942505,1.1448416505306958
1789929256371722200,1.69272216796875,0.2669604993700981,1.9433248553276061,1.8322703724622726
1789929256381748500,1.70274853515625,0.37289705469980833,1.4333555178001522,2.545696874481439
1789929256391775500,1.712775390625,1.1476479401230812,0.9158943632125854,3.8468332485735415
1789929256401802200,1.72280224609375,1.8772306271731853,1.0675944524601102,3.642342357119918
1789929256411829200,1.732829345703125,0.9723740830644965,1.3459922916457057,3.255453748077154
1789929256421856500,1.7428564453125,-0.5930629235386848,1.673589338286221,3.6931133439362047
1789929256431883300,1.75288330078125,-1.3316338036864994,1.9716820580229162,4.295885176062583
1789929256441909200,1.7629091796875,-1.9694521070137618,2.136760392020643,5.31661003305912
1789929256451936300,1.772936279296875,-1.7851932717278598,2.4958517703384158,5.106244112092257
1789929256461963500,1.782963623046875,-2.396649637830257,4.4926717767491935,3.3595015670508146
1789929256471990300,1.792990234375,-3.893776201534271,5.55915388405323,2.422296120262146
1789929256482017300,1.803017333984375,-3.3063281952679153,1.6080165036574006,5.076497793126106
1789929256492043300,1.813043212890625,-1.9355076057054101,0.5465241674646735,3.1321471018821
1789929256502070500,1.823070556640625,-0.2976118043519556,0.058441375313699244,2.0109476082235576
1789929256512097300,1.83309716796875,1.1418002370081841,-1.5034996058672665,2.0803069756537673
1789929256522124300,1.843124267578125,2.20428816010952,-2.806173857051134,0.7311608961522579
1789929256532151300,1.8531513671875,2.5393688405036925,-3.463329313533008,-0.7631833433568477
1789929256542178300,1.86317822265625,1.9066414305746555,-2.7257126653701067,-2.0864561459332704
1789929256552204300,1.873204345703125,1.1773813996076583,-1.6026647673659025,-3.6788854966193436
1789929256562231300,1.883231201171875,0.424415462349914,-0.8783617742843925,-4.439785112953186
1789929256572258300,1.89325830078125,-0.6634264995753765,-0.7397310099683702,-4.754792142611742
1789929256582285300,1.903285400390625,-0.36892683589458464,-1.0519199134662747,-5.317337762811779
1789929256592312300,1.913312255859375,0.47664252972602844,-1.9586387443155049,-6.5492661606431
1789929256602338300,1.92333837890625,1.773708293378353,-3.5820039160132406,-5.748680430608988
1789929256612365300,1.933365234375,1.885024642050266,-4.644757358182966,-4.340355016908049
1789929256622392300,1.943392333984375,1.840128684747219,-3.0548166094422338,-4.523285233938694
1789929256632419300,1.95341943359375,2.0563959387123583,-3.041229398116469,-4.509108240026236
1789929256642446300,1.9634462890625,0.21806159003600478,-0.9005380963876843,-5.051594238016009
1789929256652472300,1.973472412109375,-1.454400351655483,-1.7318455662913619,-4.377942112502455
1789929256662499300,1.983499267578125,-1.2880676336824892,-1.4758385687425732,-4.322925158679485
1789929256672526300,1.9935263671875,-2.6568063024044037,-3.727833651922643,1.9712544802606105
1789929256682553300,2.00355322265625,-2.0246284891821444,-2.021889127346128,3.023357641339302
1789929256692580000,2.013580078125,-2.064200621113926,-1.60810155159235,3.1175638652563094
1789929256702607400,2.023607421875,0.13040668745860456,-0.29668636007010935,0.6884060425311327
1789929256712633300,2.03363330078125,2.425228228191286,-1.7278955134913325,0.011708557972311974
1789929256722660400,2.043660400390625,2.6392028411746025,-3.7512311863839622,4.64643873539865
1789929256732687400,2.053687255859375,-1.4151111283183098,-2.03802266215384,10.562867011475563
1789929256742714400,2.06371435546875,-3.993050230234861,4.159332679325342,8.146926982241869
1789929256752741400,2.073741455078125,-4.0451474972188475,4.320368459933996,8.23506645346582
1789929256762767400,2.083767333984375,-0.18691840988397598,5.020045838063955,7.441216753688455
1789929256772794400,2.09379443359375,-0.9667417762659489,1.3697563213318587,5.405269144243001
1789929256782821400,2.1038212890625,-0.055991351813077926,0.3797922210410237,5.9420963858187195
1789929256792848400,2.113848388671875,0.5808171899497508,0.48934535943269725,5.216039534807205
1789929256802875400,2.12387548828125,-1.1214368095457554,0.5243471147090196,4.099695079964399
1789929256812902400,2.13390234375,-1.2730863376498223,1.1610434282690285,3.298250102752447
1789929256822928400,2.143928466796875,-1.5105308196783065,0.9091469347789883,3.1747353667646645
1789929256832955400,2.153955322265625,0.08306932835280895,2.8532699547469615,1.3513234235405922
1789929256842982400,2.163982421875,-1.2950088311225174,1.7472428957790136,-1.2218056477457284
1789929256853009200,2.174009033203125,-1.3493027313679455,1.6894897949904202,-2.515702718234062
1789929256863036400,2.184036376953125,-1.4380559505760668,1.4137874784991145,-2.600392925786972
1789929256873062400,2.1940625,-0.1476337896566838,2.3931898527652025,-4.379064394530654
1789929256883089400,2.20408935546875,-0.5029167886674404,1.5672465402431786,-4.631832702419161
1789929256893116200,2.2141162109375,-0.4014221613079309,1.1595325853146612,-4.565123557236791
1789929256903143400,2.224143310546875,-0.4155424565970897,0.7648205891698598,-5.722751039582491
1789929256913170400,2.23417041015625,-0.155136785697937,0.012765227418392896,-5.917776768076419
1789929256923196400,2.244196533203125,0.3051250843252055,-0.7669432804122567,-5.808893199509382
1789929256933223200,2.25422314453125,0.32770985936522484,-1.0954686939440668,-5.077028539001941
1789929256943250400,2.26425048828125,-0.24039039928726852,-0.45268984559997916,-4.862439447382092
1789929256953277400,2.27427734375,-1.6250526863932608,-0.04596402492597699,-4.550644950029254
1789929256963304200,2.28430419921875,-2.85541748816967,0.35327027094885705,-3.6956536760687824
1789929256973330200,2.294330078125,-2.7691256906390187,0.3828253051266074,-3.681286712542176
1789929256983357400,2.304357421875,-2.2726059095323086,0.18144874630123375,-1.2309867330670357
1789929256993384400,2.314384521484375,-1.43933722255826,0.6004426585264504,0.3289303410708904
1789929257003411200,2.3244111328125,-0.22101349864415823,0.5381085135579109,2.0454858376413583
1789929257013438200,2.334438232421875,-0.24742570475153625,0.6612643531054258,2.064668092495203
1789929257023465500,2.344465576171875,0.28823841132894157,1.0051360965900122,4.277905282735825
1789929257033491500,2.354491455078125,-0.5330405626438558,0.8400858196429908,4.50591032076776
1789929257043518200,2.364518310546875,-1.3188951720140873,0.4911597153782844,5.078527837648988
1789929257053545200,2.374545166015625,-1.2566367226302624,0.10633709895461797,4.2122552912175655
1789929257063572500,2.384572509765625,-1.36755325832963,-0.5836291786305606,3.191341049128771
1789929257073599200,2.39459912109375,-1.4959423223555086,-0.5738030734039843,3.182106772315502
1789929257083625200,2.404625244140625,-1.6522411375701427,-1.914286684630811,-0.43710371554195876
1789929257093652200,2.41465234375,-2.551786423528194,-1.826947570004314,-1.5568389818668364
1789929257103679500,2.424679443359375,-2.6066005482554435,-1.9336247145682572,-1.5828163036882876
1789929257113706200,2.434706298828125,-1.6351111390709876,-0.809758485918492,-4.4958279026925565
1789929257123733200,2.444733154296875,-1.4984066666424274,-0.47903746203854675,-4.762086391273141
1789929257133759200,2.45475927734375,-1.960990275877714,-0.5808733040511608,-4.702192771324515
1789929257143786500,2.464786376953125,-1.6730618072807788,-0.7108325400032103,-4.96802222083807
1789929257153813200,2.474813232421875,-1.5540286006212234,-0.8376476327106356,-4.976527598854899
1789929257163840300,2.48484033203125,-0.020446575701236723,0.12852430777810514,-3.599539572703838
1789929257173867300,2.4948671875,0.23426234486103056,0.06974295992031693,-3.576901039916277
1789929257183893500,2.5048935546875,-1.8948482630588113,-2.0740277492538093,-1.001603392419219
1789929257193920300,2.514920166015625,-4.485868818736076,-3.546864505831897,1.234943361738324
1789929257203947300,2.524947265625,-4.1949698098957535,-3.4917379541546105,1.3038988245427607
1789929257213974300,2.534974365234375,-3.3868703432306644,-1.3090665825694798,0.243235924911499
1789929257224001300,2.545001220703125,-3.896057005947828,-1.5600817631803452,0.32301731763482094
1789929257234028300,2.5550283203125,-4.613057859322429,-1.3336365218110382,0.3742161744743585
1789929257244054300,2.56505419921875,-4.539918096570671,-1.7779668276056646,1.2434902408093214
1789929257254081300,2.575081298828125,-4.506473215347528,-1.6141116056621074,1.2904174116790295
1789929257264108500,2.585108642578125,-3.2292125146225095,-0.4824927170589566,1.9543004228502512
1789929257274135300,2.59513525390625,-3.2583059226378794,-0.3855252117350697,1.9693582912504672
1789929257284162300,2.605162353515625,-1.5575193653464317,0.6461981552682816,1.8557342501580714
1789929257294188300,2.615188232421875,-0.650760202486813,1.2287392464011906,0.7506774975270032
1789929257304215600,2.625215576171875,-0.6721086954638361,1.3090835337042808,0.766459588548541
1789929257314242300,2.6352421875,1.0031421462938188,1.1854545236870646,-1.4116110112428664
1789929257324269300,2.645269287109375,-0.53599342110008,0.4655342757344246,-1.3606851261258124
1789929257334296300,2.65529638671875,-1.4759592725127935,-0.22524726375639437,-0.6657943977504969
1789929257344322600,2.665322509765625,-0.4861652680918574,-0.34217180769890543,0.026619126856327054
1789929257354349800,2.675349853515625,-0.4733455340072512,-0.25651567772328854,0.059711833640933035
1789929257364377000,2.685377197265625,0.5051309575855731,-0.9517261395722627,-0.03008884879350662
1789929257374403800,2.69540380859375,-0.003990530940890312,-0.7258551909595727,-0.8824059351086616
1789929257384430800,2.705430908203125,-0.2570151516780257,-0.06496434734165668,-1.9322060799419878
1789929257394456800,2.715456787109375,-0.6651119684442878,0.07708265515863895,-2.268645773729682
1789929257404484000,2.725484130859375,-0.6882818316295742,0.1693473896190524,-2.240963401556015
1789929257414510800,2.7355107421875,-0.8064861862495541,0.3810027658745646,-1.9310592479944229
1789929257424537900,2.745537841796875,-0.7257762805044651,0.7546867331683635,-1.9985060598015785
1789929257434565000,2.755565185546875,-0.7975704738661646,0.8342518527925014,-2.238911729723215
1789929257444591000,2.765591064453125,-0.9414759637147188,0.030278233885765074,-1.3482804025828838
1789929257454617900,2.775617919921875,-0.9869982362225651,0.16531448084115982,-1.3004583287000655
1789929257464644900,2.785644775390625,-1.3795955783009528,0.43120793550163505,0.24237024799287318
1789929257474671900,2.795671875,-1.6137643996596336,0.625157559196651,0.42528935910761356
1789929257484699100,2.80569921875,-2.363590833315253,0.15643413203209638,0.2057616420418024
1789929257494724900,2.815724853515625,-2.8000106582462787,-0.26967531128674743,0.27450550792217254
1789929257504751900,2.825751953125,-2.853770305484533,-0.17878946396410464,0.3075035221606493
1789929257514779000,2.83577880859375,-2.7410759464576837,0.0827273830473423,0.34593174475431443
1789929257524806100,2.84580615234375,-2.8498008173316713,-0.016849720253050326,0.4727648115098476
1789929257534833000,2.8558330078125,-4.207920769144595,-0.33663463183790443,1.2870505655944346
1789929257544860000,2.86585986328125,-4.74275712916404,-0.5142079980105161,1.0918763685405253
1789929257554886000,2.875885986328125,-4.738525190682709,-0.44339784725010395,1.1357049888730049
1789929257564913200,2.8859130859375,-4.880686467212438,-0.7526718862146139,1.2606968116760253
1789929257574940000,2.89593994140625,-4.428022194445133,-0.9704524673521518,1.8632067779958248
1789929257584967000,2.905966796875,-3.9459132160067556,-1.4217565576821565,2.245740114438534
1789929257594994200,2.915994140625,-3.3956337876617906,-2.0273837792396545,2.667230665785074
1789929257605020200,2.926020263671875,-3.417316042637825,-1.981788733756542,2.690668239995837
1789929257615047000,2.936046875,-2.515508656966686,-2.4921651907801627,3.1022540679216384
1789929257625074000,2.946073974609375,-2.3640847543120382,-2.695067936259508,3.219240863445401
1789929257635101000,2.956100830078125,-1.968024996820092,-2.5667583672106264,2.871334603747725
1789929257645128000,2.9661279296875,-2.2958694423504173,-2.2867180215150116,2.909776270344853
1789929257655154000,2.97615380859375,-2.344013003272563,-2.2952350899696348,2.8909593416720627
1789929257665181000,2.986180908203125,-2.4008054423354563,-1.2848784822523593,2.9441292063236233
1789929257675208000,2.9962080078125,-1.7543094731643796,-0.9816974994659423,2.727707054057717
1789929257685235000,3.00623486328125,-0.7961106304466724,-0.868527631881833,2.5280121647089717
1789929257695262000,3.016261962890625,0.32169279103279114,-0.6317459976762533,1.8436060054689645
1789929257705288000,3.026287841796875,0.1991971689596772,-0.6268605637222529,1.8201982418745755
1789929257715315000,3.03631494140625,2.120561390761286,-0.8120107948899269,0.868400790631771
1789929257725342000,3.046342041015625,3.0558395227491855,-0.7477297536373138,0.08580605984032154
1789929257735369000,3.056368896484375,4.17569227797389,-0.5041191501945257,-0.48914077677130696
1789929257745396000,3.06639599609375,4.29294503095746,-0.4009305783987045,-0.7940577895700931
1789929257755422000,3.076421875,4.203971446996927,-0.39888533630669115,-0.805490453210473
1789929257765449000,3.086448974609375,3.740963474869728,-0.24651801532208917,-1.3383593125492335
1789929257775476000,3.09647607421875,3.675382456934452,-0.28470483037531374,-1.3870400490880013
1789929257785503000,3.1065029296875,3.5830770982027054,-0.2447486675620079,-1.211927227810025
1789929257795529700,3.11652978515625,2.937121957910061,-0.062030047455430025,-1.3993278682529926
1789929257805556000,3.126555908203125,2.8289982677996157,-0.044776714837551114,-1.397529294398427
1789929257815583000,3.1365830078125,1.8942881449580191,0.3522334752470255,-1.8658739513784646
1789929257825610000,3.14660986328125,1.2903577904462813,0.5064373640090227,-1.9721867926746606
1789929257835636700,3.15663671875,1.1638356893360615,0.8796160121291875,-1.9623720856249331
1789929257845664000,3.1666640625,0.6319405704002827,0.7547773340612649,-2.1078958243250847
1789929257855690000,3.17668994140625,0.5517898329079151,0.788968357476592,-2.0869331157952544
1789929257865717000,3.186717041015625,0.1908954968214035,0.5682903013318776,-2.801852486720681
1789929257875743700,3.19674365234375,0.1887818656682968,0.6410895800828933,-2.982278611975908
1789929257885771000,3.20677099609375,0.12601239802241324,1.0079150597840547,-2.4588988809943197
1789929257895798000,3.216798095703125,-0.3979962785124779,1.2592974662721157,-1.8628513886868954
1789929257905824000,3.226823974609375,-0.4171002074331045,1.2543337063848972,-1.8661130208313463
1789929257915850800,3.236850830078125,-0.7658955249249935,1.3442279123216867,-0.8953414045274257
1789929257925878000,3.2468779296875,-0.7809796968102455,1.469294553926587,-0.690078359657526
1789929257935905000,3.256905029296875,-0.6525497162520885,1.4195131626695394,-0.3300374255299568
1789929257945932000,3.26693212890625,-0.9059159900337457,1.5940332787513731,-0.12108721657991409
1789929257955958000,3.2769580078125,-0.924578604927659,1.5680980425059794,-0.13824527212977408
1789929257965985000,3.286985107421875,-1.0679811136901378,1.7602128519892692,-0.5420557898789644
1789929257976012000,3.297011962890625,-1.1281786850214004,1.8037118019759655,-0.6416992364138364
1789929257986039000,3.3070390625,-1.249557578024268,1.6994705062568187,-1.0656909569263457
1789929257996065800,3.317065673828125,-1.0063163924157619,1.4281126487106084,-1.5902619435191154
1789929258006092000,3.327092041015625,-0.9659516488015651,1.3541595237493513,-1.6374392897576093
1789929258016119000,3.337119140625,-0.441864646333456,0.301028773188591,-1.9816700758129357
1789929258026146000,3.34714599609375,-0.3394692707419395,0.21364918042123315,-2.014389273110032
1789929258036172800,3.3571728515625,-0.050771571338176724,0.4799117606550455,-1.9776736996531485
1789929258046200000,3.367199951171875,-0.5589174928307533,0.7110778930664062,-1.6106892299979925
1789929258056226000,3.37722607421875,-0.5185130017280578,0.6411904101088642,-1.6497294470101593
1789929258066253000,3.387253173828125,-0.7273404610812664,0.8333116493329406,-0.5242436543345451
1789929258076279800,3.39727978515625,-0.6444096644163131,1.100066104736924,-1.0144827477365732
1789929258086307000,3.40730712890625,-1.2145616679668425,0.6364440923646092,-0.8606026841014623
1789929258096334000,3.417333984375,-1.2171908474266528,0.5467383947372436,-0.5690495952665805
1789929258106360000,3.427360107421875,-1.148659162992239,0.5008616097033024,-0.5892360587269068
1789929258116386800,3.43738671875,-1.459033272153139,0.14868600212335586,0.703364542210102
1789929258126414000,3.4474140625,-1.6002560987889767,0.5380985766857862,1.22648416095078
1789929258136441000,3.457441162109375,-1.944568717908859,0.6904091990470885,1.714635926684737
1789929258146467800,3.4674677734375,-1.8835750277638434,0.6633730158224701,1.7062036139041183
1789929258156493800,3.477493896484375,-2.231525711125135,0.8751786142036319,2.0464923843353984
1789929258166521000,3.48752099609375,-2.8743349546074866,1.1757093747422098,2.772435838100314
1789929258176548000,3.497548095703125,-2.984612023359537,0.99512981249094,2.9014082549721003
1789929258186574800,3.507574951171875,-2.591019532763958,0.5786603041768074,3.433914126217365
1789929258196601900,3.517601806640625,-2.394927782473713,0.13574907139986753,4.068741723296046
1789929258206627800,3.5276279296875,-2.353665067106485,0.0732937842696905,4.044557714632154
1789929258216655000,3.537655029296875,-2.1037293522953986,0.343694487221539,5.293807249620556
1789929258226681900,3.547681884765625,-1.7785105790935456,0.25507453900426624,5.669703924527764
1789929258236708900,3.557708984375,-1.6748621347010135,0.17794979826956986,5.650760154604911
1789929258246736100,3.567736083984375,-1.4950678776085375,-0.10245528908520936,6.519321104234456
1789929258256762000,3.57776220703125,-1.354844583404064,-0.16333733554929494,6.517865060207248
1789929258266788900,3.587788818359375,-0.9514743567682802,-0.8076113908872008,4.583725966376066
1789929258276816000,3.59781591796875,-0.5642632377728819,-1.6168287556663155,2.6877684269011017
1789929258286843100,3.607843017578125,0.18577128567546605,-1.8769559018850326,1.2554676788508892
1789929258296870000,3.617869873046875,1.086505781418085,-1.05909024348706,0.5609001910805702
1789929258306896000,3.627895751953125,1.1618553291738032,-1.0655670382857323,0.5755711059898138
1789929258316923000,3.6379228515625,2.383296819782257,-1.6257167032599449,-1.2801765881717204
1789929258326950100,3.6479501953125,3.160736067506671,-2.2745725334301587,-1.8069868781238794
1789929258336977000,3.657976806640625,3.9211514074549076,-2.9899817336991426,-2.042080413112044
1789929258347004000,3.66800390625,4.230687896747887,-3.6434526564493774,-2.3243355122476816
1789929258357030000,3.67802978515625,4.282512484270334,-3.610666239134967,-2.2964590788066386
1789929258367057000,3.688056884765625,3.259612621322274,-4.020242773064971,-2.492007369869947
1789929258377084000,3.698083984375,2.4916411669060587,-3.9053865598291155,-2.242421199148893
1789929258387111000,3.70811083984375,1.796895984481275,-3.352490226984024,-1.7850579549103973
1789929258397138000,3.718137939453125,1.2358113767445087,-2.8367610107555983,-1.6350971105456351
1789929258407164000,3.728163818359375,1.2844362914428114,-2.8202649262458084,-1.6128338408112526
1789929258417191000,3.73819091796875,0.7195306641131639,-2.1606761051371692,-1.2686457248538732
1789929258427218000,3.748218017578125,0.7054489472687244,-1.2748331813171505,-1.1844792489141225
1789929258437245000,3.758244873046875,0.8988774696990847,-0.6793418615877628,-0.9410352342098951
1789929258447271000,3.76827099609375,0.8703291283458471,-0.17261574376523495,-0.7303168465435504
1789929258457298000,3.7782978515625,0.884359699524939,-0.1418605400174856,-0.7114595858603715
1789929258467325000,3.788324951171875,1.0161360679015516,0.8360957270935178,-0.944506125190854
1789929258477352000,3.79835205078125,0.9297150910332799,1.354706928499043,-1.1779600762784481
1789929258487379000,3.80837890625,0.8293570664882659,1.750878914193809,-1.439734112921357
1789929258497405000,3.818405029296875,0.8727274216592311,1.9300787125244736,-1.5941986984461545
1789929258507432000,3.828431884765625,0.8659060512065887,1.9472990196555853,-1.588214947861433
1789929258517459000,3.838458984375,0.6950462111979723,2.1407748883590103,-1.9851894821107385
1789929258527486000,3.84848583984375,0.5384118804186582,2.2134400193363426,-2.2327882784068582
1789929258537513000,3.858512939453125,0.3802551623776555,2.2654995846584436,-2.300166116631031
1789929258547539000,3.8685390625,-0.018083645962178707,2.3702245722413062,-2.1693863580763337
1789929258557566000,3.87856591796875,-0.431896210026741,2.283613333497941,-2.184695570889115
1789929258567593000,3.888593017578125,-0.6972758699461817,2.2711492809832095,-2.216613388675451
1789929258577620000,3.898619873046875,-0.909203341141343,2.1652353758767244,-2.2780846332043407
1789929258587647000,3.90864697265625,-0.8945771421566605,2.1853815073266625,-2.2628823878973723
1789929258597673000,3.9186728515625,-1.0208157501503825,1.9643255577802656,-2.1801631881564854
1789929258607700000,3.928699951171875,-0.8772647728279233,1.7311410712838171,-2.088140738019347
1789929258617726700,3.938726806640625,-0.6314619200378656,1.468688404726982,-2.028818195956945
1789929258627754000,3.94875390625,-0.47304421297311783,1.3165440788432956,-1.9667057309150695
1789929258637781000,3.958781005859375,-0.4909887427255511,1.3079460541069508,-1.977182116743922
1789929258647807000,3.968806884765625,-0.6694432756468653,0.8330626430079341,-1.6103928773999214
1789929258657833700,3.978833740234375,-0.8796110436931251,0.7183911386892199,-1.1817992160499096
1789929258667861000,3.988861083984375,-1.3029784948274492,0.5478440178915858,-0.6997323231875896
1789929258677888000,3.998887939453125,-1.6765496493965386,0.5073194075405597,-0.009907646030187607
1789929258687914800,4.008914794921875,-2.018671188212931,0.49860067903399463,0.5599240395247936
1789929258697940700,4.018940673828125,-2.086447378104925,0.6309697526067495,1.1938234158426522
1789929258707968000,4.028968017578125,-1.748577359253168,0.7889370855554938,2.2722698094457385
1789929258717995000,4.0389951171875,-1.313739835077524,0.5486433515757322,3.175730807542801
1789929258728021800,4.049021728515625,-0.9243857127040624,0.044992695675790305,3.5462370215833183
1789929258738049000,4.059049072265625,-1.0542869348585604,-0.5685144654765725,3.741809862565994
1789929258748075000,4.069074951171875,-0.9936933499470353,-0.5325649079561233,3.781193193927407
1789929258758102000,4.07910205078125,-3.9403742865800857,-1.7144848277762532,2.289270628607273
1789929258768128800,4.089128662109375,-5.495909784632921,-2.0873083788484332,1.889950408014655
1789929258778155800,4.09915576171875,-6.4793187641918655,-1.8912658745273947,2.348426581931114
1789929258788182000,4.10918212890625,-7.241736383873224,-1.041818498429656,3.2618905031263825
1789929258798209000,4.119208984375,-7.783053922605514,-0.2555079619854688,3.638416123586893
1789929258808235800,4.12923583984375,-7.292986094117164,-0.05259089571982622,3.774209326389432
1789929258818262800,4.1392626953125,-6.00390314591229,-0.31900954329818487,3.8042695336103436
1789929258828290000,4.1492900390625,-3.934369493207335,-0.19654490088522433,3.495141625118255
1789929258838316000,4.15931591796875,-3.9308240756854413,-0.2168015069723129,3.48524859213531
1789929258848342800,4.1693427734375,0.7695610616952181,-0.053149406385421746,3.219773947408795
1789929258858369800,4.179369873046875,2.498504038412869,-1.0627227547705174,2.161498819696903
1789929258868397000,4.18939697265625,3.708186117644608,-1.3542606460362672,1.1682839009165764
1789929258878423800,4.199423828125,4.7071465943396085,-1.271988021019101,0.7556932798624039
1789929258888449800,4.20944970703125,4.81439145578891,-1.1075368790090083,0.46285482739210126
1789929258898476800,4.219476806640625,4.663702881671488,-0.9863397723138332,0.3675596391946077
1789929258908504000,4.229504150390625,4.203980214825273,-1.0798074528232215,0.3206260385841131
1789929258918530800,4.23953076171875,3.750456110358238,-1.1574138395950198,0.12738777802884577
1789929258928557800,4.249557861328125,3.6993691894605756,-1.178781037272513,0.0807709882825613
1789929258938583800,4.259583740234375,3.7021927224487063,-1.1974796002626418,0.13436112417280674
1789929258948611000,4.269611083984375,3.537696279992163,-1.3537211323320866,0.2692687763124704
1789929258958638000,4.27963818359375,3.55092401035577,-1.4505088971748947,0.5249444960802793
1789929258968664800,4.289664794921875,3.68123264426738,-1.648118796943128,0.5900082121431828
1789929258978691800,4.29969189453125,3.5997026543110606,-1.6897054835677146,0.5332692568331957
1789929258988718000,4.309718017578125,4.179168721912801,-1.8924901556253433,0.10265081165730952
1789929258998745000,4.3197451171875,4.200554332029819,-1.7724375427901744,-0.304423091802001
1789929259008771800,4.329771728515625,3.9430248010888693,-1.3586118269830942,-0.7406272281557321
1789929259018798800,4.339798828125,3.5468747349649665,-0.9249345787584781,-1.0708300733804703
1789929259028824800,4.349824951171875,3.134019617755711,-0.5777925814315676,-1.2936515712946652
1789929259038852000,4.35985205078125,3.0946725267514585,-0.5761038976922631,-1.3081605736404656
1789929259048878800,4.36987890625,1.9829487174466252,-0.05349047490805387,-1.8639456136643886
1789929259058905900,4.37990576171875,1.5178829360067843,-0.05074117619991302,-2.1742396433264015
1789929259068933000,4.38993310546875,1.099805115713179,0.021487024664878843,-2.541488316875696
1789929259078959000,4.399958984375,0.7021829312101006,0.07359452078193425,-2.750367214155197
1789929259088985900,4.40998583984375,0.21718641463667154,0.15063684393018484,-2.8246348118931053
1789929259099012900,4.420012939453125,-0.36305034507662054,0.34491350762248035,-2.7781062849521634
1789929259109040000,4.4300400390625,-1.1192322852388024,0.7879618107825517,-2.5925509801149365
1789929259119067000,4.44006689453125,-1.9383502817854283,1.3074912960767746,-2.334386950662732
1789929259129092900,4.4500927734375,-2.438121758164465,1.7480989280864596,-2.140062063914537
1789929259139119900,4.460119873046875,-2.677301977944374,2.162870984832942,-2.071195448437333
1789929259149147100,4.470147216796875,-2.742582551628351,2.1484914540857076,-2.0980431233525274
1789929259159174000,4.480173828125,-2.0778356171041725,2.54444599763751,-1.7272405567139386
1789929259169199900,4.490199951171875,-1.5297753261134028,2.3240336066916583,-1.4891314732968806
1789929259179227000,4.500226806640625,-0.7743754762396216,2.1050752139464017,-1.3186574177354573
1789929259189254000,4.51025390625,-0.046719957859814164,1.9747715484708546,-1.354298055437207
1789929259199281000,4.520281005859375,0.4428860983356833,1.9150041852504014,-1.441181389120221
1789929259209308000,4.530307861328125,0.7957401896990836,1.8675757868602871,-1.4325462472438812
1789929259219334000,4.540333984375,0.8234947503261267,1.8630659082204102,-1.3516864116340874
1789929259229361000,4.55036083984375,0.6972130338430405,1.7901684297919271,-1.2054957334578036
1789929259239388000,4.560387939453125,0.6233584008201957,1.6642217904821037,-0.8548790457576513
1789929259249415000,4.570414794921875,0.6125508833408355,1.6807868485748767,-0.8504056997358799
1789929259259442000,4.58044189453125,0.36280104649066924,0.9052917206555604,-0.09955167659819125
1789929259269468000,4.590468017578125,0.184424839502573,0.2151622153326869,0.47339609515070913
1789929259279495000,4.600494873046875,-0.056470952023565765,-0.2164005249559879,1.1398837358623743
1789929259289522000,4.61052197265625,-0.06869184343218802,-0.206014155498147,1.14140232373178
1789929259299549000,4.620548828125,-1.2513520602256059,-0.35778351058959956,2.0031126768141982
1789929259309576000,4.630575927734375,-1.7928341418698428,-0.43272272397875783,1.9869664286553859
1789929259319602000,4.640601806640625,-2.552728380553424,-0.3945248030096292,1.7283862196177242
1789929259329629000,4.65062890625,-2.576648769845068,-0.3908262407526374,1.7240946599036455
1789929259339656000,4.660656005859375,-3.738952719569206,-0.327582725854218,2.2363760737657548
1789929259349682700,4.6706826171875,-4.209963380888104,-0.15714081899672747,2.5999574569791553
1789929259359708000,4.6807080078125,-4.340264123754203,-0.032060733388364314,3.231339297518134
1789929259369735000,4.69073486328125,-4.009955772328377,-0.10050473953932523,4.321735656633973
1789929259379762000,4.700761962890625,-3.207069364136457,-0.5130757791101932,5.093304551020264
1789929259389789000,4.710788818359375,-2.6960399961620567,-0.738894705274701,5.491036625638604
1789929259399816000,4.72081591796875,-1.9823076430641113,-0.6752624833196401,5.845084456831216
1789929259409842000,4.730842041015625,-1.184937952467054,-0.37031682894825935,5.736420668494701
1789929259419869000,4.740868896484375,-0.7152291675269603,0.059418111391365526,4.853746437838673
1789929259429896000,4.75089599609375,-0.43896147223785514,0.45954409540891644,3.4339573808372017
1789929259439922700,4.760922607421875,-0.09133724435195326,0.5747589128240943,1.9919769502937792
1789929259449949000,4.770948974609375,0.5650748464167118,0.0844812409773469,0.8289332881182432
1789929259459976000,4.780975830078125,1.155442247261107,-0.5954141628399491,-0.06861644010841846
1789929259470003000,4.7910029296875,1.7186974770352244,-1.2201043967857956,-0.4530599940866232
1789929259480029700,4.80102978515625,1.7990744975641368,-1.2027917351961135,-0.41951545188128947
1789929259490057000,4.811056884765625,2.2700413197413085,-1.7297504937082528,-0.5025643219679594
1789929259500083000,4.8210830078125,3.2311309154644605,-2.840885397209227,-0.5320481906056403
1789929259510110000,4.83110986328125,3.5824200955986973,-3.29258462433666,-0.5115601138502359
1789929259520137000,4.841136962890625,3.6666523302510377,-3.6440862781777974,-0.5393488690078259
1789929259530164000,4.8511640625,3.775809455062449,-3.5209199172362684,-0.9403332234203815
1789929259540191000,4.86119091796875,3.6786338599458333,-3.058809186209738,-1.2958809377819298
1789929259550217000,4.871217041015625,3.283777633024752,-2.5017493039444085,-1.2593120793193577
1789929259560244000,4.881243896484375,2.896967349915206,-2.46133195336014,-0.973441712296009
1789929259570271000,4.89127099609375,2.6719123938605187,-2.025562409031391,-0.880079537987709
1789929259580298000,4.901298095703125,2.2789245911598206,-1.3037258060634136,-0.879805397221446
1789929259590324000,4.911323974609375,2.2843001467183233,-1.2760405112802982,-0.8651181156992912
1789929259600351000,4.92135107421875,1.7993042146667837,-0.03002309008091688,-1.108736902448535
1789929259610378000,4.9313779296875,1.8021528820961712,0.45288317621499297,-1.4768781409233807
1789929259620405000,4.941405029296875,1.775170474885404,0.8523200089246035,-1.8675538672894239
1789929259630432000,4.951431884765625,1.7322504938304424,1.2742346309021115,-2.1581419104844333
1789929259640458000,4.9614580078125,1.6552157694667577,1.6069026971966027,-2.354823589491844
1789929259650484700,4.971484619140625,1.3282716337770222,1.753760022588074,-2.5329028593599796
1789929259660512000,4.981511962890625,1.1132172627329826,1.9617671054691075,-2.6180811426907775
1789929259670539000,4.9915390625,0.8992670535385608,2.031507873432338,-2.554851071795821
1789929259680565000,5.00156494140625,0.6659244538709521,2.0877897326245902,-2.4929823523819445
1789929259690591700,5.011591796875,0.3087327716946602,2.1614216628074643,-2.455039282956719
1789929259700619000,5.021618896484375,-0.030659342157840726,2.0789009082481265,-2.338443532577157
1789929259710646000,5.03164599609375,-0.3351663128510117,2.151627706284821,-2.144277051261067
1789929259720672800,5.0416728515625,-0.6459387736797333,2.1145222567275166,-2.084202229526639
1789929259730698800,5.05169873046875,-0.778585787411034,2.093709770323336,-1.9833932463437318
1789929259740726000,5.06172607421875,-0.7229971711799502,2.0092726607486604,-1.9048329198479652
1789929259750753000,5.0717529296875,-0.7272419691428542,2.02000711299181,-1.9009417576283216
1789929259760779800,5.08177978515625,-0.39722529413998126,1.6466422946497796,-1.6435650791615246
1789929259770807000,5.09180712890625,-0.34602994443178176,1.4432336454749106,-1.5398615435808896
1789929259780833000,5.1018330078125,-0.3820730254545808,1.2265104644358158,-1.415229786261916
1789929259790860000,5.111860107421875,-0.4300912064313888,1.054630925990641,-1.248647477442026
1789929259800886800,5.12188671875,-0.608512421604991,0.919414354032278,-0.9413181428045034
1789929259810913800,5.131913818359375,-0.8968965250149369,0.830123374685645,-0.5982336041748524
1789929259820940000,5.14193994140625,-0.8946864477500319,0.8295482051461934,-0.5977724164038897
1789929259830967000,5.151967041015625,-1.2997457965165375,0.49737610567510127,0.04624854095578193
1789929259840993800,5.161993896484375,-1.4862275685489177,0.4345087306126952,0.5275029483914375
1789929259851020800,5.172020751953125,-1.5068188134178517,0.5315419946491718,1.2300649420469998
1789929259861048000,5.182048095703125,-1.420287946434319,0.46245238407105205,2.004599700501561
1789929259871074000,5.192073974609375,-1.4352756722077726,0.45485506080985066,1.9957839413613079
1789929259881100800,5.202100830078125,-1.1384078180909156,-0.5177525387495756,2.9488492205828427
1789929259891127800,5.2121279296875,-1.2105094699665904,-1.1889847436398266,2.9200737924754616
1789929259901155000,5.222155029296875,-1.8842872676864266,-1.5563880232289433,2.624990775948763
1789929259911181000,5.23218115234375,-3.0674495887830853,-1.7088891997262834,2.245630808845162
1789929259921207800,5.242207763671875,-4.366054398570954,-1.6978279997467993,2.23405318377614
1789929259931234800,5.25223486328125,-5.703028101980686,-1.5689116969764232,2.7823399769991632
1789929259941262000,5.262261962890625,-6.713859341472387,-1.2092068629354238,3.523956216192245
1789929259951288800,5.272288818359375,-7.223917818588018,-0.6187532451122999,4.1715503558635705
1789929259961314800,5.282314697265625,-6.90125004504323,-0.44485710614770646,4.2670711695104835
1789929259971341800,5.292341796875,-6.141919869983196,-0.5388406272247434,4.204635463863611
1789929259981369000,5.302369140625,-4.865289576116204,-0.012254501417279243,4.139658841562271
1789929259991395800,5.312395751953125,-2.403944178752601,0.8385860826045274,3.864296424549818
1789929260001421800,5.322421875,0.8155836849406362,0.9630369303986429,3.394960418444872
1789929260011448800,5.33244873046875,2.867754407173395,0.28373277047276496,2.319835862740874
1789929260021476000,5.34247607421875,4.1019925432518125,-0.3416974681854248,1.3964187028080224
1789929260031502800,5.3525029296875,4.678736784674227,-0.6483455425605178,0.6982400388032197
1789929260041529900,5.36252978515625,4.923433722048998,-0.851901198990643,-0.01928688427209854
1789929260051555800,5.372555908203125,4.768713115936517,-1.0585720648318528,-0.42442017505764956
1789929260061582800,5.382582763671875,4.522822292602062,-1.4054764540106057,-0.7260708795368671
1789929260071609900,5.39260986328125,4.161583965383469,-1.691623592148721,-0.9247820185452699
1789929260081636900,5.402636962890625,3.74693699632138,-1.9614874117448924,-0.9258528626471757
1789929260091662800,5.412662841796875,3.4438337549462914,-2.0077505657479167,-0.6284720905721187
1789929260101689900,5.42268994140625,3.2290997018977996,-2.062134774625301,-0.17911854978799818
1789929260111716900,5.432716796875,3.1165342299476264,-2.264102869603038,0.3510211768478155
1789929260121744000,5.442743896484375,3.248639099626243,-2.3641201178863644,0.6599936025172471
1789929260131771000,5.45277099609375,3.3918142293736335,-2.2469132498711346,0.5999328093081713
1789929260141796900,5.462796875,3.3958988683387634,-2.1286294002741575,0.5413625469177961
1789929260151824000,5.472823974609375,3.281015182574093,-1.665860789860785,0.1764683275401592
1789929260161851000,5.482850830078125,2.928688183824718,-1.052976729042828,-0.40641748537719247
1789929260171878000,5.4928779296875,2.514128893046081,-0.34568975269198415,-0.9759551564216613
1789929260181904000,5.50290380859375,2.0331264145448804,0.07724924389719963,-1.3574223249375819
1789929260191931100,5.51293115234375,1.5075824912667273,0.34156741206496954,-1.7974825521975755
1789929260201958000,5.5229580078125,1.170298747870326,0.4329407506436109,-2.1401339601069687
1789929260211985000,5.53298486328125,0.983210534377396,0.4928121587604284,-2.5524878497958183
1789929260222012000,5.543011962890625,0.74006228774935,0.4796837971180677,-2.866979331147671
1789929260232038100,5.5530380859375,0.42864656058102846,0.5164949399039149,-3.06110898758471
1789929260242065000,5.56306494140625,0.15374328551292418,0.7110057046130299,-3.193464032632112
1789929260252092000,5.573091796875,0.11075286957025528,0.7159276711851358,-3.2046687327355143
1789929260262119000,5.583118896484375,-0.3122615303426981,0.8594684193745254,-3.0632249568253753
1789929260272145200,5.593145263671875,-0.35733664360493417,0.8609192027047275,-3.0761434751093386
1789929260282172000,5.603171875,-0.6111036071419715,1.3301692840918897,-2.666766555404663
1789929260292199000,5.613198974609375,-0.6756120274096727,1.557427303148806,-2.478561028319597
1789929260302226000,5.623225830078125,-0.7272818627618253,1.8455542169272898,-2.3746721992999316
1789929260312253000,5.6332529296875,-0.7053557160273194,1.9964502963155506,-2.2869793027997014
1789929260322279000,5.64327880859375,-0.7510679581493139,1.9938322227716445,-2.300609768745303
1789929260332306000,5.653305908203125,-0.3893620134189725,1.9051570372357964,-1.991302412033081
1789929260342333000,5.6633330078125,-0.23256986172944305,1.8537834083512423,-1.7974866438508033
1789929260352360400,5.6733603515625,-0.16775222938209772,1.7495409435883162,-1.6294570588320492
1789929260362386700,5.68338671875,-0.09044073390364646,1.5235855315625666,-1.3707400716722011
1789929260372413700,5.69341357421875,-0.0508159950017929,1.3330474698767065,-1.017968836286664
1789929260382440400,5.7034404296875,-0.10885814186483621,1.1305158957973123,-0.6009750118374824
1789929260392467500,5.713467529296875,-0.17318419130295515,0.863074334912002,-0.17256196775138377
1789929260402494700,5.72349462890625,-0.35003859555125233,0.5974895078092813,0.3115858230382204
1789929260412520700,5.733520751953125,-0.606768500547111,0.3466986374735832,0.9301748174995184
1789929260422547500,5.74354736328125,-0.9522013558685779,0.17601853794604538,1.5143734665811062
1789929260432574500,5.753574462890625,-1.5653613110184668,0.04235445612668991,2.1936019309222696
1789929260442601700,5.763601806640625,-2.2241361853957176,0.010229717591404914,2.56417828758955
1789929260452627700,5.773627685546875,-2.880333610500395,-0.25360826584398743,2.7121879978865384
1789929260462654500,5.783654541015625,-3.312498700596392,-0.5501274526536465,2.614232650569081
1789929260472681500,5.793681396484375,-3.637366322273016,-0.5773743560194969,2.672034851196408
1789929260482708700,5.803708740234375,-3.6530902533665297,-0.5896826334506273,2.6630484116643665
1789929260492735700,5.81373583984375,-4.208721564133465,-1.1492384241849183,4.993211022630334
1789929260502761700,5.82376171875,-4.190541179798543,-1.6269649497553704,6.073100600779056
1789929260512788500,5.83378857421875,-3.910771759998798,-1.5936396032586693,6.265511178338527
1789929260522815500,5.8438154296875,-3.8874376461625095,-1.630951389043033,6.254586464220285
1789929260532842800,5.8538427734375,-3.6726711521491406,-0.36631957600563764,5.86989974913597
1789929260542868700,5.86386865234375,-3.4798610538780688,-0.07293430330753325,4.9422220091491935
1789929260552895500,5.8738955078125,-2.665641643027961,0.1914659901857376,3.455171433779597
1789929260562922500,5.883922607421875,-1.1321078411638736,-0.03402034302353859,1.5160294170945883
1789929260572949800,5.89394970703125,0.3409019338935613,-0.39417321309298275,-0.13097849599719047
1789929260582975700,5.903975830078125,1.4498513100489974,-0.9686927642032503,-0.997259810256958
1789929260593002500,5.91400244140625,2.337511220163107,-1.8349232250586152,-1.434232592895627
1789929260603029500,5.924029541015625,3.2807927719950674,-2.5396353824853897,-1.6320973442077635
1789929260613056800,5.934056884765625,3.859303438568115,-3.4910032101392745,-1.4814239676594734
1789929260623083500,5.94408349609375,4.439135416872799,-4.142183976125717,-1.2965817795276642
1789929260633109500,5.954109619140625,4.5421652909755705,-4.556746481774747,-1.3078437627762556
1789929260643136500,5.964136474609375,4.4259825053110715,-4.9261985105872155,-1.5507424185574055
1789929260653163800,5.974163818359375,4.074887678705156,-4.7917222356021405,-2.027705266278982
1789929260663190500,5.9841904296875,3.6857749638721344,-4.062711210960149,-2.1248504662573335
1789929260673216500,5.994216552734375,3.2219048219576476,-3.4885654615983364,-1.688942097979784
1789929260683243500,6.004243408203125,2.740725233323872,-2.8940330500289795,-1.2898767289310693
1789929260693270800,6.014270751953125,2.230045701700449,-2.11314541541636,-1.0763181494027376
1789929260703297500,6.024297607421875,1.937224784886837,-1.290339670267701,-0.8497726625293492
1789929260713323500,6.034323486328125,1.9044445050522685,-0.4781169861927628,-0.7041992394685744
1789929260723350500,6.0443505859375,1.8589935442149639,0.3146232910379767,-0.7783657149195671
1789929260733377800,6.054377685546875,1.8374676488444208,0.845364198437333,-1.0280541769713163
1789929260743404500,6.064404541015625,1.8111589031115174,1.256085226227343,-1.401512811076641
1789929260753431600,6.074431640625,1.7568588653862476,1.728002480997145,-1.7649965791344642
1789929260763457500,6.08445751953125,1.728396448750794,2.121050489452481,-2.0408084934800863
1789929260773484500,6.094484619140625,1.688388263489306,2.1316101696506142,-2.048691940206289
1789929260783511600,6.104511474609375,1.242845513164997,2.5022908634752032,-2.381551437419653
1789929260793538600,6.11453857421875,0.8933502307102084,2.495072310398519,-2.3322902706444264
1789929260803564500,6.124564453125,0.5697405001401901,2.5319495041579008,-2.179996014896035
1789929260813591600,6.134591552734375,0.549106292912364,2.5543624114960433,-2.175637819686532
1789929260823618600,6.14461865234375,-0.6489920237705111,2.2704981235980988,-2.187396646541357
1789929260833645600,6.1546455078125,-1.1736802070021628,2.362454815022647,-2.3605127410441638
1789929260843672600,6.164672607421875,-1.7606062352210283,2.406549392814934,-2.419787936833501
1789929260853698600,6.174698486328125,-2.0584005565330386,2.3602964679449796,-2.512920394039154
1789929260863725600,6.1847255859375,-1.9158052725002168,2.3003511178091167,-2.4940514429181815
1789929260873752600,6.194752685546875,-1.5228528333738445,2.094903071761131,-2.3334505465954543
1789929260883779600,6.204779541015625,-1.2386097752913832,1.8252078867301345,-2.2793349255263804
1789929260893805600,6.2148056640625,-1.0287705085471273,1.4365546061024068,-2.2513702292799946
1789929260903832600,6.22483251953125,-0.818905522839725,1.020264253747463,-2.0796429587870837
1789929260913859600,6.234859619140625,-0.7329179689526557,0.7085799387708306,-1.7852981934070586
1789929260923886600,6.244886474609375,-0.8304930847808718,0.534900657427311,-1.3229478084057569
1789929260933912600,6.25491259765625,-1.3295780402004718,0.5902826451703905,-0.688218995526433
1789929260943939600,6.264939697265625,-1.8850532836228608,0.7837798489227891,0.0587982259273529
1789929260953966600,6.274966552734375,-2.053155349355936,0.7311316700577736,0.8253390630185604
1789929260963993600,6.28499365234375,-1.8454668309047817,0.5469415160939097,1.7081769598037004
1789929260974020600,6.2950205078125,-1.3958058316066861,0.02135959889292717,2.681471957105398
1789929260984046600,6.305046630859375,-0.6858601574406027,-1.1082120017915964,3.168426622009277
1789929260994073600,6.315073486328125,-0.5140656669303775,-2.184236428944766,3.0806051306933164
1789929261004100600,6.3251005859375,-1.4184776821419596,-2.691016322781145,3.0085674839645624
1789929261014127600,6.335127685546875,-2.64077345149219,-2.8499299966692924,2.673993584048748
1789929261024153300,6.3451533203125,-2.583366679923236,-2.8068405042663214,2.713495573353767
1789929261034180600,6.3551806640625,-5.398137977188825,-3.2220459839940068,2.6198475678414104
1789929261044207600,6.36520751953125,-6.530346356117725,-2.6245842409744857,4.138227347454428
1789929261054234600,6.375234619140625,-7.5531228849470615,-2.0329396598011256,4.596061716336012
1789929261064260600,6.385260498046875,-7.401403214216232,-1.2438351087242363,4.802141922807693
1789929261074287600,6.39528759765625,-6.295515855979919,-0.8274833815708756,4.465336318317055
1789929261084314600,6.405314697265625,-3.8836245176151394,-0.5048731834322214,3.8238136075139044
1789929261094341600,6.415341552734375,-0.672280544899404,0.15237053585499524,3.332968364912271
1789929261104367600,6.42536767578125,1.8323834774479268,0.19229075057208536,2.8424323343902826
1789929261114394600,6.43539453125,3.566812484361231,-0.43644642067700623,1.5414596264272928
1789929261124421600,6.445421630859375,4.565360580863058,-0.8023007172584533,0.44092648870050904
1789929261134448600,6.45544873046875,4.833620764654874,-0.8418290100485086,0.030006431207060813
1789929261144475600,6.4654755859375,4.6500995959937566,-0.7951365247175097,-0.05471884765923023
1789929261154501600,6.475501708984375,4.193923807974159,-0.7104653141260147,-0.05418167204260826
1789929261164528600,6.485528564453125,3.535499354469776,-0.8501154846176504,-0.05407645810246467
1789929261174555600,6.4955556640625,3.0331603656902906,-0.8925131953641772,-0.061467152875661846
1789929261184582400,6.50558251953125,2.835452558505535,-0.7594181456044315,0.060086512172222134
1789929261194608600,6.515608642578125,2.781854239308834,-0.6707678022488951,0.35112463722229004
1789929261204635600,6.5256357421875,2.990129909998178,-0.6027636488199234,0.5945978780210018
1789929261214662700,6.53566259765625,3.0478587531283496,-0.8260349363282322,0.9538970538705587
1789929261224689400,6.545689453125,3.344784182651341,-1.1074699512526391,1.247239364209771
1789929261234715600,6.555715576171875,3.5787215333417057,-1.2008481999129057,1.3966373139947652
1789929261244742700,6.56574267578125,3.6903365726992488,-1.228635786026716,1.2867729176968334
1789929261254769700,6.575769775390625,3.7013103866562247,-0.9847224002450704,0.7627396912425756
1789929261264796400,6.58579638671875,3.6192835530936716,-0.5079316942200064,-0.00017360300123691558
1789929261274823700,6.59582373046875,3.5872584755405783,-0.5120046427473426,-0.011792144602537155
1789929261284849700,6.605849609375,2.0679262175083157,0.3093582101166248,-1.0818132396876812
1789929261294876700,6.615876708984375,1.2544865588590501,0.4911316583275795,-1.3256500531017779
1789929261304903400,6.6259033203125,0.7288681090399622,0.5540130619153381,-1.622932040977478
1789929261314930700,6.6359306640625,0.48959728836715216,0.7246130819439888,-2.1398937216103078
1789929261324956700,6.645956787109375,0.4627320777952671,0.7437436066105961,-2.1395652203083038
1789929261334983700,6.655983642578125,0.17152356461435556,0.6392790235295891,-2.8418846373796463
1789929261345010400,6.666010498046875,0.10862024145573378,0.6398264282792806,-3.0707763951182363
1789929261355037200,6.676037109375,0.07417436649650334,0.6497784979730844,-3.076282591319084
1789929261365063200,6.686063232421875,0.029277532410621643,0.6004673545762896,-3.1139655485033986
1789929261375090200,6.696090087890625,-0.028867051913589237,0.5520563748896121,-2.9651433527797457
1789929261385117000,6.706116943359375,-0.13338088096380232,0.6528828937292098,-2.7733406779855487
1789929261395144200,6.716144287109375,-0.3068766224339604,0.8318918456628919,-2.655697464379668
1789929261405170200,6.726170166015625,-0.44035380337908864,1.0190592618718743,-2.6993735244989394
1789929261415197200,6.736197265625,-0.4452792770825326,1.2222791104763746,-2.7787288007646795
1789929261425224200,6.74622412109375,-0.39153643484860656,1.382187640620768,-2.7490795124322176
1789929261435251200,6.756251220703125,-0.2583971075557172,1.3940227475821971,-2.6889304564177987
1789929261445278200,6.7662783203125,-0.11543678960278629,1.3859765115097165,-2.650029940137267
1789929261455304200,6.77630419921875,0.035494799490272996,1.4010916630551218,-2.599423203971982
1789929261465331200,6.786331298828125,0.16342764418125152,1.364641462536156,-2.4676947663903235
1789929261475358200,6.796358154296875,0.2779670465528965,1.3200024026036261,-2.194090591222048
1789929261485385200,6.80638525390625,0.38536476047635077,1.2927552069768309,-1.8455407729238271
1789929261495411200,6.8164111328125,0.4943021050572395,1.1429133128166198,-1.3465280059576035
1789929261505438200,6.826438232421875,0.543463756980747,0.9810933960929512,-0.7534311801493168
1789929261515465200,6.83646533203125,0.4847044017590582,0.7700009144172072,-0.03745499364733696
1789929261525492200,6.8464921875,0.4582032021939754,0.7836480392366647,-0.036888591936230654
1789929261535518200,6.856518310546875,-0.4743114564299583,0.33146278215795755,1.841947132346034
1789929261545545200,6.866545166015625,-1.2922912427268922,0.10254822806566953,2.810369555175304
1789929261555572200,6.876572265625,-2.090987798013538,-0.10740648175179958,3.36197234107852
1789929261565599200,6.88659912109375,-2.69322640004605,-0.3601753741621971,3.4514386769920584
1789929261575625200,6.896625244140625,-3.2336358840227124,-0.725916273497045,3.5044553969085213
1789929261585652200,6.90665234375,-3.7504303913950916,-1.0315616005703807,3.597468027126789
1789929261595679200,6.91667919921875,-4.113697886353731,-0.9584025485962628,3.3137767577081916
1789929261605706200,6.926706298828125,-4.5051533649206155,-0.8779746746629477,3.5584827551722524
1789929261615733200,6.936733154296875,-4.666279161900282,-1.0827753627181051,4.311853145045042
1789929261625759200,6.94675927734375,-4.59509491713047,-1.3995295283049345,4.740591183301806
1789929261635786000,6.956785888671875,-4.136062862896919,-1.282301617501676,4.983400407233834
1789929261645813200,6.966813232421875,-3.683791388839483,-0.576943271125853,5.355674215468764
1789929261655840300,6.97684033203125,-3.231516407650709,-0.21199439895153044,5.431160541346669
1789929261665866200,6.9868662109375,-2.613162390989065,-0.0030351299121975897,4.483547097790241
1789929261675893000,6.99689306640625,-1.651882241129875,-0.005125964711606502,2.8590514607578514
1789929261685920300,7.006920166015625,-0.34299145351871846,-0.17378128041326998,1.1426116995215416
1789929261695947300,7.016947265625,0.989775591981411,-0.5155205419138074,-0.16297288615107536
1789929261705973200,7.02697314453125,2.210199722240865,-1.113210832992196,-0.8936527207881212
1789929261716000000,7.037,3.1887729522064325,-1.8111749774634838,-1.3092068678230047
1789929261726027300,7.04702734375,4.013066890086233,-2.6177386128634215,-1.4033599002480506
1789929261736054300,7.05705419921875,4.6196787387669085,-3.382745372255146,-1.2442150479525327
1789929261746080300,7.067080322265625,4.912554600638151,-4.027987688103318,-0.9365373382687568
1789929261756107000,7.07710693359375,4.904588736325502,-4.423682996197044,-0.7213800913721322
1789929261766134300,7.08713427734375,4.5322173129349945,-4.284268388026953,-0.8460966043651104
1789929261776161300,7.097161376953125,3.907010361638665,-3.7806422820463776,-0.9669827454149722
1789929261786187300,7.107187255859375,3.2867119329109786,-3.5050744055896996,-1.073778986313939
1789929261796214000,7.117214111328125,2.7569872168168423,-3.1274627434581515,-1.225780981117487
1789929261806241300,7.1272412109375,2.2417495834976435,-2.6654674555048343,-1.0066115759700536
1789929261816268300,7.137268310546875,2.2550489177927373,-2.65479846971333,-0.9975392117202282
1789929261826295000,7.147294921875,1.8341130777195096,-1.218509236548841,-0.597745528396964
1789929261836321000,7.157321044921875,1.7641662657901644,-0.3912625863432884,-0.4696089778274297
1789929261846348300,7.167348388671875,1.790709404800832,0.35081425609886646,-0.514752772411704
1789929261856375300,7.177375244140625,1.7615362095475195,1.0979691324576735,-0.7572177129507064
1789929261866402000,7.187402099609375,1.7628019916996358,1.7951622925564645,-1.083973048070073
1789929261876428000,7.197427978515625,1.760101500569284,2.3116528485462067,-1.4494962130010127
1789929261886455000,7.207455078125,1.4661717457309364,2.535048054695129,-1.6423562878936528
1789929261896482300,7.217482421875,1.1295219163239,2.7747999368831513,-1.8330442794442177
1789929261906509000,7.227509033203125,0.8400982407331467,2.8750547933146358,-1.8562825316905973
1789929261916535000,7.23753515625,0.3460924882739782,2.856245171165466,-1.867690060889721
1789929261926562000,7.24756201171875,-0.4029916025817394,2.6070664122015237,-2.1289485492259264
1789929261936589300,7.25758935546875,-1.1534548728361724,2.5264406776085493,-2.333720595708489
1789929261946616000,7.267615966796875,-1.5557529401957988,2.4655960405454036,-2.4934628293752668
1789929261956642000,7.27764208984375,-1.7931961070500313,2.2382219938933847,-2.6289731235831972
1789929261966669000,7.2876689453125,-1.6856828039228915,2.127565570434928,-2.7115643130302427
1789929261976696300,7.2976962890625,-1.3291343880861997,2.088639042930305,-2.6502918059438465
1789929261986723000,7.30772314453125,-0.903125482532382,2.0463658353462812,-2.6271792259037494
1789929261996749000,7.3177490234375,-0.5224158543854952,1.8766838069453835,-2.664901930576563
1789929262006776000,7.327776123046875,-0.22652210599780082,1.5847057706966996,-2.655999077674746
1789929262016803300,7.33780322265625,-0.049456689347326756,1.3836319942101836,-2.6201439204394816
1789929262026830000,7.347830078125,-0.1641869381159544,1.2009417234152555,-2.491578915324807
1789929262036857000,7.357857177734375,-0.4055307656705379,1.1143269775405527,-2.19253810108304
1789929262046883000,7.367883056640625,-0.6039212944224477,1.022273255482316,-1.8255349267274141
1789929262056910300,7.377910400390625,-0.8953975186288357,0.9069020784616469,-1.3257564360857008
1789929262066937000,7.38793701171875,-1.2766668264850973,0.7598956999883055,-0.6501087528407573
1789929262076964000,7.397964111328125,-1.6587898285612463,0.6091062958449125,-0.061012394845485686
1789929262086990000,7.407989990234375,-1.8122154264271257,0.3587508943170309,0.6391811161130666
1789929262097017000,7.41801708984375,-1.652123064148426,0.07981295690536498,1.6443372325778007
1789929262107044000,7.428044189453125,-1.2180682147830724,-0.49766456722766156,2.7151620452612635
1789929262117071000,7.438071044921875,-0.6041872518822551,-1.3473872531354427,2.9927666882425545
1789929262127097000,7.44809716796875,-0.7307666361376642,-1.9159347440987824,2.9853830077320334
1789929262137124000,7.4581240234375,-1.7240888146847486,-2.003283064945042,2.7991584253311155
1789929262147151000,7.468151123046875,-3.2400144791439174,-2.0629601195335385,2.3958938510268926
1789929262157178000,7.47817822265625,-4.410070942690968,-1.9824308310523628,2.1959242363899945
1789929262167204000,7.4882041015625,-5.104824892944097,-1.854545332634449,2.4616367815256117
1789929262177231000,7.498231201171875,-5.830196684300899,-1.5929484061241148,3.669019351643324
1789929262187258400,7.50825830078125,-6.649858870726823,-1.1914973109826446,4.705996839782595
1789929262197285000,7.51828515625,-6.9083496479153625,-0.7076873738452791,5.175706355375051
1789929262207311000,7.52831103515625,-6.644822045603394,-0.5740577788174152,5.2427159448087215
1789929262217338000,7.538338134765625,-5.340066896492242,-0.3000137509271502,5.242212086939811
1789929262227365400,7.548365478515625,-2.378003389549255,0.0169663323700428,5.268368272459507
1789929262237392100,7.55839208984375,0.7628066189989448,-0.025284078860282895,4.2181677301317455
1789929262247418000,7.568418212890625,3.5364123776614664,-0.7837830637931823,1.8952058443248272
1789929262257445000,7.578445068359375,5.783645945528149,-1.4318404370620845,-0.14472060562372208
1789929262267472400,7.588472412109375,6.6201289183735845,-1.455749135915935,-1.0713140575051308
1789929262277499100,7.5984990234375,6.34665216897726,-1.4172051779881119,-1.2958704163879156
1789929262287525000,7.608525146484375,5.366994650906324,-1.8260680106908083,-0.8720289180010556
1789929262297552100,7.61855224609375,4.263491849718988,-2.0119524013519285,-0.18261106807887553
1789929262307579400,7.628579345703125,3.137766403068602,-1.6411948428988457,0.06946750397980213
1789929262317606100,7.638606201171875,2.6052000338077543,-1.2416703319057822,0.6335767202347516
1789929262327632100,7.648632080078125,2.192455975757539,-0.6531415446653962,0.8906202212244272
1789929262337659100,7.6586591796875,2.1524562660634516,-0.4671814584195614,1.1235393347829579
1789929262347686100,7.66868603515625,2.2995511996030804,-0.7297124509096146,1.336950030273199
1789929262357713000,7.678712890625,2.675879543925822,-1.0677113568380474,1.3362147017359733
1789929262367740200,7.688740234375,3.1664860093355176,-1.0921236212998628,1.2854811243206261
1789929262377766100,7.69876611328125,3.477159685964882,-1.0158680646151304,1.2154875506401062
1789929262387793200,7.708793212890625,3.3900165323019027,-0.7377905434250831,0.8594885853797197
1789929262397820000,7.71881982421875,3.1212858083888886,-0.23567513426840303,0.17980887013971805
1789929262407847000,7.728846923828125,2.7564985565170645,0.3306067498505115,-0.4890431616157293
1789929262417873200,7.738873046875,2.0694787076473236,0.7400391991347074,-0.9918377852082252
1789929262427900200,7.748900146484375,1.3115379411190748,0.7872463559895754,-1.3139683831363915
1789929262437927000,7.758927001953125,0.6152332542926072,0.846393833746016,-1.692496575590968
1789929262447954000,7.768953857421875,0.3307145941391587,0.8778688762009144,-2.0656980200648305
1789929262457980200,7.778980224609375,0.1490259016022086,0.8429203124165534,-2.445873395204544
1789929262468007200,7.789007080078125,0.03755670045614242,0.8928180235296487,-2.7249077787280083
1789929262478034000,7.799033935546875,-0.21097499277591705,0.9471794360533357,-2.8403099354088304
1789929262488061000,7.80906103515625,-0.42862785588055846,1.0053457938179373,-2.720795667234063
1789929262498087000,7.8190869140625,-0.4569724913552403,1.0584826329827308,-2.5321716224759814
1789929262508114200,7.8291142578125,-0.6235501240000129,1.2197300105154514,-2.490737788325548
1789929262518141000,7.839140869140625,-0.6647346595644951,1.396216458234191,-2.483530048903823
1789929262528168000,7.84916796875,-0.7007014604806899,1.5680048112645744,-2.515416887030005
1789929262538194000,7.85919384765625,-0.6311562150895595,1.6892378660559653,-2.5131810908019543
1789929262548221200,7.86922119140625,-0.49268765559792516,1.706752772219479,-2.392213701209426
1789929262558248000,7.879248046875,-0.3428415236540138,1.6694073764264583,-2.283470417895913
1789929262568275000,7.88927490234375,-0.09303206557109951,1.6268340168520807,-2.2323352739423514
1789929262578301000,7.899301025390625,0.15100509272068738,1.5848191679432988,-2.2353058141857383
1789929262588328200,7.909328125,0.32114450950026513,1.5080635527819395,-2.241106609418988
1789929262598355000,7.91935498046875,0.4584093922905624,1.4396619244679807,-2.2163795799195767
1789929262608382000,7.9293818359375,0.5497849228262901,1.3581059232875703,-2.070872792354226
1789929262618408000,7.939407958984375,0.6572773292958736,1.1950254851087927,-1.7246107927322387
1789929262628435200,7.949435302734375,0.6273897021628916,0.995163422499597,-1.1486059715002774
1789929262638462000,7.9594619140625,0.49863808843493457,0.7616328990444541,-0.476512765866518
1789929262648489000,7.969489013671875,0.15988441861644387,0.5404086071938276,0.3530360238015651
1789929262658515000,7.979514892578125,0.14235212292671204,0.5627896580889821,0.3587707680612802
1789929262668542200,7.989542236328125,-1.2084813251398503,0.3625377193793654,2.0750404334276915
1789929262678569000,7.99956884765625,-1.9671651651203632,0.11367927841097115,2.619937584212422
1789929262688596000,8.009595947265625,-2.66388135535717,-0.24613427670150995,2.724147315749526
1789929262698622000,8.0196220703125,-3.3482167874485254,-0.7227557636395097,2.6052269218146797
1789929262708649200,8.029649169921875,-3.850755974975228,-1.0846829499050974,2.6764450688540933
1789929262718676000,8.039676025390625,-4.236695320469141,-0.879292479263246,2.6423043143212794
1789929262728703000,8.049702880859375,-4.269495474047958,-0.8960939764603972,2.626752524924278
1789929262738729000,8.05972900390625,-4.505222046242654,-0.27475626781284807,2.3211802630871534
1789929262748756000,8.069755859375,-4.726604159003496,-0.08018383604437113,2.6482722828149794
1789929262758783000,8.079782958984374,-3.5100673915714022,-0.6913087782353162,4.384295865443349
1789929262768810000,8.08981005859375,-2.8940532160341736,-0.9306345439657568,4.969222828799486
1789929262778836000,8.0998359375,-2.645315478836,-0.43805531717836854,5.441410132682323
1789929262788863000,8.109863037109376,-2.569901925933361,-0.4620703990161419,5.448301061239838
1789929262798890200,8.11989013671875,-1.2675696200549602,0.6401996455058455,4.786088029107451
1789929262808917000,8.1299169921875,-0.8565148302659392,0.5818710829168557,3.2390427115023135
1789929262818943000,8.13994287109375,0.07006444695964455,0.29791385603845116,1.5374445455670356
1789929262828970000,8.149969970703125,1.231513679550588,-0.30981939788758756,0.21923136446774005
1789929262838997200,8.159997314453125,1.3422156957164406,-0.27942572092860934,0.26631168007254596
1789929262849024000,8.17002392578125,2.9926214345529676,-2.3173317709654566,-0.8840203845679759
1789929262859050000,8.180050048828125,3.0672388686418532,-2.280550438795984,-0.8426654608726502
1789929262869077000,8.190076904296875,4.516082755213976,-3.6873400212317704,-0.7231646367013455
1789929262879104300,8.200104248046875,5.012561619788408,-4.331688895371556,-0.6222258896589279
1789929262889131000,8.210131103515625,5.051158769208192,-4.303098176181316,-0.595052636051178
1789929262899158000,8.220157958984375,4.177546089147031,-4.699102111832797,-0.7823205900251865
1789929262909184000,8.23018408203125,3.561952769370377,-4.183373187865317,-1.2185399239480494
1789929262919211300,8.240211181640625,2.754236749064922,-3.4943376152589916,-1.3493208515465258
1789929262929238000,8.250238037109375,2.4084125563383103,-3.0610388449579475,-1.0739777237564325
1789929262939265000,8.26026513671875,2.4209692555725573,-3.036463206627965,-1.0570961470603941
1789929262949291000,8.270291015625,1.786119738923013,-1.6468123905196785,-0.7819897506356239
1789929262959318300,8.280318359375,1.556947702938318,-0.7248080199941992,-0.5680383723974227
1789929262969345000,8.290344970703124,1.655134813185036,-0.16833119831383228,-0.46008711624443527
1789929262979372000,8.3003720703125,1.8370789417877793,0.3866659062027931,-0.7106131981641054
1789929262989398000,8.31039794921875,2.0731243706732987,1.02009269657284,-1.0458253959834576
1789929262999425000,8.320425048828126,2.0427514442414045,1.0278843733623624,-1.0528045873463152
1789929263009452000,8.3304521484375,1.927949883802235,1.906063922947645,-1.614276440834999
1789929263019479000,8.34047900390625,1.7078329686716198,2.274994265973568,-1.7323586303800342
1789929263029505000,8.350505126953125,1.4080866365090012,2.5772701166138052,-1.8328297599107026
1789929263039532000,8.360531982421875,1.0325479812592266,2.775067355647683,-1.9865116706252097
1789929263049559000,8.37055908203125,1.0027832498535514,2.7881834423303604,-1.9898416918307542
1789929263059586000,8.3805859375,-0.15369535471796988,2.9248174798712134,-1.9796879620850085
1789929263069612000,8.390612060546875,-0.5635378461077809,2.799929701964557,-2.2044711154609917
1789929263079639000,8.40063916015625,-0.8747536667898297,2.6903020370319486,-2.4020658176600933
1789929263089666000,8.410666015625,-1.3188850890114903,2.5373577929422257,-2.7402263438910244
1789929263099693000,8.420693115234375,-1.3140037467107175,2.564946933874488,-2.723882527333498
1789929263109719000,8.430718994140625,-1.360738025356829,2.250742160509527,-2.7232623496085404
1789929263119746000,8.44074609375,-1.0726137419268489,1.954375241652131,-2.6423691962510345
1789929263129773000,8.45077294921875,-0.7262924133330583,1.7044219911843537,-2.5152415304630993
1789929263139800000,8.460800048828125,-0.5736939139410853,1.4162018461644648,-2.38815828833878
1789929263149826000,8.470825927734374,-0.5608069598391652,1.4213763261929153,-2.380924245432019
1789929263159853000,8.48085302734375,-0.5310609331339597,0.8163321652203798,-1.961702808061242
1789929263169880000,8.490880126953124,-0.6434297134682536,0.6555141190156341,-1.6426947260677813
1789929263179907000,8.500906982421874,-0.7391992411792278,0.507400948344171,-1.1021142694383859
1789929263189933000,8.51093310546875,-0.948137467430532,0.5159618559405207,-0.5590998636603355
1789929263199960000,8.5209599609375,-1.1899641100659966,0.5902706624716519,-0.03153787855803966
1789929263209986800,8.53098681640625,-1.3446093128547072,0.49453649833500385,0.523857869887352
1789929263220014000,8.54101416015625,-1.4049907163202762,0.40568917110264296,1.1063953077584505
1789929263230040000,8.5510400390625,-1.3968404353514312,0.4091387270346284,1.1112269656985998
1789929263240067000,8.561067138671875,-1.1997624505028128,-0.2567398418679833,2.7809055602818726
1789929263250093800,8.57109375,-1.2179691383227704,-0.24689737002849577,2.7799171337664124
1789929263260121000,8.58112109375,-0.8275356962800026,-1.6846651513129471,3.264540725374222
1789929263270147000,8.59114697265625,-1.6690183771088718,-1.806536211746931,3.1394349208027124
1789929263280174000,8.601174072265625,-3.031120968817174,-1.7255436896681784,2.4124007491916415
1789929263290200800,8.611200927734375,-4.435369634598493,-1.5450389462187886,1.7047972542375325
1789929263300228000,8.62122802734375,-5.808358946502208,-1.3326388890758156,1.998423057693243
1789929263310254000,8.631254150390625,-6.637161886239052,-0.8577528476282954,2.953364067658782
1789929263320281000,8.641281005859375,-7.10265056926608,-0.01835048020482063,3.6915415645748375
1789929263330307800,8.651307861328124,-6.9960618336379525,-0.005750818611681461,3.7440012351304293
1789929263340335000,8.661335205078124,-5.749093103063106,0.40399785701483487,4.294040424978733
1789929263350361000,8.671361083984374,-4.7280745238170026,0.05416150603741407,4.470468420508504
1789929263360387800,8.681387939453124,-2.587019357211888,0.07638122889101505,4.448490397456288
1789929263370414800,8.691414794921876,0.9151973208591342,0.6005600012958049,3.6757021904081104
1789929263380441900,8.70144189453125,3.2448782857879994,0.4052320749849081,2.1261071883201597
1789929263390467800,8.7114677734375,4.410677091890573,-0.3060995005816221,0.5370920299917459
1789929263400494800,8.721494873046876,4.347031133671105,-0.3227344090402126,0.5011112005501985
1789929263410521900,8.73152197265625,5.040024796253443,-1.2400751716688274,-0.4767261163562536
1789929263420548900,8.741548828125,4.8969747541904445,-1.556041694009304,-0.4882020346164703
1789929263430574800,8.751574951171875,4.080261772958934,-1.7651193287312983,-0.22829086923599243
1789929263440601900,8.761601806640625,4.150714196322858,-1.807052929097414,-0.22293547968268393
1789929263450628900,8.77162890625,2.183569197207689,-1.8201383283808827,0.33997371313273905
1789929263460655900,8.78165576171875,2.2184894116804004,-1.8225518192633985,0.6357651701897382
1789929263470681900,8.791681884765625,2.23281312058717,-1.8931848598912357,0.995471173274517
1789929263480708900,8.801708984375,2.7555726738438007,-2.133074396984279,1.249040860673785
1789929263490735900,8.81173583984375,3.424034829498827,-2.4942449196636676,1.3775386457711458
1789929263500763000,8.821762939453125,4.139517971786856,-2.6159981989368797,1.251722647103667
1789929263510788900,8.831788818359374,4.571747067029774,-2.26924607771039,0.9003525106877088
1789929263520815900,8.84181591796875,4.337692811961472,-1.67379625903517,0.4042763816952705
1789929263530843000,8.8518427734375,3.7521956475019453,-1.0769508943483233,-0.0509293922483921
1789929263540868900,8.861868896484374,3.0460373829200864,-0.30698738933205605,-0.6352075363069772
1789929263550895900,8.871895751953126,2.4169044903516768,0.24915596261024472,-0.9675766196548938
1789929263560923000,8.8819228515625,1.8136796537607907,0.6255921512216329,-1.3416191911280155
1789929263570950000,8.891949951171876,1.2338614117205142,0.8565826348051429,-1.6864847679555415
1789929263580975900,8.901975830078126,0.8373787526413797,0.9756918293103575,-2.05471426923573
1789929263591003000,8.9120029296875,0.5732490927830338,1.0614604797497391,-2.473788991612196
1789929263601030000,8.92202978515625,0.5099547244802117,1.144785536429286,-2.8312288033306596
1789929263611057000,8.932056884765625,0.35546821938455103,1.273700085633993,-3.1120074001729487
1789929263621083000,8.942082763671875,0.2525812608838081,1.359969963593781,-3.0964176168531177
1789929263631110000,8.95210986328125,0.21520576221346854,1.3605308123469353,-3.1076936286270618
1789929263641137000,8.962136962890625,-0.04812485622167587,1.6087924564659595,-2.827688938766718
1789929263651164000,8.972163818359375,-0.32307489304095505,1.8001345280110834,-2.6944682168006895
1789929263661190000,8.98218994140625,-0.5260954196810722,2.053435043080151,-2.6211475445240735
1789929263671216600,8.992216552734375,-0.6982534828066825,2.2488275590598583,-2.497744452217221
1789929263681244000,9.002243896484375,-0.702779143537581,2.338539978688955,-2.3842770629912615
1789929263691271000,9.01227099609375,-0.790132140558958,2.398328676958382,-2.2768916240274906
1789929263701297000,9.022296875,-0.7042506773948669,2.4095196407973765,-2.1629829207748172
1789929263711323600,9.03232373046875,-0.548149430578947,2.2527862335577606,-2.051422241953015
1789929263721351000,9.042350830078124,-0.5855719832614064,2.2514327731221915,-2.0620658010423183
1789929263731378000,9.0523779296875,-0.42375835014805197,2.048231921479106,-1.9039409394443034
1789929263741404000,9.06240380859375,-0.3792404323771596,1.8896093394920228,-1.6623703173965214
1789929263751430700,9.0724306640625,-0.4100159482605755,1.8963322180062532,-1.6669839486718177
1789929263761458000,9.0824580078125,-0.38997868401259184,1.277877955840528,-0.8001368172228336
1789929263771485000,9.09248486328125,-0.4209488456852734,0.9808648480340838,-0.20822715537250042
1789929263781511000,9.102510986328125,-0.5916390282154083,0.7218707974985241,0.5364911414891481
1789929263791537700,9.11253759765625,-1.1136970090739429,0.49798839235454795,1.2707353906095027
1789929263801565000,9.12256494140625,-1.659247216939926,0.1722428187996149,1.9944027161359785
1789929263811592000,9.132592041015625,-2.1905226696074007,-0.3930748964622617,2.5557600033342838
1789929263821618000,9.142617919921875,-2.728039647012949,-0.8987713789761066,2.812770186576247
1789929263831644700,9.152644775390625,-3.3478640284880994,-1.164785829667747,3.092469171488285
1789929263841672000,9.162671875,-3.7830163177013394,-0.8758604589879512,3.169400435477495
1789929263851699000,9.172698974609375,-4.1008147316440935,-0.13464286372363565,2.6073236018329857
1789929263861725000,9.182724853515625,-4.486107011406124,0.1392559104770422,2.36904266898036
1789929263871751700,9.192751708984375,-4.112696600356697,-0.4188888444155454,3.3050767339020966
1789929263881778700,9.20277880859375,-3.335063291364908,-1.3088196220710873,4.675264432388544
1789929263891806000,9.212805908203125,-3.395021208721399,-1.343719962799549,4.646174531504512
1789929263901832000,9.22283203125,-2.143571387209743,-1.6803233227163552,5.564986827990412
1789929263911858700,9.232858642578124,-2.0651894860208033,-0.9943281407192349,5.217445894473791
1789929263921885700,9.2428857421875,-1.7690477542214094,-0.5412473961055279,4.556231225728989
1789929263931913000,9.252912841796874,-1.235141222397983,-0.10074906968921422,3.527112634396553
1789929263941939000,9.26293896484375,-0.5396037205517291,0.14000029910355805,2.289727724725008
1789929263951965700,9.272965576171876,0.37725641895309087,-0.09824848504513502,1.0862152740389108
1789929263961992700,9.28299267578125,1.334201316086948,-0.71601301138103,0.13324994806051255
1789929263972018700,9.293018798828125,1.439081494231522,-0.7040563238665462,0.1685994938611984
1789929263982046000,9.3030458984375,2.3002198926448822,-1.5060440296530722,-0.4404880972832441
1789929263992072700,9.31307275390625,4.3335573195919395,-3.1359315888568755,-0.7961158911436795
1789929264002099700,9.323099609375,5.209364879348874,-3.9699809048146006,-0.6672288144677877
1789929264012125700,9.333125732421875,5.608625478708744,-4.482657163213193,-0.6918763489902019
1789929264022153000,9.343153076171875,5.334325137969851,-4.736857549731433,-0.9722393507689236
1789929264032179700,9.3531796875,4.543398339901865,-4.726129234968125,-1.3005156118452548
1789929264042206700,9.363206787109375,3.3416154894873498,-4.2456355827718975,-1.4567723414838314
1789929264052232700,9.373232666015625,2.4411606874689458,-3.5327120618388053,-1.335965110889077
1789929264062260000,9.383260009765625,1.7056643924608825,-3.0008702074602245,-1.075757592910528
1789929264072286700,9.39328662109375,1.2558975947007536,-2.5589213899746537,-1.12204354326725
1789929264082313700,9.403313720703125,1.0391416804358362,-2.0158844801038502,-0.972982862612605
1789929264092339700,9.413339599609374,1.171098666076362,-1.2120341953158378,-0.9237123434871435
1789929264102367000,9.423366943359374,1.4711796370208263,-0.47257250380814075,-1.1165092900156974
1789929264112394000,9.43339404296875,1.6696902850210666,0.09629033671468495,-1.3633131365418434
1789929264122420700,9.443420654296874,1.5565034663021564,0.655745297423005,-1.595482893037796
1789929264132446700,9.45344677734375,1.487555017760396,1.1867159219250083,-1.7697978419363498
1789929264142474000,9.463473876953126,1.3245096508949994,1.7551576144263148,-1.919727122119069
1789929264152501000,9.4735009765625,1.2938748586565256,1.7614613907456398,-1.9270634563565252
1789929264162527700,9.48352783203125,0.8806479855254292,2.6984020491182803,-2.069660493955016
1789929264172553700,9.4935537109375,0.8449494801566004,2.7040394704833624,-2.078770852127671
1789929264182581000,9.5035810546875,0.5323460045084357,3.0884619816735386,-2.084388107487559
1789929264192608000,9.51360791015625,0.1967228878006339,2.969037145347893,-2.027583685725927
1789929264202634800,9.523634765625,-0.03371609937995672,2.7878324369356036,-2.110526172828674
1789929264212660700,9.53366064453125,-0.5141159358128905,2.7165894477158785,-2.145174292361736
1789929264222687700,9.543687744140625,-0.5072092251643538,2.7364851115360853,-2.1325807682484386
1789929264232715000,9.553715087890625,-1.4659414441063998,2.500818452835083,-2.602809339278936
1789929264242741800,9.56374169921875,-1.2903487303569912,2.3202330453649163,-2.729042686575651
1789929264252767700,9.573767822265625,-1.2890388168022036,2.3394418959647414,-2.718423092883825
1789929264262794800,9.583794677734375,-0.42267420817315576,1.846781128373742,-2.6639859847754237
1789929264272822000,9.593822021484375,-0.42009471307396884,1.85479521574229,-2.658850959974527
1789929264282848000,9.603847900390624,-0.2107633958518505,1.2183183901518582,-2.48416893132925
1789929264292874800,9.613874755859374,-0.2062166923329234,0.9323267348363995,-2.262570837730169
1789929264302901800,9.62390185546875,-0.33240590822696686,0.6810176858454943,-2.0012731864273547
1789929264312929000,9.633928955078124,-0.5176955478653311,0.5340273817241191,-1.5849147372722625
1789929264322955000,9.643955078125,-0.8309352755904197,0.6764899792879819,-0.9987193614155053
1789929264332981800,9.653981689453126,-1.2492547956854105,0.7193252046689391,-0.3017173399746418
1789929264343008800,9.6640087890625,-1.555512117177248,0.5119751243919134,0.33625206226110455
1789929264353036000,9.6740361328125,-1.5124331461682914,0.13393793032467363,0.9935101023346186
1789929264363062500,9.6840625,-1.365629889051616,-0.2799918303787708,1.8573714959710836
1789929264373089500,9.694089599609375,-1.0980848677918313,-0.9935621247828006,2.4718203218877313
1789929264383116800,9.70411669921875,-1.1044736920461058,-0.9937757675334811,2.469568159046769
1789929264393143600,9.7141435546875,-1.7710063409432768,-2.6669483417123554,2.994638327333331
1789929264403169500,9.72416943359375,-3.552537875293195,-2.6933289836376906,2.5524615463107825
1789929264413196500,9.734196533203125,-4.914245037943124,-2.7652733991250393,1.8399334544360637
1789929264423223800,9.744223876953125,-5.426301410877704,-2.877516214992106,1.831853608354926
1789929264433250600,9.75425048828125,-6.178474699920415,-2.8387136061280964,2.9562849235415456
1789929264443276500,9.764276611328125,-7.053813765382766,-2.1533239888086912,4.171019025465846
1789929264453303600,9.774303466796875,-7.33868635354042,-1.3818319590508936,4.903945177724957
1789929264463330800,9.784330810546875,-6.7887342574536795,-1.0783774200201033,4.75300584371686
1789929264473356800,9.794356689453124,-6.760259858119487,-1.0703946045726538,4.769782206472755
1789929264483383600,9.804383544921874,-5.199919590133428,-0.8811652873978019,4.466330590051412
1789929264493410600,9.81441064453125,-0.07360182730555534,-0.20214871224164963,3.778606100043654
1789929264503437800,9.824437744140624,1.7761027872994541,-0.48515959818065163,2.275545470115542
1789929264513463800,9.8344638671875,1.751925208376348,-0.5058931741297245,2.2534429439008234
1789929264523490600,9.844490478515626,3.4937916718140243,-0.7793623247414827,0.5811334162920713
1789929264533517600,9.854517578125,4.458906285269558,-1.443566822952032,0.24153438169062136
1789929264543544800,9.864544921875,4.42479124969989,-1.7218907201185822,0.37655952273011206
1789929264553570800,9.87457080078125,3.769328276349604,-1.7582310305222868,0.2957949641883373
1789929264563597600,9.88459765625,2.9711595443293453,-1.6965502348959445,0.4229822512090206
1789929264573624600,9.89462451171875,2.5278780169352886,-1.431095463913679,0.6032844578236342
1789929264583651800,9.90465185546875,2.715571795105934,-1.2521546087801456,0.6926116775274276
1789929264593677800,9.914677734375,3.07842574082762,-1.3859560532435773,0.8478647830814122
1789929264603704600,9.92470458984375,3.5384131960898637,-1.700098575027287,0.9829624048352241
1789929264613731600,9.934731689453125,4.235277562625706,-1.9293921915650367,1.12290162140131
1789929264623758600,9.944758544921875,4.750238132569193,-2.037835907410085,1.1706821942299603
1789929264633784800,9.954784912109375,5.076308408033848,-1.7935355681374667,0.8467880937606096
1789929264643811600,9.9648115234375,4.69874321539253,-1.3532491309061645,0.39868367625474926
1789929264653838600,9.974838623046875,3.9313808327853677,-0.8385147709339856,-0.03514730122685432
1789929264663864600,9.984864501953124,3.074093264581263,-0.22890987791717052,-0.4857721771210432
1789929264673891800,9.994891845703124,2.496092301096022,0.26433862643390893,-0.9850479789376259
1789929264683918600,10.004918701171874,1.9572411524772644,0.47748131863772864,-1.527837343788147
1789929264693945600,10.014945556640624,1.432233235771954,0.6921095732241869,-2.1342174295395613
1789929264703971600,10.0249716796875,1.2290715470954776,0.8136039093002676,-2.6294448327481743
1789929264713998600,10.03499853515625,1.0513161023542283,0.7876862087115645,-3.0160815128564833
1789929264724025600,10.045025634765626,0.9793807469561695,0.812036806114018,-3.2648692266762254
1789929264734052600,10.055052490234376,0.8671510828316211,0.8354661970183253,-3.458977840325236
1789929264744078600,10.06507861328125,0.7609703434824943,0.7779103723675013,-3.3979385574728247
1789929264754105600,10.075105712890625,0.6593021131217479,0.7637909538611769,-3.171770671740174
1789929264764132900,10.0851328125,0.489709516569972,0.7993208246648311,-2.954070754623413
1789929264774159600,10.09515966796875,0.45134500686228274,0.7962424401327968,-2.96703778822422
1789929264784185600,10.105185546875,-0.15055734895318745,1.2262763634189962,-2.534779174625873
1789929264794212600,10.115212646484375,-0.5596256411001086,1.4925912583619356,-2.4659160662800073
1789929264804240000,10.125239990234375,-0.864603736436367,1.8681757985800505,-2.355117019480467
1789929264814265600,10.135265625,-0.9492369531050324,1.9597250782474875,-2.1783172680288554
1789929264824292600,10.145292724609375,-0.9740005152225494,1.9628677601873874,-2.077017870980501
1789929264834319600,10.155319580078125,-0.9317360754668712,1.9933447315156458,-1.9837153179049491
1789929264844347000,10.165346923828125,-0.7761828179225325,1.9380828630208968,-1.9471207404792308
1789929264854372900,10.175372802734374,-0.6105050567269324,1.817301059128344,-1.8400515278577803
1789929264864399600,10.185399658203124,-0.4741863687455654,1.7242711855143307,-1.6803794368177651
1789929264874426600,10.195426513671874,-0.3964297598481178,1.5428665706157683,-1.3713684327036142
1789929264884454000,10.205453857421874,-0.27136516406983135,1.3485817236170172,-0.9417425056964158
1789929264894480000,10.21547998046875,-0.31775778967142104,1.2374310869008303,-0.41082010425031185
1789929264904506600,10.225506591796876,-0.5017115045309066,1.0604860817596315,0.22373101397454737
1789929264914533600,10.23553369140625,-0.7744777675703167,0.9311337256595492,0.9926853419482707
1789929264924561000,10.245560791015626,-1.2682044108271597,0.7380620538428425,1.7614800954461096
1789929264934587000,10.2555869140625,-1.8573732495367525,0.5467085841208696,2.417914544177055
1789929264944613600,10.265613525390625,-2.6094053765431044,0.3506692946702242,2.856857165583968
1789929264954640600,10.275640625,-3.0606305564180016,0.00007101940959692001,3.061379621219635
1789929264964666600,10.28566650390625,-3.169779205662012,-0.5471241791844368,2.941839634081721
1789929264974694000,10.29569384765625,-3.248493553675711,-1.0730524256050586,2.9031121362805363
1789929264984720600,10.305720703125,-3.323177915520966,-1.2095537766769529,2.6390637249648567
1789929264994747600,10.31574755859375,-3.4282863494634626,-1.1090659882724285,2.7578876727879047
1789929265004773600,10.325773681640625,-3.6352258031129834,-1.1704551074758172,3.623789047819376
1789929265014801000,10.33580078125,-3.71753466848731,-1.3366595228940248,4.452445272561907
1789929265024827600,10.34582763671875,-3.7346658360302447,-1.36920365588516,4.4335447572588915
1789929265034854700,10.355854736328125,-3.1312308638200164,-0.9455024427518248,5.191480847612023
1789929265044880600,10.365880615234374,-3.223903594559431,-0.41829964635074135,5.099477102175355
1789929265054907600,10.37590771484375,-2.9667598480656743,-0.11536737762838602,4.274274817278981
1789929265064934700,10.3859345703125,-2.3643252850696443,-0.1687660825997591,2.9879642563968893
1789929265074960600,10.395960693359376,-1.0870772976957261,-0.5603077781453728,1.6374451349765062
1789929265084987600,10.405987548828126,0.21428572475910185,-0.8933984537661075,0.3658896601557731
1789929265095014700,10.4160146484375,1.286195994591713,-1.3615823672264813,-0.25136428630948066
1789929265105041700,10.426041748046876,2.237893200330436,-1.9302561149179935,-0.5885416467219591
1789929265115067600,10.436067626953125,3.106206604939699,-2.5487887030169367,-0.5522989514738321
1789929265125094700,10.4460947265625,3.8668276965931057,-2.9633874490231276,-0.40166941406726836
1789929265135121700,10.45612158203125,4.511307211375236,-3.6239164735913274,-0.1916097825706005
1789929265145148700,10.466148681640625,5.077978387072682,-4.354421243922412,-0.26119009927511216
1789929265155174700,10.476174560546875,5.0889142071068285,-4.347644004872441,-0.25429975523948667
1789929265165201700,10.48620166015625,5.261847346258163,-4.343791713358462,-0.9312743031740188
1789929265175228700,10.496228759765625,4.856871584121882,-3.708176473033428,-1.0377367820739745
1789929265185255700,10.506255615234375,4.06062154520452,-2.91339183049351,-1.067893435406685
1789929265195281700,10.51628173828125,3.102848234422505,-2.411968787515163,-0.921740166631341
1789929265205308700,10.52630859375,2.3843311312660576,-1.822793519064784,-0.6944067442506552
1789929265215335700,10.536335693359375,1.9083982111141085,-0.992858360427618,-0.6284148074269295
1789929265225361700,10.546361572265624,1.519276728452742,-0.22549773138612508,-0.6412099915921687
1789929265235388700,10.556388671875,1.1311904340580106,0.3842971312448382,-0.8439274436324834
1789929265245415700,10.566415771484374,1.0322241561323404,1.0496052067831159,-1.388688985338807
1789929265255442700,10.576442626953124,0.9903171515122056,1.4993500849723815,-1.8710177440077065
1789929265265468700,10.58646875,1.0084183331310748,1.8409303565189241,-2.179187036600709
1789929265275495700,10.59649560546875,0.9787442026183009,1.848055093832314,-2.185557740676403
1789929265285522700,10.606522705078126,0.760127755178511,2.246196626034379,-2.622483761563897
1789929265295549700,10.6165498046875,0.680404522383213,2.3853870700597763,-2.6698013930559155
1789929265305575700,10.62657568359375,0.5739326911330223,2.4046610948503018,-2.602080440482497
1789929265315602700,10.636602783203125,0.1684124468564987,2.2999188638716936,-2.533365800696611
1789929265325629700,10.646629638671875,-0.2450032268449664,2.1460969601646065,-2.4873218424022197
1789929265335655700,10.65665576171875,-0.7844409431800246,2.1342320425868033,-2.5817653822064397
1789929265345682700,10.6666826171875,-1.1738017875552176,2.180768752834201,-2.6789988449901343
1789929265355709400,10.67670947265625,-1.3960741271540522,2.224208081588149,-2.7028268798232076
1789929265365736400,10.686736328125,-1.3482806948438286,2.215057975926995,-2.7039830641210076
1789929265375762400,10.696762451171875,-1.0421230343341827,2.201725323884189,-2.746045843824744
1789929265385789400,10.70678955078125,-0.7154530394107103,2.08349145090878,-2.738750426119566
1789929265395816400,10.71681640625,-0.512266800814867,1.795439355932176,-2.6073908218502995
1789929265405843500,10.726843505859375,-0.3771419987931847,1.4690788653492928,-2.5069629469394683
1789929265415869400,10.736869384765624,-0.33618805711418387,1.0846385262414813,-2.340778113004565
1789929265425896400,10.746896484375,-0.339863823017478,0.7069663660943508,-2.019588595318794
1789929265435923500,10.75692333984375,-0.4551455681890249,0.4585851872488856,-1.4825924269169568
1789929265445949400,10.766949462890626,-0.8849442214146256,0.41656975381821393,-0.9000228403419256
1789929265455976400,10.7769765625,-1.3943147162660956,0.3139642426073551,-0.3265829011619091
1789929265466003500,10.78700341796875,-1.6641791203841565,0.05248772760629654,0.25502923855781556
1789929265476030500,10.797030517578126,-1.7649243906810879,-0.28018443034142254,1.055309848165512
1789929265486056400,10.807056396484375,-1.7599676450565456,-0.2874927075281739,1.0530243675768374
1789929265496083500,10.81708349609375,-1.5402978891715406,-1.5030965780243277,2.640335644596815
1789929265506110500,10.8271103515625,-1.417197579203546,-2.479997490863502,2.756182037913799
1789929265516136400,10.837136474609375,-2.060637229543924,-2.860652466213703,2.625782803109288
1789929265526163500,10.84716357421875,-2.039218009418249,-2.8285414639428255,2.6508301506042478
1789929265536190500,10.8571904296875,-3.8964427903950214,-2.448689329408109,1.7481810534119604
1789929265546217500,10.867217529296875,-4.690142560307681,-2.4828347601160408,1.865050360035896
1789929265556243500,10.877243408203125,-5.434465428110957,-2.455987377461791,2.8518448903799056
1789929265566270500,10.8872705078125,-6.287276435422897,-2.1461080660805103,4.233986061510444
1789929265576297500,10.89729736328125,-6.635208414083719,-1.5705743694916368,5.0187727493882175
1789929265586324500,10.907324462890625,-6.552260666283964,-1.279832304778695,5.18844659448266
1789929265596350500,10.9173505859375,-5.313756981715559,-1.1246256687149405,4.971961313852668
1789929265606377500,10.92737744140625,-2.9848624909892676,-0.7585460389450192,4.749215803784132
1789929265616404500,10.937404541015624,-0.4795785831779241,-0.32858079698085785,4.391923291581869
1789929265626430500,10.947430419921876,1.529116569943726,-0.27876287310570474,2.57102245439589
1789929265636457500,10.95745751953125,3.492977140560746,-0.8217059672132134,0.36053017894923683
1789929265646484500,10.967484375,4.464838597927987,-1.1439733432635664,-0.23353695319592951
1789929265656511200,10.97751123046875,4.570121803915501,-1.0685027994766831,0.1797276215970516
1789929265666537500,10.987537353515625,4.240243952861428,-1.1332733778119086,0.42739246886670584
1789929265676564500,10.997564453125,3.606149346232414,-1.3234835227176547,0.4932908821880817
1789929265686591500,11.007591552734375,2.799027492427826,-1.0738599425956605,0.3456301314592361
1789929265696618200,11.0176181640625,2.5398995863795277,-0.760360979412496,0.3394745314389467
1789929265706644500,11.02764453125,2.72830823482126,-0.533026095727086,0.3651245210021734
1789929265716671500,11.03767138671875,3.1993048676148055,-0.6448191220000385,0.4375742556631565
1789929265726698500,11.047698486328125,3.604496610589325,-0.7919958886042237,0.619273469594121
1789929265736724500,11.057724365234375,4.094991140057147,-1.0914449913859368,0.9764204358458518
1789929265746751200,11.067751220703125,4.748474630028009,-1.3003715271994472,1.1541133367449044
1789929265756778500,11.077778564453125,4.895672147159278,-1.440612357060611,1.1803706445515154
1789929265766805500,11.087805419921875,4.909805009669065,-1.2548647445216774,0.8103314635008573
1789929265776831500,11.09783154296875,4.320324328531324,-0.7270940851047635,0.24962650273144243
1789929265786858200,11.107858154296874,3.50905529191941,-0.19657354245781897,-0.4150000202834606
1789929265796885500,11.117885498046874,2.812466527454555,0.21104367409795521,-0.8349585397571325
1789929265806911500,11.127911376953126,1.9926365832462907,0.5560726247936487,-1.203635784804821
1789929265816938500,11.1379384765625,1.4771534507334232,0.8370540507316588,-1.5694418583303689
1789929265826965200,11.14796533203125,1.0986147368848322,0.9519467965856194,-1.9376929869204758
1789929265836992500,11.157992431640626,0.7751566897451877,1.0643284364014864,-2.3905635959148404
1789929265847018500,11.1680185546875,0.5955845509707928,1.1131345528855918,-2.7019682171672583
1789929265857045500,11.17804541015625,0.6408584016755223,1.1578230049178004,-2.8826100309997797
1789929265867072300,11.188072265625,0.6521420122340321,1.136495262467861,-2.9668285293877124
1789929265877099500,11.198099609375,0.4261909841224551,1.1274375112652777,-2.855579400733113
1789929265887125500,11.20812548828125,0.3518085278332233,1.145534893491864,-2.547114924585819
1789929265897152500,11.218152587890625,0.21901889076083897,1.2631433280453086,-2.369866844844818
1789929265907179300,11.22817919921875,-0.16712532965540886,1.5506053481742739,-2.2226503307521344
1789929265917205200,11.238205322265625,-0.5280480150535702,1.8763529675558208,-2.1724965990513563
1789929265927232500,11.248232421875,-0.8892737750515342,2.157357482108474,-2.152304874894023
1789929265937259500,11.258259521484375,-1.1133725994251669,2.2712352057009935,-2.052996943923831
1789929265947286300,11.268286376953125,-1.1137699281796813,2.357534017494321,-1.9996844559311866
1789929265957312300,11.278312255859374,-1.0479751213632524,2.326438037484884,-2.0021125598609446
1789929265967339500,11.288339599609374,-0.9252981513738632,2.174837316958606,-2.0097575216561556
1789929265977366500,11.298366455078124,-0.7842201400361954,1.970958712184429,-1.9574936659336089
1789929265987392500,11.308392578125,-0.6064239248931408,1.8107479842230676,-1.8349340387135744
1789929265997419300,11.318419189453126,-0.5205319403350352,1.698492601135373,-1.6494535526782272
1789929266007446500,11.328446533203126,-0.45309915705323217,1.5542819908604024,-1.234303894791007
1789929266017473500,11.3384736328125,-0.44806203966885805,1.3838637571394443,-0.6941308499187231
1789929266027499500,11.34849951171875,-0.4820458500742912,1.1456684567436575,-0.11435118632316589
1789929266037526300,11.3585263671875,-0.5371333849154413,0.8788248617514968,0.4814443770498037
1789929266047553300,11.36855322265625,-0.7874877635300159,0.6430854300752282,1.2119652217328547
1789929266057579500,11.37857958984375,-1.1784101581335067,0.32544922095686196,1.9931687904268502
1789929266067606500,11.3886064453125,-1.644630516435951,0.05597469293922185,2.593535314977169
1789929266077633300,11.39863330078125,-2.117663038971275,-0.21561901918947696,3.0110926185280085
1789929266087660300,11.408660400390625,-2.7680478322744366,-0.4416694160223007,3.262477363103628
1789929266097686500,11.4186865234375,-3.4088498275876042,-0.662806321850419,3.4446050315797327
1789929266107713500,11.428713623046875,-4.083933154948055,-0.6990814580634236,3.119554746812582
1789929266117740300,11.438740234375,-4.470855958521366,-0.5649179022893309,2.4864316155642268
1789929266127766300,11.448766357421874,-4.536571416491269,-0.7061155944839119,2.383469838261604
1789929266137793300,11.458793212890624,-3.9069071935251354,-1.174945989154279,2.938585600721836
1789929266147820500,11.468820556640624,-3.932717342086136,-1.2060986677870154,2.916740848660469
1789929266157847300,11.478847412109374,-2.7769430863916873,-1.950139796039462,4.695390105572343
1789929266167873300,11.488873291015626,-2.6047639804780482,-1.6608052600368857,5.522611329075694
1789929266177900300,11.498900390625,-2.6926889321684837,-1.0415294523552059,6.05767039193511
1789929266187927600,11.508927490234376,-2.802900534468889,-0.44065380923897024,5.847977255663276
1789929266197954300,11.518954345703126,-2.528099842992425,0.016398469354212283,4.763070726135373
1789929266207980300,11.528980224609375,-1.531298590157926,0.029570962399244307,3.240007757142186
1789929266218007300,11.53900732421875,0.1811506401374936,-0.3924088337689638,1.772306025364995
1789929266228034600,11.54903466796875,1.393135443353653,-0.7063812596827745,0.4985281983196735
1789929266238060500,11.559060546875,2.2998504748106003,-0.9243670080035924,-0.37950902018547056
1789929266248087300,11.56908740234375,3.2323806232646106,-1.4332520574256777,-0.8164841409116983
1789929266258114300,11.5791142578125,4.081342846193909,-2.225310489872098,-0.934724151366949
1789929266268141600,11.5891416015625,4.983495684301853,-2.829630135962367,-0.9597019407570362
1789929266278167600,11.59916748046875,5.7415878419995305,-3.3957007154181595,-1.3681500551789998
1789929266288194300,11.6091943359375,6.002590894269943,-3.7154429569050667,-1.951148680821061
1789929266298221300,11.61922119140625,5.870854857903718,-3.70739818213731,-2.487034257632494
1789929266308247300,11.629247314453124,5.257921697247028,-3.3348867657542227,-2.7915771764218804
1789929266318274600,11.639274658203124,4.516066973122954,-2.8294758221834897,-2.570698044747114
1789929266328301300,11.64930126953125,3.8394443073660134,-2.606811852918565,-1.967915106704831
1789929266338328300,11.659328369140624,3.205699537087977,-2.126125016237795,-1.350624335360527
1789929266348354300,11.669354248046876,2.8411066387444732,-1.2318208458036184,-0.9362783950716257
1789929266358381300,11.67938134765625,2.4956828435122964,-0.5101879487141967,-0.5807634139358997
1789929266368408300,11.689408203125,2.3087612187579274,0.11692045228928327,-0.3792728733420372
1789929266378434300,11.699434326171875,1.9581512530595062,0.7365329445794224,-0.41334348524808884
1789929266388461000,11.7094609375,1.6240931937113403,1.3467141761794685,-0.707960053306818
1789929266398488300,11.71948828125,1.3171633797854185,1.8343579923912883,-1.0550035586953161
1789929266408514300,11.729514404296875,1.0720812424853443,2.0423928400620817,-1.2824667449355125
1789929266418541300,11.739541259765625,0.7983341517150402,2.16796684666723,-1.3440513867110013
1789929266428568000,11.749568115234375,0.5419616818547248,2.224748764336109,-1.4049842865794897
1789929266438595300,11.75959521484375,0.4921943191230297,2.13900320251137,-1.4843693734616041
1789929266448621300,11.769621337890625,0.4197548135951161,1.9124998012140393,-1.310347854551673
1789929266458648300,11.7796484375,-0.07984715143591165,1.5207041309073566,-1.4714870955348014
1789929266468675000,11.789675048828125,-0.6517556432649493,1.2221166133910417,-1.8736720579087733
1789929266478702300,11.799702392578125,-1.250790334689617,1.1645797857016325,-2.1283792249053715
1789929266488728300,11.809728271484374,-1.2445233832493423,1.2025760466188191,-2.10447227961719
1789929266498755300,11.81975537109375,-1.7168042106345296,1.423549870839715,-2.7489789746671915
1789929266508782000,11.829781982421874,-1.4978341274514793,1.517654387947917,-2.7650141636669634
1789929266518808000,11.83980810546875,-1.220611177264154,1.5683289286524056,-2.8528222109794616
1789929266528835300,11.84983544921875,-0.9634519409403204,1.4009054928332567,-2.8523259518951174
1789929266538862300,11.8598623046875,-0.7395975928470492,1.1722232861921191,-2.808402054494619
1789929266548889000,11.86988916015625,-0.7309115975663065,1.1860460598394273,-2.7970471322655674
1789929266558915000,11.8799150390625,-0.4898913028776645,0.9004013182654976,-2.3952713352143764
1789929266568942300,11.8899423828125,-0.48695291133821006,0.8595639887034893,-2.015924227592349
1789929266578969300,11.89996923828125,-0.8311939265266061,0.9523173834636807,-1.4992811113893985
1789929266588995300,11.909995361328125,-1.1093678938284515,1.0282099520549177,-0.7588345004975795
1789929266599022000,11.92002197265625,-1.4995269028440117,0.8283212936997413,0.08562310448884963
1789929266609049300,11.93004931640625,-1.8599676499441264,0.6223275964677334,1.0061831214249133
1789929266619075300,11.940075439453125,-1.5518904195487497,0.12338088047504424,1.9559984589397905
1789929266629102300,11.950102294921875,-1.1728037164285778,-0.6918699192494153,2.6900124064356086
1789929266639129000,11.960129150390625,-1.3039941016107797,-1.4643734641373156,2.906367338684201
1789929266649156000,11.970156005859375,-2.121494433827698,-2.0924106704235075,2.8408471110254525
1789929266659182300,11.980182373046874,-3.0868650678709146,-2.114999518850446,2.469772741708159
1789929266669209300,11.990209228515624,-3.9501615211009975,-1.8224907367259262,1.8151386203974484
1789929266679236000,12.000236083984374,-4.350075031411648,-1.6176713439702988,1.6820090838462114
1789929266689262000,12.010261962890626,-4.219350510175526,-1.5828198108196259,2.284059615960717
1789929266699289300,12.020289306640626,-4.3490676079347725,-1.635636624249816,3.3104367996305224
1789929266709316400,12.03031640625,-4.917637602990865,-1.349417297658324,4.287043113437295
1789929266719343000,12.040343017578126,-4.950810389274358,-0.7917740625470876,4.935258599877357
1789929266729369000,12.050369140625,-3.9149361862018703,-0.7622370024174452,5.023815419730544
1789929266739396000,12.06039599609375,-2.0639786489263177,-1.1217530358880758,4.9586453206837176
1789929266749423400,12.07042333984375,-2.1002046853005885,-1.1365601443976163,4.932833418557047
1789929266759449300,12.080449462890625,1.3811290714785456,-1.3782032471597194,3.42234176184535
1789929266769476000,12.09047607421875,2.3171792107522484,-2.1000895344883204,1.5455425118267536
1789929266779503000,12.100503173828125,3.3727395265474915,-2.6627310162782667,0.1122287873417139
1789929266789530400,12.1105302734375,4.328345137901604,-2.783366397437453,-0.54422728869915
1789929266799556400,12.120556396484375,4.458422593405842,-2.699305135437846,-1.0606202295333147
1789929266809583000,12.1305830078125,3.994757034152746,-2.6056810953229665,-1.4954881488472223
1789929266819610000,12.140610107421875,4.050199227650463,-2.6437235334694384,-1.495266615051031
1789929266829636000,12.150635986328124,2.3805133265435696,-1.5711854871273039,-1.1525070705920457
1789929266839663400,12.160663330078124,2.4172929051473737,-1.6203198126524685,-1.166080253392458
1789929266849690000,12.170690185546874,1.5118565153241157,-0.5100459098950028,-0.058933250483870506
1789929266859717000,12.180717041015624,1.5599623745843767,-0.40414895592331884,0.25601006628870965
1789929266869743000,12.1907431640625,1.8646233667954801,-0.5434212330132723,0.5641980635821819
1789929266879770400,12.200770263671876,2.6498247729539868,-1.0595105147257446,0.7552993121087551
1789929266889797000,12.210797119140626,3.704612058550119,-1.4250532611399889,0.8762719623982906
1789929266899823000,12.220822998046875,4.349392309844494,-1.5134423232108354,0.8631430162340402
1789929266909850000,12.23085009765625,4.661420615953206,-1.1944938624501227,0.6448515629649162
1789929266919877400,12.24087744140625,4.175829932878911,-0.569824671292305,0.3960024743467569
1789929266929903400,12.2509033203125,3.560451424896717,0.04444558318704366,0.1698252362638712
1789929266939930000,12.26093017578125,2.5430335004910827,0.5704281901434064,-0.08986731792986392
1789929266949957000,12.27095703125,1.5001388972625136,1.087059615908563,-0.2721311800062656
1789929266959984400,12.280984375,0.7034016593500971,1.4423627078592776,-0.4220014234781265
1789929266970010400,12.29101025390625,0.34159459233283995,1.5770909117788074,-0.7379454417258501
1789929266980037000,12.301037109375,-0.010838497139513492,1.6364131615802644,-1.1486690998643636
1789929266990064000,12.311064208984375,-0.2016530376791954,1.7837445342242717,-1.5671411801725625
1789929267000090000,12.321090087890624,-0.26892536970227954,1.7389982145249843,-1.7682260625749826
1789929267010117400,12.331117431640624,-0.33898148722499605,1.6210802756309508,-1.8888450771212577
1789929267020144000,12.34114404296875,-0.2781903339147568,1.4028005127996206,-1.8808330355793237
1789929267030171100,12.351171142578124,-0.32470527072176336,1.4200059146225452,-1.913994131425023
1789929267040197000,12.361197021484376,-0.4350685564525425,1.5277914588198065,-2.0308359655201436
1789929267050224400,12.371224365234376,-0.6269020647764205,1.5534724280431866,-2.120021730926633
1789929267060251100,12.381251220703126,-0.7687780946239828,1.5860703370481728,-2.1151333743631837
1789929267070277000,12.391277099609376,-0.8222047105155885,1.6151780658498405,-2.066853619840741
1789929267080304000,12.40130419921875,-0.8007783299967646,1.6480042306527494,-2.0446008715003727
1789929267090331400,12.411331298828125,-0.8223042253673076,1.6370383077412842,-2.0556828220069407
1789929267100357400,12.421357421875,-0.5910099365316331,1.5316490110307932,-2.0859517035424706
1789929267110384000,12.431384033203125,-0.32544892869591713,1.454728560696542,-2.205670554378629
1789929267120411100,12.4414111328125,-0.0068399290226399895,1.2921157400295138,-2.2680793720185757
1789929267130438400,12.4514384765625,0.13688114416971803,1.1704440015599131,-2.2761183015674353
1789929267140464400,12.46146435546875,0.11314473314285278,1.1772633261859415,-2.278822884351015
1789929267150491100,12.4714912109375,0.45507922495454545,0.9323302419677376,-1.8502414979606865
1789929267160518100,12.48151806640625,0.516930262581259,0.8327338494449853,-1.3929799605309963
1789929267170544000,12.491544189453125,0.4225906215429306,0.659428662110865,-0.828124309822917
1789929267180571400,12.5015712890625,0.07866115652173757,0.45903234649449587,-0.06601882483065127
1789929267190598100,12.51159814453125,-0.3448015716806054,0.30510142945498225,0.7122785010278224
1789929267200625200,12.521625244140624,-0.8397716391272843,0.11082973419874906,1.3965467131018638
1789929267210651100,12.531651123046874,-1.3803215544879435,-0.04590308851897716,1.8339134634941816
1789929267220678100,12.54167822265625,-1.8048516196608542,-0.1891761256828904,2.04855983825922
1789929267230705200,12.551705078125,-2.036549374730885,-0.5159586410701275,2.201779392158985
1789929267240731100,12.561731201171876,-2.363444118320942,-0.7662319172725081,2.592988202488422
1789929267250758100,12.571758056640626,-2.3446048316858707,-0.7693816134750843,2.596096105375886
1789929267260785200,12.58178515625,-3.010024697035551,-0.29720073933303354,2.461832011836767
1789929267270812200,12.591812255859375,-3.2882600391358134,-0.501998212517798,2.7651351596981284
1789929267280838100,12.601838134765625,-3.060228113096952,-0.7946972565174102,3.3712919580876823
1789929267290865200,12.611865234375,-2.6748259432196617,-1.1488260439917444,3.9412224278420207
1789929267300892200,12.62189208984375,-2.2477543768703936,-1.47892192171067,4.34067065872848
1789929267310918100,12.631918212890625,-2.0161247186005116,-1.3397627496063709,4.590594683101773
1789929267320945200,12.641945068359375,-1.6856944943606853,-0.9671113402307033,4.6571594513773915
1789929267330972200,12.65197216796875,-1.3715806141495703,-0.6023322716653347,4.208773294320702
