time,seconds_elapsed,z,y,x
1789253602150612500,0.045612548828125,0.028174539604783055,-0.16895839030146598,-1.517614932720363
1789253602160666400,0.055666259765625,-0.11827917342185973,-0.21471593286991117,-1.6279492846176027
1789253602170719500,0.065719482421875,-0.269618320402503,-0.26320962240397927,-1.5210000451140104
1789253602180773400,0.0757734375,-0.39544191785454746,-0.48447103139460085,-1.3857394878834486
1789253602190826500,0.085826416015625,-0.42872751686275,-0.6691220808684826,-1.2559762128949166
1789253602200880600,0.095880615234375,-0.403322441971302,-0.8878238685041665,-1.2304960269406438
1789253602210933500,0.10593359375,-0.3697778997659683,-1.0183838468283415,-1.399017194868624
1789253602220986400,0.115986328125,-0.21254151144027708,-0.9299749110132455,-1.7021832723468542
1789253602231040500,0.12604052734375,0.14971008447408676,-0.9141086488395929,-1.7503195267453788
1789253602241093400,0.13609326171875,0.36940555932223795,-1.0792220541507005,-1.5344704981923103
1789253602251147500,0.1461474609375,0.45257367187440395,-1.3250327979862688,-1.3175500410154461
1789253602261200400,0.156200439453125,0.39774727218747136,-1.484494461145997,-1.201716507180035
1789253602271254500,0.166254638671875,0.4215618630170822,-1.345346102696657,-0.9921668710321188
1789253602281307400,0.176307373046875,0.32381168288290496,-0.9476783254861831,-0.7345955467760562
1789253602291361300,0.186361328125,0.25868776106536384,-0.6387684436589479,-0.446012413662672
1789253602301414400,0.196414306640625,0.1771791061580181,-0.7383627903550862,-0.0706648970708251
1789253602311467500,0.206467529296875,-0.3326753728181124,-1.0834721128106117,0.13097381982207298
1789253602321521400,0.216521484375,-0.42915012618899345,-0.658455140903592,0.017644085501134395
1789253602331574500,0.226574462890625,-0.741214964915812,-0.8486796065956353,-0.12683715840876103
1789253602341628400,0.23662841796875,-0.5737099882930516,-0.8394868308365344,-0.27705811501443384
1789253602351681500,0.246681640625,-0.2961670123711228,-0.5764630863934755,-0.44164165123254057
1789253602361735400,0.2567353515625,-0.042972880285978315,-0.22055998272299765,-0.40038288138806816
1789253602371788500,0.26678857421875,-0.4375082046896219,-0.5743704980283976,-1.205213409385085
1789253602381842400,0.276842529296875,-1.1552826727852226,-1.252508244523406,-2.421333997231722
1789253602391895600,0.2868955078125,-0.6389759489297866,-0.5209621484458447,-2.3470400960087776
1789253602401948400,0.296948486328125,-0.0986082582682371,0.3190402306973934,-2.299643554061651
1789253602412002300,0.307002197265625,-0.22093407673239707,0.6535404808551073,-2.668349440681934
1789253602422055400,0.317055419921875,-0.3046303048118949,1.0291887339591979,-2.898559879803657
1789253602432109300,0.327109375,0.27534897300899025,0.9430547573387622,-2.6616163330346345
1789253602442162400,0.337162353515625,0.5335363833367824,0.27284078958034513,-0.45231589772105213
1789253602452216300,0.34721630859375,-4.318736474817991,-1.5986445719391107,13.70542503273487
1789253602462269400,0.35726953125,-11.632399446260928,1.09212888199687,16.723986087447404
1789253602472323300,0.3673232421875,-11.458291418111324,6.907823578214645,4.6229374483019114
1789253602482376400,0.37737646484375,-6.793893247652053,1.4604969149649143,2.990575900200009
1789253602492430300,0.387430419921875,-3.5429137223795055,-1.8895827437460422,3.356087374693155
1789253602502483500,0.3974833984375,-0.10440233149975538,-1.6497791313707828,1.289511987271905
1789253602512536600,0.40753662109375,1.5509347262591122,-1.2706687551140785,0.536459577307105
1789253602522590500,0.417590576171875,1.2479621255263686,-1.882024291190505,-0.9451654658824205
1789253602532643300,0.427643310546875,0.18725714031904936,-2.1334745022177697,-0.204546421033144
1789253602542697500,0.437697509765625,-0.5552195150956512,-1.862714026042819,0.6866349412053823
1789253602552750300,0.447750244140625,-0.011482348001003265,-0.9566127425700426,1.218861410987377
1789253602562804500,0.457804443359375,0.4415092570245266,-0.48060617265999317,1.380022279280424
1789253602572857300,0.467857421875,0.29043358328565955,-0.33879707056879993,1.139447682532668
1789253602582911500,0.477911376953125,-0.1744360910601914,0.389010423502326,1.2493833905011416
1789253602592964400,0.48796435546875,-0.45482072014883157,0.6744339235410094,1.1993670214444399
1789253602603018500,0.4980185546875,-0.68074588316679,0.8494757254093885,1.3004279335618019
1789253602613071400,0.5080712890625,-0.6043547174036502,0.7355331198871136,1.3399725929647683
1789253602623124500,0.51812451171875,-0.7322026602901518,0.7624459689930081,1.0059995815515517
1789253602633178400,0.528178466796875,-0.4977734344296157,1.2146788646057247,0.3269078953325748
1789253602643231500,0.5382314453125,0.6377654040962457,0.9632239774033426,-0.9701362410098314
1789253602653285400,0.548285400390625,1.8657376116476951,-0.5033548878237605,-2.36240308483541
1789253602663338500,0.55833837890625,1.7945505903989076,-1.3137097322002051,0.9222720815509557
1789253602673392600,0.568392578125,1.4595114110589027,0.5683481689989567,-0.054719432181119916
1789253602683445500,0.578445556640625,3.039663463973999,2.0015999341636896,-5.0987680771231645
1789253602693499400,0.58849951171875,5.573966253259778,0.8164572529047727,-7.531362304037809
1789253602703552500,0.598552490234375,3.401935518154502,0.5838266008988022,-4.944173727738857
1789253602713605400,0.60860546875,1.6699648641787468,2.398437105768919,-7.359542679086327
1789253602723659500,0.618659423828125,0.7475158186256885,2.0249206039965153,-7.092090596807003
1789253602733712400,0.62871240234375,-0.5822166084188968,1.801525105586648,-4.880499420207738
1789253602743766500,0.6387666015625,-0.5228501906821504,1.53692344430238,-4.225570699864626
1789253602753819400,0.6488193359375,-0.1417552895447239,1.009848658195138,-2.1866163098186253
1789253602763873300,0.658873291015625,1.4026993905127048,1.4913373127780853,-1.532835590466857
1789253602773926400,0.668926513671875,2.0709651468127963,0.7787544219762086,-0.8383411679327487
1789253602783980300,0.678980224609375,1.3360019357681274,0.7498260683294385,-0.41050972312688827
1789253602794033400,0.689033447265625,1.3191525077760218,0.9242962077897041,0.09150281017720699
1789253602804087300,0.69908740234375,1.0157014758765697,1.0233186728820205,0.3699567634642124
1789253602814140400,0.709140380859375,-3.5548622265875336,1.0108068357028066,-0.0810673408806324
1789253602824193500,0.719193603515625,-4.721287347894907,1.0645285620834677,-0.2984481090456247
1789253602834247400,0.729247314453125,-3.223656926321983,1.7602638515241442,-0.45249476141929623
1789253602844300500,0.739300537109375,-2.3508394882917405,1.9213678750634193,-0.2690127557247877
1789253602854354400,0.7493544921875,-2.1401824754238126,1.0380069773174823,-0.17991876025497913
1789253602864407600,0.759407470703125,-1.296462537062168,1.2367005806691944,-1.8307465238958596
1789253602874461400,0.76946142578125,-0.11297514872960746,1.2489359389945864,-3.614937632843852
1789253602884514300,0.779514404296875,0.3452103716772049,1.0064999322891235,-4.22186892273724
1789253602894568400,0.789568359375,0.41464126997366546,1.0463894596070051,-5.481738051417469
1789253602904622000,0.7996220703125,0.46025370498299595,1.529332550781965,-6.363935896733403
1789253602914676200,0.80967626953125,0.46935244578309354,2.104222104248404,-6.767158969983458
1789253602924729000,0.81972900390625,0.6181002610962838,2.367395194034278,-7.057271212360263
1789253602934782000,0.829781982421875,2.5321897426545616,2.630921335041523,-6.940436977049708
1789253602944836000,0.839836181640625,3.90638550773859,2.740792161080241,-6.230373229461908
1789253602954889000,0.849888916015625,3.9568087040305135,2.8257570939213035,-5.279536147683858
1789253602964943000,0.859943115234375,4.095957647001743,3.2885140138968825,-5.09698703892529
1789253602974996000,0.869995849609375,5.175605817610025,4.774679330864548,-5.8466913075059646
1789253602985050000,0.880050048828125,4.199938830479979,5.031895850333571,-6.171779586195945
1789253602995103200,0.890103271484375,3.052830404061079,4.655627419504523,-6.456667371922731
1789253603005157000,0.9001572265625,2.2485616016000507,4.394471222499012,-6.183043323010206
1789253603015210200,0.910210205078125,1.5591314767181872,3.4115164164483547,-4.164066722109913
1789253603025264000,0.92026416015625,4.543612567174434,-20.250297926855087,25.363732827234266
1789253603035317200,0.930317138671875,6.05007803710997,-63.45343775179386,64.90712966291905
1789253603045370000,0.9403701171875,7.44489865707159,-20.67644244148731,9.850585003316402
1789253603055424300,0.95042431640625,4.441898744106292,-1.1712409971565008,-7.1467679434120654
1789253603065477000,0.96047705078125,3.2740544036507604,1.730738920223713,-3.8790550177425143
1789253603075531000,0.970531005859375,2.982705312955379,4.754885666114092,-2.633776139950752
1789253603085584100,0.980584228515625,0.4713274721831083,5.936203820648789,-2.769913041624427
1789253603095638000,0.990637939453125,-2.556607560074329,5.567095198446512,-1.8007137892037628
1789253603105691100,1.000691162109375,-3.33873408883214,2.836709865090251,-0.4883826518803835
1789253603115745000,1.0107451171875,-3.24923209708333,1.240682197651267,-0.2627127787977457
1789253603125798000,1.0207978515625,-3.3361683299973603,0.8884019606530665,-0.04434241507351398
1789253603135852000,1.03085205078125,-1.7713801426917313,0.15535422784090042,0.29420448012650013
1789253603145905000,1.04090478515625,-0.3477314876526594,-0.29628128640055656,0.7803601036071777
1789253603155958300,1.050958251953125,0.5204442620515823,-0.621985066640377,1.1999626492500304
1789253603166012200,1.06101220703125,1.1061555076532066,-0.05672784939408302,0.9160521841228008
1789253603176065300,1.071065185546875,1.4170193000271916,0.43213644852340216,0.5617366419047117
1789253603186119200,1.081119140625,1.1698822760239243,0.5346995818972587,0.17594108879566192
1789253603196172000,1.091172119140625,1.1419324850857258,-0.4388572812110185,0.7696177603185176
1789253603206226200,1.10122607421875,0.4378445970371365,-0.7415998725801706,0.8557061442315578
1789253603216279000,1.111279052734375,-0.6930564986854791,-0.5664467192918062,1.3369728266268968
1789253603226333200,1.121333251953125,-0.6725172762647271,-0.5566244134575128,1.4535510413497685
1789253603236386000,1.131385986328125,-0.45974721676558256,-0.5099754750072956,1.4161369642347097
1789253603246439000,1.14143896484375,-0.32514351600855584,-0.8914806374460458,1.7157582087129353
1789253603256493000,1.1514931640625,0.17196487864106894,-1.3596423390746115,1.6133002892792223
1789253603266546000,1.1615458984375,0.715511491599679,-1.6040192507147788,1.1094500191539525
1789253603276600000,1.17160009765625,0.9242407512754202,-1.6823218030571936,0.8558440913975238
1789253603286653000,1.18165283203125,1.0237664166495204,-1.665157317766547,0.9303852453798055
1789253603296707000,1.19170703125,1.322175362728536,-1.76492994363904,0.9249117824047803
1789253603306760200,1.20176025390625,1.4734695015236734,-1.9062515544742344,0.7278823128730059
1789253603316814000,1.21181396484375,1.0345040837630628,-2.0765677891254426,0.8290104450076818
1789253603326867200,1.2218671875,0.6831967834502458,-2.2530630046725273,1.0744716447532177
1789253603336921000,1.231921142578125,0.589507861405611,-2.503343002876639,1.1657640270501375
1789253603346974200,1.24197412109375,0.7344201902091503,-2.6459645903944966,1.058107369929552
1789253603357027000,1.252027099609375,1.0238625705003739,-2.5887989341050384,0.6619067426621914
1789253603367081200,1.262081298828125,0.9467331535905599,-2.2060393876910207,0.44572482889294623
1789253603377134000,1.272134033203125,0.697297789517045,-1.5858300985515117,0.45786184141039843
1789253603387188200,1.282188232421875,0.6643360156357287,-1.310957510882616,0.5924930146962404
1789253603397241000,1.292240966796875,0.5661275703400374,-1.1338427021324633,0.27048107471168037
1789253603407295000,1.302294921875,0.3820739022374153,-1.4383996494472027,0.11018237620592117
1789253603417348000,1.31234814453125,0.13276128776073454,-1.5698556998282671,0.09333996247649193
1789253603427402000,1.322402099609375,-0.15107728117406366,-1.530093890543282,-0.017638532543182373
1789253603437455000,1.332455078125,0.042889293655753134,-1.4371505261689423,-0.17935060497820376
1789253603447509000,1.342509033203125,0.2785802100151777,-1.5299047977119684,-0.24949498530626296
1789253603457562000,1.35256201171875,0.26817864298820493,-1.6943930568620562,-0.188650932765007
1789253603467615200,1.362615234375,0.22228958299458026,-1.9259224696278572,-0.3134264824688434
1789253603477669000,1.372669189453125,0.07497954539954661,-1.858090457895398,-0.42530747928619383
1789253603487722200,1.38272216796875,0.2744289355546236,-1.647497450174391,-0.26341245149970055
1789253603497776000,1.392776123046875,0.7590639253392815,-1.554437473683059,-0.36439679124951363
1789253603507829200,1.402829345703125,1.1920347788602113,-1.5756047648742795,-0.46324294992685316
1789253603517883100,1.412883056640625,1.3443629368782042,-1.5937442326769231,-0.5526660312205552
1789253603527936000,1.42293603515625,1.317688280442357,-1.6907795425400136,-0.730215139734745
1789253603537990100,1.432990234375,1.0384516523450613,-1.8583526159629224,-0.917749051168561
1789253603548043000,1.44304296875,0.7548398779034614,-1.6327239516735077,-0.6366337697178125
1789253603558097200,1.45309716796875,0.742764824706316,-1.2693056500673294,-0.3405716790258884
1789253603568150000,1.46314990234375,0.7382195824921131,-1.0697007770895957,-0.056200026127696034
1789253603578203100,1.473203125,1.0076926492050289,-0.8854737982466816,-0.08909107286036014
1789253603588257000,1.483257080078125,1.2781737239167092,-1.0707099541321397,-0.0948702407836914
1789253603598310000,1.493309814453125,1.3222978200644253,-1.040742393630743,-0.10264145930707454
1789253603608364000,1.503364013671875,1.2139768538162112,-0.8695543445810675,-0.4179804973989725
1789253603618417200,1.513417236328125,0.8730556307002901,-0.8033201234340668,-0.5394242723315954
1789253603628471000,1.523470947265625,0.7069397703483701,-0.6102873223230242,-0.31922084796130656
1789253603638524200,1.533524169921875,0.7036451127171516,-0.49762745008766646,-0.03420154480934143
1789253603648578000,1.543578125,0.788071408636868,-0.6664478932231664,-0.029980712243914603
1789253603658631200,1.553631103515625,0.9401730644226074,-1.1401327421873808,0.22300036161243914
1789253603668685300,1.563685302734375,0.9546478722378611,-1.6583990756779907,0.7662982605069876
1789253603678738200,1.57373828125,0.7879644411310553,-1.6868576929211616,1.150949319756031
1789253603688791000,1.583791015625,0.6986679088264703,-1.4736793448820709,1.39853058039546
1789253603698845200,1.59384521484375,1.4321107784360647,-1.6694044538170099,1.363205584514141
1789253603708898000,1.60389794921875,2.8919144504398107,-1.4982175738111136,-0.08501520172357559
1789253603718952200,1.6139521484375,3.2767098865956066,-1.1813462115854023,-0.25488018547594543
1789253603729005000,1.624005126953125,3.715753630289435,-0.4553521966770291,-1.060153196543455
1789253603739059200,1.63405908203125,4.493006415531039,0.14977350509911774,-1.4396797523856162
1789253603749112000,1.644112060546875,5.014592248833179,0.7386638191282748,-1.4159844040215015
1789253603759166000,1.654166015625,4.604918392008543,1.356079385896027,-1.4749720150411127
1789253603769219000,1.664218994140625,3.075694562298059,1.3582657900243997,-1.439661632207036
1789253603779273000,1.67427294921875,1.4944038607418537,1.2408914564877749,-1.6468816563636064
1789253603789326000,1.684326171875,0.07664543278515339,0.6877300429657102,-1.7525187903553245
1789253603799379200,1.694379150390625,-0.9178735543310642,0.3015554274111986,-1.9577906030535697
1789253603809433000,1.70443310546875,-1.796830810290575,-0.09118249218165873,-1.9308914902120828
1789253603819486200,1.714486328125,-2.1798118905007837,-0.164155958455801,-1.9352806650817393
1789253603829540000,1.7245400390625,-2.3373493075996636,0.07886340109556914,-1.7635960646867752
1789253603839593200,1.73459326171875,-2.589490423500538,0.3923015740022063,-1.7475678899496794
1789253603849647000,1.744647216796875,-2.5452175665318966,0.5492115068525075,-1.5535603985875843
1789253603859700200,1.7547001953125,-2.03184952647686,0.8552852884709835,-1.3692425265908241
1789253603869754000,1.764754150390625,-1.244777942532301,1.1631643659457565,-1.2039105100929737
1789253603879807000,1.774806884765625,-0.1580348452270031,1.0541752911776303,-0.9388526294738053
1789253603889861000,1.784861083984375,0.5665858355015516,0.9275082286387681,-0.5902478661179542
1789253603899913200,1.794913330078125,1.3393664437651633,1.196780950473994,-1.143774898082018
1789253603909966300,1.80496630859375,2.231565458613634,1.7460282592922447,-1.7156810518234966
1789253603920020200,1.815020263671875,3.266194922322035,1.352686820848286,-1.6564695689201354
1789253603930073300,1.8250732421875,3.4709313129693267,1.063557890420407,-2.3004782513201234
1789253603940127500,1.83512744140625,3.1419466113626955,0.8667780117355287,-2.058950299370289
1789253603950180400,1.845180419921875,2.3787895714908838,0.5039706816345453,-0.6070721596688031
1789253603960234500,1.855234375,1.651692271515727,0.7025099712073802,0.1991121210247278
1789253603970287400,1.865287353515625,1.349216222128272,0.22176585138142108,0.4060188414484262
1789253603980341500,1.875341552734375,1.35114105271101,-0.3992202673494816,0.7494558467775583
1789253603990394400,1.885394287109375,1.7501672587931154,-0.47400107530653474,1.2448095067143439
1789253604000448300,1.8954482421875,1.572569634962082,-0.010806932957470417,1.0228525166749953
1789253604010501400,1.90550146484375,1.3164695523023604,0.5606222509220242,1.1780910091817378
1789253604020554200,1.91555419921875,0.8004448602586984,0.9199418850377201,1.674853951394558
1789253604030608400,1.9256083984375,-1.0260586192399264,1.433904383854568,2.210231578683853
1789253604040661200,1.9356611328125,-2.6465222242772577,1.8223647722586989,2.6464199329465625
1789253604050715400,1.94571533203125,-3.688818861612677,2.2943670749634504,2.153591407573223
1789253604060768300,1.955768310546875,-4.398127991440892,3.1872599172949787,1.3921522775352
1789253604070822100,1.965822265625,-3.884850552278757,2.675660932739079,0.8298042257338761
1789253604080875500,1.97587548828125,-3.86164444873631,1.5318161842912434,-0.356710328400135
1789253604090929200,1.98592919921875,-3.4849025551766153,-0.17932284018844366,-0.2906470799058676
1789253604100982500,1.995982421875,-2.8340099584817886,-0.48269554615467786,-0.42371641070246696
1789253604111036400,2.006036376953125,-2.7575246846944093,-0.333435981927067,-0.072222355645895
1789253604121089500,2.016089599609375,-2.494551793655753,-0.8072327668331563,0.39663784964084625
1789253604131142400,2.026142333984375,-2.1935312037736177,-1.4075874548152087,0.23182430405914783
1789253604141196300,2.0361962890625,-1.5657541097283363,-1.7362749270409346,0.006525602376461028
1789253604151249400,2.04624951171875,-0.33537177229523657,-1.842625031607598,0.25033845039308067
1789253604161303300,2.05630322265625,1.0537497592419385,-1.3778298838026821,0.3189583976328373
1789253604171356400,2.0663564453125,2.6822809354007244,-1.087010369939357,0.6835095026612281
1789253604181410300,2.076410400390625,4.428924111720919,-1.0268319416999816,0.7872796737372875
1789253604191463200,2.086463134765625,5.794025300723314,-0.7781931348316371,0.4087432979762554
1789253604201517300,2.096517333984375,6.7517235004425045,-0.943502793367207,-0.38055531436800955
1789253604211570200,2.106570068359375,6.3450844812691205,-0.8404355098634958,-0.8891372891902923
1789253604221623300,2.116623291015625,4.179743014669418,-0.012242518718540667,-0.9805021522015333
1789253604231677200,2.12667724609375,1.8627853377133607,-0.15052067020460963,-0.6696136637777089
1789253604241730600,2.13673046875,0.362530997377634,-0.569401185183227,-0.7004734969437122
1789253604251784400,2.146784423828125,-0.6830816326379776,-0.9720707162037491,-0.8242541903913021
1789253604261837300,2.15683740234375,-1.0493518165439366,-1.4165125195488333,-0.650987873762846
1789253604271891500,2.166891357421875,-0.40944998494088647,-1.5389499816939234,-0.774322577008605
1789253604281944300,2.1769443359375,0.9154869514554739,-1.274847209842503,-1.1428770724594592
1789253604291998500,2.18699853515625,2.404049977214634,-0.9056218293927609,-1.4203086969614027
1789253604302051300,2.19705126953125,3.241259218508005,-0.6246273978427053,-1.8541379208773374
1789253604312105500,2.20710546875,2.9317580927893516,-0.4456587779194116,-2.1271821240752935
1789253604322158300,2.217158447265625,1.963599581593275,-0.4216485183872282,-2.1962059759408232
1789253604332211200,2.227211181640625,1.1567208888947964,-0.5081934138961136,-2.4164684370219707
1789253604342265300,2.237265380859375,0.6907856311440468,-0.5389262596815824,-2.356033549803495
1789253604352318200,2.247318115234375,0.5393897855401039,-0.314965090212971,-2.300384727817774
1789253604362372400,2.257372314453125,0.6359001947462558,-0.25565920702442524,-2.4712562582641837
1789253604372425200,2.26742529296875,0.8926946894109249,-0.6334302975013851,-2.801233478039503
1789253604382479400,2.277479248046875,0.8887751778796315,-0.7830231853365898,-3.1062709023475645
1789253604392532200,2.2875322265625,0.7291232528448104,-0.2877095651492476,-2.8772178165674207
1789253604402586400,2.29758642578125,0.42493484658151864,0.1603577352166176,-3.02496449201405
1789253604412639500,2.307639404296875,-0.014535013569891451,0.2552707922287285,-3.402241223102808
1789253604422693400,2.317693359375,0.1891296561926603,-0.2414380817092955,-3.7571149837255478
1789253604432746500,2.32774658203125,0.6347258902698755,-0.628282632414624,-4.159445492050051
1789253604442800400,2.33780029296875,0.5032938052862882,-0.20053813523985445,-4.488170665937662
1789253604452853500,2.347853515625,0.02902092730104923,0.35736901150457556,-4.641041844791173
1789253604462906400,2.35790625,-0.46008068650364875,0.8910263178072869,-4.447991215762496
1789253604472960300,2.367960205078125,-1.1273100854933262,1.0152319586686789,-4.148133239918947
1789253604483013400,2.378013427734375,-1.3614146094441413,1.0450564574375747,-3.5664708313167095
1789253604493067300,2.3880673828125,-1.5758283444970844,1.3451834594808518,-2.5692986993432045
1789253604503120400,2.398120361328125,-1.7616168735682964,1.49297470472157,-1.7633955736786127
1789253604513174300,2.40817431640625,-1.711267911556363,1.5314464741960168,-1.3792249914228916
1789253604523227400,2.418227294921875,-1.33636053994745,1.435733645108342,-0.8621528361529112
1789253604533281300,2.42828125,-0.6080225922614335,1.598276907670498,-0.571096590924263
1789253604543334100,2.438334228515625,1.174019229698181,1.1608892606206238,-1.7520646168470382
1789253604553388300,2.44838818359375,1.430485807582736,0.4581941421046853,-3.2156963227063415
1789253604563441200,2.458441162109375,0.4741933830082416,1.0948015352722256,-2.979391658362746
1789253604573494500,2.46849462890625,-0.5514484721243381,1.7225768026866017,-3.136915046936273
1789253604583548400,2.47854833984375,-1.430886789599061,1.5820098096109925,-3.218785520893335
1789253604593601300,2.488601318359375,-2.028843330398202,1.2880210180617868,-3.1394659004628656
1789253604603655400,2.498655517578125,-2.5937656166017056,1.3327981712907553,-2.619564659246802
1789253604613708300,2.508708251953125,-3.6658939130991697,1.7009236276745796,-1.6600170322686434
1789253604623762400,2.518762451171875,-4.28754609452337,1.6410925515681505,-1.2090770990759134
1789253604633815300,2.528815185546875,-4.107261715826392,1.3949408853404224,-0.8075222512990236
1789253604643869400,2.538869384765625,-3.6407574260160325,1.4906243422031402,0.6517366463035345
1789253604653922300,2.54892236328125,-1.5167337659716604,1.4159788510635494,1.7203198175400494
1789253604663976400,2.5589765625,0.6117378133922815,1.5009319473363458,2.6149720707595345
1789253604674029300,2.569029296875,1.9452853417456148,2.109450360290706,3.3848598801910876
1789253604684082200,2.579082275390625,3.659466510400176,2.4856211759641766,3.9996816310733556
1789253604694136300,2.58913623046875,5.219608040943742,2.553963767567277,4.582606022435426
1789253604704189200,2.599189208984375,5.10715070554316,2.4145323543928563,5.885765426787733
1789253604714243300,2.609243408203125,3.8724247859477994,2.7575241001725197,6.523109975123405
1789253604724296400,2.61929638671875,2.9111002124249934,2.6565187176346776,5.9565878525078295
1789253604734350300,2.629350341796875,1.4538520701229571,1.7853491929419338,5.128609673157334
1789253604744403500,2.639403564453125,0.141177233928442,2.0529646490894256,4.656269224539399
1789253604754457300,2.649457275390625,-0.6592366466701031,2.7351313588395714,3.865325183075666
1789253604764510500,2.659510498046875,-0.4840069210141897,2.892249673743546,3.428181135523319
1789253604774564400,2.669564453125,0.47188744415342804,2.57632845184952,2.7957290354043245
1789253604784617500,2.679617431640625,1.1523521722912788,2.5139041443794965,1.7323919481277466
1789253604794670300,2.68967041015625,0.6726134301155805,2.5234993634596465,0.8378139291882515
1789253604804724500,2.699724365234375,-0.30080665487051006,2.6059473450437185,1.6941905200272798
1789253604814777300,2.70977734375,-1.4523404965162277,2.9085969974324106,1.5732161161720752
1789253604824831200,2.719831298828125,-2.4897826795578,2.7164599761173127,1.3112766598343848
1789253604834884400,2.72988427734375,-2.004991330167651,2.0278835454553366,0.4639887998580932
1789253604844938200,2.739938232421875,-1.2275561740964651,1.9836957364216445,0.5452145461708306
1789253604854991400,2.749991455078125,-0.1509720672339201,2.2976596867680548,0.4788590367317199
1789253604865045200,2.760045166015625,0.5052203894346952,2.4171038123160598,0.2743120311766863
1789253604875098000,2.77009814453125,0.4866735098749399,2.231546169391274,0.13187456805408
1789253604885152300,2.78015234375,0.0696428605467081,1.8516104482263325,-0.14174655824899673
1789253604895205400,2.790205322265625,-0.4518120398521423,1.6860227034017443,-0.5060913270503282
1789253604905259000,2.800259033203125,-0.660350160869956,1.4915844194069503,-0.9923720382153988
1789253604915313000,2.81031298828125,-0.8315081070423126,1.3691434501305222,-1.650613828629255
1789253604925366000,2.820365966796875,-1.3372773625314236,1.503135156469047,-1.8772855722308157
1789253604935420200,2.830420166015625,-1.8600947834551333,1.4698311450213193,-1.6183189942240714
1789253604945473000,2.84047314453125,-2.3770272379934787,1.5276815687045453,-1.4474913029193877
1789253604955527200,2.850527099609375,-2.9341508331447836,1.2833613556876777,-0.9363333401292562
1789253604965580000,2.860580078125,-2.962558012461662,0.7094733804792165,-0.21300971347391603
1789253604975634000,2.870634033203125,-2.5222704061865806,0.3002688947319984,0.33545009822845456
1789253604985687000,2.88068701171875,-1.5409861636966466,-0.01774491552710533,0.4705944817334413
1789253604995741000,2.890740966796875,-0.5093377616256475,-0.17900486028045415,0.5735311245948076
1789253605005794000,2.9007939453125,0.4299053284704685,-0.48709465789645906,1.1734352923303841
1789253605015847000,2.910846923828125,1.1174217286854982,-0.9233376649558543,1.7650410027980803
1789253605025901000,2.920901123046875,1.4010826029658316,-1.4138438848614692,2.2055904748797417
1789253605035954000,2.930953857421875,1.4882581975936888,-1.831782881206274,2.4413947884857654
1789253605046007800,2.9410078125,2.134512613093853,-2.2168220629900692,2.8878748196601864
1789253605056061000,2.95106103515625,2.9541368055969475,-2.2742639058724046,2.55226047078073
1789253605066114800,2.96111474609375,3.4393402429193256,-2.156732043686509,1.9581372245341537
1789253605076168000,2.97116796875,3.341255131742358,-1.8377365289136767,1.2868547507613897
1789253605086221800,2.981221923828125,2.2276930010944604,-1.4540879247054457,0.9106482792526484
1789253605096275000,2.99127490234375,0.7597060226351022,-1.2122206577986478,0.535519666108489
1789253605106329000,3.0013291015625,-0.27043489748239513,-1.1883821015715599,-0.062195467150211334
1789253605116382000,3.0113818359375,-0.9176713097572327,-1.0278566085726022,-0.5278273580402135
1789253605126436000,3.02143603515625,-0.882379047101736,-0.6629369624927639,-1.0000129083573817
1789253605136489000,3.031489013671875,-0.8115443464219569,-0.17392302697151898,-1.5583090544193983
1789253605146542000,3.0415419921875,-1.0406050309866666,0.15016455024331807,-1.4225082528322934
1789253605156596000,3.051595947265625,-0.3811059339880943,-0.09947510423064232,-1.6218799015760421
1789253605166648800,3.06164892578125,0.26777356931865215,-0.24008213705569503,-2.6439275316089392
1789253605176703000,3.071702880859375,-0.23282442101240156,0.5280284335702657,-2.7111545631855725
1789253605186755800,3.081755859375,-0.9699497785270214,1.6355197198718785,-2.1479636308193206
1789253605196810000,3.09181005859375,-1.1261398726701737,1.8361881304278969,-1.849188774037361
1789253605206862800,3.10186279296875,-0.8070669087469577,1.114247482563555,-1.9978303524971006
1789253605216917000,3.1119169921875,0.24384967289566992,0.4610685284972191,-1.8450497745364904
1789253605226969900,3.121969970703125,1.0047305845290422,0.3119876818373799,-1.7334721445798873
1789253605237024000,3.13202392578125,0.9314087432086467,0.8751905969023704,-1.0427601631939412
1789253605247076900,3.142076904296875,1.2024416065841912,1.0183277327269316,-0.8173860581874847
1789253605257130000,3.1521298828125,1.173530569398403,0.5392588526368141,-0.9192506879031658
1789253605267184000,3.16218408203125,0.9170330118536949,0.20173720883131027,-0.9031184682697058
1789253605277237000,3.172237060546875,0.45955637036859986,-0.014793956767022609,-0.7313812609046697
1789253605287291100,3.182291015625,-0.3842904092431068,-0.12297346871793269,-0.2021101337969303
1789253605297344000,3.192343994140625,-0.5264262590706348,-0.32370734572559595,0.1545142698854208
1789253605307398100,3.202398193359375,-0.34139293228089806,-0.7988374250620603,0.3402870168656111
1789253605317451000,3.212450927734375,0.24189970787167547,-1.4275611523076892,0.22803660221397876
1789253605327505000,3.2225048828125,0.425294035282731,-1.5648904786363242,0.21230945625007153
1789253605337558000,3.23255810546875,0.6527145514249801,-1.2628650956258176,0.660055561837554
1789253605347612000,3.24261181640625,0.9508142854243516,-1.0231532531872392,0.7459609903991222
1789253605357665000,3.2526650390625,1.1770903077065944,-1.0322016520395874,0.7471785494953394
1789253605367718000,3.2627177734375,1.4837024339854716,-1.2370923564657568,0.814960876867175
1789253605377771800,3.272771728515625,1.4876017795115708,-1.5086130033582448,0.7629027728497981
1789253605387825000,3.282824951171875,1.341530343800783,-2.0400661506801843,0.5880266829371452
1789253605397878800,3.292878662109375,1.0510884310781956,-2.36495803001523,0.4046814553648233
1789253605407932200,3.30293212890625,0.7805717005312443,-2.599433725365996,0.22238076840937138
1789253605417985800,3.31298583984375,0.7915659727543592,-2.895649837575853,-0.049666240444779394
1789253605428039200,3.3230390625,0.903672010499239,-3.01284209254384,-0.25431495280861854
1789253605438093000,3.333093017578125,1.1126111135333776,-3.0484704552859068,-0.5408586890488862
1789253605448146000,3.34314599609375,1.543150648254156,-3.2817256689310073,-0.8849158721029758
1789253605458200000,3.353199951171875,2.062486656802893,-3.5396626116290686,-1.6615490641415118
1789253605468253000,3.3632529296875,2.3195663981497288,-3.540594339521229,-2.2093150483608244
1789253605478306000,3.37330615234375,2.172894073936343,-3.6353850853279233,-2.258498473724723
1789253605488360000,3.38335986328125,1.651205364781618,-3.6078923905074594,-2.170383552420139
1789253605498413000,3.3934130859375,0.6559843668758869,-2.699291691434383,-2.0875077008128167
1789253605508467000,3.403467041015625,-0.230244341391325,-1.601914971911907,-1.9485241775363682
1789253605518519800,3.413519775390625,0.19816928721666335,-1.80276107712239,-1.1860498592317104
1789253605528574000,3.423573974609375,0.6737304514467716,-1.9611220855638383,-1.2575468232125042
1789253605538626800,3.433626708984375,-0.19386603706479072,-1.543385918314755,-1.302527536189556
1789253605548681000,3.443680908203125,-0.3181856596946716,-1.8525623421236872,-1.3948299723118542
1789253605558733800,3.45373388671875,0.5190098453342914,-2.0074764249816535,-1.4024351866185665
1789253605568788000,3.4637880859375,1.5932032576680182,-1.8256983005955814,-1.5265847133785486
1789253605578841000,3.473841064453125,2.2332500506997106,-1.7911556872636079,-1.78999541131258
1789253605588895000,3.48389501953125,2.7805998553335667,-1.917019032204151,-2.157144131618738
1789253605598948000,3.493947998046875,3.1974341053068636,-1.9630562684968114,-2.43480196609199
1789253605609001000,3.5040009765625,3.1242285838425157,-1.6742136076644063,-2.302149983924627
1789253605619055000,3.51405517578125,2.8966368027865883,-1.2001213469430803,-1.740899079710245
1789253605629108000,3.52410791015625,2.453034957396984,-0.7775552753195166,-1.0433493612587452
1789253605639162000,3.534162109375,1.70422383826375,-0.47826750057935713,-0.8895552223414183
1789253605649215000,3.544215087890625,0.8820511303216219,-0.4493398045197129,-0.7794511720687151
1789253605659268900,3.554268798828125,0.23315701396763322,-0.37566841910928483,-0.5092243643790483
1789253605669322000,3.564322021484375,0.0698103260681033,-0.1722092087909579,-0.13927929135262965
1789253605679376000,3.5743759765625,0.3226557908460498,0.007054010164737701,0.241964005279541
1789253605689429000,3.584428955078125,0.8191445922926068,0.11453326489180325,0.554606059372425
1789253605699483000,3.59448291015625,1.3840519731879233,0.1504375219658017,0.654587359559536
1789253605709536000,3.604535888671875,1.7922008124023674,0.1610445484369993,0.6222393336623907
1789253605719589000,3.614589111328125,2.1029683047950267,0.07783902648389339,0.47990942256748675
1789253605729642800,3.624642822265625,2.263643727658689,-0.06966565690040588,0.1232131226927042
1789253605739696000,3.634696044921875,2.134208077189326,-0.06658639558553696,-0.12363690106272697
1789253605749750000,3.64475,1.7071026085704564,0.3290720876291394,0.03746493051946163
1789253605759803100,3.65480322265625,1.1850684469789265,0.8497790922701358,0.13418985925912857
1789253605769857000,3.66485693359375,0.8704945480406284,0.9810589093014598,0.03891746741533279
1789253605779910100,3.67491015625,0.6007859190061688,0.9094348118096589,0.0029033202260732647
1789253605789964000,3.684964111328125,0.48405251372158525,0.965655296203494,-0.023194997626543045
1789253605800017000,3.695016845703125,-0.04942015672922134,1.2887538623809813,0.1838064153432846
1789253605810071000,3.705071044921875,-0.5192003994703293,1.6022352899074555,0.4050935432970524
1789253605820124000,3.7151240234375,-0.7653875754028558,1.8512433684796095,0.34650106907486916
1789253605830177000,3.725177001953125,-1.3399761000961063,1.932330875365436,0.4743862752318382
1789253605840231000,3.73523095703125,-1.427343417903781,1.8780995189622043,0.32833880491852757
1789253605850283800,3.74528369140625,-1.579979034435749,1.952133307944238,0.1743903522223234
1789253605860338000,3.755337890625,-1.5131383718281983,1.8335466760084032,0.1492372062653303
1789253605870390800,3.765390869140625,-1.10778559307307,1.5938915321931242,-0.12636895637512205
1789253605880445000,3.77544482421875,-0.5060819747000932,1.426835760642588,-0.5680108998686075
1789253605890498000,3.785498046875,0.002719195830821991,1.1415969695210457,-0.718801180794835
1789253605900551400,3.795551513671875,-0.060462944269180294,1.3179986615657806,-0.31799978173375126
1789253605910604300,3.805604248046875,-0.3226359171018004,1.955050072173774,0.46628421731889247
1789253605920658200,3.815658203125,-0.520534278422594,1.9997890853494404,0.9038730860292911
1789253605930711300,3.825711181640625,-0.7434989841997623,1.5702169343560932,0.4519681071966886
1789253605940764200,3.83576416015625,-0.7626905914038419,0.8665393806740641,0.0017114800930023192
1789253605950818300,3.845818359375,-0.2651817992597818,-0.07476677943170071,-0.3570353225708008
1789253605960871200,3.85587109375,-0.6664665979236364,0.08878887504339218,-0.45822307593822476
1789253605970925300,3.86592529296875,-0.5047112708687782,0.7573954076051712,0.24414310288429258
1789253605980978200,3.875978271484375,-0.047854514847695824,0.8072013487815857,0.7993506352812051
1789253605991032000,3.886031982421875,0.24031039285361766,0.38573739318102596,1.0673118361264466
1789253606001085200,3.896085205078125,0.37179040863215923,0.06820026052296162,1.1507786393642425
1789253606011139000,3.90613916015625,0.35145080043673516,0.015291092634201049,1.0701724862545727
1789253606021192200,3.916192138671875,0.5890431665033101,-0.28723113398253913,1.0034037198394536
1789253606031246000,3.92624609375,0.9439031908616423,-0.44258769991099833,0.9004074557453393
1789253606041299200,3.93629931640625,1.2737462628632783,-0.2870511012405157,0.7914829706460237
1789253606051353300,3.946353271484375,1.359986622467637,-0.3825932499364018,0.9321715442746877
1789253606061406200,3.95640625,1.2643842680171131,-0.9316349531799555,0.8379390168726444
1789253606071459300,3.966459228515625,0.9862330970689653,-1.0040008089497685,0.4658668686896562
1789253606081513200,3.97651318359375,0.5291489620327949,-1.0766469429656862,0.5452279901742935
1789253606091566300,3.98656640625,0.18616203855872154,-1.1590411485359071,0.6404559583544731
1789253606101620200,3.9966201171875,-0.045371758121252055,-1.3389715992286801,0.6846814690500498
1789253606111673000,4.006673095703125,-0.11597265004515647,-1.632201096843183,0.866334505751729
1789253606121727200,4.016727294921875,0.19255524672716856,-2.002275933729112,0.7030149981200695
1789253606131780000,4.026780029296875,0.6257540637850761,-2.1022250852122903,0.22703823882639407
1789253606141834200,4.036834228515625,0.43284167418330904,-1.766401477496326,0.7023977430045605
1789253606151887000,4.04688720703125,-0.10017886858582496,-0.7292576928794383,1.437002057608962
1789253606161940200,4.056940185546875,-1.0064964251577853,0.3879875101953745,2.0807997276067733
1789253606171994000,4.066994140625,-2.1053782885462042,0.7857897274404764,2.282825105729699
1789253606182047200,4.077047119140625,-2.1566665772348643,0.4472957314714789,1.6455647285461426
1789253606192101000,4.08710107421875,-1.5492986494898795,-0.8046808903932571,1.1828870112866163
1789253606202154200,4.097154296875,-0.661853258909285,-1.3281833709716797,1.0907605162531138
1789253606212208400,4.10720849609375,0.6421738681882619,-1.5394716674804687,0.7946803053826094
1789253606222261200,4.11726123046875,1.3347481363147495,-0.8195195630848408,0.7133364856481552
1789253606232315400,4.1273154296875,0.8563573016166687,0.7530331207424402,1.723271068561077
1789253606242368300,4.1373681640625,1.8383605060309172,1.181811491009593,0.5568067842870951
1789253606252422400,4.14742236328125,2.9296102671056983,0.7761974309697747,0.7170522913008928
1789253606262475300,4.157475341796875,3.375912603625655,0.7072095272004604,1.361032916650176
1789253606272529200,4.167529052734375,1.9704525162279605,2.2381921832770106,0.2858674444139004
1789253606282582300,4.177582275390625,0.4948234985828399,2.7872636971369382,0.20178046345114706
1789253606292635100,4.18763525390625,0.47404842157959937,2.4893843278899785,-2.008456960451603
1789253606302689300,4.197689208984375,0.8069915054231882,2.934707882505655,0.4616472051680088
1789253606312742100,4.2077421875,1.758251196527481,2.4711267866656184,-0.3845312322616577
1789253606322796000,4.217796142578125,1.752616990032792,1.5336363854557276,-2.1510317862182853
1789253606332849200,4.22784912109375,1.3297703479021787,0.9314338776499033,-1.4500398183584213
1789253606342903000,4.237903076171875,1.33457979401052,1.5442843284592032,-0.7207891397416591
1789253606352956400,4.247956298828125,1.551856517279148,2.440839492690563,-0.8940215541005134
1789253606363010000,4.258010009765625,1.3998890092670917,1.4617854934707284,-0.9999451038181781
1789253606373063400,4.2680634765625,1.1638070477634668,0.6354843074217438,-1.157620468083024
1789253606383117300,4.278117431640625,0.5151373878151178,0.41428193514198064,-0.914229644870758
1789253606393170200,4.288170166015625,-0.08839958346486092,0.5769841876581311,-0.7601005749106406
1789253606403223300,4.298223388671875,-0.7270879476249218,0.7936059541493654,-0.57956923571527
1789253606413277200,4.308277099609375,-1.1542436851263045,0.7827890843197703,-0.3732067051708698
1789253606423330300,4.318330322265625,-1.1540455322057008,0.5715919732257724,-0.02373334228694439
1789253606433384200,4.32838427734375,-1.4549287594437599,0.5380357405826449,0.7740957825154066
1789253606443437300,4.338437255859375,-2.120463629475236,1.2138944362297655,1.7384651305615901
1789253606453491200,4.3484912109375,-2.996782938146591,2.336779691018164,2.5339058989226815
1789253606463544000,4.3585439453125,-3.4705122107744213,3.0809166808605193,2.9168478161662814
1789253606473598200,4.36859814453125,-3.3074270964205263,3.593390986946225,2.637636322510242
1789253606483651000,4.378651123046875,-3.8397605337083336,4.447671482288837,2.0908552576750514
1789253606493705200,4.388705322265625,-4.491394011898339,5.228669883799553,1.6548276469320058
1789253606503758000,4.398758056640625,-4.302144820979238,5.859722053992748,0.561894462814927
1789253606513811200,4.408811279296875,-3.95931396484971,6.334370195031165,0.10898001467883586
1789253606523865300,4.418865234375,-3.4695869126230474,6.198586929100752,0.5593880329519509
1789253606533918200,4.428918212890625,-2.709650296102464,5.596382083207368,0.7960732210457324
1789253606543972400,4.438972412109375,-1.703572973139584,4.499455445539951,0.8285212001860142
1789253606554025200,4.449025146484375,-0.770883542470634,3.7928789555460214,0.32806641771793366
1789253606564079400,4.459079345703125,0.38202480239868164,2.4004010993182656,0.5445458531290293
1789253606574132200,4.46913232421875,2.0337118132174012,0.2516664841264486,0.3683943364530802
1789253606584186400,4.479186279296875,2.971890781213343,-1.4021791660308838,-0.20816227344274518
1789253606594239200,4.4892392578125,3.384816333310306,-2.303694875279069,-0.913414821356535
1789253606604292000,4.4992919921875,3.784496327126026,-2.834430229720473,-1.8456518320828674
1789253606614346200,4.50934619140625,4.008081795150042,-3.207892955479026,-2.04701260881722
1789253606624399000,4.519399169921875,3.89556834564805,-3.0313743590563536,-1.7559873432487247
1789253606634453200,4.529453369140625,3.796083304545283,-2.692018485561013,-1.6023673918545245
1789253606644506000,4.539506103515625,3.3397324522197245,-2.450667643743753,-1.93686471940279
1789253606654560300,4.549560302734375,1.7174088985294103,-1.5536381399989128,-1.6474299378961323
1789253606664613000,4.559613037109375,0.015491583642363548,-0.9526268878042697,-0.5893237370103598
1789253606674667000,4.5696669921875,-0.8289934938728809,-1.3124258298695086,-0.4003255982428789
1789253606684720400,4.579720458984375,-0.486442039206624,-2.0644623407900333,-0.26161563121080395
1789253606694774300,4.589774169921875,0.16982377495914697,-2.356198384976387,0.09636661682128905
1789253606704827400,4.599827392578125,1.2593462738499044,-2.3944167642116545,0.39964287667572496
1789253606714880300,4.60988037109375,1.6215116527855395,-2.300309324494004,0.892041778460145
1789253606724934400,4.619934326171875,1.2724568075746296,-1.7755676575094461,0.48292204838693137
1789253606734987300,4.6299873046875,0.2770908482402563,-1.7487725895643234,0.32180501923561095
1789253606745041200,4.640041259765625,-1.2389733479067682,-1.384343649610877,0.34681437280774113
1789253606755094300,4.65009423828125,-2.5123838029444214,-0.694520726019144,-0.034139000967144964
1789253606765148200,4.660148193359375,-3.0417344250291585,-0.6052449442416429,-0.717333446329832
1789253606775201300,4.670201171875,-2.79679023489505,-0.589772649821639,-1.1171972722798584
1789253606785255200,4.680255126953125,-2.4805668151840568,-0.3614204057872295,-1.2286544907271861
1789253606795308000,4.69030810546875,-2.0993442690789696,-0.1229208617478609,-1.4271183769762514
1789253606805362200,4.700362060546875,-1.7139415146797894,0.18904899217188356,-1.7488696201980114
1789253606815415000,4.7104150390625,-1.1857964689925313,0.4230570700109005,-1.9428788651257751
1789253606825468400,4.720468505859375,-0.670592737942934,0.5922574523746967,-2.1813193724542854
1789253606835522000,4.73052197265625,-0.377546195679903,0.6134966397583484,-2.3718746775358914
1789253606845575400,4.740575439453125,-0.3595946516647935,0.31483401117920873,-2.2999375685721635
1789253606855629300,4.75062939453125,-0.48199762701839205,-0.04274140961766243,-2.07556533408463
1789253606865682200,4.76068212890625,-0.599938946788013,-0.5314034629613161,-1.7676415406852959
1789253606875736300,4.770736328125,-0.6343266618192196,-1.0616671082377434,-1.4252081594407557
1789253606885789200,4.7807890625,-0.282257437223196,-1.6375544405698774,-1.0158008445978164
1789253606895843300,4.79084326171875,0.3977303210526705,-2.1331968543201683,-0.629105712300539
1789253606905896700,4.800896728515625,1.4551754276812077,-2.34582312143445,-0.4307517161667347
1789253606915950600,4.81095068359375,2.582656193566322,-2.5324323192387816,-0.31487726579904557
1789253606926003500,4.82100341796875,3.648205696195364,-2.7762223709017038,0.05150865344107151
1789253606936056600,4.831056640625,4.330994191105663,-2.618082311734557,0.3138724726706743
1789253606946110500,4.8411103515625,4.196675444769859,-1.9857465314716098,0.11131284154057502
1789253606956163600,4.85116357421875,2.9002985401645303,-1.4188812945067881,0.2511871761769056
1789253606966217500,4.861217529296875,1.0197826077103613,-1.0591571712434291,0.7453302912801504
1789253606976270300,4.871270263671875,-0.5688847600936889,-0.5046341139793395,0.6975929730713367
1789253606986324500,4.881324462890625,-1.4114143196269868,0.050313890698552126,0.6731278093785047
1789253606996377300,4.89137744140625,-1.6512252385258674,0.45575347095429897,0.6385626919537782
1789253607006431500,4.901431396484375,-1.5233222044512629,0.8902537259995937,0.33021395114064217
1789253607016484600,4.911484619140625,-1.0306406863331794,1.2070371176809072,0.14959727174937723
1789253607026538500,4.92153857421875,-0.3554448385089636,1.1806301722705363,0.2547825703203678
1789253607036591600,4.931591552734375,0.41963410982489585,1.1591519154340029,0.01710369501411915
1789253607046644500,4.94164453125,1.0989844469800591,1.212677169394493,-0.2101099003791809
1789253607056698600,4.95169873046875,1.5305460182249546,1.4283195694595574,-0.4590595267623663
1789253607066751500,4.96175146484375,1.4200424472406505,1.7976625849395989,-0.8188765890061854
1789253607076805600,4.9718056640625,0.8371136719644069,1.9228876319766044,-0.9280559256494044
1789253607086858500,4.9818583984375,0.1617825073227286,1.9647306314498185,-1.053506598135829
1789253607096912600,4.99191259765625,-0.4763724806129932,1.6810633274286984,-1.0572545524924992
1789253607106965500,5.001965576171875,-0.6838178379580379,0.9441974976330995,-1.1008546247661113
1789253607117019600,5.01201953125,-0.39047698892354965,0.12681903823018073,-1.2998790675073861
1789253607127072500,5.022072509765625,0.15301263315081595,-0.2426964112073183,-1.039865610796213
1789253607137126400,5.03212646484375,1.105577561634779,-0.2080313405394554,-1.1162339802056551
1789253607147179500,5.042179443359375,2.1174536340042946,-0.35399931587576866,-1.4549369427502155
1789253607157232600,5.052232666015625,2.4614859748780726,-0.5727613092660904,-1.1329852085202932
1789253607167286500,5.06228662109375,1.8030159286662935,-0.4674702122330665,-0.46675125030875203
1789253607177339600,5.072339599609375,0.8363822889499366,-0.35792554940879345,-0.015990180814266203
1789253607187393800,5.082393798828125,0.7588122886657714,-0.47993455700874327,0.25654548833966256
1789253607197446700,5.09244677734375,1.4362845569893716,-0.5842565167486667,0.1795358984172344
1789253607207500500,5.10250048828125,2.060245599877834,-0.5816051254570483,0.2838824080765247
1789253607217553700,5.1125537109375,2.1558643209412693,-0.31741759793162344,0.32486382228434085
1789253607227607600,5.122607666015625,1.8572180589750409,-0.0884083512932062,0.2621756031811237
1789253607237660700,5.13266064453125,1.2511474775642155,0.08341244270205497,-0.036521512189507485
1789253607247714600,5.142714599609375,0.7165794130921364,0.16224048022329807,-0.2718710677653551
1789253607257767400,5.152767333984375,0.6529734946221113,0.2502759065508842,-0.48208793565034863
1789253607267820500,5.162820556640625,0.9166323220983147,0.5419534985482692,-0.5888356612324714
1789253607277874400,5.17287451171875,1.1551803814545274,0.9578472528010606,-0.806182527127862
1789253607287927600,5.182927490234375,1.166964342750609,1.3378022631883622,-1.0793249300032854
1789253607297981400,5.1929814453125,0.9758464353501796,1.6495172655642032,-1.5152958421230316
1789253607308034600,5.20303466796875,0.6361695132069289,1.9533955829650163,-1.9272230308324096
1789253607318088400,5.21308837890625,0.1686108920380473,2.1802923674941064,-2.238963752171397
1789253607328141600,5.2231416015625,-0.2952211098231375,2.134540670144558,-2.2762650165617466
1789253607338195500,5.233195556640625,-0.5984346797049045,1.619358274143934,-2.2790572776287794
1789253607348248600,5.24324853515625,-0.6479409072823822,1.405757609039545,-2.712173969361186
1789253607358301700,5.2533017578125,-0.6424830802679061,1.7889187219917773,-2.718250074404478
1789253607368355600,5.26335546875,-0.4123094660252332,2.3048265096575022,-2.3417957656145094
1789253607378408700,5.27340869140625,-0.03537731059044599,2.1936329105824233,-2.0875731672644613
1789253607388462600,5.283462646484375,0.2980734305143356,1.5917828694760798,-1.7627835792601108
1789253607398515500,5.293515380859375,0.7141349425494671,0.9609346974223851,-1.418434135261178
1789253607408569600,5.303569580078125,1.346393419792503,0.4059206417709589,-1.7643091813921927
1789253607419880700,5.314880615234375,1.851146191715449,-0.22378946616351603,-2.263995902097225
1789253607429933600,5.32493359375,2.105776786344498,-0.9835819980382918,-1.9630711738049982
1789253607439987700,5.33498779296875,2.2199194444835184,-1.7020166836082935,-1.5855302388221024
1789253607450040600,5.34504052734375,2.240638699646294,-2.2647715626448393,-1.289153675353527
1789253607460094500,5.355094482421875,2.3927850713565944,-2.720019422164559,-0.9712415719032287
1789253607470147600,5.365147705078125,2.9104397026896476,-2.8349913707345724,-0.7098246781349181
1789253607480201500,5.375201416015625,3.5964109192892906,-2.677451031026244,-0.5560714557498693
1789253607490254600,5.385254638671875,4.436539262899756,-2.563814714974165,-0.10007073203623294
1789253607500307500,5.395307373046875,5.133081265613437,-2.5711481266021727,0.4636415938556194
1789253607510361600,5.405361572265625,5.325984595125913,-2.5759037966966627,1.1425701984673737
1789253607520414500,5.41541455078125,5.150722136244178,-2.412325345867872,1.9407184722214936
1789253607530468400,5.42546826171875,4.4898485360220075,-2.059707255217433,2.6014275295317173
1789253607540521700,5.435521728515625,3.4021509144708513,-1.6266291419297456,3.205661835426092
1789253607550575600,5.44557568359375,2.3790830014795064,-1.046947093489766,3.667845631688833
1789253607560628700,5.455628662109375,1.5519418574750423,-0.46829731070697306,3.997619437846541
1789253607570682600,5.4656826171875,1.2534925793856382,-0.3069271835774183,3.9245448492854833
1789253607580735500,5.475735595703125,1.5715823774904012,-0.8265642208993434,3.6648815211862322
1789253607590788600,5.48578857421875,2.222188558459282,-1.2964502621024847,3.4376977364093064
1789253607600842500,5.495842529296875,2.7022826899439094,-1.4463140758335589,3.4655770924597977
1789253607610895600,5.5058955078125,2.854279131789505,-1.2859826441019773,3.428690838611126
1789253607623462400,5.51846240234375,2.60295137809813,-1.212337562176585,3.146341046929359
1789253607633516500,5.5285166015625,2.028032014015317,-1.4012071061283349,2.957703558167815
1789253607643569400,5.5385693359375,1.102052310118079,-1.4062076908946037,2.6326526888787747
1789253607653623600,5.54862353515625,0.11973521744906902,-1.2750240277141331,2.200533191490173
1789253607663676400,5.558676513671875,-0.768667912247777,-0.9915554611355065,1.6754273673683404
1789253607673729500,5.5687294921875,-1.6082213785797357,-0.4652706563621759,1.035934116566181
1789253607683783400,5.578783447265625,-2.0697662924170492,0.10670564000606536,0.36421675850749013
1789253607693836500,5.58883642578125,-2.1679045950859783,0.512893408280611,-0.2423340076357126
1789253607703890700,5.598890625,-2.099927621924877,0.8452104691803455,-0.7469815656185149
1789253607713943600,5.608943603515625,-1.9183777533367274,1.2076684013217687,-1.2029998249888418
1789253607723997700,5.618997802734375,-1.7078613179832696,1.4742846172988413,-1.5841531052500009
1789253607734050600,5.629050537109375,-1.4883818239733575,1.7212743417859075,-1.8662655810445545
1789253607744104700,5.639104736328125,-1.2478355765372513,1.813766747522354,-1.993624132978916
1789253607754157600,5.649157470703125,-0.9972408132955431,1.813945611220598,-1.971547910249233
1789253607764210400,5.65921044921875,-0.7718070870563387,1.7057190452575683,-1.78216223346889
1789253607774264600,5.6692646484375,-0.48329789596199985,1.4588275204479693,-1.5309557680696249
1789253607784317400,5.6793173828125,-0.25517449224740263,1.3322533968895673,-1.2904957376122475
1789253607794371600,5.68937158203125,-0.05470540365576744,1.331392396146059,-1.0314660312414168
1789253607804424400,5.699424560546875,0.199186355304718,1.2240969735532998,-0.7675830396205187
1789253607814478600,5.709478515625,0.4558803122043609,1.1268974130392073,-0.5967413197904825
1789253607824531500,5.719531494140625,0.6554749560490251,1.124278170451522,-0.48830023429393765
1789253607834585600,5.729585693359375,0.6786597245424986,1.2732833215266466,-0.43486558122634883
1789253607844638500,5.739638427734375,0.497790531694889,1.4507114340096712,-0.48019233116209503
1789253607854692400,5.7496923828125,0.23082389484494922,1.5070558370441198,-0.6537485706478356
1789253607864745700,5.759745849609375,-0.05827507883608341,1.516986863949895,-0.8120674935132265
1789253607874798600,5.769798583984375,-0.3340694575250149,1.5906500660538672,-0.9610130233556031
1789253607884852700,5.779852783203125,-0.38644904858171936,1.6773849311769007,-1.2133861944466828
1789253607894905600,5.789905517578125,-0.26886194907724853,1.6967530639916657,-1.460079566335678
1789253607904959700,5.799959716796875,-0.09302578196078538,1.7632161254584788,-1.6019143873900175
1789253607915012600,5.8100126953125,0.18593173693418502,1.814156623622775,-1.7191431749761104
1789253607925066800,5.820066650390625,0.45073038209527727,1.7368045038729905,-1.7431617639452217
1789253607935119600,5.83011962890625,0.7358169052645563,1.6230489453554153,-1.600453082665801
1789253607945173500,5.840173583984375,1.0124743305236101,1.5718015731990336,-1.4680074367254972
1789253607955226600,5.8502265625,1.2505056725293398,1.5624579907923937,-1.2225684488117694
1789253607965279500,5.860279541015625,1.4734282927304505,1.5342168156921863,-0.9021914165526628
1789253607975333600,5.870333740234375,1.656324607491493,1.4397802901506422,-0.6423281819671393
1789253607985386500,5.880386474609375,1.8237489200934767,1.3089409103631973,-0.4012228393435478
1789253607995440400,5.8904404296875,1.9244974052608013,1.219486264887452,-0.1784820054501295
1789253608005493800,5.90049365234375,2.0564672503829002,1.1660656403452156,-0.021281272959709167
1789253608015547400,5.91054736328125,2.12199420004338,1.169426056689024,0.036407530421018595
1789253608025600800,5.920600830078125,2.149499462084472,1.2043074004560708,0.06903437325954437
1789253608035654700,5.930654541015625,2.0671979032337666,1.2636667673975228,0.08786123880445956
1789253608045707800,5.940707763671875,1.8789304168283938,1.3219020987451076,0.008282090654969215
1789253608055760600,5.9507607421875,1.550198228678107,1.362267426881194,-0.08216507298946381
1789253608065814500,5.960814453125,1.3476824366897344,1.2716454911917447,-0.252695242652297
1789253608075867600,5.97086767578125,1.3561048125982285,1.196653086310625,-0.2984855184465647
1789253608085921500,5.980921630859375,1.6148378741100429,1.0937088446646928,-0.29193302806317806
1789253608095974700,5.990974609375,1.952504479344189,1.008475616276264,-0.24413258149027822
1789253608106028500,6.001028564453125,2.2586945808187124,0.9118068016380071,-0.09652268416583537
1789253608116081700,6.01108154296875,2.4679095781847833,0.9513257420778274,0.18339082027971743
1789253608126135600,6.021135498046875,2.7090409320324658,0.6848895588427781,0.9104524644196033
1789253608136188400,6.0311884765625,2.976444498994946,0.06244447347521782,1.87002288775146
1789253608146241800,6.04124169921875,3.318268808430433,-1.0025953260660172,2.7813217398673293
1789253608156295400,6.05129541015625,3.5507501150935887,-2.3525194042026993,3.302946151614189
1789253608166348800,6.061348876953125,3.7939810715690254,-3.830515150979161,3.7471675902068613
1789253608176402700,6.071402587890625,3.4355247762843963,-4.7753486084282395,3.8925323389530178
1789253608186455600,6.08145556640625,2.3245757507443425,-5.6479567876219745,4.5725352947980165
1789253608196509700,6.091509765625,0.7445645676046609,-5.989433891054987,4.868604984274507
1789253608206562600,6.1015625,-0.4093447710007429,-5.491898210904002,3.848537129881978
1789253608216616700,6.11161669921875,-1.4824842903673647,-4.9337563786208625,2.481996847987175
1789253608226669600,6.121669677734375,-3.0912948670119045,-4.443573983842135,1.8435633353710172
1789253608236723700,6.1317236328125,-3.9579871001601217,-3.45967926659286,0.7383230428665876
1789253608246776600,6.141776611328125,-4.399785110998153,-2.1806945185542106,-0.43530514168739315
1789253608256829400,6.151829345703125,-4.392881907480955,-1.169158930185437,-0.8874474364072084
1789253608266883600,6.161883544921875,-3.963125047570467,-0.5532412007600068,-1.1579472158193587
1789253608276936400,6.1719365234375,-3.23914208022356,0.0950491044819355,-1.4452683661729095
1789253608286990600,6.181990478515625,-2.3935440730303523,0.5864852987140416,-1.7374901480495928
1789253608297043500,6.19204345703125,-1.4013281021595,0.8393091361820697,-1.7363193507045507
1789253608307097600,6.20209765625,-0.49226446174979205,0.9740864399403333,-1.631882240152359
1789253608317150700,6.212150634765625,0.4254308134049177,1.1136737743288279,-1.6020131715893744
1789253608327204600,6.22220458984375,1.262907181201875,1.2248954304546118,-1.5514549507409334
1789253608337257700,6.2322578125,1.804382248583436,1.2385247273564337,-1.3750468289554119
1789253608347310600,6.242310546875,2.08981422418952,1.3563111488252877,-1.380742410248518
1789253608357364700,6.25236474609375,1.9911539434731005,1.4555670573472976,-1.3143968376815318
1789253608367417600,6.26241748046875,1.4693269948914647,1.4309066633433103,-1.2567056962132452
1789253608377471700,6.2724716796875,0.5876929209381342,1.301253862991929,-1.3067279104888438
1789253608387524600,6.282524658203125,-0.26067104383707046,1.297848438462615,-1.5163929897099733
1789253608397578500,6.29257861328125,-0.8431450610831379,1.3628694844275713,-1.6947884859204292
1789253608407631600,6.302631591796875,-1.0549383845046163,1.443762637785077,-2.017531078267097
1789253608417685500,6.312685546875,-1.0543556161805987,1.6221961279183625,-2.323260576492548
1789253608427738600,6.322738525390625,-0.9002829525828361,1.6855822661578654,-2.5731086130201817
1789253608437791500,6.33279150390625,-0.6725760207146406,1.6692635840415955,-2.8776047700583933
1789253608447845600,6.342845703125,-0.5442226125240326,1.744869736906886,-3.1517554731935262
1789253608457898500,6.3528984375,-0.4329185388118028,1.7926368657320737,-3.39776086281836
1789253608467952400,6.362952392578125,-0.4231929713502526,1.7689613911122082,-3.623130291649699
1789253608478005800,6.373005859375,-0.4575663655951619,1.6820827336043118,-3.7662685965180396
1789253608488059600,6.3830595703125,-0.49164457628577946,1.4110229822218416,-3.7273669111937284
1789253608498112800,6.39311279296875,-0.3332628173172474,0.96959789634943,-3.653649348554015
1789253608508166700,6.403166748046875,-0.1332861884176731,0.5233423215806484,-3.4485610757291316
1789253608518219800,6.4132197265625,0.2040063228070736,0.047393034815788264,-3.1523382415175436
1789253608528272600,6.423272705078125,0.6272054316371679,-0.35967560794651504,-2.8418554112851617
1789253608538326500,6.433326416015625,1.0521242038667202,-0.7224298926860093,-2.470280691230297
1789253608548379600,6.443379638671875,1.3283023211762308,-1.1216980908304452,-2.0065251156061885
1789253608558433500,6.45343359375,1.5489160799130797,-1.5453361755996942,-1.4568337162822484
1789253608568486700,6.463486572265625,1.7768977370694279,-1.8772896638840435,-1.055364208701253
1789253608578540500,6.47354052734375,1.967628106456995,-1.9580203201562165,-0.7346908238440751
1789253608588593400,6.483593505859375,2.127048268562555,-1.978107414895296,-0.31812837654948234
1789253608598647600,6.4936474609375,2.5861051649764177,-2.0867530830532313,0.14875556022822856
1789253608608700400,6.503700439453125,3.143018039986491,-2.0522738903462887,0.4641559731185436
1789253608618753800,6.51375390625,3.587032850091159,-2.06428113900423,0.6914940716743468
1789253608628807400,6.523807373046875,3.711298696707189,-2.0337895546287297,0.8958212969988584
1789253608638860800,6.53386083984375,3.537274255187809,-2.3283804037243128,1.6413520792871712
1789253608648914700,6.543914794921875,3.555537349370122,-3.0028263099640604,2.7092116124242542
1789253608658967600,6.553967529296875,3.632880701291561,-3.8634740022510288,4.337843910869956
1789253608669021700,6.564021728515625,3.0775738001734014,-4.886878307589888,6.537082970896363
1789253608679074600,6.574074462890625,1.9185224225044248,-4.641849946303665,7.569612831977009
1789253608689128700,6.584128662109375,0.999874376669526,-4.19309174106419,8.65126006744802
1789253608699181600,6.594181640625,0.48586862323284147,-3.30240313077867,9.090296212357282
1789253608709234700,6.604234619140625,0.48898938560187816,-2.024851922674477,8.114477249535918
1789253608719288600,6.61428857421875,0.3269190012484789,-1.0059273930981754,6.453377682727575
1789253608729341400,6.624341552734375,-0.9335247124493121,0.5163672218710184,5.41206011955738
1789253608739395600,6.6343955078125,-2.283502274338901,1.7223095300525426,4.140633239552378
1789253608749448400,6.644448486328125,-2.946395397689938,1.337686527854204,1.9696435379326342
1789253608759502600,6.654502685546875,-3.842087807612121,0.6078796766594052,0.3979144454479217
1789253608769555500,6.664555419921875,-4.148862723237276,0.14759031584113835,-0.45408992165625095
1789253608779609600,6.674609619140625,-3.5681206443503495,-0.16870032388716935,-1.126797459796071
1789253608789662700,6.684662841796875,-2.6279876196771856,-0.08146306219995021,-1.56477737365067
1789253608799715600,6.694715576171875,-1.6308543584093451,0.14637451031059026,-1.7721482044547796
1789253608809769700,6.704769775390625,-0.6249141058295965,0.17107085241079328,-1.808095131626725
1789253608819822600,6.714822509765625,0.3461734445556998,0.14855565374195576,-1.817813977086544
1789253608829876700,6.724876708984375,1.1477774117216468,0.28838030401766296,-1.9556664505064487
1789253608839929600,6.7349296875,1.6419658272713422,0.38376346275955436,-2.1129957778126
1789253608849983700,6.744983642578125,1.914531307041645,0.35627252150475974,-2.2045225533872843
1789253608860036600,6.75503662109375,1.6669672897979617,0.5784791023910045,-2.284946335667372
1789253608870090500,6.765090576171875,0.9122963387206197,0.7609662518292665,-2.2896423845291136
1789253608880143600,6.7751435546875,-0.2124377588048577,0.9408937799125909,-2.3737860641151665
1789253608890196500,6.785196533203125,-1.251570379151404,1.1363716360881924,-2.5844705495119094
1789253608900250600,6.795250732421875,-2.0001117414325473,1.4257003268718718,-2.7967449344485997
1789253608910303200,6.80530322265625,-2.452700610876083,1.7676894714802502,-2.941875289916992
1789253608920356900,6.81535693359375,-2.591805714705586,2.141189314378798,-3.105879857203364
1789253608930410200,6.82541015625,-2.691762757234275,2.686615457473695,-3.5289988865345716
1789253608940464000,6.835464111328125,-2.334733864404261,2.8810306528538465,-3.461898696208
1789253608950517000,6.84551708984375,-1.9131141337200999,2.9343937019899484,-3.3323692299753427
1789253608960571100,6.855571044921875,-1.4864818355709313,3.0280829162955283,-3.1980536985099315
1789253608970624000,6.8656240234375,-0.9314069896429776,2.9416765524744988,-2.969660537943244
1789253608980677000,6.875677001953125,-0.4100687013611197,2.818260308425128,-2.6453940970301626
1789253608990731000,6.88573095703125,0.15667203244119882,2.719099969232082,-2.3083558528274297
1789253609000784100,6.8957841796875,0.645062575367093,2.585614458850026,-1.85390937281847
1789253609010838000,6.905838134765625,0.9982494058161974,2.517599491766095,-1.3731225828945637
1789253609020891000,6.915890869140625,1.2934136708855628,2.4861715033233165,-0.9182014711111783
1789253609030945000,6.925945068359375,1.628000722543895,2.311850124683976,-0.49234337220489977
1789253609040998000,6.935997802734375,2.0397277125060556,2.1178753665477035,-0.14534838213324547
1789253609051052000,6.946052001953125,2.3718863679736852,1.9179355625271797,0.157180858746171
1789253609061105000,6.95610498046875,2.5932816324770447,1.6934791568875311,0.4485831409335136
1789253609071158300,6.966158203125,2.742098275242746,1.5310007762551308,0.6499088463544845
1789253609081212200,6.976212158203125,2.726681218141317,1.2745891434282064,0.8733429232090711
1789253609091265000,6.98626513671875,2.653352070297301,0.958553355243802,1.0208815088629721
1789253609101319200,6.996319091796875,2.576526312509179,0.8390881869077682,1.136396478268504
1789253609111372000,7.0063720703125,2.5981816794782877,0.771536161160469,1.548977162450552
1789253609121426200,7.01642626953125,2.581893684761226,0.3393710710644722,2.7976328231990335
1789253609131479000,7.02647900390625,2.506417003494501,-0.6658622022897005,4.433827081331611
1789253609141532000,7.036531982421875,2.5979829420357943,-2.304852813142538,5.731166985750198
1789253609151586000,7.0465859375,2.8908348385095595,-4.384638395270705,6.503573500004411
1789253609161639000,7.056638916015625,2.547312492984533,-6.883783946457505,8.262391098242997
1789253609171693000,7.066693115234375,2.1441817741930485,-8.402308102977276,9.691125678244232
1789253609181746000,7.076745849609375,1.6089564148560165,-8.492942313626408,9.44248877107203
1789253609191800000,7.086800048828125,-0.08214929089844226,-8.384276771724224,8.19573163742125
1789253609201853000,7.09685302734375,-1.756863541561365,-7.030453348061442,4.9167777712911365
1789253609211907000,7.106906982421875,-3.27513693819046,-5.1246045291692015,2.449180035534501
1789253609221960200,7.116960205078125,-3.6599165922552346,-3.5867899812459942,0.846910258835554
1789253609232013000,7.127012939453125,-3.742348791748285,-2.2433798150479793,-0.1645516797751188
1789253609242067200,7.137067138671875,-3.728841075399518,-1.2534241903245449,-0.9886147315084933
1789253609252120000,7.1471201171875,-3.379704104863107,-0.42434710982143875,-1.4272545705765485
1789253609262174200,7.15717431640625,-3.044806379820406,-0.05981529401540756,-1.8835954860299824
1789253609272227000,7.16722705078125,-2.3515216253370044,0.21595511927604674,-2.2210236063331363
1789253609282281200,7.17728125,-1.6588699080601335,0.7355074009239673,-2.544069565540552
1789253609292334000,7.187333984375,-0.9474652672573923,1.2437813327103853,-2.646969383522868
1789253609302388000,7.197387939453125,-0.05019523275494575,1.617952498999238,-2.6637773104608056
1789253609312441000,7.207441162109375,0.9426789097636937,1.8072984282910822,-3.1640485530555247
1789253609322494000,7.217493896484375,1.9394418764144181,1.626277844274044,-3.043139615651965
1789253609332548000,7.227548095703125,2.023677033676207,1.6134125174820422,-2.9252801289469
1789253609342601000,7.23760107421875,1.4199144369468093,1.6027613596081733,-2.782320687776804
1789253609352655000,7.247655029296875,0.48110301626622676,1.6275819126099347,-2.920921933737397
1789253609362708000,7.2577080078125,-0.6389388317897915,1.5489222173929214,-2.932235354912281
1789253609372761900,7.267761962890625,-1.5073378688558936,1.5128011026978492,-3.088098116797209
1789253609382815200,7.277815185546875,-2.003942990158498,1.4360206453561781,-3.156816848236322
1789253609392869000,7.287869140625,-2.3831898522764443,1.5475427457332611,-3.3887463662356136
1789253609402922200,7.297922119140625,-2.5230630178689957,1.677667839771509,-3.64658949317038
1789253609412975000,7.30797509765625,-2.4386878676146266,1.7837386890053748,-3.860567759415507
1789253609423029000,7.318029052734375,-2.114108999751508,1.7352561053872106,-3.994894981318712
1789253609433082000,7.32808203125,-1.7146444022521377,1.646481258869171,-4.006794677948951
1789253609443136000,7.338135986328125,-1.4228724099695682,1.614923506566882,-4.117304386413097
1789253609453189000,7.348189208984375,-1.158799448734522,1.5321458546370268,-4.186423515346646
1789253609463243000,7.358242919921875,-0.8924082736849784,1.3505676367372275,-4.16358975224793
1789253609473296100,7.368296142578125,-0.6129965812817215,1.0831401043772697,-4.0217432407557965
1789253609483349000,7.378348876953125,-0.2786713954299688,0.8000935626029968,-3.780187816277146
1789253609493403000,7.38840283203125,0.10961334414631127,0.40358313873410223,-3.423445339173078
1789253609503456000,7.3984560546875,0.4576914532795548,-0.08667349032461642,-2.951213611626625
1789253609513510000,7.408510009765625,0.9375725265353918,-0.5931909338325262,-2.4992758995682
1789253609523563300,7.418563232421875,1.4108090472102164,-1.0425707781016826,-2.0325199730843306
1789253609533617000,7.428616943359375,1.780647737252712,-1.4334832358330487,-1.562076882520318
1789253609543670000,7.438669921875,2.1505828734070063,-1.786423982566595,-1.0092249733388423
1789253609553723100,7.44872314453125,2.4406620902970433,-1.9332488669931887,-0.5265694669336081
1789253609563777000,7.458777099609375,2.7033973731875416,-1.9039117133498191,-0.10387480049431323
1789253609573830100,7.468830078125,3.0436613014385103,-1.8412877916544674,0.20887831275761126
1789253609583884000,7.478884033203125,3.129422645354271,-1.6598983743250368,0.24222236395478247
1789253609593937200,7.488937255859375,3.0224338044926524,-1.3712296087548137,-0.10211772769391536
1789253609603991000,7.498990966796875,2.818357631319761,-1.2581152707502246,-0.2983417260617018
1789253609614044000,7.5090439453125,2.6463731711953877,-1.660605353550613,0.2628817056238651
1789253609624098000,7.51909814453125,2.740743645763397,-2.511248953695595,1.5388994205504656
1789253609634151000,7.52915087890625,2.785098920318484,-3.5863650338321924,3.3991683915287254
1789253609644204000,7.5392041015625,2.2878391344994307,-4.549315454991161,5.235908602881431
1789253609654258000,7.5492578125,1.1031868671059608,-5.141194429442286,7.50060651576817
1789253609664311300,7.559311279296875,-0.13985504541397095,-5.640218886846304,10.026294621443748
1789253609674365000,7.569364990234375,-0.7566536493271588,-5.087732303845882,11.246325076210498
1789253609684418000,7.57941796875,-1.26283265466094,-4.001327060192823,11.076703838086127
1789253609694472200,7.58947216796875,-1.3675930058181285,-2.2566391095936296,10.149013823139667
1789253609704525000,7.599525146484375,-1.4877148844972252,-0.05600596486032009,8.683179638800025
1789253609714578200,7.609578125,-1.780767564240098,1.686806547255814,6.765989926204085
1789253609724632000,7.619632080078125,-2.686425195598602,2.6613477452263234,5.456960168513655
1789253609734685000,7.629684814453125,-3.2437241473168132,3.305526815757155,4.275633246150613
1789253609744739000,7.639739013671875,-2.0852681051924824,2.285620581667125,2.6360019993066786
1789253609754792000,7.6497919921875,-1.8961495549157261,1.1163026615276932,0.518654456025362
1789253609764846000,7.65984619140625,-1.7403619040936231,0.4860685297191143,-0.2998971388101578
1789253609774899000,7.66989892578125,-1.1333990500181912,0.46325493262559175,-1.2584680297106503
1789253609784953000,7.679953125,-0.31910832749754187,0.7011544649451971,-2.193627649885416
1789253609795006000,7.690005859375,0.24441432104110716,0.6542077125921845,-2.3412433924287557
1789253609805059000,7.70005908203125,0.7182505611747503,0.5840887589663267,-2.374132101073861
1789253609815113000,7.710113037109375,1.1014081669956446,0.8015811708122491,-2.7540567163228986
1789253609825166000,7.720166015625,1.1332499969363212,0.8011521317452192,-3.234550660780072
1789253609835220200,7.73022021484375,0.5787380455881357,0.880970933869481,-3.047017333868146
1789253609845273000,7.740273193359375,-0.058957215881347655,1.0072741315320133,-3.2026305049061774
1789253609855327200,7.7503271484375,-0.6226748024702071,1.0275932814612985,-3.363195160871744
1789253609865380000,7.760380126953125,-1.193570317864418,1.1887950662866233,-3.499661148369312
1789253609875433000,7.770432861328125,-1.6766057634979485,1.4161103684887288,-3.655543783998489
1789253609885487000,7.780487060546875,-2.2029496049821375,1.7468617875069379,-3.88484412253797
1789253609895540000,7.7905400390625,-2.4872739116072653,2.0321654605582355,-3.985266152229905
1789253609905595000,7.800594970703125,-2.502498661006987,2.208325452801585,-4.081684791499376
1789253609915647700,7.810647705078125,-2.416566928960383,2.346245146238804,-4.06813908122778
1789253609925701600,7.82070166015625,-2.1057813163891432,2.3686852338448166,-3.976140596488118
1789253609935754800,7.830754638671875,-1.7257339515432715,2.3489216719716786,-3.8241993919610975
1789253609945808600,7.84080859375,-1.23994014711231,2.2079951979339123,-3.5023943727254867
1789253609955861800,7.85086181640625,-0.6845800545021892,2.035476484802365,-3.1456226695269343
1789253609965914600,7.86091455078125,-0.10482201821655035,1.9599507036969064,-2.789690339761972
1789253609975968800,7.87096875,0.43078795652389523,1.8316227222084998,-2.3224504291534425
1789253609986021600,7.881021728515625,0.866597248341143,1.7613541309788823,-1.7453315091997383
1789253609996075500,7.891075439453125,1.3764797843679786,1.716974598765373,-1.2201584650605917
1789253610006129000,7.90112890625,1.8737372320994734,1.5678364689603448,-0.7507721900731325
1789253610016182800,7.911182861328125,2.193845384289324,1.4177511214330791,-0.24307635043561457
1789253610026236000,7.92123583984375,2.366580955041945,1.332203420267999,0.23107436247467994
1789253610036288800,7.931288818359375,2.408123802524805,1.2447507622644305,0.6516495525419712
1789253610046342700,7.9413427734375,2.319431958115101,1.2058891166895627,0.9305886589974165
1789253610056395800,7.951395751953125,2.2162802111983297,1.0931412739098072,1.1247136392593382
1789253610066449700,7.96144970703125,2.064925866648555,0.8714739144667982,1.3972896404236554
1789253610076502800,7.971502685546875,2.0781448291838167,0.6155296068906784,1.700178946787119
1789253610086556700,7.981556640625,2.1723814482390877,0.35697920846939085,2.4054577981859446
1789253610096609800,7.99160986328125,2.3153853130728006,-0.3188964383125305,3.818195183110237
1789253610106662700,8.00166259765625,2.284796405802667,-1.5388661028027533,5.401833909097314
1789253610116716500,8.011716552734375,2.3212317010134456,-3.317658859838545,6.605894056794047
1789253610126769700,8.021769775390625,2.82015035995543,-5.35763937806189,7.614002593323588
1789253610136823600,8.031823486328125,2.6848504936277866,-7.585811687105894,8.454358608210086
1789253610146877000,8.041876953125,2.503205640232563,-9.077510380542277,8.900809997811914
1789253610156930600,8.0519306640625,1.6809060910403728,-8.859642705643177,7.679808067664504
1789253610166983700,8.061983642578125,-0.0020762217521667478,-7.813596360385417,5.367611321499943
1789253610177036800,8.072036865234375,-2.156693172980845,-5.803233858573436,3.7551229331254956
1789253610187090700,8.082090576171876,-3.4043393644258377,-3.655890697740018,2.047642138892412
1789253610197143800,8.092143798828126,-3.816308054189384,-2.237304002265632,0.9628402387827634
1789253610207197700,8.10219775390625,-3.854092425921559,-1.1736305226415396,0.13320201726555825
1789253610217250800,8.112250732421876,-3.790443837353587,-0.3644999593630433,-0.6542208643347025
1789253610227304700,8.1223046875,-3.4875703130811453,0.46094577890038485,-1.2747960641771554
1789253610237357600,8.132357666015626,-3.121528969494998,0.9654328856244683,-1.7548241446882484
1789253610247411700,8.14241162109375,-2.5450845878019925,1.1910314470365644,-1.972645057836175
1789253610257464600,8.152464599609376,-1.959780315566063,1.405078394603729,-2.2671973284870384
1789253610267517700,8.162517578125,-1.3235767539590597,1.736438008648157,-2.3642858298420903
1789253610277571600,8.172571533203126,-0.42561376875638957,1.9130550970092415,-2.250349654060602
1789253610287625000,8.182625,0.45865562213659283,1.8750728646174073,-2.2627035241991282
1789253610297678600,8.1926787109375,1.0456874488174914,1.7294097174465655,-2.2536907811820504
1789253610307731700,8.202731689453126,1.214264438585937,1.5726245800197123,-2.1793296599417924
1789253610317785900,8.212785888671876,0.9321829424515367,1.4351871171414852,-2.191141093766689
1789253610327838700,8.222838623046876,0.27672932145148516,1.2902008463189005,-2.270443763062358
1789253610337891800,8.232891845703126,-0.5436591334223747,1.2556029956683517,-2.5033295588731765
1789253610347945700,8.24294580078125,-1.347383161482215,1.1820841704711318,-2.756749024146795
1789253610357998600,8.25299853515625,-1.9376713596105575,1.1706313408255575,-2.9883991406828163
1789253610368052700,8.263052734375,-2.232975617672503,1.2614964376211166,-3.250129338183999
1789253610378105600,8.273105712890626,-2.2581962759077547,1.3786506986662745,-3.6126883926123377
1789253610388159700,8.28315966796875,-2.1308575977176427,1.3904001731708644,-3.806210146284103
1789253610398212600,8.293212646484376,-1.9033517413794994,1.4977102088108658,-4.02263112950623
1789253610408265700,8.303265625,-1.5517179855912924,1.5958289299964903,-4.194823094901443
1789253610418319600,8.313319580078126,-1.2282421105340122,1.6046034803435205,-4.331682465630769
1789253610428372700,8.323372802734376,-0.9498024780333042,1.4678502003371714,-4.351379684269428
1789253610438426600,8.333426513671874,-0.6464736112087964,1.2336162047877908,-4.287324268466234
1789253610448479700,8.343479736328124,-0.3802127845406532,0.9922226928725838,-4.125446776336431
1789253610458534000,8.353533935546874,-0.1229796061977744,0.7461901229798793,-3.798521345347166
1789253610468586800,8.363586669921874,0.12375088283121585,0.34794600718617436,-3.353540028297901
1789253610478639600,8.3736396484375,0.4272776103153825,-0.09340455214530229,-2.869300467571616
1789253610488693800,8.38369384765625,0.7944263306215406,-0.5381655044421554,-2.427982349205017
1789253610498746600,8.39374658203125,1.269640288849175,-0.9946139719232916,-1.9764374358564614
1789253610508800800,8.40380078125,1.735080164298415,-1.4730702730730174,-1.4563181679755448
1789253610518853600,8.413853515625,2.092458601218462,-1.813451690223813,-0.8581219732016324
1789253610528907800,8.42390771484375,2.3772902728438376,-1.9194500587433576,-0.38384091190993785
1789253610538960600,8.433960693359374,2.4799106893628835,-1.9085767825514077,-0.04875789342820644
1789253610549013500,8.444013427734374,2.5442817469865084,-1.8935402492001652,0.30694822636544705
1789253610559067600,8.454067626953124,2.637432032109797,-1.8533248509287834,0.5983154372394085
1789253610569120800,8.464120849609374,2.668181390638649,-1.6367878401115536,0.5441425330251455
1789253610579174700,8.474174560546874,2.565484694012999,-1.3189029169291258,0.20170447560548782
1789253610589227800,8.484227783203124,2.6079636533021926,-1.379641755530238,0.037440380600094796
1789253610599281700,8.49428173828125,2.676563434536755,-1.944662533672154,0.7127770981997251
1789253610609334800,8.504334716796874,2.632077519339323,-2.6654543037623166,2.1159522895306346
1789253610619387600,8.5143876953125,2.537556530384719,-3.4222064450278875,3.8904000030994412
1789253610629441800,8.52444189453125,2.1668495330750943,-4.081050000727177,5.8000178191363805
1789253610639494700,8.53449462890625,1.6086790592193603,-4.63697444922179,7.454936066961288
1789253610649548800,8.544548828125,0.8858861784398555,-4.727237488470971,9.30104382611811
1789253610659601700,8.5546015625,0.5323948120862245,-4.157143060326576,10.636024602144955
1789253610669655800,8.56465576171875,-0.19270693015754223,-3.0891558091565963,10.780910042941569
1789253610679708700,8.574708740234374,-0.7836760962873697,-1.569040584053099,9.764883572894334
1789253610689761500,8.584761474609374,-1.519230258962512,0.7253937109276651,7.63943747883141
1789253610699815700,8.594815673828125,-2.670084301650524,2.673004573011398,5.846270451745391
1789253610709868500,8.60486865234375,-3.4701270108491182,2.8733202246069904,3.8122523490577933
1789253610719922700,8.614922607421875,-3.6597172702908516,1.6866764911353587,1.435088332942128
1789253610729975800,8.624975830078125,-3.92751538952887,0.8835293861806393,0.3844605051130056
1789253610740029700,8.63502978515625,-3.4200808311760422,0.5196174558386206,-0.3315069135606289
1789253610750082800,8.645082763671875,-2.697703545460105,0.5592787273585796,-1.365031046375632
1789253610760135700,8.6551357421875,-2.1490718843221663,0.5285661937087774,-1.659963840776682
1789253610770189800,8.66518994140625,-1.3910323335945605,0.3550362577080726,-1.897462683340907
1789253610780242700,8.67524267578125,-0.5469157971307635,0.36301118211001154,-2.3672382499068974
1789253610790296800,8.685296875,0.05110474881529808,0.3177954913333058,-2.154537163990736
1789253610800349700,8.695349609375,0.911143077032268,0.4229027562320232,-2.392996376019716
1789253610810403800,8.70540380859375,1.5918053735688327,0.578659135133028,-2.544452427378297
1789253610820456700,8.715456787109375,1.9387544786721467,0.8037403946727514,-2.369307457396388
1789253610830509600,8.725509521484375,1.6944427412226795,0.9444137707322835,-2.295331536081433
1789253610840563700,8.735563720703125,0.6784270848304033,0.9690119131550192,-2.021435684490204
1789253610850616600,8.745616455078125,-0.4291875355899334,1.105898171891272,-2.1901988444805145
1789253610860670700,8.755670654296875,-1.409039699450135,1.2951581764653324,-2.324112224885821
1789253610870723800,8.765723876953125,-2.3354344138890504,1.6701915125414728,-2.430020577034354
1789253610880777700,8.77577783203125,-2.7876456821918487,2.0060288565218447,-2.6368004562079905
1789253610890830800,8.785830810546875,-2.8492338310986756,2.207577849304676,-2.8879291801959273
1789253610900883700,8.7958837890625,-2.525984458273649,2.3452383072838185,-3.027755584037304
1789253610910937000,8.80593701171875,-1.9565289125546812,2.4544956775993105,-3.191428142890334
1789253610920990000,8.815989990234375,-1.3515294675067067,2.5365324480339884,-3.1343840671539307
1789253610931044000,8.826044189453125,-0.785756994214654,2.534503864815831,-3.0916689610213037
1789253610941097000,8.836096923828125,-0.260369722802937,2.486348905716836,-2.985628506925702
1789253610951149800,8.84614990234375,0.14001461988985536,2.484303371363878,-2.826365581208467
1789253610961204000,8.856203857421875,0.4035226407185197,2.422033085411787,-2.601518714946508
1789253610971257000,8.866257080078125,0.5924500523373484,2.2845535369575023,-2.3330746990203854
1789253610981311000,8.87631103515625,0.7255845573246479,2.227912196803093,-2.051014245674014
1789253610991364000,8.886364013671875,0.9570452887684107,2.1903753700912,-1.7323235590666533
1789253611001418200,8.896418212890625,1.2057435707390307,2.0673191915258764,-1.3321686412155627
1789253611011471000,8.90647119140625,1.3966037039861081,1.8650772480428217,-0.8800228393644094
1789253611021524000,8.91652392578125,1.5438018056392668,1.6302441175565123,-0.4783259527683258
1789253611031578000,8.926578125,1.5714628427639603,1.3943985951572655,-0.11920739418268203
1789253611041631000,8.936630859375,1.455206115080416,1.0781845277965068,0.19611352373063562
1789253611051685000,8.94668505859375,1.3508733416855334,0.6773264301121235,0.5615343973308802
1789253611061738000,8.956738037109375,1.3514637087941168,0.36140696178376674,0.7852578125208616
1789253611071792000,8.966792236328125,1.6583187039181588,0.20828823790997267,0.8129495370447635
1789253611081845000,8.976844970703125,2.1944225996553897,0.2573977212548256,0.8674521116048097
1789253611091897900,8.98689794921875,2.6477742701649665,0.4560436860725283,1.3061229303330182
1789253611101952000,8.996951904296875,2.8078327301740647,0.4097770249381661,2.497028412902355
1789253611112005000,9.007005126953125,2.855318119448423,-0.18336305548995732,3.9459897883743045
1789253611122059000,9.01705908203125,2.897749732464552,-1.3847042996168135,5.296454549258947
1789253611132112100,9.027112060546875,3.017335312309861,-3.179524062345922,6.321639892795681
1789253611142166000,9.037166015625,3.163575674846768,-5.193959804946184,7.077668688222765
1789253611152219100,9.04721923828125,2.655501357285678,-6.945283248037099,7.451024446475506
1789253611162272000,9.05727197265625,1.218202947078645,-8.17965611641109,7.045846732026338
1789253611172326100,9.067326171875,-0.886349704298377,-8.684608794820308,6.468681050321459
1789253611182379000,9.07737890625,-2.8061925617516037,-7.763262011420727,4.415394183540344
1789253611192433200,9.08743310546875,-4.167040769484639,-5.403605010423064,2.58896435379982
1789253611202486000,9.097486083984375,-4.472364609518647,-2.9832533022269603,1.4391618659913539
1789253611212540200,9.1075400390625,-4.538025122430921,-1.5504194702133536,0.6888648922145366
1789253611222593000,9.117593017578125,-4.343317958366871,-0.6224447931066155,0.09531973811686038
1789253611232646000,9.12764599609375,-3.5168943149819967,-0.0174935711145401,-0.42138358384072777
1789253611242700000,9.137699951171875,-2.585840084299445,0.20322949321568012,-0.3868529532074928
1789253611252753000,9.1477529296875,-1.6316595373123883,0.5424114714488387,-0.6486521242916584
1789253611262807000,9.15780712890625,-0.6043374740079045,0.9975161231055855,-1.0351987880289555
1789253611272860200,9.167860107421875,0.2668833424806595,1.206880758075416,-1.0980383983016013
1789253611282913000,9.1779130859375,1.0304857880324125,1.3566367275178433,-1.1855910095483064
1789253611292967200,9.18796728515625,1.8174813841313122,1.3778192162781953,-1.5291618703901766
1789253611303020000,9.19802001953125,2.0637834186151625,1.3124638237923383,-1.7468284697592258
1789253611313074200,9.20807421875,1.7399504006832838,1.2835802591353653,-1.8306570920467375
1789253611323127000,9.218126953125,1.0410364081412553,1.1515642367839813,-1.7792782024651765
1789253611333181200,9.22818115234375,-0.025172142918407917,1.0637798626080155,-1.8796809429347514
1789253611343234000,9.238234130859375,-0.9877329802379011,1.067344861613214,-2.129057270297408
1789253611353287000,9.248286865234375,-1.7009844179511069,1.067673070654273,-2.460405193904042
1789253611363341000,9.258341064453125,-2.1877780470743775,1.2004226679772139,-2.8016502421468497
1789253611373394000,9.268393798828125,-2.24437613260895,1.3236314067557453,-3.0858284182995557
1789253611383448000,9.278447998046875,-2.0638038768813014,1.4591107213035226,-3.4163381375163793
1789253611393501000,9.2885009765625,-1.8895128933802245,1.596894513401389,-3.655606327840686
1789253611403555000,9.29855517578125,-1.5957129024013876,1.6272320762589574,-3.8863895984143015
1789253611413608200,9.308608154296875,-1.3470067293852568,1.6976020820364355,-4.0927392694771285
1789253611423661000,9.3186611328125,-1.1875959196299313,1.8272630656942723,-4.243855713617801
1789253611433715200,9.328715087890625,-1.0968339909479021,1.7532184630572796,-4.285781715199351
1789253611443768000,9.33876806640625,-0.9884460969433188,1.515341434830427,-4.26144456180036
1789253611453822200,9.348822265625,-0.7272539518415927,1.1995616672337055,-4.132198004162311
1789253611463875000,9.358875,-0.46045974894911046,0.9564674888804554,-3.8200025247931477
1789253611473928000,9.368927978515625,-0.1532283217281103,0.7260173957839607,-3.3768718040466306
1789253611483982000,9.378982177734375,0.23527181416451928,0.25773119099289177,-2.838975471934676
1789253611494035000,9.389034912109375,0.6488958699196576,-0.25550065546184775,-2.2985867384850978
1789253611504089000,9.399089111328125,1.0977359082236886,-0.7148752395227551,-1.718030245298147
1789253611514142000,9.409141845703125,1.5679469435974955,-1.1459273999407886,-1.0728303072869778
1789253611524196000,9.419196044921875,2.0163687564894555,-1.5988576301679014,-0.34308336958587166
1789253611534249000,9.4292490234375,2.4198066415339707,-1.8369988622888922,0.12158522922992705
1789253611544302000,9.439302001953125,2.7090993842214344,-1.9235355744913218,0.5485036508440971
1789253611554356200,9.449356201171875,2.983295680063963,-2.0788483012780548,0.8813017732590437
1789253611564409000,9.4594091796875,3.1500819870233534,-2.1687527363479138,0.859713626307249
1789253611574463200,9.469463134765626,3.099807551552355,-2.0410338266685604,0.507425206002593
1789253611584516000,9.47951611328125,2.9968589259922505,-1.7799238068923353,-0.0066273091852664945
1789253611594570200,9.4895703125,2.9444422177955505,-1.7302300939187407,0.08730126683413982
1789253611604623000,9.499623046875,2.94064779394865,-2.070317204298079,0.9261088832348584
1789253611614676000,9.509676025390625,3.061189067083597,-3.4450413771703836,4.096100854864717
1789253611624730000,9.519730224609376,2.9929157413244245,-3.4644811139166354,4.117401417046785
1789253611634783000,9.529782958984375,2.7614816056266425,-4.024565604700148,6.101950263166427
1789253611644837000,9.539837158203126,2.4028467389047146,-4.306681295365095,7.910730454447865
1789253611654890000,9.549889892578125,1.3921183752655981,-4.314749158747494,9.71403426014483
1789253611664943000,9.559943115234375,0.48313715244233607,-3.5737305931866166,10.624240640848875
1789253611674997000,9.5699970703125,-0.2021384831085801,-2.4894325509458777,10.41553476204872
1789253611685050000,9.580050048828125,-1.123753854316473,-0.9413584748148918,9.255860284045339
1789253611695104000,9.59010400390625,-2.2477602220892905,1.3362272689566015,7.442564661166071
1789253611705157000,9.6001572265625,-3.02397665002048,1.7248387562692165,4.525556101480126
1789253611715211300,9.610211181640626,-3.9672321906283496,1.2820783301398158,2.303129642611742
1789253611725264100,9.62026416015625,-4.37983654794693,1.1191668187871575,1.0683470243930817
1789253611735317000,9.63031689453125,-4.054005634196102,1.0464122559607028,-0.1710012943059206
1789253611745371100,9.64037109375,-3.3606387543871996,1.0470730579569936,-0.9849299055159091
1789253611755424000,9.650424072265626,-2.4117981071233747,1.1403490152865647,-1.531218218398094
1789253611765478100,9.66047802734375,-1.8036936817973852,0.9837620307803153,-1.743198588824272
1789253611775531000,9.670531005859376,-1.1677002558097243,0.8015583744585514,-2.153992974111438
1789253611785583900,9.680583984375,-0.42632016346007584,0.9200701875925064,-2.4760002379208803
1789253611795638000,9.690637939453126,0.3359115782603621,0.9290215558111667,-2.7653309745311736
1789253611805691000,9.70069091796875,1.3134282849103212,0.8754632763639092,-2.6138071186333893
1789253611815745000,9.7107451171875,2.1046187023505567,1.2020420858725904,-2.543207980275154
1789253611825798100,9.720798095703126,2.181032664467394,1.390059981431067,-2.485743633300066
1789253611835852000,9.73085205078125,1.8303665846675634,1.4018506647288798,-2.481115973499417
1789253611845905200,9.7409052734375,0.6475602374017239,1.340064362901449,-2.3056740663975477
1789253611855958000,9.7509580078125,-0.9582722002148628,1.4727169295907019,-2.3448469698786734
1789253611866012200,9.76101220703125,-2.113404358613491,1.523646321839094,-2.4243612360984086
1789253611876065000,9.77106494140625,-2.74279911698848,1.6709394082993267,-2.5785078417152163
1789253611886119200,9.781119140625,-2.8551667282789945,1.938715023444593,-2.7071897512078285
1789253611896172000,9.791172119140626,-2.8637673833638426,2.447967444874346,-3.171881146377325
1789253611906225200,9.80122509765625,-2.288729653598368,2.4830998407930136,-3.1585639841645956
1789253611916279300,9.811279296875,-1.4884186488524078,2.363316400288045,-2.9361867228865624
1789253611926332200,9.821332275390626,-0.8182675171971321,2.544209558533132,-2.9810312422633167
1789253611936386300,9.83138623046875,-0.09551350712329149,2.671876153503358,-2.9294138677507635
1789253611946439200,9.841439208984376,0.3408943351089954,2.685624692870676,-2.7634569973528382
1789253611956493300,9.851493408203124,0.5835054061204195,2.662145033083856,-2.6151065107941625
1789253611966546200,9.861546142578124,0.7164560789734125,2.556265322507918,-2.4075725983828304
1789253611976599300,9.871599365234376,0.7597554147347807,2.4956547864615914,-2.2062673512279987
1789253611986653400,9.8816533203125,0.7919067490160465,2.486944241261482,-1.8450538661897182
1789253611996706300,9.891706298828124,0.9059957772716879,2.506338969822228,-1.3823539370983837
1789253612006760400,9.901760498046874,1.0352616241320967,2.4459935144528746,-0.8391302724838257
1789253612016813300,9.911813232421874,1.2082812725231051,2.271487134635448,-0.33147768746614453
1789253612026866200,9.9218662109375,1.4035387639462946,2.1132857006698846,0.05250643230676651
1789253612036920300,9.93192041015625,1.5367843280926345,1.8520827419131993,0.46691257835030553
1789253612046973200,9.94197314453125,1.765608573552966,1.4967223668172955,0.8064461465001106
1789253612057027300,9.95202734375,2.128229587301612,1.0825547057047487,1.1065402691870927
1789253612067080200,9.962080078125,2.5475661754846572,0.7622899016484618,1.2602321167737245
1789253612077134300,9.97213427734375,3.027168724060058,0.6578352554395794,1.2291723771214484
1789253612087187200,9.982187255859374,3.3653669519528746,0.41321050651818514,1.631179060319066
1789253612097240300,9.992240234375,3.2127363038569685,0.0782914464265108,2.7055039900779723
1789253612107294200,10.002294189453124,2.8149638972282407,-0.5946282731592655,4.214949352607131
1789253612117347300,10.012347412109374,2.4721225197046994,-1.7227800701737404,5.4788025824874635
1789253612127401500,10.0224013671875,2.449864510667324,-3.4619349365651604,6.799974613392353
1789253612137454300,10.032454345703124,2.5953476250961423,-5.568664055198431,7.189335165506601
1789253612147507200,10.042507080078124,1.8193091840803621,-7.994536280381679,8.514931442594527
1789253612157561300,10.052561279296874,0.24730478178560733,-9.158102505126594,8.783627387455105
1789253612167614200,10.0626142578125,-1.2717787621825933,-8.596468154552579,6.623156157240271
1789253612177668400,10.07266845703125,-3.072535221484303,-7.226670916688442,4.889724344670772
1789253612187721200,10.08272119140625,-3.8638919354021546,-5.697561653268337,3.070422759374976
1789253612197775400,10.092775390625,-3.682546357214451,-3.6313980615183707,1.532389600265026
1789253612207828200,10.102828125,-3.718247200670838,-1.9133438508227467,0.38786943677365776
1789253612217881000,10.112881103515624,-3.535806520722806,-1.0307990917652845,-0.3655079673618078
1789253612227935200,10.122935302734374,-2.8552704809144136,-0.47270840514749285,-0.9462421552032232
1789253612237988400,10.13298828125,-2.2392630273789167,0.08332856381088495,-1.2035896075755357
1789253612248042200,10.143042236328125,-1.4885107110500335,0.6245826819181441,-1.662154628819227
1789253612258095400,10.153095458984374,-0.7914537445515394,1.1812173245087265,-2.198578550291061
1789253612268148500,10.1631484375,-0.26976941931098697,1.5231164527460932,-2.15790517911911
1789253612278202400,10.173202392578125,0.30863398749530313,1.5690359078779816,-2.2268705787956713
1789253612288255200,10.183255126953124,0.8592480546221136,1.5851222425431013,-2.3998797057926655
1789253612298309400,10.193309326171875,1.013084571376443,1.825749738521874,-2.5371675310671327
1789253612308362200,10.2033623046875,0.763798260384798,1.837103491707146,-2.633936298948526
1789253612318415400,10.213415283203124,0.19854338122606277,1.672354535794258,-2.605699215501547
1789253612328469200,10.22346923828125,-0.5529813807800412,1.5618758069902658,-2.5496838982909917
1789253612338522000,10.233522216796874,-1.1325380492746828,1.5948022172972558,-2.7760639654695987
1789253612348576300,10.243576171875,-1.6271718705043197,1.5582961949378251,-2.9839567743211983
1789253612358629000,10.253629150390625,-1.9852070177674292,1.5429013496682047,-3.224024590590596
1789253612368683300,10.263683349609375,-2.1294293184801933,1.7087439460366964,-3.561721590963006
1789253612378736400,10.273736328125,-1.9620634580671785,1.7739090766474603,-3.733141402941942
1789253612388789500,10.28378955078125,-1.683915794250369,1.774797842180729,-3.8808676201224324
1789253612398843400,10.293843505859375,-1.4955331570327282,1.7302388617470859,-3.9547254680156705
1789253612408896300,10.303896240234375,-1.2232044086277485,1.5589347851023077,-3.951960679477453
1789253612418950400,10.313950439453125,-0.9539745030209421,1.2690443687826394,-3.8642274509668346
1789253612429003300,10.324003173828125,-0.6562196369364858,0.9934458049267529,-3.7152550331175327
1789253612439056400,10.334056396484375,-0.32298107727766034,0.8385551029443741,-3.5707325804144143
1789253612449110300,10.3441103515625,0.035388124245405196,0.6514680584952235,-3.3393314702033994
1789253612459163100,10.3541630859375,0.37967765475064513,0.3025146278321743,-2.95077522020936
1789253612469217300,10.36421728515625,0.72568304926306,-0.0860129805892706,-2.4907336966723204
1789253612479270100,10.374270263671875,1.0674708260804413,-0.40178076548725367,-2.138880160653591
1789253612489324300,10.38432421875,1.394034438019991,-0.7153522093847393,-1.7204396445274353
1789253612499377200,10.394377197265625,1.754742896145582,-1.0530971405521035,-1.3455705591022968
1789253612509430500,10.404430419921875,2.0870286851242184,-1.421998257483542,-0.8464005557477474
1789253612519484200,10.414484130859375,2.370006545576453,-1.6651096792325377,-0.455011128154397
1789253612529537300,10.424537353515625,2.585232766056061,-1.775055031812191,-0.18167700209915638
1789253612539591400,10.43459130859375,2.7012141839295625,-1.8955130105778575,0.18523790945112703
1789253612549644300,10.444644287109375,2.7584157883152365,-2.0065587256148456,0.5960258649975061
1789253612559697400,10.454697509765625,2.717650647206604,-1.898011257134378,0.7704419361829757
1789253612569751300,10.464751220703125,2.5453929230988024,-1.7410270900040863,0.41473172473609443
1789253612579804400,10.474804443359375,2.3466081343322993,-1.5884452494859695,0.04519873964190483
1789253612589858300,10.4848583984375,2.337326511245966,-1.74724026543051,0.42617724785804745
1789253612599911200,10.4949111328125,2.394445405784249,-2.2591391097158193,1.6084528492480517
1789253612609964300,10.50496435546875,2.235183941371739,-3.0247046720340847,3.545938330897689
1789253612620018200,10.51501806640625,2.125804698242247,-4.016321215707063,5.952448268485069
1789253612630071300,10.5250712890625,1.7177537664443254,-4.792369009073078,8.35496709060967
1789253612640125200,10.535125244140625,0.5851654482871294,-4.70864501620382,9.84135657172203
1789253612650178300,10.54517822265625,-0.4123044975891709,-3.6960827151358124,11.24024137238264
1789253612660231400,10.5552314453125,-1.3102344573050737,-2.4922736195906996,11.763014369642734
1789253612670285300,10.565285400390625,-1.5313760393083096,-0.6946428910940885,10.304178665888308
1789253612680338400,10.57533837890625,-1.8359364937543867,1.5916609966620803,7.956374599769711
1789253612690392300,10.585392333984375,-3.013616584047675,3.345599006165564,6.155703480663895
1789253612700445400,10.595445556640625,-3.197849115848541,2.8233868576586243,4.098267092987895
1789253612710499300,10.605499267578125,-3.2487858146205544,1.5567963117688894,1.7910013734847305
1789253612720552200,10.61555224609375,-3.31852629032284,0.8656456467047333,0.800745889031887
1789253612730605300,10.625605224609375,-2.998564268605411,0.7745385578468441,-0.2593050161808729
1789253612740659200,10.6356591796875,-2.2476403951019046,1.0095087587162852,-1.3962795865982771
1789253612750712300,10.64571240234375,-1.7409747752949594,0.8108274303242564,-1.587655560413003
1789253612760766200,10.65576611328125,-1.4450412794187664,0.5966144785404205,-1.8806670313626526
1789253612770819000,10.665819091796875,-0.7917915982037782,0.48559565151035783,-2.6569518483549355
1789253612780872400,10.67587255859375,-0.11451368340849875,0.46792526252418754,-2.7399820137411353
1789253612790926300,10.68592626953125,0.4583674528449774,0.49450581093579526,-2.4757640910774468
1789253612800979500,10.6959794921875,1.1679980697125196,0.6830474381074308,-2.4367484239846466
1789253612811033300,10.706033447265625,1.4072756123870611,0.8882868098407983,-2.3879992983847855
1789253612821086500,10.71608642578125,1.0389578483015298,0.9731012282952666,-2.2774551031291486
1789253612831139300,10.726139404296875,-0.04717237780243158,0.9792015909969806,-2.1642174310058353
1789253612841193200,10.736193115234375,-1.3337807525873184,1.0895581547260285,-2.3000690859973427
1789253612851246300,10.746246337890625,-2.2517928386062382,1.1519348236620426,-2.3883055878549815
1789253612861300200,10.75630029296875,-2.8083254821270702,1.4045000101938843,-2.5402958922207355
1789253612871353300,10.766353271484375,-2.8678014611855147,1.7434648385450242,-2.7623808925539253
1789253612881406200,10.77640625,-2.747967459537089,2.0219398346200586,-2.927980620077252
1789253612891460400,10.78646044921875,-2.2726076630979777,2.1175302063718435,-2.959059648951888
1789253612901513200,10.79651318359375,-1.7036133051499724,2.2515151907086373,-3.0664497640907764
1789253612911566800,10.80656689453125,-1.1610469354003667,2.4424033810064194,-3.189668732002377
1789253612921620200,10.8166201171875,-0.7293874567389488,2.454349839387834,-3.17907076562047
1789253612931673000,10.826673095703125,-0.43132805474996566,2.459540393768251,-3.114414461314678
1789253612941727200,10.836727294921875,-0.18051497258245944,2.4933947325751182,-3.025896219906211
1789253612951780000,10.846780029296875,0.039268472810089584,2.476113927428424,-2.8516157577991486
1789253612961834000,10.856833984375,0.17793401617854832,2.391780862750113,-2.5785622022509576
1789253612971887000,10.86688720703125,0.3268044349581003,2.354157819059491,-2.284012854209542
1789253612981941000,10.87694091796875,0.5251829810112715,2.3510747583523393,-1.9163392332464455
1789253612991994000,10.886994140625,0.7149111876189709,2.2722627951830625,-1.5217361043035984
1789253613002047000,10.897046875,0.8389064006000757,2.081958249992132,-1.1165496220260858
1789253613012100900,10.907100830078125,0.9938824427783489,1.8981103335946796,-0.813112618651986
1789253613022154000,10.917154052734375,1.1370412059128283,1.7599349118307233,-0.47367725017964835
1789253613032208000,10.927207763671875,1.2558379734680056,1.495999313239753,-0.07251169398128986
1789253613042261200,10.93726123046875,1.4196382503539322,1.1347063332244753,0.33907881011962887
1789253613052314000,10.947314208984375,1.7502610745564102,0.7803694559574127,0.5246007972091437
1789253613062368300,10.9573681640625,2.1400904132261873,0.4491863675236702,0.7507453020662069
1789253613072421000,10.967421142578125,2.707339973333478,0.2812880076691508,0.80102002979815
1789253613082475000,10.97747509765625,3.2710552218347786,0.40533845796883106,0.9601333179116248
1789253613092528000,10.987528076171875,3.312565920613706,0.4608940487131476,1.7950450959175823
1789253613102581000,10.9975810546875,3.0590260438308117,0.07406447638124226,3.2956098173767328
1789253613112635100,11.00763525390625,2.8702283960714934,-0.8155258172735571,4.89625637678802
1789253613122688000,11.01768798828125,2.5883807086929678,-2.2810490359678863,6.144177293521166
1789253613132742100,11.0277421875,2.4819120923131703,-4.33247420053035,7.418262579080462
1789253613142795000,11.037794921875,2.2310984256237743,-6.684801589292287,8.683452026000618
1789253613152848100,11.04784814453125,1.5282143604069947,-8.579918001767993,8.503173784783481
1789253613162902000,11.057902099609375,-0.13434621886461973,-9.450586737331747,7.705369794422388
1789253613172955100,11.067955078125,-2.027827139092982,-8.896071278852224,6.070633918404579
1789253613183009000,11.078009033203125,-3.041365883977711,-7.159559620445966,3.9210114144623276
1789253613193062100,11.088062255859375,-3.3158260914534328,-4.7731002449795605,1.9100632217168807
1789253613203115000,11.098114990234375,-3.6834187561348077,-2.888455834418535,0.6327186421006917
1789253613213169200,11.108169189453125,-3.813173847816884,-1.7850892268314957,-0.31473288889229295
1789253613223222000,11.118221923828125,-3.5771857020765543,-1.0217071460321545,-1.0627268464237452
1789253613233276200,11.128276123046875,-3.1018320431172848,-0.42323184205591674,-1.5206722744643688
1789253613243329000,11.1383291015625,-2.5958210878267884,0.15439882681220768,-1.7470576023399829
1789253613253382000,11.1483818359375,-2.0003674697592855,0.5654807968690991,-2.093047799283266
1789253613263436000,11.15843603515625,-1.36523066060096,0.9133128222867846,-2.2082243305146694
1789253613273489000,11.168489013671875,-0.6181687232226133,0.9937687532708048,-2.0354449206203222
1789253613283543000,11.17854296875,0.18242460559606552,0.9460989473402499,-1.921174398317933
1789253613293596000,11.188595947265625,0.9842729029119014,0.8876698469862342,-2.07194714358747
1789253613303649000,11.19864892578125,1.4544687407165764,0.9199752027854323,-2.1817086640328167
1789253613313703200,11.208703125,1.3874158966630696,0.9706541274040937,-2.1872002471864223
1789253613323756000,11.218756103515625,1.0521683352693916,0.8779019016876817,-2.1401362981945273
1789253613333810200,11.22881005859375,0.32904958353638647,0.8898875230357051,-1.98945766094923
1789253613343863000,11.238863037109375,-0.6571212619513273,1.129216503636539,-2.1162404588222503
1789253613353916200,11.248916259765625,-1.2697007868647574,0.9947928356215358,-2.3695938731223345
1789253613363970000,11.258969970703125,-1.7945567278787493,0.9115262311309575,-2.6081214742124077
1789253613374023000,11.26902294921875,-2.1258499986886976,1.0750932837828993,-2.833623004990816
1789253613384077000,11.2790771484375,-2.010560070210695,1.1760828842297195,-3.099011140477657
1789253613394130000,11.2891298828125,-1.7027619490176438,1.2426339162409306,-3.277684869107604
1789253613404184000,11.29918408203125,-1.3347726862341165,1.3892521721795201,-3.482361638522148
1789253613414237000,11.30923681640625,-1.0218079760581253,1.477258080151677,-3.598205693751573
1789253613424290000,11.3192900390625,-0.7675891771003603,1.425332662603259,-3.6779210355013605
1789253613434344000,11.329343994140626,-0.5244616809993982,1.2712722739651798,-3.719496908470988
1789253613444397000,11.33939697265625,-0.41331484367549415,1.1230685024008153,-3.711801677793264
1789253613454451200,11.349451171875,-0.3068482731223106,0.9076260088220238,-3.5299019728541374
1789253613464504000,11.359504150390626,-0.12645254300534725,0.6519771770611404,-3.3098575384378432
1789253613474557200,11.36955712890625,0.08592442552298307,0.4256427025899291,-2.933361728593707
1789253613484611000,11.379611083984376,0.42125031284987924,0.04231558542102575,-2.5081132860183715
1789253613494664000,11.389663818359375,0.8194318848013877,-0.3347039560362696,-2.123874314701557
1789253613504718000,11.399718017578126,1.2263380304783582,-0.6104924895063042,-1.6635440373510122
1789253613514771000,11.40977099609375,1.596294209420681,-0.8647516204744576,-1.2219734055280684
1789253613524824000,11.419823974609375,1.8528963963836431,-1.0899825176179407,-0.8066811242997646
1789253613534878000,11.4298779296875,2.0259359185189005,-1.1768179205060005,-0.37163667937517164
1789253613544930800,11.439930908203126,2.175927158021927,-1.2142542094528674,0.036188919234275814
1789253613554985000,11.44998486328125,2.2709201484024524,-1.2650140903532505,0.4295563689023256
1789253613565038000,11.4600380859375,2.2842817342787978,-1.3425275381445885,0.7978437378495932
1789253613575091200,11.47009130859375,2.1726813079684972,-1.279073303104937,0.9222785112917423
1789253613585145000,11.48014501953125,1.959541538374126,-1.1683972981631756,1.1419546969175338
1789253613595198200,11.4901982421875,1.9770839170664547,-1.4159224447011947,1.9386913503080605
1789253613605252000,11.500252197265626,1.9428090147599577,-1.9515482015326617,3.327629341971874
1789253613615305000,11.510304931640626,1.8173036894768475,-2.673116508953273,5.381992313551902
1789253613625358000,11.520358154296876,1.8375681866094469,-3.4043095538094637,7.651396796694398
1789253613635412000,11.530411865234376,1.2819511966288089,-3.4984473886653777,9.512311079838872
1789253613645465000,11.540465087890626,1.263073477679491,-3.019223025752604,10.716895543670654
1789253613655518000,11.55051806640625,2.001291306605935,-2.1477976266026495,10.70733510364294
1789253613665572000,11.560572021484376,1.841529199194908,-1.0045455833509565,8.980202098956704
1789253613675625000,11.570625,0.7319792267978191,0.013843816435337065,6.872747004136443
1789253613685678800,11.580678955078126,-0.9705056588441133,0.7560504227370023,4.814012977865338
1789253613695732200,11.590732177734376,-3.0337761595010755,1.237217151889205,2.8200053985267877
1789253613705786000,11.6007861328125,-4.503842282322049,1.3531190747857094,1.2709575089275835
1789253613715839200,11.610839111328126,-4.943334354305267,1.1237643757104874,-0.024601941815018652
1789253613725892000,11.62089208984375,-4.575073581103981,0.7372662272900342,-0.8537859898239374
1789253613735946000,11.630946044921876,-3.7486774102479217,0.6332996568590402,-1.593921635070443
1789253613745999000,11.6409990234375,-2.7875512819066643,0.579304447299242,-1.7667659268945455
1789253613756052000,11.651052001953126,-2.111126769070327,0.4456567320927977,-1.8350655561387539
1789253613766106000,11.661106201171876,-1.343358143749833,0.35831980942338704,-2.097238236710429
1789253613776159000,11.671158935546876,-0.3683747549697757,0.24660627812743185,-2.06180218167007
1789253613786213000,11.681213134765626,0.5146247621178627,0.31297143217772244,-1.7769436220377683
1789253613796266000,11.691265869140626,1.428570329350233,0.4439370686933398,-1.6145008972406387
1789253613806319000,11.701319091796876,2.0774691218793393,0.504497335857153,-1.4734054963767527
1789253613816373000,11.711373046875,2.1726567580491305,0.5876356377929449,-1.3938795397192238
1789253613826426000,11.721426025390626,1.7105395972818136,0.5775909213796258,-1.1790794356971979
1789253613836480300,11.731480224609374,0.29027035554796454,0.6468696247890591,-1.174360590481758
1789253613846533000,11.741533203125,-1.331687287439406,0.8722001829147339,-1.437395440840721
1789253613856586000,11.7515859375,-2.282750871449709,1.0134145339831708,-1.7139800931245088
1789253613866640100,11.76164013671875,-2.6319240823432803,1.3933900026366113,-2.131586496514082
1789253613876693000,11.77169287109375,-2.7346216557517646,1.7796771386548875,-2.520447866934538
1789253613886747100,11.7817470703125,-2.544500065912306,1.888199472694099,-2.733131417194009
1789253613896800000,11.791800048828126,-2.0238795705109833,1.904502957241237,-2.9454204151779413
1789253613906852900,11.801852783203126,-1.4527262809634207,2.094295461256802,-3.2395038992732763
1789253613916907800,11.81190771484375,-0.977962404590845,2.295182482999563,-3.393350645160675
1789253613926960600,11.821960693359374,-0.6273632525473832,2.3384777271077035,-3.426711647492647
1789253613937014800,11.832014892578124,-0.3527952007830143,2.3037904446080324,-3.4732495267838237
1789253613947067600,11.842067626953124,-0.21470365791022777,2.272284130232036,-3.3953467874139545
1789253613957120800,11.852120849609374,-0.14516191965043543,2.2575421959131954,-3.187718766978383
1789253613967174700,11.862174560546874,-0.05196984121203422,2.193916695959866,-2.772860785514116
1789253613977227800,11.872227783203124,0.1846092561587691,2.1478964108020064,-2.379678629285097
1789253613987282000,11.882281982421874,0.5007537654146552,2.089787336182594,-2.007851980295777
1789253613997334800,11.892334716796874,0.8098693989470601,2.027025759582221,-1.5841232946336268
1789253614007388000,11.902387939453124,1.1383841449543832,1.9718153290137648,-1.1596803232222794
1789253614017441800,11.91244189453125,1.3483122590258716,1.8577727702483533,-0.7499228797674179
1789253614027495000,11.922494873046874,1.4467550975993275,1.6702490879476068,-0.39315935987532136
1789253614037548800,11.932548828125,1.4992533465996383,1.4326716271892188,-0.10101122775673865
1789253614047601700,11.9426015625,1.4476023620784282,1.1481208183318377,0.23348726883530616
1789253614057654800,11.95265478515625,1.4787760834991932,0.7489289002940058,0.4598953930646181
1789253614067708700,11.962708740234374,1.6739523263797162,0.39609365976154803,0.6541735180616378
1789253614077761800,11.97276171875,2.0756036202684043,0.19112579844594,0.852982856747508
1789253614087815700,11.982815673828124,2.6185139811500906,0.09472323352843523,1.2956430373728274
1789253614097868800,11.992868896484374,2.8348069540783762,-0.17483371207565068,2.4343945543348786
1789253614107922000,12.002921875,2.7341066919669506,-0.8325719368815422,3.999068467611074
1789253614117975800,12.012975830078124,2.963216184109449,-1.9766893647909163,5.377594370853901
1789253614128029000,12.02302880859375,3.3219901670411227,-3.6406454900741574,6.616935675290226
1789253614138082800,12.033082763671874,3.8091450306922194,-5.988646540069579,8.119599999377131
1789253614148136000,12.043135986328124,4.055485059098899,-8.338274899005889,8.694772461438179
1789253614158188800,12.053188720703124,2.7629250824332234,-9.647420392030478,8.07719176723659
1789253614168242700,12.06324267578125,0.6823053875684738,-9.725888948589564,7.130017884141206
1789253614178295800,12.0732958984375,-0.9077145638883113,-7.687987282466888,5.031896434855461
1789253614188349700,12.083349609375,-2.3252456128299235,-5.119201793342828,3.0332191101402044
1789253614198402800,12.09340283203125,-3.407483215409517,-2.785384167000651,1.61710961843431
1789253614208455700,12.10345556640625,-3.986545378385484,-1.1709767932623625,0.3060504007428884
1789253614218509800,12.113509765625,-4.509515944044292,-0.07714841387122869,-0.4987298583716154
1789253614228563000,12.12356298828125,-4.628754317887127,0.4859095397651195,-0.9107786276340484
1789253614238615800,12.13361572265625,-4.091886159779131,1.0546487539082765,-1.6727976033866405
1789253614248670000,12.143669921875,-3.441284947246313,1.4126520447283983,-1.8671517162293194
1789253614258722800,12.153722900390624,-2.78911692378819,1.4870710336357353,-1.9666718286454676
1789253614268777000,12.16377685546875,-2.107509163095057,1.674648491950333,-2.0603309400737286
1789253614278829800,12.173829833984374,-1.2450196423336863,1.781822918511927,-1.9701047257035968
1789253614288882700,12.183882568359374,-0.15174363612830638,1.586155969505012,-1.7474597534000873
1789253614298936800,12.193936767578125,0.9947446125656366,1.3836466072574256,-1.8472686196297405
1789253614308989700,12.20398974609375,1.8418115232676266,1.2165794375300407,-1.7976520635455846
1789253614319043800,12.2140439453125,2.302960131263733,1.1014546364858746,-1.8578624943584203
1789253614329096700,12.2240966796875,2.221272612658143,0.9401108128413558,-1.8452450048476456
1789253614339149800,12.23414990234375,1.4730983301237224,0.7637783866405486,-1.6861790630072355
1789253614349203700,12.24420361328125,0.07824468467533588,0.746815561401844,-1.8242694368362427
1789253614359256800,12.2542568359375,-1.273511869585514,0.5853063180625439,-2.118437676605582
1789253614369311000,12.26431103515625,-1.9099129995912312,0.3643713645473122,-2.535761171400547
1789253614379363800,12.27436376953125,-2.45800339345932,0.5400798136308789,-2.960107696700096
1789253614389416700,12.284416748046874,-2.78800720898062,0.8849372071519493,-3.2781600854039192
1789253614399470800,12.294470947265625,-2.5241709791108966,1.010482572184503,-3.577999356546998
1789253614409523700,12.304523681640624,-2.00063810339421,1.0683528696119784,-3.7797465022504326
1789253614419577900,12.314577880859375,-1.4054536576569079,1.1691513314008712,-3.94838574360013
1789253614429630700,12.324630615234375,-0.8411766836196184,1.212041209578514,-4.060338636609912
1789253614439683800,12.334683837890625,-0.3832850315928459,1.1279627041831612,-4.051214249911904
1789253614449737700,12.34473779296875,-0.04192454027682543,1.0150672696262597,-4.016665499100089
1789253614459790600,12.35479052734375,0.2509364162862301,0.9087705026820302,-3.974985581234097
1789253614469844700,12.3648447265625,0.5512783762544393,0.6824328133404255,-3.7225194711625575
1789253614479897900,12.37489794921875,0.8336386893302202,0.3812228383660316,-3.3577895024359226
1789253614489951000,12.384950927734375,1.1355024520382284,0.08705489085763693,-3.0472341914892196
1789253614500004900,12.3950048828125,1.419274969999492,-0.1489104585289955,-2.6832535798251627
1789253614510057700,12.4050576171875,1.6422630566522478,-0.3608654022529721,-2.2037240964859723
1789253614520110800,12.41511083984375,1.8232178819566964,-0.627654636709392,-1.6958838799417018
1789253614530164700,12.425164794921875,1.8255132994174956,-0.9352247943654656,-1.1889870817273855
1789253614540217900,12.4352177734375,1.63205730445832,-1.1355910071045159,-0.6103302846819162
1789253614550271700,12.445271728515625,1.3781094313964246,-1.2478460979312658,-0.09790390939116478
1789253614560324900,12.455324951171875,1.3138175764888524,-1.4783581503480672,0.15800795722007752
1789253614570377700,12.465377685546875,1.375160226202011,-1.7294813213780522,0.25462007323503494
1789253614580431600,12.475431640625,1.5521835572764278,-1.8182178817123174,0.19844810415804384
1789253614590484700,12.485484619140625,1.824352438944578,-1.810383534824848,0.03979483477175236
1789253614600538600,12.49553857421875,2.179033891865611,-1.98411483861655,0.6759954737693071
1789253614610592000,12.505592041015625,2.4942189084395765,-2.6008093976333737,2.268729360359907
1789253614620644900,12.515644775390625,2.7442902323290705,-3.6651539083868263,4.464478240182996
1789253614630699000,12.525698974609375,2.63948691881299,-4.583755192470551,6.896683175519108
1789253614640751900,12.535751953125,1.9284113638341425,-4.917192197310924,9.16807269499898
1789253614650805800,12.5458056640625,1.7187775565341115,-4.529083691084384,10.616237367135286
1789253614660859000,12.55585888671875,1.2145429632663727,-3.196929662916064,11.552974611890315
1789253614670911700,12.565911865234375,0.7609007853776216,-1.6713830604135989,11.260690286171435
1789253614680966000,12.5759658203125,0.46558074522465465,-0.8654901638820767,8.88464621399641
1789253614691018800,12.586018798828125,-0.8695993527665734,0.34698388415575027,6.499106583723425
1789253614701071600,12.596071533203125,-2.4377336356297135,1.126935406962037,4.601403661885858
1789253614711125800,12.606125732421875,-3.779762868863344,1.4491361475169657,2.8380197786450383
1789253614721179000,12.616178955078125,-4.4265746259853245,1.2668845604002474,1.6260902127474546
1789253614731232800,12.626232666015625,-4.187648965488374,0.9354293770268559,0.5505868868589401
1789253614741286000,12.636285888671875,-3.5459950295209883,0.7041404950186609,-0.16681027235686777
1789253614751338800,12.6463388671875,-2.4955752914845943,0.6522986641004681,-0.7967717247039079
1789253614761393000,12.656392822265625,-1.545686888733506,0.3657186875030398,-1.09393797724545
1789253614771445800,12.66644580078125,-0.8542401633322239,0.016719371871650218,-1.2357692911684512
1789253614781500000,12.6765,0.08863543804734945,0.008390519465506075,-1.798565086737275
1789253614791552800,12.686552734375,1.1227750724121928,0.19719372018277645,-1.9547990200221537
1789253614801605600,12.696605712890625,2.0040280380934474,0.36765900791585443,-1.7702093453466892
1789253614811659800,12.70665966796875,2.4466981555908918,0.6372840503200888,-1.8539456131756304
1789253614821712600,12.716712646484375,2.2261288205176593,0.9236769799128174,-1.953278678587079
1789253614831766800,12.726766845703125,1.3341203598052263,0.8943874648034572,-1.8574813860863446
