time,seconds_elapsed,z,y,x
1789592562769596200,0.04959619140625,-0.25992636294960975,0.013104980766773223,0.07949855719394981
1789592562779649300,0.059649169921875,-0.27253800724148747,0.07240852586776017,0.047023324720561505
1789592562789703200,0.069703125,-0.3539619064748287,0.15662293260246515,0.04278528529200703
1789592562799757300,0.07975732421875,-0.38412732763588425,0.1671507563576102,0.05310691895056516
1789592562809811200,0.089811279296875,-0.3688771515339613,0.15501637418866157,0.05211158777028322
1789592562819865300,0.099865234375,-0.33275662136077877,0.14527736272364855,0.03793952576126903
1789592562829918200,0.109918212890625,-0.2744014630258083,0.12548048310279847,0.021378888115286827
1789592562839972400,0.119972412109375,-0.21482582298517225,0.1254442427456379,0.026745493182353672
1789592562850026200,0.130026123046875,-0.13534370546936988,0.11017156255096197,0.04848506783619523
1789592562860080000,0.140080078125,-0.13916238697469233,0.09865414323657751,0.07814334319271146
1789592562870134000,0.150134033203125,-0.14785773460566998,0.09733896898478268,0.06294149974454194
1789592562880188200,0.160188232421875,-0.1672141769826412,0.1271098378702998,0.06641706690061837
1789592562890241000,0.170240966796875,-0.1449678583830595,0.10935732355862855,0.053782480124570424
1789592562900295200,0.180295166015625,-0.07505085707008838,0.08473901513069867,0.031161117667518553
1789592562910349000,0.19034912109375,0.002397124269604683,0.06920183878093958,0.011625336668267846
1789592562920403200,0.2004033203125,0.04168459404110908,0.08878332208544015,0.007100077796168625
1789592562930457000,0.21045703125,0.06799275525212288,0.08868833727836609,0.04126673395521938
1789592562940510200,0.22051025390625,0.12318448112010955,0.08814531644284725,0.04924432523828
1789592562950564000,0.230564208984375,0.17553952225744723,0.0562362664848566,0.035376945264264936
1789592562960618200,0.2406181640625,0.22950959737598894,0.06131839205473661,0.023354864363372325
1789592562970672000,0.250672119140625,0.2015384713888168,0.06467413222342729,-0.023847141392342744
1789592562980726300,0.260726318359375,0.13202829731106758,0.06015490123331546,-0.0038022783597931264
1789592562990780200,0.2707802734375,0.11026245570480823,0.07925912241488695,0.04258494041431695
1789592563000833300,0.280833251953125,0.1394160694748163,0.08564706988632678,0.04661499964799732
1789592563010887200,0.29088720703125,0.1776192511409521,0.09160597829073668,0.02137289676591754
1789592563020941300,0.30094140625,0.1716851849168539,0.1459346575886011,-0.032447358085773884
1789592563030995200,0.3109951171875,0.12412263875305651,0.18244097220897673,-0.0742759637074545
1789592563041049300,0.32104931640625,0.09939385568797587,0.16879004799723624,-0.0679557477099821
1789592563051103200,0.331103271484375,0.022582418686151504,0.14455723175555465,-0.059024472431279715
1789592563061156400,0.34115625,-0.04370703977942467,0.13771160364449023,-0.06987739995494484
1789592563071210200,0.351210205078125,-0.07629939582645892,0.11683102044016122,-0.06999134519081562
1789592563081264400,0.361264404296875,-0.08170096260905266,0.09528174419403075,-0.0635704087652266
1789592563091318000,0.371318115234375,-0.050903088763356204,0.05613602098077535,-0.0376375471400097
1789592563101372200,0.3813720703125,-0.01520692148208618,0.027518706044554708,-0.04841203913260251
1789592563111426000,0.391426025390625,-0.007995090407133101,0.03778028007894754,-0.06329959246721119
1789592563121479200,0.401479248046875,-0.05726093335747719,0.04015285442918539,-0.02143514834716916
1789592563131533000,0.411532958984375,-0.11316752949655055,0.035382863548398015,0.028498766590468586
1789592563141587200,0.421587158203125,-0.12999416113495826,0.03533493275344372,0.03675283672735095
1789592563151641000,0.43164111328125,-0.16413199305832385,0.07322218033820391,0.08930241405609994
1789592563161695200,0.4416953125,-0.1312421153694391,0.14195143317133188,0.10101440609451383
1789592563171749000,0.4517490234375,-0.1251034664839506,0.13815057958364485,0.05039305688198656
1789592563181802200,0.46180224609375,-0.1049789623439312,0.14566636204123495,0.02561941176187247
1789592563191856000,0.471856201171875,-0.15778993055522442,0.1965332104474306,0.03949208896551281
1789592563201910000,0.481909912109375,-0.23251287084519862,0.23761954633444546,0.05659311709851026
1789592563211964200,0.491964111328125,-0.22386779209673405,0.23006050925701854,0.08335552488304675
1789592563222018000,0.50201806640625,-0.1892915687561035,0.19975334153771399,0.09082797965556383
1789592563232072200,0.512072265625,-0.1652671345680952,0.2122492504954338,0.07553787340205162
1789592563242125000,0.522125,-0.1358569156885147,0.19496376917362213,0.07911876409612596
1789592563252179200,0.53217919921875,-0.11502280197441578,0.17779226962029934,0.07443634190093726
1789592563262233000,0.542233154296875,-0.09457973340451717,0.16902005736082792,0.036122356804087756
1789592563272287200,0.552287353515625,-0.05829436805844307,0.16902590257972477,0.03777940329611301
1789592563282341000,0.562341064453125,-0.007913841864466666,0.17120032400935886,0.03066328768059611
1789592563292395000,0.57239501953125,0.03531155187785625,0.17157120314836502,0.030595263945683834
1789592563302448000,0.5824482421875,0.055955111455917354,0.14063830474615097,0.016192790714278815
1789592563312502300,0.592502197265625,0.0592863017052412,0.14461568394452332,0.016119287086650728
1789592563322556000,0.602555908203125,0.03226911544203758,0.1449213888928294,0.0064515507595613595
1789592563332610000,0.612610107421875,0.03345803296566009,0.1389683257073164,0.004328822984546423
1789592563342664000,0.622663818359375,0.029761516535282133,0.1197904547676444,-0.024235738851130006
1789592563352718000,0.632718017578125,0.007201894202828407,0.13359919988960026,-0.0477868199063465
1789592563362771000,0.64277099609375,-0.035707857719063756,0.11233692389130592,-0.030001243575289844
1789592563372825000,0.6528251953125,-0.061037529286742206,0.0746074972167611,-0.0037834640614688394
1789592563382879000,0.66287890625,-0.07849369100034237,0.11484101566672325,-0.004005180520750582
1789592563392933000,0.67293310546875,-0.11736848831772803,0.14967150602936743,-0.019488252063095568
1789592563402987000,0.682987060546875,-0.16497721171081065,0.14348434182703493,-0.03837196236178279
1789592563413041200,0.693041259765625,-0.16118541821241378,0.12857085033357143,-0.031644005813635884
1789592563423094000,0.703093994140625,-0.1260965691745281,0.12857377294301986,-0.042488494302518665
1789592563433148200,0.713148193359375,-0.07224281391203403,0.16481442236453295,-0.047936165249161417
1789592563443202000,0.7232021484375,-0.03002045973241329,0.16418810715973375,-0.04883950729705393
1789592563453256200,0.733256103515625,-0.03494505665302276,0.1660205832839012,-0.01944269588831812
1789592563463310000,0.74331005859375,-0.05350771830379963,0.18314561334699392,-0.009808825298212469
1789592563473364200,0.7533642578125,-0.07684767735898494,0.151429163351655,0.030232495047897098
1789592563483417000,0.7634169921875,-0.09820318459868431,0.1469701381161809,0.04383439248614013
1789592563493471200,0.77347119140625,-0.13713994123637677,0.15335019454210996,0.035733686280064285
1789592563503525000,0.783525146484375,-0.18835633373260496,0.16802315527796743,0.0268928292311728
1789592563513579000,0.7935791015625,-0.24709318486154078,0.18694500562995672,0.03189315826911479
1789592563523633000,0.8036328125,-0.25810090108811856,0.17571487882435322,0.028437939781323075
1789592563533687000,0.81368701171875,-0.2981757218450308,0.1734802516400814,-0.0010610898928716777
1789592563543741000,0.823740966796875,-0.3613426643759012,0.1959863902196288,0.05756974357832223
1789592563553794000,0.8337939453125,-0.4260714493960142,0.16857319037616253,0.022881036306545137
1789592563563848000,0.843847900390625,-0.4668979653030634,0.1779027442574501,0.026707681922614572
1789592563573902000,0.853902099609375,-0.5134428588569164,0.17574468944072721,-0.00898866802174598
1789592563583956000,0.8639560546875,-0.5234621485680342,0.1661392412275076,-0.03821173029877245
1789592563594010000,0.874010009765625,-0.421909069019556,0.16779636078476906,-0.024412520190142093
1789592563604064000,0.88406396484375,-0.3052981210708618,0.13524112187772988,-0.045676074830070135
1789592563614117000,0.8941171875,-0.16965981656908988,0.10530863268971442,-0.04217453298252076
1789592563624171000,0.9041708984375,-0.046534372159838674,0.05876169330924749,-0.015260679229628293
1789592563634225200,0.91422509765625,0.028304303464293478,0.04666033662706613,-0.00929543241597712
1789592563644279000,0.924279052734375,0.08809212495088577,0.02367752044647932,-0.024668303315807133
1789592563654333200,0.934333251953125,0.17718553589880465,0.02299509114027023,-0.03946001332681626
1789592563664387000,0.944386962890625,0.2653063024222851,0.03736760762482881,-0.014521332104410976
1789592563674440200,0.954440185546875,0.3123042004406452,0.059006315720081325,-0.009179715348128229
1789592563684494000,0.964494140625,0.30822949834764,0.05758534300625324,0.010475837839581071
1789592563694548200,0.97454833984375,0.2936708116412163,0.08460632866173982,0.027490648993849752
1789592563704602000,0.98460205078125,0.29177579167485235,0.1006213516563177,0.03585033492967486
1789592563714656000,0.994656005859375,0.30084055714011193,0.08433920215815305,0.037472675434499975
1789592563724710000,1.0047099609375,0.31827216893434523,0.08804331737309694,0.018641060649231076
1789592563734764000,1.014763916015625,0.2922089223951101,0.10949147133231163,0.01691372539997101
1789592563744817000,1.02481689453125,0.257320564365387,0.11490180594325065,-0.002823240727186203
1789592563754871000,1.03487109375,0.18817513194680213,0.14394231472760438,0.003502162902057171
1789592563764925000,1.044925048828125,0.15173954447507856,0.1525254341557622,0.008346680323779582
1789592563774979000,1.05497900390625,0.10663140572607517,0.13623597813397645,0.037931926976703105
1789592563785033000,1.065032958984375,0.034869653329253195,0.14008739286512137,0.04718052457626909
1789592563795087000,1.075087158203125,-0.023560908329486846,0.13220306935608386,0.05297258851379156
1789592563805140000,1.085139892578125,-0.0876724382340908,0.11601561240404844,0.0633517610458657
1789592563815194000,1.095194091796875,-0.11342413460612297,0.09860855052918195,0.07135477903112769
1789592563825248000,1.105248046875,-0.10563128877282142,0.09429711707085371,0.09183525700196624
1789592563835302100,1.11530224609375,-0.14746201328635214,0.09877747735530137,0.11858480530492961
1789592563845356000,1.12535595703125,-0.18363748851716516,0.0989794296681881,0.1077603732233867
1789592563855410200,1.13541015625,-0.23733751452267168,0.09186112209558486,0.07693999528493732
1789592563865464000,1.145464111328125,-0.2709504457890987,0.08959814559966325,0.10136559415236115
1789592563875517200,1.15551708984375,-0.27613398590683935,0.07811433629393577,0.1298114615118131
1789592563885571000,1.165571044921875,-0.2923188125103712,0.10678659628778696,0.13099734682813285
1789592563895625200,1.175625244140625,-0.28993922389745713,0.15432050087898969,0.10233206456433981
1789592563905679000,1.18567919921875,-0.2953518965959549,0.15973931105732916,0.06123367291335016
1789592563915733000,1.19573291015625,-0.28363983149230476,0.14316840774565934,0.05366294539812952
1789592563925787000,1.205786865234375,-0.18539982201457023,0.1414338390380144,0.061631513124518096
1789592563935840300,1.21584033203125,-0.10953414143025875,0.15461480765044688,0.03636898850891739
1789592563945894000,1.225893798828125,-0.0463806429028511,0.1727607051938772,0.024869908568821847
1789592563955948000,1.235947998046875,0.03378711878955364,0.21227233911007642,0.039563364103436464
1789592563966002000,1.246001953125,0.042059272572398186,0.20571663385629652,0.04089782757759094
1789592563976056000,1.25605615234375,0.043972412717342375,0.17719342694431542,0.06807491711024194
1789592563986110000,1.26610986328125,0.08585399063527584,0.16212240680158138,0.06827858645617961
1789592563996164000,1.2761640625,0.0535959811091423,0.14252163427472114,0.04338898680619895
1789592564006217000,1.286217041015625,0.01600128673017025,0.14622925662100314,0.014701383112743495
1789592564016271000,1.29627099609375,-0.0256803847014904,0.15628624799400567,0.011492284873127936
1789592564026325000,1.306324951171875,-0.030543606823682783,0.1188993511468172,-0.027160942115448415
1789592564036379100,1.316379150390625,0.01210953998863697,0.08165829251110553,-0.043713907911628484
1789592564046433000,1.32643310546875,0.05076631064116954,0.1341097797602415,-0.009880611892789602
1789592564056487200,1.336487060546875,0.03514437861740589,0.12836129923611878,0.015127536102943121
1789592564066541000,1.346541015625,-0.006299976927042007,0.07418138075917959,0.033576508246175946
1789592564076594200,1.35659423828125,-0.04765490062236786,0.07422258955240249,0.023594262609817087
1789592564086648000,1.36664794921875,-0.03528875552415848,0.10543781202733517,0.014482333534583449
1789592564096702200,1.3767021484375,-0.07352116328477859,0.12521832503527403,0.032879429360106585
1789592564106756000,1.386756103515625,-0.13015548917651176,0.11152502298653125,0.04141341241691261
1789592564116810000,1.39681005859375,-0.2562175715595484,0.09590162965804339,0.02327551551684737
1789592564126864000,1.40686376953125,-0.28271862499415873,0.06665069299340248,0.05815864938218146
1789592564136918000,1.41691796875,-0.3199947549432516,0.11181640714854002,0.05767108506094664
1789592564146971000,1.426970947265625,-0.431368386760354,0.17673720760941505,0.02386230242885649
1789592564157025000,1.43702490234375,-0.6144184307783842,0.24173574948161838,0.012973865200392901
1789592564167079000,1.447078857421875,-0.7256769117832184,0.2156532137200236,0.15140516142155974
1789592564177133000,1.457133056640625,-0.7374281398534774,0.23028379661887882,0.2855619586613029
1789592564187187000,1.46718701171875,-0.7203191841423511,0.3581242868512869,0.3938151203703135
1789592564197241000,1.477240966796875,-1.0517945335209369,0.39273967315852637,0.22162410482317207
1789592564207294200,1.487294189453125,-1.199810673558712,0.2051931945040822,0.13103954200204462
1789592564217348000,1.49734814453125,-1.0244657970905304,0.031217560562491416,0.23200166992004959
1789592564227402200,1.50740234375,-0.381380659276247,0.06187982532978058,0.29285920299738644
1789592564237456100,1.5174560546875,-0.10463350990712642,-0.013627251075208187,0.24766619897652417
1789592564247510300,1.52751025390625,0.08624152864813804,-0.08735738093554973,0.25082681843191384
1789592564257564200,1.537564208984375,0.3682446988493204,-0.5682455854073166,0.6647013418167829
1789592564267618300,1.547618408203125,-0.41287995938956734,-0.504924329097569,0.579306164332293
1789592564277671200,1.557671142578125,-0.9220312585324049,-0.5428045624196529,0.558762119605951
1789592564287725300,1.567725341796875,-0.8042273014068603,-0.7327566409111023,0.2283912608705461
1789592564297779200,1.577779296875,-0.4168441868454218,-0.7646200981616973,-0.2542237673938274
1789592564307833000,1.5878330078125,0.28455694633722306,-0.6186757959619165,-0.6111245403321459
1789592564317887000,1.597886962890625,1.1426736588418482,-0.5682920548975468,-0.7712209577314555
1789592564327941000,1.607941162109375,1.5202233616530894,-0.5673439603924751,-0.7591817065000533
1789592564337995000,1.6179951171875,1.3363257608950136,-0.7455892344772815,-0.43402365050949154
1789592564348048100,1.628048095703125,0.7832938189715146,-1.1068798764050005,0.3050227016629651
1789592564358102000,1.63810205078125,0.33808278481960297,-1.2769903593510388,1.263653615655005
1789592564368156200,1.64815625,-0.4663333171576261,-1.3657529309093952,1.9886122961662709
1789592564378210000,1.6582099609375,-1.2488181578338144,-1.1292159191146491,2.8264336780086157
1789592564388264200,1.66826416015625,-1.1517834324926137,-0.7006655123844743,2.87071997898072
1789592564398318000,1.678318115234375,-0.5973211655050515,-0.7994844907939433,2.0855321629561483
1789592564408372200,1.688372314453125,0.4869868136078119,-0.7128451949998736,0.7085429677613079
1789592564418425000,1.698425048828125,0.639445320007205,-0.2625298234462738,0.25800920421667395
1789592564428479200,1.708479248046875,0.2342214283287525,-0.2331400628328323,0.9241891672186553
1789592564438533000,1.718533203125,-0.5161567939907312,-0.07377046187072991,1.1895295180410146
1789592564448587300,1.728587158203125,-1.2649556381642817,0.07478723769783974,0.8666469327017664
1789592564458641200,1.73864111328125,-1.9698335075467823,-0.048019642281532285,0.8667056771516799
1789592564468695000,1.748695068359375,-2.5768670887708662,-0.2775263170480728,0.879429403515905
1789592564478749200,1.758749267578125,-2.437476738259196,-0.4858849898457527,0.6122897116539999
1789592564488802300,1.76880224609375,-2.337605328187346,-0.789328422960639,0.26726810401454565
1789592564498856200,1.778856201171875,-1.838364597684145,-0.9160732269108295,-0.11196231842525303
1789592564508910000,1.78891015625,-1.4515964001506567,-1.1784276937901974,0.20032339651063083
1789592564518964000,1.7989638671875,-2.566701668587327,-1.7909177868545054,1.3609905388131738
1789592564529018000,1.80901806640625,-3.748768011140823,-2.5903900026887654,1.5977850325003264
1789592564539072300,1.819072265625,-4.111272120511532,-3.1536382182002067,1.3186783143930136
1789592564549126100,1.829126220703125,-4.161308947834372,-3.447819317451119,0.8552920104727149
1789592564559179000,1.839178955078125,-3.741457395866513,-3.257070535624027,0.27041473147720096
1789592564569233200,1.849233154296875,-2.5820740097641943,-1.680031061771512,-1.498603796649724
1789592564579287000,1.859287109375,-2.0556588566094636,0.49702510028034447,-2.847348163482547
1789592564589341200,1.869341064453125,-0.7273422146469354,1.582897552230954,-2.801898956210911
1789592564599395300,1.879395263671875,0.7721101616561412,1.2319447644442318,-1.7448182989805936
1789592564609449200,1.88944921875,0.9287567673951387,-1.0068389549851418,0.1288628920827061
1789592564619503400,1.89950341796875,-1.6416507699728011,-2.619947228823602,1.2717732092246412
1789592564629556200,1.90955615234375,-1.9529127678841351,-2.0769576652258634,-0.021859292043372988
1789592564639610000,1.919610107421875,-1.6213818889260292,-1.3536752473637461,-1.320490332251042
1789592564649664300,1.929664306640625,0.15870353826880454,-0.3931783568367362,-1.6851394908264279
1789592564659718400,1.939718505859375,2.384292260560393,0.3584497194133699,-1.962248313114792
1789592564669772000,1.94977197265625,2.012145293575525,0.5280937538914382,-1.6210048723071813
1789592564679826200,1.959826171875,1.620796782514453,-0.07595891182571649,-2.064208658289909
1789592564689880000,1.969880126953125,2.370812601262331,-0.44818245117813343,-2.0506230543993413
1789592564699933000,1.979932861328125,1.8576789544850587,-0.13159677402600645,-1.431211199247837
1789592564709987000,1.989987060546875,1.2895160789251328,-0.3485922692004591,-2.5894763949751853
1789592564720041200,2.000041259765625,1.8381880720734596,-0.31055626079477366,-2.857679880143702
1789592564730095000,2.01009521484375,2.7106916218489405,-0.7975911513280123,-2.310425352577865
1789592564740149200,2.020149169921875,3.202629335862398,-1.149468068222329,-1.8947852808251975
1789592564750203100,2.030203125,2.759965063583851,-0.7936340842653066,-1.8655194388523697
1789592564760257300,2.04025732421875,2.165061480614543,-0.5281023755893111,-2.1092381788447496
1789592564770310100,2.05031005859375,1.50851012750566,-0.38035526175126433,-2.395678454710543
1789592564780364300,2.0603642578125,0.847300134935975,-0.39372159686796365,-2.861518143132329
1789592564790418200,2.070418212890625,-0.058470309147238726,-0.7734392913680523,-3.1195980014324185
1789592564800472300,2.080472412109375,-0.9793693487793207,-1.4226178506866096,-3.5636762321621176
1789592564810526200,2.090526123046875,-1.9968723211199044,-2.3306423573069273,-3.9015427438825365
1789592564820580400,2.100580322265625,-2.9293817190468308,-3.016056086154282,-3.347475029170513
1789592564830634200,2.11063427734375,-2.293849188569188,-3.49389279410094,-2.4238003873452545
1789592564840687400,2.120687255859375,-1.6108493889957665,-4.097575895853341,-1.5327192706108093
1789592564850741200,2.1307412109375,-2.2476608533680436,-4.83841296736747,-1.158562132847309
1789592564860795100,2.140795166015625,-2.2787843059062958,-4.874793025259673,-0.6838815508440137
1789592564870849000,2.15084912109375,-1.7884598723083733,-5.123429640170931,0.024072072722017765
1789592564880903200,2.160903076171875,-1.6960931387782097,-5.613330879920721,0.6012248949453234
1789592564890957000,2.17095703125,-1.5538058977812528,-5.532537095284462,1.895627284607291
1789592564901011200,2.18101123046875,-1.080403372889757,-5.636398451775312,3.3316993678897617
1789592564911064000,2.19106396484375,-0.9635726447105407,-5.297062452024221,4.920994512203335
1789592564921118200,2.2011181640625,-1.2470692683398723,-4.30573904607892,6.013409225404263
1789592564931172000,2.211172119140625,-2.2979402572751044,-2.3379110331356525,8.25216547230482
1789592564941226200,2.221226318359375,-3.1414228797495363,-1.7043173617660998,9.14992153675854
1789592564951280000,2.231280029296875,-2.511446229833364,-3.9484985563248394,8.133083165806532
1789592564961334300,2.241334228515625,-2.438396191191673,-4.721735676184296,7.501872590181231
1789592564971388200,2.25138818359375,-2.1042524993866683,-3.4024165796697137,7.559941917312145
1789592564981441300,2.261441162109375,-0.6915466786444187,-0.21730580323264,7.654197241067886
1789592564991495200,2.2714951171875,0.24688626411259174,-1.2547671293660998,6.533390546119213
1789592565001549300,2.28154931640625,1.6168179420113562,-2.848761245150864,5.067346518421173
1789592565011603200,2.291603271484375,2.9356717591017483,-2.8853949855431913,3.113231973531842
1789592565021657300,2.3016572265625,3.433375197035074,-2.6712393169045447,1.1494897685974836
1789592565031711000,2.3117109375,2.768985989907384,-0.9474144138529896,0.42088323310315606
1789592565041765000,2.32176513671875,1.8749667738944291,-2.844466178305447,-1.443842717283964
1789592565051818200,2.331818359375,2.050952286353707,-1.514218860541284,-1.2470441338986158
1789592565061872000,2.3418720703125,2.238447034820914,-1.3031596966132521,-1.8894705155432223
1789592565071926000,2.351926025390625,2.7119208713829517,-1.5189192933171987,-1.7552075910478828
1789592565081980200,2.361980224609375,3.5102146910876035,-1.0794985330045224,-1.809576310095191
1789592565092034000,2.372033935546875,3.4585575690865515,-0.3898147256225347,-1.6266560299366712
1789592565102088200,2.382088134765625,3.8562311915159224,0.19145546879172323,-1.7172084075212477
1789592565112142000,2.39214208984375,4.064865174123645,0.958905821943283,-1.5660224052757024
1789592565122195200,2.4021953125,3.8659377620160575,1.3399287538230418,-1.1680161898911
1789592565132249000,2.4122490234375,3.9039778620749708,2.061646406586468,-0.6960714625924825
1789592565142303200,2.42230322265625,3.6462446252554654,2.331492398265004,-0.059475686797499656
1789592565152357000,2.432357177734375,3.4246745887070893,2.2888743227660653,0.40322015064060684
1789592565162411300,2.442411376953125,3.351149333769083,2.172120751476288,1.1308329989224672
1789592565172465200,2.452465087890625,3.3259313058823343,2.1111410898566243,1.8695330584079026
1789592565182519300,2.462519287109375,3.2691607863903043,2.0488006612777707,2.659609084865451
1789592565192572200,2.472572265625,3.2070109119474886,2.2675831129342314,3.0761399679780004
1789592565202626800,2.482626708984375,2.9585809255242346,2.348137243595719,3.1725545155942436
1789592565212680700,2.4926806640625,2.6753590271830556,2.2892712131291626,3.373377532190084
1789592565222734800,2.50273486328125,2.6178818207263945,2.3073224181264638,3.680203008958697
1789592565232788700,2.512788818359375,2.462067574158311,2.489946930208802,3.6441257334053514
1789592565242843000,2.5228427734375,2.021042301258445,2.244294007283449,3.647076984426379
1789592565252897000,2.53289697265625,0.9537146830409765,2.2917688751637932,3.2991426676779985
1789592565262950000,2.542949951171875,0.27621348088383674,2.839422631180286,2.4605513243764636
1789592565273003800,2.553003662109375,0.3167687786340713,2.745725525829196,2.1297347311675545
1789592565283058000,2.563057861328125,0.460132416690886,2.631139361706376,1.9104688799083231
1789592565293111800,2.57311181640625,1.0296525520786644,2.2323510560333726,1.8935621687710285
1789592565303166000,2.583166015625,1.8765739168301223,2.1472312248915433,1.694335481455922
1789592565313220000,2.59322021484375,2.1229332344591616,1.9686954434275625,1.3231827862054109
1789592565323274000,2.60327392578125,2.0819909832179544,1.9992273598134516,0.9581015198230742
1789592565333328100,2.613328125,1.8008207567095755,1.9443474763736128,1.3590543100535868
1789592565343381000,2.623381103515625,1.5803373463541268,1.9762299305856226,1.7876777820199727
1789592565353435000,2.633434814453125,-0.2921644987314939,2.77522166942656,0.43034664249718185
1789592565363489000,2.643489013671875,-2.153091641357541,2.3022423383831976,0.7229536242991685
1789592565373543000,2.65354296875,0.2894558242946863,2.5049656356424093,1.6185013650536537
1789592565383596800,2.6635966796875,1.71878953923285,3.763800160577893,-0.009517185407876967
1789592565393651000,2.67365087890625,-0.37526451448351145,2.6676743178993463,-1.8731477417737243
1789592565403704800,2.683704833984375,-3.97589451277256,1.748717352245748,-3.555933655211329
1789592565413757700,2.6937578125,-4.379747116097808,2.2997326936498284,-3.658406772214174
1789592565423811800,2.703811767578125,-2.5905317492470146,1.7822288689643144,-2.4050059627652165
1789592565433866000,2.713865966796875,-1.1367816781938076,1.5535074993565678,-1.6513193465501068
1789592565443920000,2.723919921875,-0.18727964441180228,1.0899179279491304,-1.1178589510589838
1789592565453974000,2.73397412109375,0.25254502052664757,1.4434431965723633,-1.6877637018501757
1789592565464028000,2.74402783203125,-0.49624213320910926,1.4325900863856076,-1.477461493769288
1789592565474082000,2.75408203125,-1.087358014333248,0.09934183323979377,-0.04099485821127891
1789592565484135000,2.764135009765625,-0.8714069867104292,0.5211661465853452,0.07829378451406956
1789592565494189000,2.77418896484375,-0.8982871025905013,0.7365738611117005,0.04738835864067077
1789592565504243000,2.784242919921875,-1.262036535847187,0.6029848903551698,0.008602993172407149
1789592565514297000,2.794297119140625,-1.4784681865938007,0.5449814680673182,0.037387773630023
1789592565524351000,2.80435107421875,-1.2784677384272216,0.4560847487352788,0.03148117993474007
1789592565534405000,2.814405029296875,-0.25111674128919836,0.6734035575799644,0.30792671600878235
1789592565544458800,2.824458740234375,0.3585802139252424,0.5526745067879557,0.7124749003827572
1789592565554512100,2.83451220703125,0.5324279837034642,0.21987623824253677,0.9595914661198854
1789592565564566000,2.84456591796875,0.42022681502103804,0.09095292120948434,1.0425982506304978
1789592565574620000,2.854619873046875,0.11369476824104785,-0.016949381235241888,1.1029133108615874
1789592565584673800,2.864673828125,-0.2592588389515877,-0.12783917505815626,0.6536392650544643
1789592565594728000,2.87472802734375,-0.6094324590593576,-0.08592764039337634,0.27706629832088947
1789592565604781800,2.88478173828125,-0.7086340070456266,0.03376300726160407,0.2511485977321863
1789592565614836000,2.8948359375,-0.5630905407316983,0.2380133679576218,0.35924306174814696
1789592565624888800,2.904888916015625,-0.24616204149127005,0.5049320740126073,0.3563157761245966
1789592565634943000,2.91494287109375,-0.16892390350997447,0.48630482269302006,0.13845160835683346
1789592565644996900,2.924996826171875,-0.016387217307835815,-0.12409925787746906,0.5539449651151895
1789592565655051000,2.935051025390625,0.4637500226661563,-0.2665242999099195,0.8158475965738295
1789592565665105000,2.94510498046875,0.7324591192692518,-0.2900371313139796,1.226165011999011
1789592565675159000,2.955158935546875,1.2030270052567125,-0.20017346664592622,1.5133072986543177
1789592565685213000,2.965212890625,1.818643998169899,-0.05101341727003455,1.2904723567366598
1789592565695266000,2.97526611328125,2.134170667788386,-0.02952785390987992,0.6696487350910901
1789592565705320000,2.98531982421875,1.2805749398395418,0.16006540120653806,-0.9231248989880084
1789592565715374000,2.9953740234375,-0.8078057444155216,0.21627375677116215,-2.5338316646426913
1789592565725428000,3.005427978515625,-2.15140500344485,-1.2205004834312945,-2.2030022119522092
1789592565735481900,3.01548193359375,-2.2059455719277263,-1.020900871150568,-1.845167847958207
1789592565745535700,3.02553564453125,-2.2217565967828032,-1.0591820134237409,-0.6121756202876567
1789592565755590000,3.03558984375,-2.158764134036004,-1.0601305463202297,0.5120797538101672
1789592565765643000,3.04564306640625,-2.199918274462223,-0.2136994493037462,0.91374098457098
1789592565775697000,3.05569677734375,-2.1594424716889855,0.6741431239008903,0.5767956793487071
1789592565785750800,3.065750732421875,-1.937489573302865,1.253599254630506,-0.2084843450039625
1789592565795805000,3.075804931640625,-1.437233528277278,1.3788647798083722,-0.959978419610858
1789592565805858800,3.08585888671875,-0.8525795366436243,1.4420229545108973,-1.7561241213709116
1789592565815913000,3.095912841796875,-0.3988716000422835,1.736564849898219,-2.317880052497983
1789592565825966800,3.105966796875,-0.3841115455448627,2.206376218429953,-2.105994374617934
1789592565836021000,3.11602099609375,-0.9102642483711242,2.5752099692136046,-1.557252238842845
1789592565846073900,3.126073974609375,-1.517930282279849,2.865191570948064,-1.010752913558483
1789592565856128000,3.1361279296875,-1.835020255692303,3.0335023109957575,-0.3758504976779222
1789592565866182000,3.146181884765625,-1.69137370904088,2.9996783673271534,0.18481179299354553
1789592565876236000,3.156236083984375,-0.7874342797771096,2.898948586860299,-0.23199673801660536
1789592565886290000,3.1662900390625,0.4311474374860525,2.6213816455408927,-1.9333371297985313
1789592565896344000,3.176343994140625,0.9426312712296843,1.639911232829094,-3.3967549006462097
1789592565906397700,3.186397705078125,2.6269845801144838,-0.17935498889237642,2.2442390622258186
1789592565916451000,3.196451171875,4.528668680542707,1.9669217117533087,2.5255472359001634
1789592565926505000,3.2065048828125,3.7770933573931456,2.9653061421260234,2.9148563500881193
1789592565936558800,3.216558837890625,2.047029706082493,1.6818132690131664,3.017338819441199
1789592565946612700,3.22661279296875,-0.22324008865244685,0.86006609300673,2.044943985849619
1789592565956667000,3.2366669921875,-2.720608035707474,0.9895575653165578,2.4247978739500042
1789592565966720800,3.246720703125,-3.7316280757695433,0.9977093075901269,1.9930419491767881
1789592565976775000,3.25677490234375,-2.1650229021698237,-0.7692103485614061,0.8392670506060123
1789592565986827800,3.266827880859375,0.4817302082538604,-2.63797651425004,-0.058250528916716574
1789592565996882000,3.2768818359375,-5.21998505756259,0.8410200317531824,-2.3761989704757926
1789592566006935800,3.286935791015625,-5.578931766712666,0.7179039396941661,-2.5192571958452463
1789592566016990000,3.296989990234375,-2.450533203709125,-1.0511129809975623,-2.326443882703781
1789592566027043800,3.3070439453125,-2.251837846791744,0.5363689764142036,-3.178068895101547
1789592566037098000,3.317097900390625,-1.7382067718863485,1.981484782373905,-2.0081974327325818
1789592566047151900,3.32715185546875,-0.8151391560435295,2.327734507036209,-0.0032698154509067535
1789592566057205000,3.337205078125,-2.2038649662613867,3.141111914104223,-0.5929425120294094
1789592566067259000,3.3472587890625,-0.18921441186666488,2.7966835596501824,0.9720651632457971
1789592566077313000,3.35731298828125,-0.004874876027368009,2.6743004580408334,2.396070376637578
1789592566087367000,3.367366943359375,-2.6633856807947156,2.8563211590111255,0.9413602283805608
1789592566097421000,3.377421142578125,-0.22486553442981091,2.4861791021078825,0.4602326621949672
1789592566107474700,3.387474609375,0.47349546387195585,2.2738240531504155,0.6350871247977018
1789592566117528800,3.39752880859375,-1.4268927515268326,1.671198351496458,0.7719792287528514
1789592566127582000,3.40758203125,-1.5717828684985637,2.691671864080429,1.46968998298496
1789592566137635800,3.4176357421875,-1.041814333711192,0.3991881186455488,2.312790328143537
1789592566147689700,3.427689697265625,-3.0726527103841303,-1.5622487319558858,2.6651635041221975
1789592566157743900,3.437743896484375,-2.288334224539995,-4.385279031261802,1.8927333167314528
1789592566167797800,3.4477978515625,-2.6224866841733454,-8.098319310939312,1.1871978602230548
1789592566177852000,3.457851806640625,-2.32823602681756,-7.0092702747792,2.273753618262708
1789592566187906000,3.467906005859375,-3.6412346881389617,-4.413596194207668,1.3351882812976836
1789592566197958400,3.47795849609375,-3.6570857527434826,-3.163295104339719,1.823112375755608
1789592566208012500,3.488012451171875,-2.2003893991053105,-2.7841724531233307,1.9611267617389558
1789592566218066400,3.49806640625,0.7337795542180537,-2.147893488192558,1.005976492936909
1789592566228120600,3.50812060546875,2.7052538147091862,-0.07072071891129017,1.5039654698133467
1789592566238174500,3.518174560546875,5.724508112382888,4.933783851149678,3.681300156545639
1789592566248228600,3.528228515625,0.6825918763596565,7.825567953208089,3.993721553625166
1789592566258282800,3.53828271484375,-3.5462335144519805,6.769506994414329,3.915491774258017
1789592566268335600,3.548335693359375,-2.6708535324573517,2.464762220069766,1.685161702658236
1789592566278389500,3.558389404296875,-2.0883425442017614,-0.7370394327968358,-1.3213815820023416
1789592566288443600,3.568443603515625,-3.7342040637373923,-3.8719507386952636,-1.3721142826348542
1789592566298497500,3.57849755859375,-3.941725701189041,-6.954126479706168,0.29750264488905664
1789592566308551400,3.588551513671875,-2.8512662137091156,-5.992587386649847,1.1268220097154378
1789592566318605600,3.59860546875,-2.218765598273277,-3.695382457911968,0.8232458901315927
1789592566328658700,3.60865869140625,-1.0235820730585605,-2.4331232192248105,0.8632622586995363
1789592566338712600,3.618712646484375,0.7447802561819553,-2.5302532216340303,0.5108230317473411
1789592566348766500,3.628766357421875,0.7755658550679683,-1.984095841655135,-0.03435352050065994
1789592566358820400,3.6388203125,1.1313970625460148,-2.0066502032905817,0.8798810928061604
1789592566368874500,3.64887451171875,0.9379694168984889,-1.476452608987689,1.1525769209578633
1789592566378928600,3.6589287109375,0.888546995146945,-0.32468378954231736,0.48668344674706454
1789592566388982500,3.668982421875,0.22503398633189498,0.4082885399460792,0.22374095084667203
1789592566399035400,3.679035400390625,0.8012836491703986,1.1614572697669268,-0.5424865825116634
1789592566409089500,3.689089599609375,1.2733014417052269,1.6768465865164994,-1.027784127858281
1789592566419143400,3.699143310546875,1.2555915974915026,1.86362588019073,-0.7406096924990415
1789592566429197600,3.709197509765625,1.1876654777348041,2.1822037540733814,-0.22149375644177197
1789592566439251700,3.719251708984375,0.9452291787683963,0.8117764016121626,0.002621580675244331
1789592566449305600,3.7293056640625,1.1571687057275324,1.4229478132933377,-0.02486176179498434
1789592566459359700,3.73935986328125,1.0075029718518256,2.539974405181408,-0.23705519044995307
1789592566469412600,3.74941259765625,1.6208125646054743,3.5639959656357765,-0.6391717637628317
1789592566479466500,3.759466552734375,2.1199932354845106,5.177950334909558,-1.011224914984405
1789592566489520600,3.769520751953125,1.2987281439065932,5.443733022671938,-0.6364262644469738
1789592566499574800,3.77957470703125,0.6687003483250736,4.208057255005836,-0.2568541158974171
1789592566509628400,3.78962841796875,0.01682604711651802,3.7178105628192424,-0.08018003665208816
1789592566519682600,3.7996826171875,1.106727900713682,3.3735505506694317,-0.455680697979033
1789592566529736400,3.809736328125,2.3997955346405506,3.419378235864639,-0.5503405108824372
1789592566539789300,3.819789306640625,1.701570108884573,2.695910816824436,-0.9617306701056658
1789592566549843500,3.829843505859375,2.2009914566516873,3.1183097151875496,-1.0563201942518352
1789592566559897600,3.839897705078125,2.0521382812678812,3.5564404356896877,-1.9792939943313597
1789592566569951500,3.849951416015625,0.43375970234367994,2.9169764109820124,-3.6040389299497004
1789592566580005600,3.860005615234375,0.7564917367637157,2.213316100695729,-3.335975145512819
1789592566590059500,3.8700595703125,0.7059574813127517,1.4883552282273769,-1.3063137767300008
1789592566600113700,3.88011376953125,-0.12990591659592463,0.9410100997686386,0.1476872003443539
1789592566610166500,3.89016650390625,-0.5805845867702737,0.38015550139546395,0.7937812376510351
1789592566620220700,3.900220703125,-0.7259457918524742,0.008798223483562469,1.6532465152204037
1789592566630274600,3.910274658203125,-0.803448791315034,0.05184124639630317,2.521657242724299
1789592566640328700,3.92032861328125,-1.1729519657928495,0.6973124025642872,3.0317417310640216
1789592566650382600,3.930382568359375,-1.883753306940198,2.0355928046584126,3.3063743724972006
1789592566660436700,3.940436767578125,-1.7626175750434399,3.5267069762051104,3.1654253943666815
1789592566670489600,3.950489501953125,-1.214564590576291,3.6260295202225445,2.165387643828988
1789592566680543700,3.960543701171875,-0.9149230339623987,3.656342240899801,1.1311262827806174
1789592566690597600,3.97059765625,0.07556750135533512,3.5166719044029713,0.17450309188179672
1789592566700651500,3.980651611328125,1.0608481930702924,3.1343261994868516,-0.34303302763812243
1789592566710705400,3.990705322265625,1.721513995760679,2.5946681183993814,-0.5673275207143277
1789592566720759600,4.000759521484375,1.408408854200691,0.758779555439949,-0.8155030939850956
1789592566730813400,4.0108134765625,0.9918751946091652,-0.7931196319371462,-0.7431039204675703
1789592566740866600,4.020866455078125,-0.6212405318833887,0.5860679500848055,-0.25602774807587264
1789592566750920400,4.03092041015625,-1.860029901525378,1.4904343725889921,-0.2126482597503811
1789592566760974600,4.040974609375,-2.329502685752511,1.9110878885895013,-0.7662909539833664
1789592566771028500,4.051028564453125,-2.5646342146635055,1.1007120014250278,-0.849258283266425
1789592566781082600,4.06108251953125,-2.1930577410429715,0.1767699408352375,-0.4560832874305546
1789592566791136500,4.071136474609375,-1.6008920586049555,-0.35746202355027196,0.24744747819192706
1789592566801190700,4.081190673828125,-1.3112772443562746,-1.065188852623105,0.7763944148465991
1789592566811243500,4.091243408203125,-1.1133084481477737,-0.8426847500950098,1.1926572946727274
1789592566821297700,4.101297607421875,-1.2385557070165871,0.20904139436483382,1.2386086062476038
1789592566831351600,4.1113515625,-2.3473042999029157,2.5034207442879675,1.0702096764598041
1789592566841405700,4.12140576171875,-4.177214372974634,5.627122089385986,0.8031354145169257
1789592566851459600,4.13145947265625,-1.2390531351447105,5.820614616963267,0.5273555758100003
1789592566861513700,4.141513671875,1.1433807841978967,1.935586954551935,1.0920369659297167
1789592566871566600,4.151566650390625,-0.4652287169165909,-10.760267067885398,1.2680018739923835
1789592566881620700,4.161620849609375,1.0475191942892967,-16.662509582221507,1.9394309166289865
1789592566891674600,4.171674560546875,4.884422146609425,-10.874189215141534,3.4023075663372873
1789592566901728500,4.181728515625,3.116604080313444,-13.905271897774934,4.627840710173547
1789592566911782400,4.191782470703125,0.5804202995866536,-15.740379539489744,3.4783205464377995
1789592566921836500,4.20183642578125,-1.818449644641578,-10.373699361360073,2.457809916713834
1789592566931890400,4.211890380859375,-6.254711551904678,-7.109408226832747,2.179181922034174
1789592566941943600,4.221943603515625,-8.575786016529799,-5.256226583766937,1.9960892079181969
1789592566951997400,4.23199755859375,-7.241990066373348,-4.105205952340365,1.7417907678529618
1789592566962051600,4.242051513671875,-4.234462446850538,-4.2631285693645475,1.3198413668230176
1789592566972105500,4.25210546875,-3.129472914236784,-5.255325251013041,0.3283274067416787
1789592566982159600,4.26215966796875,-1.738309209347516,-4.919691612911224,-0.7303859662570059
1789592566992213500,4.272213623046875,-0.37018589604496954,-3.8854157849460838,-1.6779815818957984
1789592567002266600,4.2822666015625,0.7928798318319022,-2.009419083482027,-2.495916944529116
1789592567012320500,4.292320556640625,2.3148161348827183,-0.1518167013645172,-3.5190339573591944
1789592567022374700,4.302374755859375,3.0274855349242684,1.3001204750478268,-4.269909023284912
1789592567032428500,4.312428466796875,3.7770869276523586,2.3633546864718196,-4.85738976277709
1789592567042482700,4.322482666015625,4.428462339428067,0.4539858767598867,-6.596946195706725
1789592567052536600,4.33253662109375,4.387245362898707,-2.4151427413761613,-7.382146725082397
1789592567062590700,4.3425908203125,4.163935204684734,-0.527283752682805,-6.596158844721317
1789592567072643600,4.3526435546875,3.96186949455142,1.5462497833132742,-5.171415964704751
1789592567082697700,4.36269775390625,4.058179997271299,2.271720943391323,-3.51286900498867
1789592567092751600,4.372751708984375,1.4204793773531912,1.2086597504466772,-1.6805828504353761
1789592567102805500,4.382805419921875,-3.269005303567648,-1.4603326643139123,0.050366205407679075
1789592567112859400,4.392859375,-5.207660998040438,-3.133791361957788,0.2993336597084999
1789592567122913500,4.40291357421875,-4.496237068015336,-3.3404426463156938,1.002174178044498
1789592567132966400,4.41296630859375,-2.6364310383737086,-2.6980413991123435,1.2880407456755638
1789592567143020500,4.4230205078125,-1.2840564983449876,-1.5660814419865607,0.9208847188457846
1789592567153074400,4.433074462890625,-2.3237327240489423,-0.5599205323934555,1.0496280031368135
1789592567163128600,4.443128662109375,-1.5215525644302368,-0.5635854846417904,1.6725488893225788
1789592567173182500,4.453182373046875,1.5066624538123607,-0.04771043020188808,2.0497034553363918
1789592567183236600,4.463236572265625,4.49131568596512,-0.22344868990182876,2.500148883010447
1789592567193290500,4.47329052734375,4.899289460873604,0.7638081972569227,1.754859654393047
1789592567203343000,4.483343017578125,5.936622922843695,2.6143852107822894,1.3047772148124872
1789592567213397000,4.49339697265625,5.990950725358724,3.437133088263869,0.9071448011763393
1789592567223451100,4.503451171875,5.052429519796371,3.6008664373934267,1.0292536158889531
1789592567233505000,4.513505126953125,4.199905804993212,4.075650187510251,1.4772820455491542
1789592567243559200,4.52355908203125,3.2122166638970375,4.89401824247241,1.646985116738081
1789592567253613000,4.533613037109375,0.8188242742970585,6.637465253099799,1.5618993339963256
1789592567263666200,4.543666259765625,-0.9776172444149851,8.307551843962074,1.9163763503864406
1789592567273720000,4.553719970703125,-1.8052911801218985,6.540722788703441,1.9278747727394103
1789592567283774200,4.563774169921875,-1.5887231896445153,5.551685447868705,1.0864861268695443
1789592567293828000,4.573828125,-1.6154650660976766,4.630917925661802,0.4109576860900968
1789592567303882200,4.58388232421875,-2.176999171167612,3.9506080958247183,-0.16252799192778766
1789592567313936000,4.593935791015625,-2.679476399374008,3.602966040021181,-0.6130786335419863
1789592567323989200,4.6039892578125,-2.5991902719989417,2.854446012789011,-0.7761166938837617
1789592567334043100,4.614043212890625,-2.682685716809332,1.6215940703719853,-0.3590169248420745
1789592567344097000,4.624096923828125,-2.8129674627140164,-0.14832359855175017,0.30047355045862495
1789592567354151000,4.63415087890625,-3.055391486720741,-1.940900843051076,0.7344362645611167
1789592567364205000,4.644205078125,-3.151617818288505,-3.042113779735565,0.9475093255948275
1789592567374259000,4.654259033203125,-3.204505651128292,-3.1594834370970726,1.0603827675156294
1789592567384312000,4.66431201171875,-3.3062484080299734,-2.151107189542055,0.8205453990012407
1789592567394366000,4.674365966796875,-3.019317718298733,-0.48291211151480673,1.295873338997364
1789592567404420000,4.684420166015625,-2.913432162503898,0.673272770807147,1.5616341071888804
1789592567414474000,4.694473876953125,-3.0053292326956984,0.17282967877686023,1.5396137062996624
1789592567424528100,4.704528076171875,-2.546980484551191,-1.8546873714536427,1.324191378726065
1789592567434582000,4.71458203125,-1.5963392176061868,-4.305770610260963,0.14909776126202196
1789592567444636200,4.72463623046875,-0.5662365836724639,-7.5886629848837845,-2.7615792207822203
1789592567454689000,4.73468896484375,-0.5094184256464243,-11.390366467398405,-5.252653985977172
1789592567464743200,4.7447431640625,-0.288096810901165,-11.427178486967087,-5.927730591335893
1789592567474797000,4.754797119140625,2.0866797255560754,-4.09173038469553,-5.708373554661869
1789592567484851200,4.764851318359375,3.0776714153289793,3.18798530896008,-5.150355056497454
1789592567494905000,4.774905029296875,2.3852874090775846,4.489213452988863,-3.9690266728296875
1789592567504959200,4.784959228515625,2.008823747937381,4.20051516906321,-1.6419021143853663
1789592567515012000,4.79501220703125,2.0195172836482524,4.243587418070435,-0.07201587328836322
1789592567525066200,4.805066162109375,2.3822210072442886,3.511927340224385,-0.30715507404915987
1789592567535120100,4.8151201171875,3.0164556068658825,2.1589491352140904,-0.8335849863816052
1789592567545174000,4.825174072265625,3.429406293404102,1.5090607471257447,-1.0334056210018694
1789592567555228000,4.835227783203125,3.6888665001466867,0.708195031106472,-1.0902315239429474
1789592567565282000,4.845281982421875,4.216696488535404,-0.22821546591222286,-0.5809694579020143
1789592567575335000,4.8553349609375,4.3135415365234016,-1.0624404306977986,-0.0641164983406663
1789592567585389000,4.86538916015625,3.6503941461503504,-1.8342267672270536,0.5150720674939453
1789592567595443000,4.87544287109375,2.3258662289462984,-2.0879835016310215,1.0681944641798733
1789592567605497000,4.8854970703125,1.668093371218443,-2.04289056045115,1.610094771236181
1789592567615551000,4.895551025390625,1.1410976416967809,-2.233286875578761,1.722198763154447
1789592567625605000,4.905605224609375,0.756355981554836,-2.722649770668149,2.496305651585758
1789592567635658000,4.915657958984375,0.998198333216086,-2.710336232540011,3.373079718287289
1789592567645712100,4.925712158203125,0.5421124154370278,-2.015515646791458,3.572001577436924
1789592567655766000,4.93576611328125,0.36852227368168533,-1.0624819317519665,4.090337761293352
1789592567665820200,4.945820068359375,0.4072562377562746,0.22523381975293158,4.726243508997559
1789592567675874000,4.9558740234375,0.3005260843634605,1.1900795531392097,4.9960254955291745
1789592567685928200,4.96592822265625,0.018276830446720124,2.0744231783121823,5.040556711173057
1789592567695981000,4.97598095703125,-0.19551906496882437,2.635257318419218,4.243986646521091
1789592567706035200,4.98603515625,-0.09914369858549907,3.2171587964743376,3.0257249549925325
1789592567716089000,4.996089111328125,-0.30938743621110915,3.8006151027560233,2.140772696401924
1789592567726143200,5.006143310546875,-0.6112988374531269,3.8999224492043254,0.9873235226541757
1789592567736197000,5.016197021484375,-0.4464093405583873,4.359185389584303,-0.5933123682551086
1789592567746251000,5.0262509765625,-0.06355451707635075,4.671732751131057,-2.308589223191887
1789592567756304100,5.03630419921875,0.03918400939702987,4.443131500771641,-3.7328959037482736
1789592567766358000,5.04635791015625,-0.04886778354346752,4.131253416788578,-4.892123514766991
1789592567776412000,5.056411865234375,-0.5460335344035178,3.601115443718433,-5.793302831667662
1789592567786466000,5.066466064453125,-1.2222551450788974,3.076747286221385,-6.1450739500999445
1789592567796520000,5.07652001953125,-1.9071755374513566,2.2715631224811075,-5.707405586412548
1789592567806574000,5.086573974609375,-3.0775568490386007,1.0301187082856893,-4.184757627961039
1789592567816627000,5.096626953125,-4.578521967992186,-0.38461248080432414,-1.8803211405344307
1789592567826681000,5.10668115234375,-5.909910857006907,-1.34220722014904,0.661853258909285
1789592567836735000,5.11673486328125,-5.968610883256793,-1.4546978732973337,2.799646208848059
1789592567846789000,5.1267890625,-4.07878556292653,-1.1993915713638066,4.522926922020316
1789592567856843000,5.136843017578125,-1.2375661114573477,-1.0468880567789076,6.343208166003227
1789592567866897200,5.146897216796875,0.4052105938054621,-1.477618145635724,7.531280470973253
1789592567876950000,5.156949951171875,1.4668008374147117,-1.6744921323448418,7.840666153618693
1789592567887004200,5.167004150390625,2.6473604286670684,-2.4849106896072626,8.004904529660939
1789592567897058000,5.17705810546875,1.7259398493789135,-3.9550153908729553,7.5581275613665575
1789592567907112200,5.1871123046875,-1.0622948847472666,-4.05485757485032,5.618203454393148
1789592567917166000,5.197166015625,-4.2762335501313204,-3.865421044665575,3.2029350408107042
1789592567927219200,5.20721923828125,-6.618278906592726,-3.417252329751849,1.2151878370411693
1789592567937273000,5.217273193359375,-7.4867545160263775,-2.8930653740406034,-0.5251429412618279
1789592567947327200,5.2273271484375,-6.3980971095323556,-3.0551158846497533,-2.2575728833124042
1789592567957381000,5.237381103515625,-3.81360142557919,-4.003818292486668,-2.579436939258873
1789592567967435000,5.24743505859375,-2.2196682462014254,-4.5423575986772775,-2.4863965442508458
1789592567977489000,5.257489013671875,-1.2293868966549635,-3.936963601353764,-1.8017500003837048
1789592567987542300,5.267542236328125,0.2987631663441658,-3.6717075678139923,-0.19071414890512822
1789592567997596000,5.277595947265625,1.4327996374830603,-4.000353831246495,0.9446060784339905
1789592568007650000,5.287650146484375,2.3606219005070623,-4.357304982665181,1.6304799721390009
1789592568017704000,5.297703857421875,2.6885879265904427,-4.5047979756116865,1.1191276558205485
1789592568027758000,5.307758056640625,3.2105940311312673,-3.94948581379652,-0.4181967704981565
1789592568037812000,5.31781201171875,4.738963874360919,-3.35171398191452,-1.0368661367192864
1789592568047865000,5.327864990234375,5.004766435867547,-3.479252566590905,-2.5922084502875804
1789592568057919000,5.3379189453125,1.6454600991278885,-3.791025436633825,-4.968251937940717
1789592568067973000,5.34797314453125,-0.8526889153022319,-2.2377707429945466,-5.236270421931147
1789592568078027000,5.358027099609375,-3.0271447586625815,-1.293991178512573,-4.508864494398236
1789592568088081200,5.3680810546875,-3.807978325000405,-1.1226344948977232,-4.2009027070760725
1789592568098135000,5.378135009765625,-3.1990088072776794,-1.064593809339404,-4.489650675362348
1789592568108188200,5.388188232421875,-1.5111422295749186,-0.9427467143028974,-4.525490635028481
1789592568118242000,5.398241943359375,0.3904665405947715,-0.8987801468044518,-3.7333044845491647
1789592568128296200,5.408296142578125,1.934518448537588,-1.295968616065383,-2.5723008037686346
1789592568138350000,5.41835009765625,2.693053673827648,-1.7957307400941849,-0.9206414116092025
1789592568148404200,5.428404296875,1.8176351133882998,-1.3324042035371064,0.2964065202154219
1789592568158457000,5.43845703125,2.048766466747224,-0.5477846889197826,1.0893668699376284
1789592568168511200,5.44851123046875,1.8573063217803836,0.6117851596653461,1.2397053154431283
1789592568178565000,5.458565185546875,1.7534183695435523,1.8598907853156328,1.4608248317450283
1789592568188619300,5.468619384765625,1.0332941234514117,2.7562860828101634,1.509645853537321
1789592568198673200,5.478673095703125,2.192260453185439,3.127318951073289,2.0047277107954025
1789592568208727000,5.48872705078125,3.3199022548511623,2.9946149464577436,2.205049646001309
1789592568218780200,5.4987802734375,4.645610760141909,2.9335774171710014,1.6036147615671157
1789592568228834000,5.508833984375,6.398771647793054,3.013187544980645,1.3421543209180236
1789592568238888200,5.51888818359375,7.208485271656513,3.673789634785056,0.9889112302370369
1789592568248942000,5.528942138671875,8.027205208796262,4.734536705568432,0.7567506068956107
1789592568258996200,5.538996337890625,7.632299882036447,5.291138322672247,0.3585639934428036
1789592568269050000,5.549050048828125,6.914953576225042,6.6921081129133695,-0.28879911395162344
1789592568279103200,5.559103271484375,3.820783446037769,8.86045694463551,-0.7858666651342063
1789592568289157000,5.5691572265625,0.17519348529875278,9.230369868957995,-1.0641837672337888
1789592568299211300,5.579211181640625,-1.9998101281374692,7.157180031833052,-0.8757410703919828
1789592568309265200,5.58926513671875,-2.856235818815231,4.806728666076064,-0.6525475973602384
1789592568319319300,5.5993193359375,-4.937767367827892,2.7731057001858948,-0.6198931358624249
1789592568329372200,5.6093720703125,-5.851826332306861,1.220243805256486,-0.06593779548369348
1789592568339426300,5.61942626953125,-4.817274902270734,0.16321137108206749,0.3660938044257462
1789592568349480200,5.629480224609375,-3.542618538825214,-1.4785966352790594,1.3211895665615796
1789592568359534300,5.639534423828125,-3.597866671055555,-2.9812545296251773,1.7951330664619802
1789592568369588200,5.649588134765625,-4.364131029292941,-4.166612899461389,1.5332906407579778
1789592568379642400,5.659642333984375,-4.603385191091895,-4.457358763566613,1.3985961929775774
1789592568389695200,5.6696953125,-4.129918953314423,-3.5440526632815597,1.014195382162556
1789592568399749400,5.679749267578125,-3.575852992168069,-1.4672177476525305,0.8844486199174075
1789592568409803300,5.68980322265625,-3.340742506045103,1.6798814241677522,0.7588735173337161
1789592568419857200,5.699857177734375,-3.5754561018049715,3.33740956223011,0.3124477370971814
1789592568429911000,5.7099111328125,-3.778854814107716,3.2847891481548546,0.9690276221808045
1789592568439964200,5.719964111328125,-3.081324969400465,1.9295511815190314,1.2161205147814005
1789592568450018000,5.73001806640625,-1.7781550436541438,-0.6366138959735631,0.51589090959616
1789592568460072200,5.740072265625,0.03927607159465551,-3.5593197905182836,0.7847278703626245
1789592568470126000,5.7501259765625,2.2269769617795943,-7.663782231014967,0.35816282876338806
1789592568480180200,5.76018017578125,0.27231355083584785,-13.992156400501727,-2.1464517649516464
1789592568490233000,5.770233154296875,2.1697192432925103,-18.41413580765128,-5.251825133937597
1789592568500287000,5.780286865234375,6.659899787747859,-10.47020158725977,-7.70741737460196
1789592568510341000,5.790341064453125,4.698910680913925,1.216205928042531,-6.568702682518959
1789592568520395300,5.800395263671875,1.556429524283111,5.515114835840463,-4.730056345283985
1789592568530449200,5.81044921875,1.060867482292652,6.069927231439948,-2.7778102246150373
1789592568540503300,5.82050341796875,1.5303987187087535,5.574349115097522,-1.5727832777127622
1789592568550556200,5.83055615234375,2.664745278710127,4.123121548259258,-1.0140715365871786
1789592568560610000,5.840610107421875,3.5812022442415357,2.611077401408553,-0.6735665661219508
1789592568570664200,5.850664306640625,4.32362483138144,1.9140771335333584,-1.5559280045017598
1789592568580718300,5.86071826171875,4.71350443893373,1.094079431542754,-1.9190455695956945
1789592568590772200,5.870772216796875,4.651194990015029,0.370865695002675,-1.8712877931207417
1789592568600825000,5.8808251953125,4.616790908370912,-0.04324877461791038,-1.4796363535903394
1789592568610879200,5.890879150390625,4.385930773168802,-0.06308335590064525,-1.1382790771447122
1789592568620933000,5.90093310546875,3.979888843105733,-0.2408966683089733,-0.47093569638654587
1789592568630987300,5.9109873046875,3.635086686903238,-0.7561796020746231,0.47044499026015396
1789592568641041200,5.921041259765625,3.514228602904081,-1.5451999819993971,1.2265190861336885
1789592568651094300,5.93109423828125,3.885477159744501,-3.2670208517521617,2.5519912984505293
1789592568661148200,5.941148193359375,3.2949721039950846,-3.9281267994254825,2.964187659490108
1789592568671202300,5.951202392578125,2.2979273977935315,-3.3366900157839057,3.038885173077881
1789592568681256000,5.961255859375,1.3076317274607718,-2.5538994701594113,3.148980163261294
1789592568691310000,5.97131005859375,-1.089005197018385,-0.11734160031080246,2.938626517254114
1789592568701364200,5.9813642578125,-2.104921776950359,2.0199474917590616,2.9944460196316243
1789592568711417000,5.9914169921875,-1.4099825332581997,2.8516093280583616,3.110799777948856
1789592568721471000,6.001470947265625,-1.6995651988029479,3.824015852087736,2.5208427114710212
1789592568731525000,6.011525146484375,-2.015432060161233,4.133147852233052,1.9317079211615025
1789592568741579000,6.0215791015625,-2.3467115947067736,3.5328012014269827,1.778030394361168
1789592568751633200,6.031633056640625,-2.1014766049325466,2.9811463930755853,1.07531116431728
1789592568761686000,6.04168603515625,-2.2642390632033345,2.2255799544632433,-0.024011574706435203
1789592568771740200,6.051740234375,-2.213074108633399,2.0446821200430394,-0.7379124162390828
1789592568781794000,6.0617939453125,-2.0202870989769695,2.058401433315873,-1.1689122619479895
1789592568791848200,6.07184814453125,-1.8231997617781162,2.109084741848707,-1.3105192655958235
1789592568801902000,6.081902099609375,-1.3012981405250728,2.471828505194187,-1.0618819200322032
1789592568811955200,6.091955078125,-0.6301740721844137,2.8073218580424784,-0.6705157271839678
1789592568822009000,6.102009033203125,-0.30408275393173095,2.830178417494893,-0.7045299327276646
1789592568832063200,6.112063232421875,-0.5060831437438726,2.3303894054591656,-1.0070068588979542
1789592568842117000,6.1221171875,-0.9221358879506587,1.677315373072028,-1.1838543950140477
1789592568852171300,6.132171142578125,-1.2771541716106236,1.0314625241100788,-0.9941362714089452
1789592568862224100,6.14222412109375,-2.0784809292703867,0.39944355471134185,-0.17574834270253775
1789592568872278300,6.1522783203125,-3.7502205480366944,-0.3183294520795345,1.4482184481501579
1789592568882332200,6.162332275390625,-5.485675975388288,-1.3502631008327006,3.230764712500572
1789592568892386300,6.17238623046875,-5.623638338923454,-2.130142727446556,5.021808756083249
1789592568902440200,6.182440185546875,-3.6187072145104406,-2.9158102898120877,6.517976703888177
1789592568912493300,6.192493408203125,-0.7085691251158713,-3.7936131150394674,7.8294439178586
1789592568922547200,6.202547119140625,0.5349952038429677,-4.352514825779199,8.766390421450138
1789592568932601000,6.21260107421875,-0.10444792420715093,-4.94758149035573,8.300535243198276
1789592568942655000,6.222655029296875,-2.364870936253667,-4.82581505934,5.517609575265646
1789592568952709000,6.232709228515625,-4.400445036211609,-3.8368659813106056,2.1059018740288913
1789592568962762200,6.24276220703125,-5.678542480021715,-3.2082050901681183,-1.1400000557184218
1789592568972816100,6.252816162109375,-5.446893532529473,-2.9950849020570516,-3.4403099647343156
1789592568982870000,6.2628701171875,-3.7585347873955963,-3.3226971462666985,-4.2965369179695845
1789592568992924200,6.272924072265625,-1.2171969849064945,-4.135465481525659,-2.7707614751473066
1789592569002978000,6.28297802734375,0.6939788742274046,-5.392725889012217,-1.111024282733351
1789592569013031200,6.29303125,2.381947597130388,-7.283873397856951,-0.6117606097459792
1789592569023085000,6.3030849609375,3.5008962431222197,-8.634225346016883,-1.6080544975802302
1789592569033139200,6.31313916015625,4.438370569980144,-8.127096492612361,-3.1182968557059763
1789592569043193000,6.323193115234375,4.3348225172221655,-5.4517041476815935,-4.272418083496391
1789592569053247200,6.333247314453125,3.607333587580919,-2.5530355468064547,-4.99707938849628
1789592569063300000,6.343300048828125,4.284689828309417,-0.4060977519035339,-4.21103305594623
1789592569073354200,6.353354248046875,3.791562612250447,0.2904717233389616,-5.188416783866286
1789592569083408100,6.363408203125,2.9134587582498788,-0.21230068842172622,-5.750286112239957
1789592569093462300,6.373462158203125,1.3367413559585808,-0.6388081911474466,-5.127675607177615
1789592569103516200,6.38351611328125,-2.3177520422041415,-2.1197423294633624,-3.4474797102332113
1789592569113569300,6.3935693359375,-4.026745579087734,-3.062196198299527,-2.759076882572472
1789592569123623200,6.403623046875,-2.67969617960453,-3.0293618501901625,-2.9266718755662438
1789592569133677300,6.41367724609375,-0.7606769134938717,-3.3981068997770545,-2.9257863249033687
1789592569143731200,6.423731201171875,1.6613656703986226,-2.6755156790494916,-3.148492087483406
1789592569153785300,6.433785400390625,1.5344737130627035,-0.7624749028265476,-2.6956360915362834
1789592569163838200,6.443838134765625,0.1686810346648097,0.3068675623446703,-0.20647811974808572
1789592569173892400,6.453892333984375,-0.5931579083457589,0.5483540132403374,1.7110517845876514
1789592569183946200,6.4639462890625,0.07133738950490952,0.9461877946674824,2.0748418421156702
1789592569194000100,6.474000244140625,1.8085495973959564,0.8823182568252086,2.663519536307454
1789592569204054000,6.484053955078125,2.9166239442825317,1.5427064116179943,2.446147535970807
1789592569214107100,6.494107177734375,4.127599278195202,2.4863603038936852,2.2242526513822374
1789592569224161000,6.5041611328125,4.888750823463499,3.0001123748302456,1.8313254928275942
1789592569234215000,6.51421484375,5.559333916795254,3.7254742293149232,1.4201494147464633
1789592569244269000,6.52426904296875,6.135188515901565,4.800249825450778,1.0612849770523607
1789592569254323000,6.534322998046875,6.535442217952013,5.721771380895376,1.3075000639051197
1789592569264376000,6.5443759765625,7.2927394258797165,6.814032949361205,1.2275608502715825
1789592569274430000,6.554429931640625,6.551241844630241,8.691663389506935,1.599889603564143
1789592569284484000,6.564484130859375,4.397094264478981,9.56208896396458,2.2354371854804453
1789592569294538000,6.5745380859375,1.7943197042524814,8.93828135807216,2.446071548125148
1789592569304592100,6.584592041015625,-0.29791151795089243,6.61077539909482,2.5096011864885686
1789592569314645000,6.59464501953125,-1.9459712781831622,4.289743604567647,2.32512169418931
1789592569324699100,6.60469921875,-3.320031141927838,2.87792801066339,1.6925108963772653
1789592569334753000,6.6147529296875,-3.814117558407783,1.7790782959789038,0.9251256443511694
1789592569344807200,6.62480712890625,-3.073279902371764,0.6286135448694229,-0.09619637482091783
1789592569354861000,6.634861083984375,-2.8931927998125553,-1.0413076262980698,-1.113363977727294
1789592569364914200,6.6449140625,-3.4245477474570274,-3.139673990255594,-1.5306826502166688
1789592569374968000,6.654968017578125,-4.348910079285502,-5.132670346724987,-1.6881122230269014
1789592569385022200,6.665022216796875,-4.171889378559589,-5.194920174410939,-0.504350401667133
1789592569395076000,6.675076171875,-3.6931995609149335,-3.1358424492686985,0.46194158500470217
1789592569405129200,6.685129150390625,-2.3303595948427915,-0.36354514285624023,0.43534291641451417
1789592569415183000,6.69518310546875,-1.9078104743540285,1.9228654201447963,0.5254734153252094
1789592569425237200,6.7052373046875,-1.9522388141453264,3.5748066979855295,1.1054622646920382
1789592569435291100,6.715291015625,-2.4509622427761553,4.203002894225716,1.8309911463066935
1789592569445345300,6.72534521484375,-3.232364841173589,3.8475773449391126,1.7681472982503472
1789592569455398100,6.735398193359375,-1.992296099245548,2.1955998267412182,1.0565635014884174
1789592569465452300,6.745452392578125,-0.12670973263680935,0.057847793334722515,0.23958215164430438
1789592569475506200,6.755506103515625,1.003190369349718,-2.718762700101733,-0.24590700728427617
1789592569485560000,6.76556005859375,-0.17771189786046743,-9.071730043575167,-1.1891959752377121
1789592569495614000,6.775614013671875,0.4179015869438648,-19.53439071393609,-4.118648202237487
1789592569505667000,6.7856669921875,7.0624366322994225,-20.733875224280357,-9.208332224673033
1789592569515721000,6.795720947265625,7.811108050701022,-9.27924525128603,-7.059862982419133
1789592569525775000,6.805775146484375,3.7839413235917685,2.2118980505913495,-3.5242183742597697
1789592569535829000,6.8158291015625,0.6933157341435551,6.568149724811315,-2.661654619218409
1789592569545883100,6.825883056640625,-0.7155705283105372,7.026445281463861,-1.3738476822987198
1789592569555936000,6.83593603515625,-0.25471798065155743,6.559288372963667,-1.157462501042336
1789592569565990000,6.845989990234375,0.8132000046744943,5.018811327832937,-1.5359338487431407
1789592569576044000,6.8560439453125,2.608300337910652,3.437314290049672,-1.4943097527176141
1789592569586098200,6.86609814453125,4.7599803589046,1.878838646891713,-1.6514109703563153
1789592569596151000,6.876151123046875,6.047700786584615,-0.0030447745233774183,-1.1999401451572775
1789592569606205000,6.886204833984375,6.480581331473589,-1.2791764712184668,-0.1692825076892972
1789592569616259000,6.896259033203125,6.24978286333084,-1.358192140266299,0.5962016599558293
1789592569626313000,6.90631298828125,5.893344922131299,-0.9792378313541412,0.8590240366078913
1789592569636367000,6.9163671875,5.482424864637851,-0.5794447325527667,0.8937605650767684
1789592569646420000,6.926419921875,5.026613526016473,-0.7602315078139305,1.0167198591388762
1789592569656474000,6.93647412109375,3.5433015526533125,-2.0960382132709023,1.820290888594091
1789592569666528000,6.946528076171875,0.2708896555125713,-2.999511486327648,2.6730194783195853
1789592569676582100,6.95658203125,-2.822755574017763,-3.006400661319494,2.7720278418213127
1789592569686635000,6.966635009765625,-2.6204233219027517,-2.460575289773941,2.8467425988048314
1789592569696689200,6.976689208984375,-1.9711632948458193,-1.4629922389119863,3.043572454111278
1789592569706743000,6.986742919921875,-1.5598622752107678,-0.20708909125328062,2.956739097049832
1789592569716797200,6.996797119140625,-0.610215133869648,0.9497118771404027,2.427591011799872
1789592569726851000,7.00685107421875,-0.15856206570519132,2.1575416065037247,1.9532348394453525
1789592569736904200,7.016904296875,0.16966916891932488,3.192626997286081,1.8141726979747415
1789592569746958000,7.0269580078125,0.07024316452741622,3.8603169995248314,1.8513368919819593
1789592569757012200,7.03701220703125,-0.2257060951734893,4.023350675952434,1.5271715733557938
1789592569767066000,7.047066162109375,-0.6949550257831811,3.7783722912877797,0.6679631200917064
1789592569777119200,7.057119140625,-1.147887009575963,3.687144790920615,-0.22965996563211083
1789592569787173000,7.067173095703125,-1.5802946762561798,3.5533915695130824,-0.8276710130974649
1789592569797227300,7.077227294921875,-1.8186019125938415,3.116717477560043,-1.1889083174027502
1789592569807281000,7.087281005859375,-1.8429210919447243,2.5925071409732103,-1.32392556739673
1789592569817335000,7.0973349609375,-1.700622598901391,2.0897066721618174,-1.3661483599677682
1789592569827388200,7.10738818359375,-1.2356313440024853,1.6383254249423742,-1.3474927593365311
1789592569837442000,7.117442138671875,-1.0326888510346413,1.052100238469243,-1.31344874317646
1789592569847496000,7.127495849609375,-1.1137848334878682,0.2787865462422371,-1.1909249179221688
1789592569857550000,7.137550048828125,-1.4534716925032436,-0.813836256751418,-1.0308753718718886
1789592569867603000,7.14760302734375,-1.9135114624746143,-1.8231114989727735,-0.7630053564414382
1789592569877657000,7.157656982421875,-2.613679108339548,-2.0617127498209475,0.41655528690144417
1789592569887711000,7.1677109375,-3.5492519854903217,-1.5554139174997805,2.2683143498182297
1789592569897765000,7.17776513671875,-3.800330440595746,-1.2828531139045953,4.252198010027408
1789592569907819000,7.187819091796875,-2.9011370368152853,-1.656612192261219,6.053672262209654
1789592569917872000,7.1978720703125,-0.5292192507900297,-2.6861037085592745,8.146283423641323
1789592569927926000,7.207926025390625,0.6995125429570674,-4.592202702820301,10.081426726078986
1789592569937980200,7.217980224609375,-0.8469172730982303,-6.02284983844459,10.976320386838912
1789592569948034000,7.228033935546875,-4.518727716764808,-6.139402918726206,9.291938728642464
1789592569958087000,7.2380869140625,-7.673776386284827,-4.979077867859601,5.150782926520705
1789592569968141000,7.24814111328125,-7.05498280916214,-3.8850843610346315,1.582635540293902
1789592569978195200,7.2581953125,-4.822352351665496,-3.3913276149004696,-1.2440100268997252
1789592569988249000,7.2682490234375,-3.3887861137241124,-3.135529730057716,-3.8638580331325527
1789592569998303200,7.27830322265625,-2.196728100118786,-3.4085014525413513,-5.66807018584609
1789592570008356000,7.288356201171875,-0.42040334063172335,-3.7491649015039203,-6.102528939837217
1789592570018410000,7.298409912109375,2.0871517269819972,-4.198968524143099,-4.3945244139909745
1789592570028464000,7.308464111328125,2.8250889854013916,-5.125087928771972,-2.6715131654098627
1789592570038518300,7.318518310546875,3.282190363833308,-5.002440623268485,-2.693993877287209
1789592570048571100,7.328571044921875,4.168970860764384,-3.1911978412657973,-2.293696774486452
1789592570058625000,7.338625,4.181837356600165,-1.2408008555948733,-2.172998411093652
1789592570068679200,7.34867919921875,3.4658985794991253,-1.0131254879087208,-2.260464951492101
1789592570078733000,7.358733154296875,1.8061586106061935,-1.2176496971100568,-2.501541506412625
1789592570088786200,7.3687861328125,1.3417179753273725,-1.152935525137186,-3.9705817933171987
1789592570098840000,7.378840087890625,0.6886299144148826,-1.0240326663702726,-4.486890562999248
1789592570108894200,7.388894287109375,-0.8139736193954944,-0.6458727227061987,-3.8932138914763925
1789592570118948000,7.398947998046875,-1.519677418208122,-0.2893283985227346,-3.5190813036322592
1789592570129002000,7.409001953125,-0.7319710434913634,-0.638054157909751,-2.7830077932581303
1789592570139055000,7.41905517578125,0.23547683521732687,-1.1523656162947415,-2.120580826114118
1789592570149109200,7.429109130859375,0.34860417883396144,-1.7953595686942339,-1.6907340959630905
1789592570159163000,7.439162841796875,1.3987481686688958,-1.8557932868689297,-1.370898769365251
1789592570169217000,7.449217041015625,2.1494391101993617,-1.2174971368968486,-0.8802322443313896
1789592570179270100,7.459270263671875,3.1571953261598944,-1.0531599766552449,0.4610647291049361
1789592570189324000,7.469323974609375,2.218489703941345,-0.38800095419883723,1.2112070968419313
1789592570199378000,7.4793779296875,1.4343813537165522,0.34216157856583596,1.5634871877096592
1789592570209432600,7.4894326171875,1.16541419069916,0.6742933460265398,1.6624587263323365
1789592570219485400,7.4994853515625,2.2572788688018917,0.6150070443212986,1.9708608047679066
1789592570229539600,7.50953955078125,3.802937115962803,1.7012240719258784,1.4339090600296853
1789592570239593500,7.519593505859375,4.503725962466001,2.938831684437394,0.6373100615441799
1789592570249647600,7.529647705078125,5.111629896783828,3.6836084334880113,0.24084902977496384
1789592570259701500,7.539701416015625,4.92769897827804,4.242873716843128,0.3836355255309492
1789592570269754600,7.549754638671875,6.23989859817624,4.917701315876841,0.6305565686959773
1789592570279808500,7.55980859375,6.46019379248321,5.803352516517043,0.6030548137862235
1789592570289862700,7.569862548828125,4.714527352240681,6.958270155382156,0.8795986956682056
1789592570299916500,7.57991650390625,3.1474627444356678,8.774626919397711,1.400164319077134
1789592570309969400,7.589969482421875,1.2002777065485715,8.371890168359876,1.7273855181425808
1789592570320023600,7.6000234375,-0.5735486602514982,6.1601335720658295,1.114724306295067
1789592570330077700,7.61007763671875,-1.7899200079888105,4.284350805613398,0.5198966381061821
1789592570340131600,7.620131591796875,-3.1150702948749065,2.5820231563597917,0.05012319043204188
1789592570350184400,7.630184326171875,-3.9418285770416257,1.341735510984063,-0.17040610489174723
1789592570360238600,7.640238525390625,-3.7537346936374902,-0.20685762058496474,-0.3201588594637811
1789592570370292500,7.65029248046875,-3.385123791824281,-2.154979062539339,-0.19834632428400217
1789592570380346600,7.6603466796875,-3.360744845110178,-4.026792340838909,0.21275946503989399
1789592570390399500,7.6703994140625,-4.036351027300953,-5.274737222969532,-0.1931565005559474
1789592570400453600,7.68045361328125,-4.928456518647074,-5.61116873345077,-0.34340116683077065
1789592570410507500,7.690507568359375,-4.951090959781408,-4.627901792711019,0.9909865021411329
1789592570420561700,7.700561767578125,-4.388054633454979,-2.315827796143293,2.062708336729556
1789592570430614500,7.710614501953125,-4.11188937562704,0.18673662357628346,2.584692960090935
1789592570440668700,7.720668701171875,-3.983982834421098,1.7057371654361486,2.714585122156143
1789592570450722600,7.73072265625,-3.2924268034264443,2.80390649664104,2.3698878876328466
1789592570460776400,7.7407763671875,-1.8945859588608145,3.464020510667562,1.6256218645833431
1789592570470830300,7.750830322265625,-0.07749620439559221,3.025973961317539,0.4857838310262188
1789592570480883700,7.7608837890625,1.0733479014202951,2.100447846406698,-0.9288659999232739
1789592570490937300,7.770937255859375,0.42242753993570803,0.4731406590849161,-2.136582697366178
1789592570500991500,7.780991455078125,-0.5041302561104297,-3.51717810035944,-3.010222265434265
1789592570511045400,7.79104541015625,0.2244859239950776,-10.899313135004043,-4.6633775952398775
1789592570521098500,7.801098388671875,4.501507117372751,-17.454174339175225,-7.350191497895121
1789592570531152400,7.81115234375,6.480519372153282,-13.305744162136316,-6.949556687572598
1789592570541206500,7.82120654296875,4.817841596242785,-2.1891537193417547,-3.173357940931618
1789592570551260400,7.831260498046875,3.190603382503986,4.361117234429717,-2.1735665663704276
1789592570561313500,7.8413134765625,1.96017720592916,6.35940877469778,-1.381799518086016
1789592570571367400,7.851367431640625,1.6660931373119354,5.548381145626307,-0.6040460898458957
1789592570581421600,7.861421630859375,2.1485227260068056,4.446113146930933,0.12145166597813367
1789592570591475500,7.871475341796875,2.4132608731523155,3.5846634906113146,0.2197434787083417
1789592570601528600,7.881528564453125,3.3384023726597425,2.9387597882449623,-0.6044697951506823
1789592570611582500,7.89158251953125,4.1535371447891,2.1165216138511895,-1.0734493159681557
1789592570621636600,7.90163671875,4.689793600739538,1.0343231742382049,-1.0444317496679723
1789592570631690500,7.9116904296875,5.182261183845997,0.25471067412793635,-0.5646512141771615
1789592570641743600,7.92174365234375,5.208902522534132,0.2812304322630167,-0.3166067199401557
1789592570651797500,7.931797607421875,4.821965398174524,0.44194238774478434,-0.051987961390614505
1789592570661851600,7.9418515625,4.1796950838744635,0.20322890869379043,0.21388518113419414
1789592570671905500,7.951905517578125,4.158509672504663,-0.862382553255558,0.38848479219302534
1789592570681958400,7.96195849609375,4.204485826259851,-2.269202823090553,1.2298489612087606
1789592570692012500,7.972012451171875,3.6575381726861,-3.4676533142119643,2.724141470530629
1789592570702066700,7.982066650390625,1.4688707755565642,-3.2067847019761797,3.436659041011333
1789592570712120600,7.99212060546875,-1.1303976031798868,-1.840100627696514,3.6323221906259655
1789592570722173400,8.00217333984375,-2.0593758313059807,-0.708107352823019,3.6223388490110633
1789592570732227600,8.0122275390625,-1.6671546290636061,0.6534732608377933,3.4397947086885567
1789592570742281500,8.022281494140625,-1.4937819294512271,1.7059207053095102,2.9079484703958034
1789592570752335600,8.032335693359375,-1.2689280489265917,2.666214766740799,2.349444819062948
1789592570762388500,8.042388427734375,-0.7814239334464073,3.1041414891034362,1.85091092165485
1789592570772442600,8.052442626953125,-0.9362696272432803,3.1501737569600343,1.0158541822202503
1789592570782496500,8.06249658203125,-1.012950131341815,3.1860686616837977,0.4930943367026746
1789592570792550700,8.072550537109375,-0.8614718681514263,2.796776498630643,-0.12270838804095983
1789592570802603500,8.082603515625,-1.1822703406929969,2.3896184240192175,-0.945611309953779
1789592570812657700,8.09265771484375,-1.7765666054189204,1.8822066620200872,-1.4653667129583656
1789592570822711600,8.102711669921876,-2.325954637882113,1.3553741602361202,-1.4661647314682602
1789592570832765700,8.112765625,-2.510205874383449,0.9070850338131189,-0.7054768581889569
1789592570842818600,8.122818603515626,-1.8859335735887288,0.4104606232881546,0.4050114179715514
1789592570852872700,8.132872802734376,-0.850140984385088,0.01564531289935112,1.3689116872012614
1789592570862926600,8.142926513671876,-0.14494455057270825,-0.3362368646919727,1.7076437297098337
1789592570872980500,8.15298046875,-0.08829027787148952,-0.7319862410604954,1.5313720937855542
1789592570883033600,8.16303369140625,-0.5990501812547445,-0.9715081138849258,1.225269816724956
1789592570893087700,8.173087646484374,-1.3121711244560776,-1.0784499007344246,1.3379605224899946
1789592570903141400,8.183141357421874,-2.127601226270199,-1.0387293002426623,1.9452841727018355
1789592570913195500,8.193195556640624,-3.2336808922082185,-0.44577042160034175,2.7239228593438862
1789592570923248600,8.20324853515625,-4.404531428742408,0.05889058038592338,3.4186277097582813
1789592570933302500,8.213302490234375,-4.819525603806972,-0.36846155647039414,4.311639794555306
1789592570943356400,8.2233564453125,-4.103554678001999,-0.858303759509325,5.122216757249832
1789592570953410600,8.23341064453125,-3.1064392446517943,-1.3546318174362182,5.1828930520087475
1789592570963463400,8.24346337890625,-2.300214631947875,-1.6769477088034153,4.521656755954027
1789592570973517600,8.253517578125,-1.93203905281201,-2.2278005531221625,3.4222570061713453
1789592570983571500,8.263571533203125,-1.7435722444422541,-2.9509084912002086,2.686694075667858
1789592570993625600,8.27362548828125,-1.958258220565319,-3.5921716742843386,1.9182319151252507
1789592571003678500,8.283678466796875,-1.9394408535011112,-4.5175183409750455,0.7664052280128002
1789592571013732400,8.293732421875,-1.7209553389646113,-5.576518860352039,0.043138007719814776
1789592571023786500,8.303786376953125,-1.5007605362921952,-6.313166663482785,-0.00573211391121149
1789592571033840600,8.313840576171875,-0.8364975858926773,-6.655374419277906,0.2925334781743586
1789592571043893500,8.3238935546875,-0.028479660031199453,-6.615184447708725,0.14582885912656784
1789592571053947400,8.333947509765625,0.5327823500990867,-6.316261122366786,-1.0096813388042152
1789592571064001500,8.34400146484375,0.5950362694382667,-5.985619885724782,-2.5685668779373168
1789592571074054400,8.354054443359376,0.9848018221568315,-4.4585599560499185,-3.3300995314776896
1789592571084108500,8.364108642578126,1.4055086027145385,-1.9261206225484608,-3.3815555779486894
1789592571094162400,8.374162353515626,1.9265344640463589,0.45951253122687336,-2.230106345846504
1789592571104216600,8.384216552734374,3.3695822315603494,2.303828730791807,-2.315141421314329
1789592571114269400,8.39426953125,1.5000941813379525,1.5839841784238815,-3.558304475995898
1789592571124323600,8.404323486328124,-0.25236615682840347,-0.11396540187597275,-3.7347161049127577
1789592571134377500,8.41437744140625,-0.5366179827392101,-1.276046356499195,-3.9346410036250945
1789592571144431600,8.424431640625,-0.6494482431054115,-1.9675573793083427,-3.8922809945404526
1789592571154484500,8.434484375,0.2016039378404617,-2.1278122386723757,-3.7792733317807317
1789592571164538600,8.44453857421875,1.4730851783812045,-2.4898469769656657,-3.381487188887596
1789592571174592500,8.454592529296875,2.1104444858945905,-2.7728438343793154,-3.133368168109655
1789592571184646700,8.464646728515625,2.0746964422956107,-2.633433610123396,-2.802933852216601
1789592571194699500,8.474699462890625,0.8471602880738676,-1.3748276332467793,-2.256512852865457
1789592571204753700,8.484753662109375,0.2617959562137723,-0.332595877841115,-0.9259555923692881
1789592571214807800,8.494807861328125,-0.22101897853687405,0.004469254368543624,0.404998120098561
1789592571224861700,8.50486181640625,-0.42229017729163165,0.5867787287026643,1.1963362754464149
1789592571234914800,8.514914794921875,0.4316916273653507,0.7026175232350825,1.7367118571534752
1789592571244968700,8.52496875,2.0887156152978537,0.5815121864765882,2.0864156677924095
1789592571255022800,8.53502294921875,2.792303444869816,1.3727666090637445,1.2983007122747598
1789592571265076700,8.54507666015625,4.274501904033124,2.202463867291808,0.6630091509461402
1789592571275129900,8.5551298828125,5.8590627133011814,3.3980823498576878,0.4373186004016548
1789592571285183700,8.565183837890626,6.148865159076452,4.220837241601943,0.21924071681797502
1789592571295238000,8.57523779296875,6.831558669179677,4.58396094417572,0.3545741931542754
1789592571305290800,8.585290771484376,6.817185275912284,4.354886815607547,0.8256537549909204
1789592571315345000,8.595344970703126,5.737772083103656,4.980738494548201,0.9228226281058043
1789592571325398800,8.605398681640626,4.891787999202311,6.61241556751728,1.3393839794218538
1789592571335452700,8.61545263671875,3.078645813319087,7.872125706243515,2.0391862991057335
1789592571345505800,8.625505859375,0.22015315548777578,7.705638674491643,2.4041893856853247
1789592571355560000,8.635559814453124,-1.4288304415911435,6.323444896391034,2.4180564368657764
1789592571365613800,8.64561376953125,-1.7828671668678522,4.662854448148608,1.8450471441879868
1789592571375667700,8.655667724609375,-2.3200012824356553,3.07483589964211,0.7187870061390101
1789592571385720800,8.665720947265624,-3.1032042082533238,1.9784832624703645,-0.39869558588825166
1789592571395774700,8.675774658203125,-3.499051492038369,0.6784440359652042,-1.1388036124754697
1789592571405828600,8.68582861328125,-3.3321155474752184,-0.9303718013763427,-1.3334538587205111
1789592571415881700,8.6958818359375,-2.728158304956555,-2.4699574506253,-0.8581382667493075
1789592571425936000,8.705935791015625,-2.909357168149948,-3.4447114145636557,-0.3237893979858607
1789592571435989500,8.715989501953125,-3.2061960884332654,-3.903696122524142,-0.04770889583192765
1789592571446043600,8.726043701171875,-3.1033804416030644,-3.4210710112571716,1.2334388023942708
1789592571456096800,8.7360966796875,-3.138057202708721,-1.8733634303510187,2.4531156214177607
1789592571466150700,8.746150634765625,-3.4211680418908594,0.14943185205459594,2.5641192508786914
1789592571476204500,8.75620458984375,-3.6564983082443474,1.6148650543779133,2.4115990774199365
1789592571486258700,8.7662587890625,-3.729791800253093,2.1975784333378074,2.193618005274236
1789592571496311600,8.7763115234375,-2.7169524358093735,1.9998621505856513,1.3646104828760026
1789592571506365700,8.78636572265625,-0.47728550380468365,1.12381522911489,0.18186441443003712
1789592571516419600,8.796419677734375,-0.37453824603557584,-0.8465759123146533,-0.8827885046854614
1789592571526472700,8.80647265625,-2.250928038470447,-5.0885155631780625,-2.072824364813417
1789592571536526600,8.816526611328126,-3.0334520421132445,-11.557046391373872,-4.128870905566215
1789592571546580700,8.826580810546876,1.7356804682791231,-15.527410158026218,-7.283907884648442
1789592571556634600,8.836634521484376,5.614691646879911,-10.760911211007834,-8.022295809444785
1789592571566687700,8.846687744140626,3.5484979522526263,-0.8579372642844915,-4.899102413868904
1789592571576741600,8.85674169921875,2.228965505248308,4.057342377403378,-3.1200510058969257
1789592571586795800,8.866795654296874,1.8579022418469189,4.404620860591531,-2.5398613001957533
1789592571596849700,8.876849609375,2.143009515543282,3.9584728378504512,-1.9756442396521567
1789592571606902500,8.886902587890624,2.381940728998184,3.4550714805364606,-1.3568315194375813
1789592571616956700,8.896956787109374,3.2522032218486068,2.8239538438916205,-0.48382177370563145
1789592571627010800,8.9070107421875,3.5647196037352082,2.1515204465180635,-0.5812546315189451
1789592571637063700,8.917063720703124,4.145818240974843,2.1831132701337337,-1.2030250324953347
1789592571647117600,8.92711767578125,4.5969595419585705,2.134586262851953,-1.5857323372654617
1789592571657171700,8.937171630859375,5.32809822627902,1.5917068816304205,-1.3723100974678992
1789592571667225600,8.9472255859375,5.898765778136253,1.0085644636034965,-0.7194972002349793
1789592571677278700,8.95727880859375,5.697568667531013,0.3365764719098806,-0.0017239011831581591
1789592571687332600,8.96733251953125,4.864603931939602,-0.36656478293836114,0.662042790132016
1789592571697386800,8.97738671875,4.058598514944315,-1.3012030095875262,1.255911623226106
1789592571707439600,8.987439697265625,2.9498879159808156,-3.2763609270274636,2.310062949006259
1789592571717493800,8.99749365234375,1.7134348803319035,-4.454147400304675,2.9716555111527443
1789592571727547600,9.007547607421875,0.16084646858163176,-4.163935204684734,3.6589097533002493
1789592571737601800,9.017601806640625,-1.594602603071928,-2.8753216275572777,3.9546564944326876
1789592571747654700,9.027654541015625,-2.195986780232191,-1.3264882574915886,3.9020229286149144
1789592571757708800,9.037708740234375,-1.515378844231367,0.09495090480446815,3.927580855980515
1789592571767762700,9.0477626953125,-1.143506018012762,1.3055781559318302,3.3003432756394147
1789592571777816800,9.05781689453125,-0.8119044119060039,1.9799118339687585,2.2829748894639312
1789592571787869700,9.06786962890625,-0.22567690561162307,2.702183321222663,1.779754880066216
1789592571797923800,9.077923828125,-0.3358125018000602,3.2963691113114355,1.3947444859854876
1789592571807977700,9.087977783203126,-0.47436172531247134,3.574773964759707,1.3103525307267903
1789592571818030600,9.098030517578126,-0.8084510565817355,3.5094337698429823,0.8459836455099284
1789592571828084700,9.108084716796874,-1.0336667561560868,3.0513930647343397,0.20763255048021673
1789592571838139000,9.118138916015624,-1.3846329879462718,2.687242941722274,-0.607533347439766
1789592571848192800,9.12819287109375,-1.7809996194303035,2.558838680127263,-1.0233744947224854
1789592571858245600,9.13824560546875,-2.125686917081475,2.424147301086783,-1.1218211326882241
1789592571868299800,9.1482998046875,-2.070131034076214,2.125222806701064,-0.9838535084560512
1789592571878353700,9.158353759765625,-1.483334185194969,1.8934516941338777,-0.7380817814566195
1789592571888406800,9.16840673828125,-1.055847023782134,1.6479115839332341,-0.6257752527035773
1789592571898460700,9.178460693359375,-0.8029648802556097,1.0993412975937127,-0.477421843535453
1789592571908514800,9.188514892578125,-0.6539906357754022,0.14446750764548777,-0.04519494024962187
1789592571918567700,9.198567626953125,-0.6082243253786116,-0.9526888471245765,0.7728394988439977
1789592571928621800,9.208621826171875,-0.3346773602902889,-2.186826153177023,1.229465076457709
1789592571938675700,9.21867578125,-0.6748695384792983,-2.509658761894703,1.1606254951179027
1789592571948729900,9.228729736328125,-1.7119984177879988,-2.378359947901964,1.5512019988931716
1789592571958782700,9.23878271484375,-3.352511854293942,-2.396418751683831,2.1965629726849496
1789592571968836900,9.2488369140625,-5.310078000941872,-2.2191659957677126,2.6482418876767158
1789592571978890800,9.258890869140625,-7.309092594787478,-1.915243839225173,3.3147137462973593
1789592571988945000,9.26894482421875,-7.838684039890766,-1.901181411603093,4.238283466443419
1789592571998997800,9.278997802734375,-5.973757013973593,-2.3807407055586576,4.863251056025922
1789592572009052000,9.289052001953126,-3.116318249109387,-3.067498396360874,4.633237600781023
1789592572019105800,9.299105712890626,-0.6644261781372129,-3.3925416668653487,3.726954823261499
1789592572029158700,9.30915869140625,0.4960473412893712,-3.674044486328959,2.4448013820588588
1789592572039212800,9.319212890625,0.33698388366699217,-4.490917334297299,1.0908689450636506
1789592572049266700,9.3292666015625,-0.24189561621844768,-5.736838601645827,-0.09332461877688765
1789592572059319800,9.33931982421875,-0.21977672339081764,-6.493296436139941,-0.535970917007327
1789592572069373700,9.349373779296876,0.003574351355433464,-6.5847583297848695,-1.0052106231309472
1789592572079427800,9.359427734375,0.08920929241254925,-6.394216468706727,-2.1503268528193233
1789592572089481500,9.3694814453125,0.41093700862824917,-5.778932945531606,-3.6234389192074534
1789592572099534800,9.379534912109374,1.3567160763643682,-4.336916274631023,-4.489333864498138
1789592572109588700,9.389588623046874,2.2581150273650885,-2.155023486202955,-4.361493666526675
1789592572119642600,9.399642578125,3.093351215019822,0.19285013802051543,-3.7226369600623843
1789592572129695700,9.40969580078125,2.1129870099842547,0.9623042322099208,-4.169422111663222
1789592572139750000,9.41975,0.29020280673708765,0.24248072263002393,-4.518997181355953
1789592572149803500,9.429803466796875,-0.9884580796420573,-0.44358840138614175,-4.536249929451942
1789592572159857700,9.439857666015625,-1.761882246506214,-0.8475731066584586,-4.490789908525348
1789592572169910800,9.449910888671875,-1.10691845484972,-0.9828250421911477,-4.26782461822629
1789592572179964700,9.459964599609375,0.6278536664128304,-1.1849801841735839,-3.4343370278045535
1789592572190018600,9.4700185546875,2.175507471305132,-1.800187719503045,-2.7924592199534177
1789592572200072000,9.480072021484375,2.8182524173796177,-2.0037112272292372,-2.4177651988342403
1789592572210124800,9.490124755859375,1.963419402720779,-1.9951707778990269,-1.7282070636585354
1789592572220179000,9.500178955078125,1.1189768491730094,-1.4523843356579542,-0.8417445466354488
1789592572230231800,9.510231689453125,0.6881608355984091,-0.09060849168598652,-0.23702581822499633
1789592572240286000,9.520285888671875,0.7413210556387901,0.5606260503143072,0.8042778625503182
1789592572250339800,9.53033984375,0.646629386292398,0.9405833987891673,1.6859274263337254
1789592572260394000,9.54039404296875,1.3627256920427082,1.011955859607458,1.7646227773860097
1789592572270446800,9.55044677734375,2.4191399943187832,1.1583657334923743,1.1432920830011366
1789592572280501000,9.5605009765625,3.6783638108327983,2.036094324439764,0.8027503607220947
1789592572290555000,9.570554931640626,4.976617615225911,2.8832863228261467,0.4467812060780823
1789592572300607700,9.580607666015625,5.149125806963443,3.5234389143198728,-0.3260441911753267
1789592572310662000,9.590661865234376,6.8566638843417165,3.5419074679464098,0.2960488658841699
1789592572320716000,9.600716064453126,7.518869902211427,3.500142794406414,0.5933091533847152
1789592572330769000,9.610768798828126,6.114914958679676,4.406951349365711,0.3851742063403129
1789592572340822800,9.62082275390625,5.312089925286173,5.612755710381269,0.9895805808659642
1789592572350877000,9.630876953125,3.828538297948241,7.372453014063835,1.7353034516602754
1789592572360930600,9.6409306640625,0.895419145938754,8.162464158591627,2.7949674033820626
1789592572370984000,9.65098388671875,-0.8816934029251337,7.358271928498149,3.23011589320302
1789592572381037800,9.661037841796874,-1.5636498309254645,5.713290552797913,2.516689391183853
1789592572391091700,9.671091796875,-2.670952901178598,3.729744746240973,1.2559110387042165
1789592572401144800,9.681144775390624,-3.674390523287654,2.4521067366361615,-0.09133249511159956
1789592572411199000,9.691198974609375,-4.267568013116717,1.134749880105257,-0.949998950453475
1789592572421252600,9.701252685546875,-4.343999510890245,-0.8538952954173088,-0.8522917326781898
1789592572431306000,9.711305908203125,-3.8436815065443515,-2.590650114929676,-0.769324330329895
1789592572441360000,9.72135986328125,-3.557631106778979,-3.206469060155749,-0.2798974300935864
1789592572451413800,9.731413818359375,-3.818370539677143,-3.2684546839475628,-0.10644107078574597
1789592572461467000,9.741466796875,-3.7771287209674713,-2.97207344430387,0.4193651566904038
1789592572471521000,9.75152099609375,-3.9034599756807085,-2.4963860233455897,0.9966380981620401
1789592572481574700,9.76157470703125,-4.1794110062360765,-1.3117290797770023,1.8136336226619778
1789592572491628800,9.77162890625,-4.77514285672307,0.36158348739445206,2.2163272652104498
1789592572501682000,9.781681884765625,-4.438044406765699,1.9166133740127085,2.1165853267371655
1789592572511735600,9.791735595703125,-1.9971745189368724,3.0288416257083415,1.1783056748457252
1789592572521789700,9.801789794921875,0.7257710198074578,3.4520348893195387,-0.406901834828034
1789592572531842800,9.8118427734375,0.7605641007691621,2.032696498695016,-1.9096026184678077
1789592572541896700,9.821896728515625,-1.8014228142559527,-1.363942082095146,-3.4101568185329434
1789592572551950600,9.83195068359375,-4.024935899317264,-7.76722857696414,-4.1072479795619845
1789592572562004000,9.84200390625,0.713631376941502,-15.167487297320365,-5.665864200234413
1789592572572057600,9.8520576171875,7.475253463324904,-15.170540839672087,-7.973342685705423
1789592572582111700,9.86211181640625,5.222067124533653,-6.843764655280113,-4.933926474490762
1789592572592164900,9.872164794921876,3.0370532814756035,1.8843688084900378,-1.7512176446288823
1789592572602218800,9.88221875,1.7318065494552253,4.159151477539539,-1.3459987213864921
1789592572612272600,9.892272705078126,1.68163849696815,3.892125511717796,-1.3908438252851367
1789592572622326800,9.902326904296874,2.027434632644057,3.4281986711800094,-1.1342648730672895
1789592572632379600,9.912379638671876,2.22933492308259,2.9698756419986485,-0.2532730425402522
1789592572642433800,9.922433837890624,2.840243299913406,2.7137966021269557,-0.08161525708697735
1789592572652487700,9.93248779296875,3.574175998866558,2.7530215280562635,-0.8956743628088384
1789592572662540800,9.942540771484374,4.126331450216472,2.4357863009542227,-1.550099736739695
1789592572672594700,9.9525947265625,4.879159403775632,1.8211340614199638,-1.5387493445552884
1789592572682648800,9.96264892578125,5.771760277423263,0.9604670799106358,-0.7312511317189783
1789592572692701700,9.97270166015625,5.7220484442710875,0.3354793243229389,-0.19927228002250194
1789592572702755600,9.982755615234375,4.9909419086545705,-0.1839718350380659,0.0692236122213304
1789592572712809700,9.992809814453125,4.360397687983513,-0.7991057206094264,0.6115944593988358
1789592572722862800,10.00286279296875,3.965472487479448,-1.8679373136490582,1.6831617610126732
1789592572732916700,10.012916748046875,2.227185197702795,-4.0000276680320495,2.6915397621333597
1789592572742970600,10.022970703125,0.9247358413159846,-4.607727019688487,3.476440431779623
1789592572753023700,10.033023681640625,-0.8629799346268177,-3.3509190321445463,3.7882375594809647
1789592572763077600,10.04307763671875,-2.296238129532337,-1.6751070493727922,3.6022511697500943
1789592572773131800,10.0531318359375,-2.2545640568852425,-0.47773149400651455,3.723247200915217
1789592572783184600,10.0631845703125,-1.9564380194008348,0.8862351380079985,3.3894173973649737
1789592572793238800,10.07323876953125,-1.4260697447061539,2.2186510319828985,2.675804432862997
1789592572803292700,10.083292724609375,-0.9610708910226822,3.299185922297835,2.4275971492797135
1789592572813346800,10.093346923828125,-0.7178104161918163,4.235891602870821,2.1659978846818206
1789592572823399700,10.103399658203125,-0.7752507977694273,4.6651387596935034,1.7648508870534598
1789592572833453800,10.113453857421876,-0.9283388342440128,4.552919909223914,1.077818324832618
1789592572843507700,10.1235078125,-0.8648960704464465,3.8728631773650646,0.29053821270391345
1789592572853560600,10.133560546875,-0.6861481075365096,3.0900515889525413,-0.27418007536008954
1789592572863614700,10.14361474609375,-0.8819325454432517,2.6634254282832144,-0.7393852652706205
1789592572873668900,10.1536689453125,-1.2572699059672654,2.1478163313031193,-1.059532872688025
1789592572883721700,10.1637216796875,-1.5511580136209726,1.4698679699003696,-0.837646025275439
1789592572893775600,10.173775634765626,-1.5125392368912696,0.8636217396616935,-0.2767372124969959
1789592572903829800,10.183829833984374,-1.4329185876876116,0.33959026677310467,0.073973583227396
1789592572913882600,10.193882568359374,-1.365005327412486,0.003115501672029495,0.3645826692104339
1789592572923936800,10.203936767578124,-1.1986685177862644,-0.5928203469544648,0.8184975265607237
1789592572933990700,10.21399072265625,-1.2681595487721264,-1.4479934072226286,1.1542239575125277
1789592572944043800,10.224043701171874,-1.4100504839278756,-2.1202274826318024,1.563532780417055
1789592572954097700,10.23409765625,-1.6599990582205355,-2.3985738838911055,1.7105438350655138
1789592572964151800,10.24415185546875,-2.488997666659951,-2.619070738250017,1.8962619292490184
1789592572974204700,10.25420458984375,-4.038663395896553,-2.457300213626027,2.6073984206348655
1789592572984258800,10.2642587890625,-5.772325510090589,-2.1303017174005507,3.1785438191369173
1789592572994312700,10.274312744140625,-6.933181891354918,-2.266880517622828,3.269278859812021
1789592573004365600,10.284365478515625,-7.044846030551195,-2.6228280449569223,2.9083476988464594
1789592573014419700,10.294419677734375,-5.645868875432014,-3.086822105512023,2.752895855849981
1789592573024473900,10.304473876953125,-4.019514458790422,-3.8104391621559857,2.632193254673481
1789592573034526700,10.314526611328125,-3.056644409391284,-4.1625165700584645,2.06477593678385
1789592573044580600,10.32458056640625,-2.159468190652132,-3.9796284386038776,1.457919757953286
1789592573054634800,10.334634765625,-1.050933678907901,-4.276731562781333,1.2643781305372714
1789592573064687600,10.3446875,0.12775427325367927,-4.896010877594351,1.1091568814262747
1789592573074741800,10.35474169921875,0.9145276049040257,-5.078954538628459,0.6240618729144335
1789592573084795600,10.364795654296875,1.162554271223396,-5.2348424349546425,-0.11332841914668679
1789592573094848800,10.374848876953125,1.1641937089934944,-5.573493959572911,-1.2455309528566896
1789592573104902700,10.384902587890625,1.6837587039925157,-5.63992721042335,-2.222582380082458
1789592573114956800,10.394956787109376,2.6711872944563626,-4.2866105672389265,-2.377787116450071
1789592573125009700,10.405009765625,2.742433498546481,-2.146407633548975,-2.2374792127020657
1789592573135063800,10.415063720703126,2.0849697067677972,-0.6498410418152809,-2.700823138785362
1789592573145117700,10.42511767578125,1.4978624767631292,-0.0770107589662075,-3.034147915422916
1789592573155170600,10.435170654296876,1.358938574719429,-0.20346154840588568,-3.619683658327162
1789592573165224700,10.445224609375,1.5604863984584807,-0.43953240399360655,-4.44327324732989
1789592573175278800,10.45527880859375,1.13123807259202,-0.8856891945630312,-4.343489223280549
1789592573185331700,10.465331787109376,0.8092530206143855,-1.4782821625024078,-3.950683791409433
1789592573195385600,10.475385498046874,0.5891326714176685,-2.365110590228438,-3.5162697533428666
1789592573205440800,10.485440673828125,0.8571488903857767,-3.1421506095021963,-2.875221674314141
1789592573215494000,10.495493896484374,0.9795428056500851,-3.2935750966787336,-2.911997745786607
1789592573225547800,10.5055478515625,1.7075808936066925,-2.500428576734662,-2.4658728116601702
1789592573235602000,10.515601806640625,2.464709905360639,-1.2249375160306692,-1.633462933472544
1789592573245654800,10.52565478515625,1.813193916070461,0.6076496672958135,-0.8542004158437252
1789592573255709000,10.535708984375,-0.12179098093509673,1.8634528617113828,-0.05287716531530022
1789592573265762800,10.5457626953125,-1.0295581517934798,2.344782672470808,0.2553092245429754
1789592573275815700,10.555815673828125,0.222707808406651,2.016120626947284,0.969114058355242
1789592573285869800,10.565869873046875,1.6374404588013887,2.400291209203005,1.198839928830415
1789592573295924000,10.575924072265625,3.165196846307814,2.574322080463171,0.8983461393013596
1789592573305976800,10.585976806640625,5.0643829924404615,2.584762810456753,0.6226841548204421
1789592573316030700,10.59603076171875,6.105709907960891,2.7561031274586916,0.09198971691131591
1789592573326084900,10.6060849609375,6.490327649462222,3.0320822150647637,-0.05689904124252498
1789592573336137700,10.6161376953125,7.414400642955303,3.76684551962316,0.7726007947172969
1789592573346192000,10.62619189453125,6.283440218260884,4.720153375428914,1.054292633946985
1789592573356245800,10.636245849609375,5.294433272564411,5.685942527145147,1.3125557398594916
1789592573366299000,10.646298828125,4.272909958666562,7.164829669803381,1.4900713844954967
1789592573376352800,10.656352783203126,2.7808932853221893,8.888867631083727,2.485431790871918
1789592573386407000,10.666406982421876,0.15456921494305134,8.699215996843575,3.5235175325140355
1789592573396459800,10.676459716796876,-1.4696131183564662,6.8809595366865395,3.1211253571301696
1789592573406514000,10.686513916015626,-2.2108687075436113,4.898996615406871,1.9704297198742626
1789592573416567800,10.69656787109375,-3.374685399918258,2.721568989694118,0.4612976610779762
1789592573426620700,10.70662060546875,-4.107341210803389,-0.25627076305150986,-0.7512159152526408
1789592573436674800,10.7166748046875,-4.495461991989612,-3.4355922885626553,-1.1475251174610108
1789592573446729000,10.72672900390625,-4.406713448956609,-5.972542962008714,-1.062593721563369
1789592573456781800,10.73678173828125,-4.6749753863140935,-6.69522244554162,-1.0962807409793138
1789592573466835700,10.746835693359374,-5.167181688135862,-5.917262973335385,-0.8526412037029862
1789592573476889900,10.756889892578124,-5.1150037571311,-4.215110680648684,-0.04264649787582457
1789592573486942700,10.766942626953124,-5.067044905126094,-1.5226421132326124,0.8017642722941934
1789592573496996900,10.776996826171874,-4.220247751276195,1.5897224298149346,0.6087163101466372
1789592573507050800,10.78705078125,-1.7061346403211355,4.509848829260468,0.36991036703921854
1789592573517103900,10.797103759765625,1.6347738699406384,6.487502655169368,-0.03344027811326086
1789592573527157800,10.80715771484375,1.7892989534810184,5.5347594475090505,-0.2792801019128412
1789592573537212000,10.8172119140625,-1.2519792522132396,2.390652443242073,-0.8541499277655035
1789592573547264800,10.8272646484375,-4.093163340108096,-2.5409523103028535,-1.3378688986837863
1789592573557319000,10.83731884765625,-4.159989389668405,-8.778904450586438,-1.191267009358108
1789592573567372800,10.847372802734375,0.8153183120027184,-16.323339586687087,-1.9075787114247678
1789592573577425700,10.85742578125,5.988566460570692,-17.954463117426634,-5.969397649720311
1789592573587479800,10.867479736328125,5.598201699849963,-9.060289781150221,-4.977537068158388
1789592573597534000,10.877533935546875,3.8096155708134174,0.9006693215519189,-2.952330340696871
1789592573607586800,10.8875869140625,2.0945982435956596,4.863721303886175,-3.026602906870842
1789592573617640700,10.897640625,1.2204235457375645,6.0011488787680864,-2.327710541638732
1789592573627694800,10.90769482421875,1.5501868305012583,5.798174237096309,-1.3105641276508568
1789592573637747700,10.917747802734375,2.3587863556429745,4.878671620258689,-0.2539841864842921
1789592573647801900,10.9278017578125,3.138816204382479,4.1187604304403065,-0.3282140094950795
1789592573657854700,10.937854736328125,3.9050472448721525,3.5518156984984874,-1.004703842652589
1789592573667908900,10.947908935546875,4.769738367331028,2.6705104181081056,-1.0921364077161997
1789592573677962800,10.957962646484376,5.202803621137142,1.5427280389279125,-0.6675780662968754
1789592573688016000,10.968015869140626,5.378791471683979,0.7814063977897167,-0.22345585029497742
1789592573698069800,10.97806982421875,4.902181675183773,0.11845277642309665,-0.044223026477545495
1789592573708124000,10.9881240234375,4.272494948124885,-0.5015794025838375,-0.28134046850875016
1789592573718176800,10.9981767578125,4.748279107455909,-1.6784171968340873,0.02177899334877729
1789592573728231000,11.00823095703125,5.698549495261907,-5.098022227191925,1.7751093923479317
1789592573738284800,11.018284912109374,5.9060629494071,-6.7923419265568254,3.8238147765576835
1789592573748337700,11.028337646484376,4.738312132453919,-5.2183630093187094,4.490771788346767
1789592573758391800,11.038391845703124,2.5676795737087725,-3.0791409033596513,3.8041134662657976
1789592573768445700,11.04844580078125,-0.6015934359967708,-0.6018213995337486,3.304066972337663
1789592573778498800,11.058498779296874,-5.5270297300398346,2.464071899718046,3.266040024021268
1789592573788552700,11.068552734375,-3.5580256590545174,3.4094460399150845,3.328338367024064
1789592573798606800,11.07860693359375,-2.3848282671332357,3.459318032065034,2.9669305284574627
1789592573808659700,11.08865966796875,-2.0496762750685216,3.6245115168750286,2.436612668775767
1789592573818713900,11.0987138671875,-1.5597516544431447,3.714101771429181,1.9106297695584593
1789592573828766700,11.1087666015625,-1.2123702954024076,3.4421097076326608,1.1178943146333098
1789592573838820900,11.11882080078125,-0.9744979433506726,3.101982849764824,0.11419658028334378
1789592573848874800,11.128874755859375,-0.9381202235460281,2.691540346655249,-0.65949412856251
1789592573858927600,11.138927734375,-1.0160638063829392,2.3700784417688845,-1.2211059750437736
1789592573868981800,11.148981689453125,-1.0850520754784345,2.014139097741246,-1.5824065538436174
1789592573879036000,11.159035888671875,-1.3914783237963915,1.7355331687629223,-1.69965463065207
1789592573889088800,11.1690888671875,-1.6854565939515829,1.449547650927305,-1.4866115994304419
1789592573899142700,11.179142578125,-1.4747130718439816,1.4294716621041297,-1.1640524008266626
1789592573909196800,11.18919677734375,-1.3201912031739949,1.1713193230897188,-0.8685689868055283
1789592573919249700,11.199249755859375,-1.2496896799713373,0.45736850493550296,-0.7935930946677923
1789592573929303800,11.2093037109375,-1.195141001247242,-0.6953302888363599,-0.767317374421656
1789592573939357700,11.219357666015625,-1.280455405113101,-1.572994582375884,-0.1619388669282198
1789592573949410800,11.229410888671875,-1.6225409958332777,-1.8258938231676816,1.309254506357014
1789592573959464700,11.239464599609375,-2.5120354278981685,-1.7468366530656814,3.5860868014127014
1789592573969517800,11.249517822265625,-3.402873091265559,-1.502866568660736,5.406941461369395
1789592573979571700,11.25957177734375,-4.250715077993274,-1.3563725236237048,5.955699379235505
1789592573989625900,11.2696259765625,-4.8698354028522965,-1.5390835449457168,4.981942609640956
1789592573999679000,11.279678955078126,-4.5209564987301825,-1.9690087471604345,3.6489381021231413
1789592574009732600,11.289732666015626,-3.5594109759330745,-2.241711589574814,2.386234626799822
1789592574019786800,11.299786865234376,-2.4463661471575495,-2.109911255800724,1.2489536207817493
1789592574029840000,11.30983984375,-1.9342754335619508,-2.0686580389142035,1.165556960170716
1789592574039893800,11.319893798828126,-2.2797050740130245,-2.532563252142072,2.0430176939621565
1789592574049947600,11.32994775390625,-2.672307238397002,-3.785033502742648,2.6991405925258993
1789592574060001000,11.3400009765625,-1.9461295374847947,-5.289228105136752,3.0224107158780096
1789592574070054700,11.3500546875,-0.7361725868344307,-6.2130544303923845,2.340636950968206
1789592574080108000,11.36010791015625,0.2447001522451639,-6.508434384039044,1.9972857242263853
1789592574090162000,11.370161865234374,0.8355266950339079,-6.4039230392068625,1.3955065563991664
1789592574100215800,11.3802158203125,0.667718643811345,-6.676829879760742,0.012228782454133034
1789592574110269000,11.39026904296875,0.860446616756916,-6.469979857960343,-2.1591918579287825
1789592574120322800,11.40032275390625,1.5121446846157311,-5.091757321578264,-4.100431577545404
1789592574130376700,11.410376708984375,2.056079127848148,-3.4618542725443837,-5.655286107596755
1789592574140429800,11.420429931640625,2.977899958500266,-1.6627081710487603,-6.23020138002634
1789592574150484000,11.43048388671875,3.9676936706602572,0.55765551007092,-5.847892499989271
1789592574160536800,11.440536865234375,2.8139795623660087,1.2266904971778392,-5.285452678251266
1789592574170591000,11.450591064453125,1.9305080438524485,0.7838724956423043,-4.311273299330472
1789592574180644900,11.460644775390625,0.2998679127156734,-0.11885901913642882,-3.5348175096854564
1789592574190698000,11.470697998046875,-1.368192725276947,-1.1845610819786787,-3.067709116502106
1789592574200751900,11.480751953125,-1.581629724252224,-2.332346969267726,-2.6016344502806663
1789592574210805800,11.4908056640625,-0.342626711859554,-3.1910949654132126,-3.0209599325478074
1789592574220858600,11.500858642578125,1.2512674506820738,-3.349720762270689,-2.8389520910590886
1789592574230912800,11.510912841796875,1.5464849072434008,-3.021878800958395,-1.4158984793037175
1789592574240966700,11.520966552734375,0.6973240930020809,-2.41581669511497,1.1377274346113204
1789592574251019800,11.531019775390625,-0.19565379726439713,-1.2153168702483177,1.571343161907047
1789592574261073700,11.54107373046875,0.9281199307963252,-0.6638064388036727,2.273951186661422
1789592574271126800,11.551126708984375,0.8514414725244045,0.038080432069301604,1.821641864811629
1789592574281180700,11.5611806640625,1.0044877156838774,0.7597375868171453,0.8772874961163848
1789592574291234800,11.57123486328125,1.4995184272766113,1.3999433698028325,0.5098946648560464
1789592574301287700,11.58128759765625,2.9592148395135998,1.9166823475956916,0.3663229370065033
1789592574311341800,11.591341796875,4.915282564297319,2.597880066183209,0.3444756276618689
1789592574321395700,11.601395751953126,6.264095466321707,3.5355806030124426,0.16564079018607736
1789592574331448600,11.611448486328126,6.3804118152379985,4.063804266893864,-0.18113792678639293
1789592574341502700,11.621502685546876,7.883357878875732,4.471896992006898,0.337411826755479
1789592574351555600,11.6315556640625,7.861555212390423,5.633085381704569,0.09731661102250218
1789592574361609700,11.641609619140626,6.780297268497944,6.499090801632404,0.14914448648057876
1789592574371663600,11.65166357421875,5.571746823644638,7.424729144746065,0.3757140848819166
1789592574381716700,11.661716796875,4.116438417233526,9.60890156854391,0.9022705462034791
1789592574391770600,11.6717705078125,1.4229466442495584,10.675207442498207,1.5546362111255525
1789592574401824800,11.68182470703125,-0.9385770274028181,9.094351625227928,1.2584389497466384
1789592574411877600,11.691877685546874,-2.086565159265697,6.089372521144151,0.5636690712720155
1789592574421931800,11.701931884765624,-3.1255940269768234,3.5091947003901,-0.3512742748260498
1789592574431984600,11.711984619140624,-3.841955413404107,1.0515063642293214,-1.5876918007701635
1789592574442038800,11.722038818359374,-4.56001483592093,-1.7231196773916482,-1.846610594112426
1789592574452092700,11.7320927734375,-5.000924958008527,-3.4042595771878954,-1.181778903914243
1789592574462145500,11.7421455078125,-4.772282498855889,-4.711327679416537,-0.5567079635551199
1789592574472199700,11.75219970703125,-3.684013799418509,-5.2756467390298845,0.6047286652825773
1789592574482253600,11.762253662109375,-3.3012218120396137,-4.861567340722679,1.4336992166712879
1789592574492306700,11.772306640625,-3.782789523208141,-3.304568784379959,1.9542222430475056
1789592574502360600,11.782360595703125,-4.5589968910500405,-1.0229086307764053,2.092923296120763
1789592574512413700,11.79241357421875,-4.888106972602009,0.9450304413259029,1.963466164471954
1789592574522467600,11.802467529296875,-4.436707020682096,1.8819839591801166,2.1520143675148486
1789592574532521700,11.812521728515625,-3.54849152251184,2.149984907513857,2.1205058611817655
1789592574542574600,11.82257470703125,-2.8975708687663078,1.2739064218610525,2.016392137365043
1789592574552628700,11.832628662109375,-0.04981237091720104,-0.2652648013681173,1.7148495694354176
1789592574562681600,11.842681640625,1.4292138879507779,-1.9561445894122123,0.5898713609557599
1789592574572735700,11.85273583984375,-0.7047299853444099,-5.641401374629139,-1.8703491970963775
1789592574582789600,11.86278955078125,-2.3313372077032923,-12.290040348172187,-5.08840684210658
1789592574592842500,11.872842529296875,2.099681245948374,-15.360481227725744,-7.223278351640701
1789592574602896600,11.882896728515625,4.803018997903168,-8.780028486180305,-5.374328647056221
1789592574612950500,11.892950439453125,3.9630578275531527,0.6084668288975954,-2.9218536616295574
1789592574623003600,11.903003662109375,3.3844568523481486,3.670642568930983,-2.5725474720060824
1789592574633057500,11.9130576171875,3.296884659618139,3.4437603974491355,-2.20913735370636
1789592574643110700,11.923110595703125,2.60298937202096,3.403900680747628,-1.6794067923933267
1789592574653164500,11.93316455078125,2.008269621185958,3.41786607773602,-1.159417142241448
1789592574663218700,11.94321875,3.0228581673845647,2.8463866249740124,-0.20365034897625445
1789592574673271600,11.953271484375,3.9153529503092166,2.3632827902793885,-0.218923248366639
1789592574683325700,11.96332568359375,4.130405567787587,2.0908008971393106,-0.9006254824101925
1789592574693378600,11.973378662109376,4.366646519245207,1.7003180629968642,-1.1262457441974432
1789592574703432400,11.983432373046876,4.729533198192716,1.3454986629098653,-0.9093102355819195
1789592574713486600,11.993486572265626,4.746567627362906,1.1403823330342768,-0.6288629895858466
1789592574723539700,12.003539794921876,4.166467353510856,0.6809452051311731,-0.22667145134061573
1789592574733593600,12.013593505859374,3.7500773401737213,-0.19950959590971468,0.27540844811126586
1789592574743646700,12.023646728515626,3.659285016353428,-2.136431013935804,1.1429648968733845
1789592574753700600,12.03370068359375,4.428471107256413,-5.730956557869911,2.831476640611887
1789592574763754500,12.04375439453125,5.1658571615338325,-5.904190141272545,4.15803094907701
1789592574773807900,12.053807861328124,4.084021710014343,-4.103305671676993,4.266955434176325
1789592574783861800,12.06386181640625,1.9162346038281917,-1.8734353265434502,3.712620592960715
1789592574793915600,12.07391552734375,-0.3836030115008354,0.7266226682007312,2.829770421215892
1789592574803968800,12.08396875,-2.7462510110080243,3.3748037656009195,1.908098935906589
1789592574814022700,12.094022705078125,-4.0533284655869,5.0809197012215845,1.1721183645129203
1789592574824075800,12.10407568359375,-3.0299194840729236,5.106935016965866,0.8502391109973192
1789592574834129700,12.114129638671875,-2.2943255739092825,4.358701989981532,0.6205962426304816
1789592574844183800,12.124183837890625,-1.8136118492215871,3.4470039094150065,0.4787251812189817
1789592574854236700,12.134236572265625,-1.409101658770442,2.829863360196352,0.2807850265830755
1789592574864290800,12.144290771484375,-1.193777238613367,2.5747727468401194,0.004070025917887687
1789592574874343700,12.15434375,-1.277560852715373,2.7028403238266705,-0.4404055335663259
1789592574884397800,12.164397705078125,-1.1613239987760782,2.7529396949917078,-0.6073281802564859
1789592574894451700,12.17445166015625,-0.7216144115846603,2.7719688051104545,-0.658008712310344
1789592574904504800,12.1845048828125,-0.33714287362098694,2.840208228600025,-0.838601864695549
1789592574914558700,12.194558837890625,-0.06789630914032459,2.6718554029762744,-1.1161769893214106
1789592574924611600,12.204611572265625,-0.22085399723351,1.8394933094531296,-1.4897886220313608
1789592574934665700,12.214665771484375,-0.5247235468059778,0.6960498352825641,-1.5082691583566368
1789592574944719600,12.2247197265625,-0.8518371938437223,-0.8149515245169401,-1.2666639033868907
1789592574954772700,12.234772705078125,-1.2713468005061148,-2.434300446310639,-0.6448924794971943
1789592574964826600,12.24482666015625,-1.6492372795790433,-3.4625632975965734,0.7918300305180251
1789592574974879700,12.254879638671875,-2.729858094611764,-3.2804707004338503,2.7384578729137776
1789592574984933600,12.26493359375,-4.422135474494099,-2.5192986968994138,4.92012825076282
1789592574994987800,12.27498779296875,-5.136638665834069,-1.8014304130405188,6.536086361074447
1789592575005040600,12.28504052734375,-5.360523993587494,-1.4874246693789959,7.0143585378289215
1789592575015094800,12.2950947265625,-5.2402621219158165,-1.7724580010563133,6.7784513483703135
1789592575025147600,12.305147705078125,-4.78657493584156,-2.2306354842871428,5.543489866453409
1789592575035201500,12.315201416015626,-3.8412510645270346,-2.532310738685727,3.94645536005944
1789592575045255700,12.325255615234376,-2.4861253260940313,-2.648250655505061,2.2090333088099956
1789592575055308500,12.33530859375,-1.4775843894965945,-2.276297749787569,0.3687232761465013
1789592575065362700,12.34536279296875,-1.1081009426325559,-2.5112989303171633,-1.2058695352062583
1789592575075415600,12.35541552734375,-1.2856366071432828,-3.8460570035040376,-2.158268751734495
1789592575085469700,12.3654697265625,-1.541997240435332,-5.2158671008497475,-1.4687807591855526
1789592575095523600,12.375523681640624,-1.2749381029963494,-5.873737135341763,-0.5127797187730669
1789592575105576700,12.38557666015625,-0.41227381018996234,-6.05923691059947,0.2204036231175065
1789592575115630600,12.395630615234374,0.6396686073690653,-5.744286579564213,0.5498185328349471
1789592575125683700,12.40568359375,0.9344562942110002,-5.535290193384886,-0.05962532440125942
1789592575135737600,12.415737548828124,1.4574864811025559,-5.428751726639271,-1.3092391626574098
1789592575145791700,12.425791748046874,2.6893735240101813,-4.400857124143839,-2.1831122472204267
1789592575155844600,12.4358447265625,3.513164188542962,-2.5170161389201877,-2.2787032034941017
1789592575165898500,12.4458984375,3.7040199378758665,-0.34619653317034244,-2.312939088964462
1789592575175951600,12.45595166015625,1.7680916225403547,-0.1532721608698368,-2.8542203873395917
1789592575186005500,12.466005615234375,1.1368792933493852,-0.24851357305347918,-3.150874014183879
1789592575196059600,12.4760595703125,1.2237749019920825,-0.9045674980342387,-3.8109707848146557
1789592575206112500,12.486112548828125,0.3988029187202453,-1.641033514857292,-3.7913571528062224
1789592575216166400,12.49616650390625,-0.3940940103769302,-1.804924684897065,-3.085035222095251
1789592575226219800,12.5062197265625,-0.3366015332859009,-1.7900836741179227,-2.8818554132401943
1789592575236273400,12.5162734375,0.6659294953722507,-2.0912679301291703,-2.5907372086912392
1789592575246326500,12.526326416015625,1.0828723933517932,-2.580415136641264,-2.371715541451424
1789592575256380700,12.536380615234375,1.7444681703686713,-2.231710420042276,-2.3229738685056565
1789592575266434300,12.546434326171875,2.5954268278121946,-1.1994535306841134,-1.6817834583967923
1789592575276487700,12.55648779296875,1.8647452396094797,0.09550503155589103,-0.8074668678499758
1789592575286541600,12.56654150390625,0.14553542913794518,0.7420031926840543,0.3416815399639308
1789592575296594700,12.5765947265625,0.22215572748184204,0.8573521578729152,0.6842806331641972
1789592575306648600,12.586648681640625,0.5820744965344667,1.7185756042212246,0.7544991016417741
1789592575316702700,12.59670263671875,2.3416543113172055,2.2674562716841695,0.9622551323711872
1789592575326755600,12.606755615234375,3.5757062771737576,2.8069319819420575,0.7514797538205981
1789592575336809700,12.616809814453125,4.573950130032003,3.3859266326397655,0.3988599096044898
1789592575346862600,12.626862548828125,5.822540616589785,3.6019840432465076,-0.01093691601268947
1789592575356916500,12.63691650390625,6.554976939505338,3.963674498146772,-0.005555807496234774
1789592575366969600,12.646969482421875,6.766658034723997,4.557898282158375,0.13727810759805142
1789592575377023500,12.6570234375,6.110590665739775,5.621576730218529,0.1023144193097949
1789592575387077600,12.66707763671875,5.339285975247622,7.109013090035319,0.37943113264366984
1789592575397130500,12.677130615234375,3.9952871955066915,8.904821571540833,0.9843608734562993
1789592575407184600,12.6871845703125,1.1658809314280747,9.177215201875567,1.7452359398707746
1789592575417237500,12.697237548828125,-0.6122416712611913,7.896929892632365,1.9490321270585058
1789592575427291600,12.707291748046876,-1.2693261083334684,5.312298015078902,1.4285975096181034
