time,seconds_elapsed,z,y,x
1789665606514861300,0.118861328125,0.5146902285695075,0.20570275146141648,-0.10513371451422572
1789665606524814300,0.128814453125,0.5767161843717098,0.13342208975702524,-0.08216565751135349
1789665606534767400,0.138767333984375,0.6902396876990795,0.07087576334252953,-0.06642389850020408
1789665606544719000,0.148718994140625,0.8224170380920172,0.02663826994821429,-0.02432027532942593
1789665606554672000,0.158672119140625,0.9286234964042901,-0.012682517571002245,0.06746515118144453
1789665606564625200,0.168625244140625,0.9832429753422737,-0.023362317017465828,0.16854381815120578
1789665606574577400,0.178577392578125,0.9101479285150765,-0.03251914468035102,0.2226712757885456
1789665606584530400,0.188530517578125,0.7997270673781632,-0.04980433374121785,0.29234825780056417
1789665606594482200,0.198482177734375,0.6293009426116943,-0.11268164567574858,0.3517562131240964
1789665606604435200,0.208435302734375,0.49304947464764115,-0.17429259093627333,0.35734212349765
1789665606614388200,0.21838818359375,0.4182786035627126,-0.2239398344196379,0.3324995778597891
1789665606624340200,0.22834033203125,0.433276266208291,-0.28131796441599727,0.27504699438773095
1789665606634293200,0.238293212890625,0.45884325366318224,-0.37880496356934307,0.30613844435252247
1789665606644246300,0.248246337890625,0.3866226515829563,-0.4313124187894165,0.3861785610772669
1789665606654198500,0.258198486328125,0.2756114233374595,-0.4309902010977268,0.399268928796798
1789665606664151300,0.2681513671875,0.12185410929918289,-0.45058629744946954,0.4327798609934747
1789665606674103300,0.278103271484375,-0.02923310874700546,-0.4377531193614006,0.43935945857949554
1789665606684056300,0.288056396484375,-0.15578794308304786,-0.46443186745047566,0.442187302416563
1789665606694009300,0.29800927734375,-0.2393897708773613,-0.5003934076696634,0.4307835726097226
1789665606703961300,0.30796142578125,-0.34250936909019947,-0.5244517441272736,0.438837334401533
1789665606713914400,0.317914306640625,-0.4897592009305954,-0.5040826175764203,0.504637036588788
1789665606723867100,0.3278671875,-0.6156658004909753,-0.4506915113896131,0.5245552775669843
1789665606733819100,0.337819091796875,-0.6389122360438108,-0.43970922186523675,0.46870640296451743
1789665606743772200,0.347772216796875,-0.6561936257123947,-0.44723990963101384,0.42920375607237216
1789665606753724400,0.357724365234375,-0.6454454372048377,-0.5029743640735745,0.43402993411980567
1789665606763677400,0.367677490234375,-0.5818190604686737,-0.49616906797289845,0.3742004654485732
1789665606773630000,0.3776298828125,-0.5102086992412805,-0.46749154728204007,0.3213807294089347
1789665606783581700,0.387581787109375,-0.4699216970384121,-0.3886863061144948,0.40822796886526047
1789665606793534700,0.39753466796875,-0.4956009126961231,-0.3079915979385376,0.46617279283367097
1789665606803487700,0.40748779296875,-0.5807786115050315,-0.2034650555372238,0.48406734596453604
1789665606813439700,0.417439697265625,-0.6740905169308186,-0.1867559127986431,0.4641441365502774
1789665606823392800,0.427392822265625,-0.7285247024297714,-0.22170155397355557,0.44998087890222666
1789665606833344800,0.4373447265625,-0.7911030314177274,-0.24580197600722312,0.36862653777375815
1789665606843297800,0.4472978515625,-0.7317489251732826,-0.2623912917584181,0.2691045987267047
1789665606853250800,0.457250732421875,-0.5764145710766315,-0.2601023040384054,0.24884419324733315
1789665606863202800,0.467202880859375,-0.3860574189156294,-0.23817718021720646,0.27371092347837983
1789665606873155800,0.47715576171875,-0.1858013885527849,-0.1759355358377099,0.313352175123617
1789665606883107800,0.48710791015625,-0.03517652732133865,-0.12191110018342732,0.4372543760590255
1789665606893060600,0.497060546875,0.07216331893503665,-0.08057400440573692,0.461860409527272
1789665606903013600,0.507013671875,0.13912322400808333,-0.04816138883978128,0.4624026997104287
1789665606912966000,0.5169658203125,0.23978841480612753,-0.028733050270378587,0.45384573763683433
1789665606922919000,0.5269189453125,0.32936113370358944,-0.03015694559365511,0.4460173090334981
1789665606932872000,0.536871826171875,0.42657939891815183,-0.06199731422960758,0.4470215176399797
1789665606942824000,0.546823974609375,0.4749702125996351,-0.08215221350789069,0.3913314868610352
1789665606952777000,0.55677685546875,0.46153789957463737,-0.06974018344134092,0.3429436688542366
1789665606962729700,0.566729736328125,0.3993699049532413,-0.010067220506072044,0.35468072226867076
1789665606972681700,0.576681640625,0.2539800217658281,0.07161386835873126,0.32498890996873375
1789665606982634800,0.586634765625,0.07168751811683177,0.1686474246561527,0.30991854741312563
1789665606992586800,0.596586669921875,-0.09005261136889457,0.22586071947962044,0.2722095059394836
1789665607002539800,0.606539794921875,-0.15280688144564628,0.21030074677616356,0.2488493078138679
1789665607012492800,0.616492919921875,-0.2088514247506857,0.19677257216125726,0.23076653863452373
1789665607022444800,0.62644482421875,-0.2237427044123411,0.17870500055104493,0.20037052358798682
1789665607032397800,0.636397705078125,-0.10140110385715961,0.1517503581300378,0.157961341599375
1789665607042349800,0.646349853515625,0.03514730122685432,0.10466098243594169,0.10877258247323333
1789665607052302800,0.656302734375,0.13147884673476218,0.052180269092321395,0.10443594150841236
1789665607062255900,0.666255859375,0.188024325299263,0.025064006368815898,0.14661694076433776
1789665607072207600,0.67620751953125,0.26516251003742214,0.029513386993110177,0.19050773961283266
1789665607082160600,0.68616064453125,0.32989655575454235,0.020231763906776903,0.21506818037368355
1789665607092113700,0.69611376953125,0.3500491169452667,-0.023844985967874526,0.24134463127218186
1789665607102066000,0.70606591796875,0.302819163736701,-0.05053776258230209,0.2709981573883444
1789665607112019000,0.71601904296875,0.20721417893767355,-0.037568975415825843,0.3145744834601879
1789665607121972000,0.725971923828125,0.07233283028304577,-0.01671323439180851,0.30667883483953773
1789665607131924000,0.735924072265625,-0.011844167050719261,-0.022299217830598354,0.26787944084592163
1789665607141876700,0.745876708984375,-0.08127543067336082,-0.0717450935229659,0.2647259452510625
1789665607151828700,0.755828857421875,-0.0782306561499834,-0.10260317312330007,0.27422413369752463
1789665607161781800,0.76578173828125,-0.0888397284477949,-0.14049158975183962,0.30117760707475244
1789665607171734800,0.77573486328125,-0.049128480306267736,-0.13462065189182756,0.2306609593681991
1789665607181686800,0.785686767578125,-0.008521744629740714,-0.14941139378845691,0.19481383930891752
1789665607191639800,0.795639892578125,0.0015209259569644927,-0.1731421057268977,0.17850575165189803
1789665607201592600,0.805592529296875,0.02586860074996948,-0.19441373407542703,0.203294959667325
1789665607211544800,0.815544921875,0.033621699094772334,-0.16166034224778414,0.24827260390445588
1789665607221497900,0.825497802734375,0.0030757541835308073,-0.14077712869495151,0.22885749014280735
1789665607231449900,0.835449951171875,-0.047617491221427916,-0.0957175052627921,0.22912666247300803
1789665607241403000,0.84540283203125,-0.11397183161675929,-0.12035861004441976,0.2663063463103026
1789665607251356000,0.85535595703125,-0.09370470413565635,-0.12957622798383236,0.2465972911033779
1789665607261307600,0.8653076171875,-0.06410685372948646,-0.13872311877459287,0.201139973590523
1789665607271260700,0.8752607421875,0.01260755263864994,-0.1254147243902087,0.15189977653808892
1789665607281213700,0.885213623046875,0.09938917951285839,-0.13787526977360248,0.13267799339145422
1789665607291166000,0.895166015625,0.15994915441572666,-0.12371230438649654,0.16828882047683
1789665607301119000,0.905118896484375,0.2072638632982969,-0.060896074989438054,0.194865642561391
1789665607311070700,0.91507080078125,0.22653788808882236,-0.028595103104412555,0.19358130183927713
1789665607321023700,0.925023681640625,0.2111684695214033,0.005880874732136726,0.17963051789812742
1789665607330976800,0.934976806640625,0.12518179241716862,0.014864683915674685,0.1288561700809747
1789665607340928800,0.9449287109375,-0.015429039800167082,0.0018739771783351897,0.08745397317782044
1789665607350881800,0.9548818359375,-0.1651005458295345,-0.034493805754184724,0.07306742816790938
1789665607360834800,0.964834716796875,-0.06004091946482658,-0.031982699716091155,0.13949037682004273
1789665607370786800,0.974786865234375,0.19393501064777374,0.04694879817962646,0.1860518561825156
1789665607380739600,0.984739501953125,0.15963234355151654,0.12530308070927856,0.1143452680390328
1789665607390691800,0.99469189453125,0.1493196238517761,0.06289250950366258,0.07215572015047073
1789665607400644900,1.004644775390625,0.06437339571118354,0.052671267479658126,0.030517157208174467
1789665607410598000,1.014597900390625,-0.07018471233844757,-0.006697744072973728,-0.054570306034013624
1789665607420550000,1.0245498046875,-0.11682663652598857,-0.02651829683035612,-0.1546269364796579
1789665607430503000,1.0345029296875,-0.1322141752719879,-0.035254853254556656,-0.14532543964907527
1789665607440456000,1.0444560546875,-0.14769699108600615,-0.03304185338020325,-0.10492693989574908
1789665607450407700,1.05440771484375,-0.052882864403724666,-0.0226370714828372,-0.0637749914266169
1789665607460360700,1.064360595703125,0.022275544694066046,-0.035976737788319585,-0.0852319862794131
1789665607470313700,1.074313720703125,-0.02268938619196415,0.006360474942624568,-0.11732662193737924
1789665607480265700,1.084265625,-0.006640168666839599,-0.0025166589960455895,-0.15935644921958445
1789665607490218800,1.09421875,-0.03172492556273937,-0.06642477528303861,-0.2071220436748117
1789665607500170800,1.104170654296875,-0.06043254913091659,-0.11165683267265558,-0.21788586814291774
1789665607510123800,1.114123779296875,-0.02574351306557655,-0.13222177405655383,-0.25169490650333465
1789665607520076800,1.124076904296875,0.02177519395649433,-0.1457955413788557,-0.23073687414862215
1789665607530028800,1.13402880859375,-0.010242577072978019,-0.11611585790812969,-0.19815920421406624
1789665607539981800,1.14398193359375,-0.022032383587956426,-0.07419774737209081,-0.19392076292671262
1789665607549934800,1.153934814453125,-0.029526538735628126,-0.05040419933050871,-0.202665575722605
1789665607559886600,1.163886474609375,0.018670213678479194,-0.05171411288529634,-0.2533824211988598
1789665607569839600,1.173839599609375,0.08832885631620883,-0.0833200882434845,-0.2870171989709139
1789665607579792000,1.1837919921875,0.1741302399814129,-0.11133403045907617,-0.3183510063242167
1789665607589745000,1.193744873046875,0.16600830832421778,-0.1548161754414439,-0.2363155510637909
1789665607599698000,1.203697998046875,0.152954765483737,-0.1374757490620017,-0.26473595518842336
1789665607609650000,1.21364990234375,0.03582826922833919,0.060232204253226514,-0.08033025877773761
1789665607619602700,1.223602783203125,-0.03883095817565918,0.3120630851611495,0.07455744752995669
1789665607629555700,1.2335556640625,-0.09610942718982696,0.3374903718844056,0.17010229963958262
1789665607639507700,1.2435078125,-0.1813660364538431,0.31778336250409484,0.1654852342981845
1789665607649460700,1.253460693359375,-0.17536825734376907,0.28161972384154793,-0.00392645272873342
1789665607659412700,1.263412841796875,-0.18494681755006312,0.17755013142749665,-0.10787585282921791
1789665607669365800,1.27336572265625,-0.20623685833811758,0.10179141834899783,-0.29363223319649695
1789665607679318800,1.28331884765625,-0.2317202591627836,0.06646759151145816,-0.5480586835555732
1789665607689270800,1.293270751953125,-0.22922435069382188,0.025122166296839714,-0.6569113455276936
1789665607699223800,1.303223876953125,-0.1506885741174221,0.030127573368698358,-0.7112924856651573
1789665607709176800,1.3131767578125,-0.060548284465074535,0.042090398363023994,-0.7568735026229173
1789665607719128800,1.32312890625,-0.0018926818788051604,0.0801641084305942,-0.6819955179017037
1789665607729081900,1.333081787109375,0.0706102442741394,0.15716858378648757,-0.7335826434064656
1789665607739035000,1.343034912109375,0.16015256803333758,0.12794935743436217,-0.8163402754615992
1789665607748986600,1.352986572265625,0.3625274902462959,0.03352905237525702,-0.8577396958857775
1789665607758939600,1.362939697265625,0.6292009893685578,-0.05665361511409282,-0.8527997552655637
1789665607768892000,1.372891845703125,0.7164058100908994,-0.09796060801446438,-0.8774416637647896
1789665607778845200,1.38284521484375,0.658910483455658,-0.08213277815505862,-0.9872604673553258
1789665607788798200,1.392798095703125,0.3858884920895099,-0.056699938473850485,-1.0846874799497426
1789665607798750200,1.402750244140625,0.07546937474310397,0.024577976417541503,-1.1617892782002688
1789665607808703200,1.412703125,-0.08625906430482864,0.09170198601111769,-1.1373274024430662
1789665607818656300,1.42265625,-0.15113982501626014,0.07451411984488368,-1.0323228672664613
1789665607828608300,1.432608154296875,-0.09188450297117233,0.14580986216515301,-1.016571828970313
1789665607838561000,1.44256103515625,-0.03137479695081711,0.20206439495906234,-0.9050902797993272
1789665607848513000,1.452512939453125,0.06705985831618308,0.2539946348130703,-0.8011137724962085
1789665607858466000,1.462466064453125,0.13377777132689952,0.33281448902785776,-0.727116808393225
1789665607868419000,1.472419189453125,0.17843641274273395,0.39237142436802386,-0.6119635119069368
1789665607878371300,1.482371337890625,0.19099837267398834,0.4237660950630903,-0.4881763887185603
1789665607888324400,1.492324462890625,0.18327625398933886,0.42382045559883114,-0.4754348344366997
1789665607898277400,1.50227734375,0.13764613719284532,0.4152855592265725,-0.4870309450104832
1789665607908229000,1.51222900390625,0.02903787843585014,0.386652023807913,-0.47925892276950177
1789665607918182100,1.52218212890625,-0.037493572092056275,0.3901303674429655,-0.4961475867934525
1789665607928135200,1.53213525390625,-0.03731237030625343,0.38695787488669153,-0.5198032607343047
1789665607938087200,1.542087158203125,-0.004012158250808716,0.3254657337002456,-0.4952767953082919
1789665607948040200,1.552040283203125,0.06998539037406444,0.2960055381990969,-0.4849596186291426
1789665607957992200,1.5619921875,0.17446341745853422,0.3443282550804317,-0.5250133965980261
1789665607967945200,1.5719453125,0.23011574657559394,0.3589448094539344,-0.41041912223398685
1789665607977898200,1.581898193359375,0.29683015245497224,0.3631047056123614,-0.2991463935080915
1789665607987850200,1.591850341796875,0.34688451543450355,0.3825060100443661,-0.288455853471905
1789665607997803300,1.60180322265625,0.36298750897347926,0.36466932458058,-0.2210612833086401
1789665608007756300,1.61175634765625,0.3491249878376722,0.3082806440129876,-0.12301292394548653
1789665608017708000,1.6217080078125,0.33925416668653485,0.2785425083532929,-0.00521985354013741
1789665608027661000,1.6316611328125,0.32965514821410175,0.2900723487578332,-0.0757179426766932
1789665608037613000,1.641613037109375,0.36915246134400365,0.345853272690624,-0.027120573572441933
1789665608047566000,1.651566162109375,0.3698550566554069,0.27165669436231255,0.1639353014424443
1789665608057519000,1.66151904296875,0.4603068964749574,0.35182109505385156,0.17079437355697155
1789665608067471400,1.671471435546875,0.5448854603469372,0.3578590600438416,0.20461985159553586
1789665608077424400,1.68142431640625,0.4869435589879751,0.332621889065206,0.45135735488720236
1789665608087377200,1.691377197265625,0.39953824725747106,0.32513387139737604,0.5538942578412592
1789665608097329200,1.7013291015625,0.35540216841101646,0.28370047563835976,0.5525528531696647
1789665608107282200,1.7112822265625,0.380901351326704,0.19952157860845326,0.7379973911087959
1789665608117235200,1.721235107421875,0.48764264716804023,0.1683800058916211,0.9472272207178175
1789665608127187200,1.731187255859375,0.40999592838585375,0.47771892678588623,0.6769676067370921
1789665608137140200,1.74114013671875,0.11481178957223892,0.43333647196292874,0.7268466131497174
1789665608147092200,1.75109228515625,-0.2926443912029266,0.3611915654674172,0.8298746606215834
1789665608157045200,1.761045166015625,-0.6004588790088892,0.35702275535017247,0.8792061892192811
1789665608166998300,1.770998291015625,-0.5755944868654013,0.3505266713291406,0.98567670529522
1789665608176950300,1.7809501953125,-0.3409919502645731,0.43572921231836076,1.0561060400445013
1789665608186903300,1.7909033203125,-0.12317746685743332,0.4473278801754117,1.115831536884606
1789665608196856300,1.800856201171875,0.03944529068171978,0.37269802499637006,1.1583372380502521
1789665608206808000,1.81080810546875,0.17158756976127623,0.2651677707344293,1.1452167674534022
1789665608216761000,1.820760986328125,0.25942016699314113,0.1635739207841456,0.9964256975203752
1789665608226713000,1.830713134765625,0.18531565086245536,-0.13295914842039347,1.1446670246161519
1789665608236666000,1.840666015625,-0.02370528523623943,-0.1865703270986676,1.137957443974912
1789665608246619100,1.850619140625,-0.25423954948484895,-0.15462664421871303,0.9038539429374038
1789665608256571100,1.860571044921875,-0.41630818027257915,-0.0695982907526195,0.7988752728544175
1789665608266524200,1.870524169921875,-0.3759831841468811,0.1226386838056147,0.6927173298589885
1789665608276477200,1.880477294921875,-0.3480021212875843,0.25343013279810545,0.5672500350313261
1789665608286429200,1.89042919921875,-0.2240910794585943,0.6472567244105041,0.3152882212201133
1789665608296382200,1.90038232421875,-0.11567395935952662,1.0760955926932394,0.24120829154141246
1789665608306335200,1.910335205078125,-0.21799743875861166,1.3204179976671933,0.514482431037724
1789665608316287200,1.920287353515625,-0.887153421896696,0.9699620534867047,0.5280382973771542
1789665608326240000,1.930239990234375,-1.1385831746578217,0.6592781477242707,0.223214150493592
1789665608336192300,1.940192138671875,-0.5714087256133557,1.0247428604662419,-0.2916054218103178
1789665608346145300,1.950145263671875,-0.13505728974342346,1.5375694871209562,-0.31112047054879366
1789665608356098000,1.96009814453125,-0.10898469085395336,1.6558292251899838,0.0025758783699944615
1789665608366050300,1.97005029296875,-0.3271773599237203,1.394616037300229,0.47943216044455766
1789665608376003300,1.98000341796875,-0.5006295545130968,1.1982613982900976,0.9657852061934769
1789665608385956400,1.989956298828125,-0.5396697715252637,1.1856440549097955,1.107945021418482
1789665608395908000,1.999908203125,-0.37085634265244005,1.0975865628808736,1.466057179440558
1789665608405861000,2.009861083984375,-0.6900619930446148,0.7983338594540953,2.5090382919088006
1789665608415813000,2.019813232421875,-1.1845412082344293,1.189395516397804,2.1328077088721096
1789665608425766100,2.02976611328125,-1.2096382400900125,2.135180575483292,-0.4251826107975095
1789665608435719200,2.03971923828125,-1.7515917386382818,1.2011870764784514,-1.0522035527132452
1789665608445671200,2.049671142578125,-1.3681810348391532,-0.4718592409722507,-0.25776808893717823
1789665608455624200,2.059624267578125,0.006082534784078598,-0.9676328798867762,-0.171037132804282
1789665608465577200,2.0695771484375,0.6939893956214189,-1.1372953268043695,-0.017109540233016012
1789665608475529200,2.079529296875,0.08288169682621956,-1.4050389393761753,0.06282141702882946
1789665608485482200,2.089482177734375,-1.4922347000092266,-0.8637152631640433,-0.47164048365503547
1789665608495435300,2.099435302734375,-2.3768425290763378,0.08252133908122777,-0.9896860870670526
1789665608505387000,2.109386962890625,-2.4429484476685523,0.38337095631062984,-0.514893130730465
1789665608515340000,2.119340087890625,-2.253044299972057,0.8105965441778302,-0.08585651138592511
1789665608525292000,2.1292919921875,-2.1392764664947985,1.255125149023533,-0.11619432997182011
1789665608535245000,2.1392451171875,-2.206354444989562,1.045287051323056,-0.04055372684765607
1789665608545198000,2.149197998046875,-2.2741385259270666,0.5702858590632677,0.08056224090270697
1789665608555150300,2.159150390625,-2.4044044897407293,0.2696925546824932,0.04361512371227145
1789665608565103000,2.16910302734375,-2.609337279742956,0.30685002668797967,-0.07699855707176029
1789665608575056100,2.17905615234375,-2.5816601682662963,0.5946922783061862,-0.2847113331813365
1789665608585008000,2.189008056640625,-2.2978706991702316,1.0960095228224993,-0.4965569713119417
1789665608594961200,2.198961181640625,-1.6254449005812406,1.610695659738779,-0.6676426559656858
1789665608604913200,2.2089130859375,-1.0340922880917787,1.7613997236862777,-0.6004755378827452
1789665608614866200,2.2188662109375,-0.9228466665685177,1.6292390321671961,-0.36185192907229063
1789665608624819200,2.228819091796875,-0.8596399765491485,1.5078095780208707,-0.2723258257955313
1789665608634771200,2.238771240234375,-0.5736059433966875,1.4794547134131193,-0.32625586116462946
1789665608644724200,2.24872412109375,-0.1542792920857668,1.5132576142936944,-0.28369097715765235
1789665608654677200,2.25867724609375,0.42540977061688895,1.6992475111559033,0.03284823050424456
1789665608664629200,2.268629150390625,1.212407120281458,1.6740353284880518,0.42038405140936375
1789665608674582300,2.278582275390625,1.8269319340437649,1.3811609279215336,0.5559010676190257
1789665608684535300,2.288535400390625,1.6800275546401737,1.3968664465755223,0.43863720871955153
1789665608694487000,2.298487060546875,2.0954221271991726,1.4539666364133357,0.5083877674244344
1789665608704440000,2.308440185546875,2.233340651592612,1.7348884411185979,0.3691542149096727
1789665608714392000,2.31839208984375,1.9276374568521975,1.6022890659213065,0.2394824175968766
1789665608724345000,2.328344970703125,1.8317817121624946,1.5324576970651744,0.1129619239218533
1789665608734298000,2.338298095703125,1.6115490616977215,1.6258528968602417,0.01907835608795285
1789665608744250000,2.34825,1.3559119203746317,1.6293702573314308,0.1159181433789432
1789665608754203100,2.358203125,1.4840753589510918,1.5338183178938924,0.2874436076894402
1789665608764156200,2.36815625,1.8902549439191818,1.3541674147948621,0.42382878503575916
1789665608774108200,2.378108154296875,2.2623189087957143,1.237834407004714,0.5325315902084112
1789665608784060700,2.388060791015625,2.5459564022004604,1.162065610923618,0.5491475017055869
1789665608794012700,2.3980126953125,2.5695009439170358,0.9336084452100097,0.4905573655709624
1789665608803965700,2.407965576171875,2.3431495183110234,0.7232967386484146,0.31500169589631255
1789665608813918500,2.41791845703125,1.8601503130346535,0.6415940224736929,0.1261246992904693
1789665608823870700,2.42787060546875,1.1466373017758131,0.6317176483646035,-0.01530446357242763
1789665608833823700,2.43782373046875,0.5740075099349021,0.5783347254842519,-0.1988845228139311
1789665608843776800,2.44777685546875,0.3477712351411581,0.445439874471724,-0.3998610494710505
1789665608853728800,2.457728759765625,0.3576034778475761,0.3564531387686729,-0.579233427889645
1789665608863681500,2.467681640625,0.679102792134881,0.13740122252106665,-0.5445830433342606
1789665608873633500,2.477633544921875,1.1886387066811321,-0.10403174462169408,-0.3663432491421699
1789665608883586600,2.487586669921875,1.7233412111878395,-0.2829559408813715,-0.46705870882272715
1789665608893539600,2.49753955078125,1.9289725048482418,-0.4952475692138076,-0.6103215899188071
1789665608903491800,2.507491943359375,1.7370763065516948,-0.6258911341682076,-0.5859789931597188
1789665608913444900,2.51744482421875,1.4513397950410842,-0.6977645302459597,-0.5056085850346833
1789665608923398000,2.52739794921875,1.125135664063692,-0.8102426161736249,-0.24568481590095906
1789665608933349600,2.537349609375,0.5189239206165075,-0.9771844059556722,0.27292254957966505
1789665608943302700,2.547302734375,-0.03057809361517429,-0.7393015325099229,-0.06852273394297809
1789665608953255700,2.557255615234375,-0.5034001882702112,-0.47079555726349354,-0.35632165787611153
1789665608963207700,2.567207763671875,-0.926486484375596,-0.5982517243534327,-0.2715211583491415
1789665608973160700,2.57716064453125,-1.374928755533695,-0.7037327910006046,-0.30461050413288177
1789665608983112400,2.587112548828125,-1.6434294700831173,-0.6378267788946628,-0.563237401856482
1789665608993065500,2.5970654296875,-1.66330555242002,-0.5283662872225046,-0.7618343399006873
1789665609003018500,2.6070185546875,-1.6705501167207955,-0.5163488094314933,-0.7305857266128063
1789665609012970800,2.616970703125,-1.7206839746773241,-0.40990532749295233,-0.6677545919075608
1789665609022923800,2.626923828125,-1.7046669058561323,-0.2105170198753476,-0.6803875712484121
1789665609032876800,2.636876708984375,-1.566118266865611,-0.04223316783457994,-0.6756207221727818
1789665609042828500,2.64682861328125,-1.2966793946832418,0.04674480004012584,-0.5687996025608852
1789665609052781600,2.656781494140625,-0.9140046039432287,0.1793015051394701,-0.6295556480251252
1789665609062733600,2.666733642578125,-0.42359716823697086,0.2157929144516587,-0.7743068679828197
1789665609072686600,2.6766865234375,0.0728454559803009,0.16678309208899736,-0.7889484837323427
1789665609082639600,2.6866396484375,0.49377720440030093,0.006261106221377849,-0.6778769036017358
1789665609092591900,2.696591796875,0.875980285975337,-0.10721797344237566,-0.7047349537804722
1789665609102545000,2.706544921875,1.345237966147065,-0.20274550909101963,-0.7587306017316877
1789665609112497700,2.71649755859375,1.7171709981203078,-0.36065994280874725,-0.7983408737167715
1789665609122449700,2.72644970703125,1.7085399478971957,-0.5871352870553732,-0.7342418379675597
1789665609132402700,2.736402587890625,1.3366840728133915,-0.6647270607799292,-0.6524725593626499
1789665609142355700,2.746355712890625,0.680900781467557,-0.5233157258346677,-0.7258969842746853
1789665609152307700,2.7563076171875,-0.10739069966077804,-0.3707131347894668,-0.7474614580899477
1789665609162260700,2.7662607421875,-0.7651286322057247,-0.31286271110624075,-0.7090493829134852
1789665609172212500,2.77621240234375,-1.1943132451862095,-0.32110973044782876,-0.8876018963165581
1789665609182165500,2.78616552734375,-1.4596651403158902,-0.5113239670068025,-1.1582578892037272
1789665609192118500,2.796118408203125,-1.725012943792343,-0.6313900238454342,-1.3373781925573944
1789665609202070800,2.80607080078125,-1.9261469260334967,-0.4393588009923696,-1.5351163948804138
1789665609212023800,2.81602392578125,-2.0460674369215965,-0.37283173437863587,-1.5925187825351952
1789665609221976800,2.825976806640625,-2.039270031866431,-0.35665246073305606,-1.5781890822790563
1789665609231928600,2.835928466796875,-1.9523539649575947,-0.3079556498423219,-1.433643102569878
1789665609241881600,2.845881591796875,-1.968200353386998,-0.2695347337722778,-1.2404802453383803
1789665609251833600,2.85583349609375,-1.9799860682487487,-0.20550942084640264,-1.1386020985540002
1789665609261786600,2.86578662109375,-1.876712740778923,-0.11801993796378374,-1.1896576744653284
1789665609271739600,2.87573974609375,-1.6294178958654402,-0.12611761196255683,-1.2326520359307527
1789665609281691600,2.885691650390625,-1.4111656055629254,-0.13326748371720312,-1.1963652092799544
1789665609291644700,2.895644775390625,-1.1029425369560717,-0.0817316500082612,-1.1503022540241479
1789665609301597700,2.90559765625,-0.7812123365223407,-0.06965045933127403,-1.0843829440452157
1789665609311549700,2.9155498046875,-0.5148211614727973,-0.08009294289052486,-1.0912990070439874
1789665609321502700,2.925502685546875,-0.25811376056969165,-0.12076631406247615,-1.0414062643669546
1789665609331454700,2.935454833984375,-0.030016368079185483,-0.18488807310014962,-1.056930435104668
1789665609341407700,2.94540771484375,0.13114508473575115,-0.22002660649865866,-1.318582452803105
1789665609351360500,2.955360595703125,0.27173779677450655,-0.25945202343612905,-1.582668419650197
1789665609361312500,2.9653125,0.36335049706697464,-0.2596215347841382,-1.804372603972256
1789665609371265500,2.975265625,0.39618952135145663,-0.198764915022254,-1.9473976577244698
1789665609381218600,2.985218505859375,0.5540256291359663,-0.029277824671566484,-1.866807432836294
1789665609391170800,2.9951708984375,0.9637053311794995,0.1451677648693323,-1.744391159609705
1789665609401123800,3.005123779296875,1.3673948528975248,0.22498247534036636,-1.456927532045543
1789665609411076900,3.015076904296875,1.9102578675061463,0.15581863048225641,-1.0890217097617685
1789665609421028600,3.025028564453125,2.274948088744283,-0.04053279365748167,-0.7725664540562778
1789665609430981600,3.034981689453125,2.448096331951022,-0.21494389640688896,-0.5131529359996319
1789665609440933600,3.04493359375,2.6197669038206337,-0.43472734179943795,-0.38205760868974026
1789665609450886700,3.05488671875,2.3716782781809567,-0.7311439450174569,-0.22529753263890742
1789665609460839700,3.064839599609375,1.8587901305973529,-0.8680486161932349,-0.11440335490182041
1789665609470791700,3.074791748046875,1.2458248212367296,-0.7298211719810962,0.11760478129163383
1789665609480744700,3.08474462890625,0.6416080509990454,-0.4107908781558275,0.47813959988337007
1789665609490697700,3.09469775390625,-0.09043079703152179,-0.11917173834741115,0.6839972861781716
1789665609500649700,3.104649658203125,-0.8273346207499503,-0.20552578745931385,0.6947914327193051
1789665609510602800,3.114602783203125,-0.6371861429035663,0.15547463935017586,0.6143888393577188
1789665609520554800,3.1245546875,-0.38716450337469577,0.46645606675446033,0.6201710760209709
1789665609530507500,3.134507568359375,-0.16144962210655212,0.6559434503436088,0.6447996135819702
1789665609540460500,3.14446044921875,0.101793902567029,0.6468944669693708,0.6774744602806866
1789665609550412500,3.15441259765625,0.060707858940958974,0.6605807547554373,0.7172969137117267
1789665609560365600,3.164365478515625,-0.2480944708585739,0.8316615440383553,0.791027993420139
1789665609570318600,3.174318603515625,-0.4258434858590364,1.0746166061818598,0.8965267418544739
1789665609580270800,3.184270751953125,-0.20466332541108131,1.3607351027473806,0.8547486973762511
1789665609590224000,3.194223876953125,0.4142337120860815,1.5176681242123244,0.5553997670333832
1789665609600175600,3.204175537109375,1.1927116552084684,1.3230962769657373,0.09281067790538072
1789665609610128600,3.214128662109375,1.755664102643728,0.8445508362278342,-0.1811006635159254
1789665609620081700,3.22408154296875,1.9302000008165836,0.3549704989954829,-0.0812381674028933
1789665609630033700,3.23403369140625,1.9311796595036983,0.09185615365952253,0.3289400587473065
1789665609639986700,3.243986572265625,1.8976310256451367,0.09751491007357835,0.8793445017114281
1789665609649939700,3.253939697265625,1.7800626308411358,0.21352643082439898,1.3240177757248281
1789665609659891700,3.2638916015625,1.5503332532346248,0.255670897462219,1.5612407239571213
1789665609669844700,3.2738447265625,1.151089020487666,0.2148934813939035,1.6594912548288703
1789665609679797800,3.2837978515625,0.5890946044296026,0.1538121129654348,1.5770267605014145
1789665609689749800,3.293749755859375,-0.0540881485402584,0.062370677586644885,1.3276583241842685
1789665609699702800,3.303702880859375,-0.6229986275970936,-0.024335838224738834,1.064196626715362
1789665609709654500,3.313654541015625,-1.1020505565524101,-0.05920359185785055,0.9446350853327661
1789665609719607600,3.323607666015625,-1.4154834687620401,-0.07047682715281843,0.988414605826512
1789665609729560600,3.333560546875,-1.5419482867270706,-0.052689972180128095,1.170799536999315
1789665609739512600,3.3435126953125,-1.5218781431227921,-0.014478314946591853,1.4615285961002111
1789665609749465600,3.353465576171875,-1.425142692989111,0.06097030926942825,1.7843153198495507
1789665609759417900,3.36341796875,-1.2467653169572352,0.14422989949733017,2.0804137970291077
1789665609769370600,3.37337060546875,-1.0022218165785073,0.16760083821266888,2.267485790039599
1789665609779324000,3.383323974609375,-0.7570651527374982,0.08528788118511438,2.4590499799028036
1789665609789276000,3.39327587890625,-0.5469938308030367,0.04930763626545667,2.447203474764526
1789665609799229000,3.40322900390625,-0.43111528878211974,-0.05605272661149501,2.2577862338021397
1789665609809182000,3.413181884765625,-0.2679974412024021,-0.2560591661274433,1.937487527476251
1789665609819134000,3.423134033203125,-0.05971650981605053,-0.555124530288577,1.5355086090683936
1789665609829087000,3.4330869140625,0.026954642421007154,-0.8129401846945286,1.0180679127469658
1789665609839039700,3.443039794921875,-0.18887948082387446,-0.9414274483978747,0.6872266234882175
1789665609848991700,3.45299169921875,-0.7669517559796571,-0.7251315528601407,0.6568051817394792
1789665609858944800,3.46294482421875,-1.4074877938330173,-0.24259543505087494,0.5852830833174288
1789665609868897000,3.47289697265625,-1.8434364941209553,0.15734189452677963,0.5436928164962679
1789665609878850000,3.48285009765625,-2.032141787421703,0.33336788512691856,0.5157751011967658
1789665609888803000,3.492802978515625,-2.0695389134019613,0.39045506935268637,0.4173853810500353
1789665609898754800,3.5027548828125,-2.055360750445723,0.4479964270867407,0.28751645372994244
1789665609908707800,3.512707763671875,-1.9963316383719443,0.61772258689031,0.2311552456911653
1789665609918660900,3.522660888671875,-1.77992409915328,0.8611667477250099,0.2605559295574203
1789665609928612900,3.53261279296875,-1.443678466632962,1.049719334682077,0.27731212630812074
1789665609938566000,3.54256591796875,-1.1691788039296864,1.081674269608408,0.15083938076496123
1789665609948518100,3.55251806640625,-0.989503204780817,1.1166444607026875,0.037652379382960496
1789665609958471000,3.562470947265625,-0.9624240591973066,1.2346620605789125,-0.06199778915364295
1789665609968424000,3.572423828125,-1.040621397599578,1.3265849958643317,-0.1025028180213645
1789665609978376000,3.5823759765625,-0.9717588737756013,1.377229287561029,-0.128825774942711
1789665609988329000,3.592328857421875,-0.7416179927587508,1.347095576712489,-0.22880484664011747
1789665609998282000,3.602281982421875,-0.5281675497800111,1.2599923166684805,-0.46908170255031434
1789665610008234000,3.61223388671875,-0.333623467323184,1.199979454254359,-0.7339771226167678
1789665610018186800,3.622186767578125,-0.23690087667107582,1.1654957315027714,-0.9327477367274463
1789665610028138800,3.632138671875,-0.18875380861759183,1.1843091530442238,-0.9995845268774777
1789665610038091800,3.642091796875,-0.15114274762570856,1.2693731623455882,-0.9278597454901784
1789665610048044800,3.652044921875,-0.29732231988608837,1.3735279488250614,-0.8206811542101204
1789665610057997000,3.6619970703125,-0.5209668246209621,1.480715088737756,-0.7586275797486305
1789665610067950000,3.6719501953125,-0.600287614095211,1.5418400040470064,-0.7960317930568009
1789665610077903000,3.681903076171875,-0.47022974007427687,1.4565411630764602,-0.8498475543964654
1789665610087854800,3.691854736328125,-0.14553601365983485,1.3515413040749729,-0.9430288922451436
1789665610097808000,3.701807861328125,0.2778828754007816,1.2593681934207677,-1.008830421063304
1789665610107761000,3.711760986328125,0.6773176622837781,1.140313359451294,-0.8894353953540325
1789665610117713000,3.721712890625,1.1347551408022643,1.086726584561914,-0.5271064233545214
1789665610127666000,3.731666015625,1.4510533793151377,1.1001521755851804,-0.14195947034731507
1789665610137618000,3.741617919921875,1.826506402108073,0.9216182938173413,0.17291743012554942
1789665610147571000,3.751571044921875,2.365080779612064,0.5735536286875605,0.6176281866051256
1789665610157524000,3.76152392578125,2.8215263244837523,0.2439377895705402,0.9936894044242799
1789665610167476000,3.77147607421875,3.0084862354218957,0.17924612169042228,1.19730146721676
1789665610177429000,3.781428955078125,2.905774048966169,0.4128609624281525,1.2008106443814932
1789665610187382000,3.791382080078125,2.703905907231569,0.7634734123446046,1.0555012790843843
1789665610197333800,3.801333740234375,2.3754162956655023,1.0769326280392706,0.9317545609716326
1789665610207286800,3.811286865234375,2.036851280286908,1.2110842011146246,1.0810257425718008
1789665610217238800,3.82123876953125,1.8545494242876768,1.3130818095602095,0.8291343636482954
1789665610227191800,3.83119189453125,1.4938018031954765,1.4810099800311027,0.7622733889050781
1789665610237144800,3.841144775390625,1.0802198330163955,1.5047686028897762,0.8832122830554843
1789665610247097000,3.85109716796875,1.0442319893121719,1.5592710313193499,0.9566456219263374
1789665610257050000,3.861050048828125,1.3727689471513032,1.563393225815892,0.7793673662427812
1789665610267003000,3.8710029296875,1.7295014873832464,1.3344690271124242,0.5121760172588751
1789665610276955000,3.880954833984375,1.8528718464642762,0.9197525730106979,0.2690497267343104
1789665610286908000,3.890907958984375,1.5200819073557852,0.42820341992340977,0.23024898103382438
1789665610296860000,3.90085986328125,0.899106310018897,0.05052293033935129,0.21377876161765305
1789665610306813000,3.91081298828125,0.22654197974205015,-0.18853256708234548,0.1604501444741152
1789665610316766000,3.920765869140625,-0.47999125563204287,-0.18786453162766992,0.07486132584735751
1789665610326718000,3.930718017578125,-1.147851353740692,0.05820756655782461,-0.13027699666433035
1789665610336671000,3.9406708984375,-1.6182529432505368,0.47557475436404345,-0.468739866842702
1789665610346624000,3.9506240234375,-1.9300363346874714,0.8944011280026286,-0.6819733060698956
1789665610356576000,3.960575927734375,-2.2881430858820675,1.0945508484467863,-0.8589881615769117
1789665610366529000,3.970529052734375,-2.355440844607353,1.0319662358485162,-1.1920548718001693
1789665610376480800,3.980480712890625,-2.235569433557987,0.7945642777875065,-1.5783018950037657
1789665610386433800,3.990433837890625,-2.0289058742403983,0.5512744307316839,-1.866699296286702
1789665610396386800,4.00038671875,-1.5864496917545794,0.5752136708542704,-1.9867508862085639
1789665610406338800,4.0103388671875,-0.9634130702346563,0.7143266657292843,-1.9974615191847085
1789665610416291800,4.020291748046875,-0.26944530192315574,0.8691125921629369,-1.972618462090194
1789665610426244900,4.030244873046875,0.5209165557384491,0.9089251087218523,-1.8936491164021192
1789665610436196900,4.04019677734375,1.3279542383909224,0.9350532371908425,-1.8005378481149672
1789665610446150000,4.05014990234375,2.1268834333896636,1.0215674453005195,-1.9499109557196497
1789665610456103000,4.06010302734375,2.787799995970726,0.8816634461782872,-2.054181185272336
1789665610466055000,4.070054931640625,3.0946424238741397,0.4674741577558219,-2.135644978124648
1789665610476008000,4.080008056640625,3.0731361099869012,-0.025703911707550285,-2.1467855269506573
1789665610485960000,4.0899599609375,2.8628432542562483,-0.37444472253322597,-2.0440615039266645
1789665610495913000,4.099912841796875,2.5112352174311874,-0.5253087993480264,-1.9026042840130626
1789665610505865700,4.10986572265625,2.014388104066253,-0.5289563620701432,-1.7240524281971155
1789665610515818000,4.11981787109375,1.3845593381881713,-0.48159313787072894,-1.4557193252995608
1789665610525771000,4.12977099609375,0.7122656415462494,-0.5165533920928835,-1.206186930592358
1789665610535724000,4.13972412109375,0.060845221585035324,-0.5538213387355208,-1.0415313520513474
1789665610545676000,4.149676025390625,-0.4056973544090986,-0.6410784741669893,-0.9972019425898789
1789665610555629000,4.159629150390625,-0.6442348923712968,-0.7001353510305285,-0.9349301222678273
1789665610565580800,4.169580810546875,-0.7015688909649849,-0.8284744384348393,-0.8084149623550474
1789665610575533800,4.179533935546875,-0.7402864518940449,-1.0493424641937017,-0.6121276164274663
1789665610585486800,4.18948681640625,-0.8994891718566417,-1.2594316140457986,-0.47395986651331184
1789665610595438800,4.19943896484375,-1.0557511621922253,-1.4767697121128438,-0.39743049785587936
1789665610605392000,4.209391845703125,-1.2968179263710975,-1.6372081113502381,-0.4505129399523139
1789665610615345000,4.219344970703125,-1.6678402732402084,-1.7233207529217003,-0.4211242387847975
1789665610625297000,4.229296875,-2.0826327882528304,-1.7231038953006266,-0.27052615596242247
1789665610635250000,4.23925,-2.415671733686328,-1.6462041954934596,-0.01167961500561796
1789665610645202000,4.249201904296875,-2.613679108339548,-1.692457412624359,0.24516495674531905
1789665610655155000,4.259155029296875,-2.597147075733542,-1.8488436138615012,0.40811223353110254
1789665610665108000,4.26910791015625,-2.352300793015957,-1.9333818457230925,0.5426386678008362
1789665610675060000,4.27906005859375,-2.1096470519065855,-1.9552251364797353,0.7006886740643531
1789665610685012700,4.2890126953125,-1.868618281650543,-1.9629419944673776,0.7762040799062698
1789665610694965800,4.2989658203125,-1.5341577789813279,-2.040766115643084,0.8081734817493706
1789665610704918000,4.30891796875,-1.2215648247271775,-2.1918027725458145,0.8339427868433296
1789665610714871000,4.31887109375,-0.942551483991742,-2.3436033995583654,0.8417956923007964
1789665610724823000,4.328822998046875,-0.6426321333497762,-2.430328620070219,0.96550419729501
1789665610734776000,4.338776123046875,-0.360026321080327,-2.4249787834748626,1.0886821025438607
1789665610744728800,4.348728759765625,-0.08021686153113841,-2.3307813273862004,1.275260320688039
1789665610754680800,4.358680908203125,0.12678513596057892,-2.107064926458895,1.4625360195770858
1789665610764633900,4.3686337890625,0.21385785473585128,-1.8790894067823887,1.5762345872104166
1789665610774587000,4.3785869140625,0.1653244177132845,-1.6501491337269543,1.648650419601798
1789665610784539000,4.388538818359375,0.16398060188889502,-1.3494213893115519,1.7247421640269458
1789665610794492000,4.398491943359375,0.2141273193269968,-1.0180594371795653,1.7405659022331237
1789665610804444200,4.408444091796875,0.21802783389687536,-0.6623223377257585,1.6750753390602766
1789665610814397200,4.418397216796875,0.10541209306418894,-0.32989158731848,1.5202867822781205
1789665610824350200,4.42835009765625,0.046154432931542394,-0.17431494889855384,1.2149923875343054
1789665610834302200,4.43830224609375,0.18337620723247527,-0.06714724433869124,0.8673502586655318
1789665610844255000,4.4482548828125,0.5424047494471073,0.012926993851363658,0.5526334441252052
1789665610854208000,4.4582080078125,1.102854274150729,0.05408960984498262,0.2617607387699187
1789665610864160000,4.468159912109375,1.866645520272851,0.012865472922474145,-0.04068447708785534
1789665610874113000,4.478113037109375,2.691425195842981,-0.1378214937597513,-0.3787121341867372
1789665610884065000,4.48806494140625,3.333229646196961,-0.3157058255776763,-0.8049176217585802
1789665610894018000,4.49801806640625,3.577409573960304,-0.4706774838417768,-1.1404106823459268
1789665610903971000,4.50797119140625,3.2912592209517952,-0.5708413009889424,-1.2546022941932082
1789665610913923000,4.517923095703125,2.6767542809337375,-0.4396199361465871,-1.404324215235561
1789665610923876000,4.5278759765625,1.8427327297657727,-0.14350202361419795,-1.3390912800855934
1789665610933829000,4.5378291015625,0.9724836809188127,0.11176453083083034,-1.0847502429876477
1789665610943781000,4.547781005859375,0.1995657100111246,0.3344086263515055,-0.7793689006127417
1789665610953734100,4.557734130859375,-0.40589609185159203,0.5274272528067231,-0.49833603674843907
1789665610963686000,4.567685791015625,-0.7908212918668985,0.6385562622129917,-0.25512528281081465
1789665610973639000,4.577638916015625,-0.9715186352789401,0.68770227817595,-0.03939261064641177
1789665610983592000,4.587592041015625,-0.8836854535251856,0.756956577796489,0.19501434858338906
1789665610993544200,4.597544189453125,-0.673466832074523,0.8176054000265895,0.44180619414448735
1789665611003497200,4.607497314453125,-0.35413317138850686,0.7749070988982916,0.6163989370711147
1789665611013450200,4.6174501953125,-0.03998655795156956,0.7373607737056911,0.8192237950086593
1789665611023402000,4.627402099609375,0.09843056361377239,0.7328699650924653,1.0195849662464112
1789665611033355000,4.63735498046875,0.13408172270953655,0.6942878671113402,1.1354871083386242
1789665611043307000,4.64730712890625,0.13160218085348604,0.6358100322447717,1.1202687886796892
1789665611053260000,4.657260009765625,-0.02385433831810951,0.5580087804879993,1.0686972991354764
1789665611063213000,4.667213134765625,-0.306095993450284,0.5041825708195566,1.053037007862702
1789665611073165000,4.6771650390625,-0.606000146523118,0.515923131365329,1.0972438869230448
1789665611083118000,4.6871181640625,-0.9496838200896978,0.5950296935670077,1.1406500440597533
1789665611093071000,4.697071044921875,-1.229080022662878,0.6625899026207626,1.1659208250470459
1789665611103023000,4.707023193359375,-1.3805471799373625,0.630582799115777,1.1333107872128485
1789665611112976100,4.71697607421875,-1.4036913241595028,0.5707238120891154,1.0267409754808992
1789665611122928000,4.72692822265625,-1.366424546560645,0.5454876640237868,0.9601667087245732
1789665611132881200,4.736881103515625,-1.283137191542983,0.5860344862066209,0.9985184320159256
1789665611142834200,4.746834228515625,-1.2234949160069226,0.6905475846044719,1.169954610607773
1789665611152786000,4.756785888671875,-1.2114683781266211,0.848000538290292,1.4432342299968004
1789665611162739000,4.766739013671875,-1.2411281878530978,0.9779358088448643,1.6656933243393897
1789665611172692000,4.77669189453125,-1.2896949426233768,1.0881247609220444,1.6800021279379724
1789665611182644200,4.786644287109375,-1.3207120121777056,1.2129632928594947,1.6093959753170608
1789665611192597200,4.79659716796875,-1.314476917180419,1.2305991950541735,1.515683087874949
1789665611202549000,4.806549072265625,-1.2013175709903239,1.2242965877786278,1.4091615722641349
1789665611212502000,4.816501953125,-1.0021259549885988,1.2669606943763791,1.3153500467531383
1789665611222455000,4.826455078125,-0.726173755389452,1.3455508314885198,1.2041079323612154
1789665611232407000,4.836406982421875,-0.373085124617815,1.444930950912088,1.043825892729312
1789665611242360000,4.846360107421875,-0.07760989390313625,1.483922652607411,0.8458763126779347
1789665611252313000,4.85631298828125,0.09416238477528095,1.4842545149102806,0.5500748456835747
1789665611262265000,4.86626513671875,0.10531097077727317,1.449172972396016,0.20086473684571682
1789665611272218000,4.876218017578125,0.06863222219944,1.4192448671221731,-0.14761267380341886
1789665611282170000,4.886170166015625,0.20415128423571585,1.4876447418704628,-0.387208269451186
1789665611292123100,4.896123046875,0.493113187533617,1.4961561112366615,-0.3993023926749825
1789665611302076200,4.906076171875,0.7988836022913456,1.4443990359924732,-0.4900898211244493
1789665611312028200,4.916028076171875,0.9662140991300344,1.3056741636522113,-0.6299358064491302
1789665611321981200,4.925981201171875,1.01047877279222,0.9733763919748365,-0.7123443328056484
1789665611331934000,4.935933837890625,1.0411568196505308,0.5384598112136125,-0.6600790157783776
1789665611341886000,4.945885986328125,1.1377426321804522,0.24625498047173022,-0.7012553680364042
1789665611351839000,4.9558388671875,1.136165592122078,0.09591171266064047,-0.8293694145131856
1789665611361791200,4.965791259765625,1.0835288114339112,-0.07462050282880664,-0.932100963256508
1789665611371744300,4.975744140625,1.0025497333586215,-0.11558642720654606,-1.1775286991238594
1789665611381697300,4.985697265625,0.8593839559614658,0.010610387472063302,-1.3330078685186804
1789665611391649000,4.99564892578125,0.6513479392468929,0.29751331241354345,-1.2410964775405824
1789665611401602000,5.00560205078125,0.507981086319685,0.6677376407727599,-1.0999969850234688
1789665611411555000,5.01555517578125,0.4477046045333147,0.9918988677456975,-1.135120028591901
1789665611421507000,5.025507080078125,0.5101970088034868,1.2761398800015449,-1.2475785330362616
1789665611431460000,5.035460205078125,0.8227244966059922,1.4333392973177135,-1.404973326794058
1789665611441412000,5.045412109375,1.569391004925966,1.3292716045998036,-1.5677943833842873
1789665611451365000,5.055365234375,2.5868460464715954,0.9376971758283674,-1.8387623648300766
1789665611461318100,5.065318115234375,3.5939994742333887,0.4005664212614298,-2.1995421346262094
1789665611471270100,5.075270263671875,4.424004775497317,-0.1175005902647972,-2.450826925958693
1789665611481223200,5.08522314453125,4.802601357012987,-0.522121547614038,-2.477537238229811
1789665611491175200,5.095175048828125,4.685905653390288,-0.707380938244611,-2.3359692514181134
1789665611501128200,5.105128173828125,4.1437972565412515,-0.6687756055183708,-2.1339257531166074
1789665611511081000,5.1150810546875,3.271715147048235,-0.5037430103585123,-1.9447855755299328
1789665611521033000,5.125032958984375,2.197426457646489,-0.3340286871232092,-1.8135704942978919
1789665611530986000,5.134986083984375,1.0203513475090265,-0.2190913714751601,-1.7574499631471932
1789665611540939000,5.14493896484375,0.013283259943127632,-0.16044818997904658,-1.7396986178793012
1789665611550891300,5.154891357421875,-0.6851894185721874,-0.10065583844780922,-1.7248137679584323
1789665611560844300,5.16484423828125,-1.0350357064217328,-0.02759790876060724,-1.73439495851323
1789665611570796000,5.174796142578125,-1.1235849274903535,0.006864771202951669,-1.6540199838109313
1789665611580749000,5.1847490234375,-1.0613099653631448,0.02817410121336579,-1.5143420485295354
1789665611590702000,5.1947021484375,-1.0261135642975567,0.040359629047662014,-1.3765893822222948
1789665611600654000,5.204654052734375,-0.9975380426764487,0.06057122694924474,-1.2439265863999724
1789665611610607000,5.214607177734375,-1.0306360101580618,0.1295771047666669,-1.0658432979438452
1789665611620560100,5.22456005859375,-1.1171931806266306,0.20256226147860287,-0.9149524061873555
1789665611630511900,5.234511962890625,-1.1845482224971056,0.2534622815020382,-0.8227624174635857
1789665611640465000,5.24446484375,-1.1255711328715086,0.3108240448854864,-0.7040543511051685
1789665611650417200,5.254417236328125,-1.1129372767478227,0.3386947792381048,-0.6191969702918082
1789665611660370200,5.2643701171875,-1.0950631818830967,0.25927988173961636,-0.6788330352827906
1789665611670323200,5.2743232421875,-0.9639537529826163,0.07962795572727918,-0.8357591155502945
1789665611680275200,5.284275146484375,-0.7254302435457706,-0.13027093224972486,-1.0024059409737587
1789665611690228000,5.29422802734375,-0.5040343945205211,-0.40721126610338687,-1.1199299121141433
1789665611700181000,5.304180908203125,-0.2864244937747717,-0.7170859013095497,-1.169831568749994
1789665611710133000,5.314133056640625,-0.15480828439593314,-0.9629010290592909,-1.1384008768934757
1789665611720086000,5.3240859375,-0.07981821760237216,-1.1292670647799967,-1.0167829875029624
1789665611730038300,5.334038330078125,-0.11287234594225883,-1.2826526228964328,-0.7496610139608383
1789665611739991300,5.3439912109375,-0.2397936755031347,-1.4582172795951365,-0.43977804931774733
1789665611749944000,5.353944091796875,-0.5083002352714538,-1.5731912739917635,-0.2134542789036408
1789665611759896000,5.36389599609375,-0.9668997433066367,-1.6618644137009977,-0.14374995222697035
1789665611769849000,5.37384912109375,-1.4372417115837335,-1.719774166356027,-0.20411475161761045
1789665611779801600,5.383801513671875,-1.7954741349846124,-1.7197344188675283,-0.22529959673183036
1789665611789754600,5.393754638671875,-2.079871506845951,-1.6859212888538837,-0.19438545782901345
1789665611799707600,5.403707763671875,-2.0427748251169917,-1.6925760705679653,-0.12443694713292643
1789665611809659400,5.413659423828125,-1.6585551430225371,-1.6618427863910794,-0.009437991824978962
1789665611819612400,5.4236123046875,-1.148873682525754,-1.567531933055818,0.15639504213072358
1789665611829565400,5.4335654296875,-0.756043408474326,-1.5355843046531081,0.21632526776269076
1789665611839517700,5.443517578125,-0.6648176616728305,-1.5186767167329787,0.2201897246384993
1789665611849470700,5.453470703125,-0.6871499049901962,-1.5094310417428611,0.19875010104561222
1789665611859422500,5.46342236328125,-0.6827326730698347,-1.5147259332805871,0.2138654169877991
1789665611869375500,5.47337548828125,-0.5762029741525649,-1.504358560784161,0.24116494559003038
1789665611879328500,5.48332861328125,-0.39848961498737334,-1.4980676439464091,0.31463830594401804
1789665611889280500,5.493280517578125,-0.28625030625164505,-1.4682286782607434,0.42644243813287463
1789665611899233500,5.503233642578125,-0.14406535658538341,-1.4521452662050722,0.5035581918435171
1789665611909186600,5.5131865234375,0.14140636650919913,-1.4152961294963955,0.5530258409762755
1789665611919138300,5.52313818359375,0.5720090295940637,-1.4135057389482855,0.5522889050038531
1789665611929091300,5.53309130859375,0.9212006529271602,-1.439656079249084,0.4684826406786218
1789665611939043600,5.543043701171875,1.0833832654833793,-1.4562719907462596,0.31193306557331235
1789665611948996600,5.55299658203125,1.082410036537051,-1.5120748342499135,0.1410962411141023
1789665611958949600,5.56294970703125,0.947078021505475,-1.566909124982357,0.09601225042566656
1789665611968901600,5.572901611328125,0.7233142743051052,-1.4522066410034895,0.1179940728701651
1789665611978854700,5.582854736328125,0.47707624496817586,-1.1371399901121855,0.09037932257261126
1789665611988807400,5.592807373046875,0.25595219862163066,-0.8984346943676471,0.16517920055631546
1789665611998759400,5.602759521484375,0.0647673634648323,-0.7910863725438714,0.2514462289718911
1789665612008712400,5.61271240234375,0.054446460458636284,-0.8166574516519903,0.4474577536327764
1789665612018664700,5.622664794921875,0.291491129514575,-0.8327540154501796,0.749061002241075
1789665612028617700,5.63261767578125,0.6860095027834177,-0.7205185061067342,1.09684502379857
1789665612038570800,5.64257080078125,1.2998393200188874,-0.6040887599438428,1.3694000552400947
1789665612048522500,5.6525224609375,2.0186200425475835,-0.5528025170817971,1.4942729278385638
1789665612058475500,5.6624755859375,2.5508716467708346,-0.6795791774749755,1.5318477484732866
1789665612068428500,5.672428466796875,2.6418016254961487,-0.9217290607154369,1.383505299090594
1789665612078380500,5.682380615234375,2.3742396531015633,-1.0966846456050872,1.1440707392234355
1789665612088333600,5.69233349609375,1.8916916987240313,-1.2105927643358707,0.8543706578440964
1789665612098285300,5.702285400390625,1.3121475974500179,-1.1857761568568645,0.6446507066305727
1789665612108238300,5.71223828125,0.6360124229490757,-1.0305575380943715,0.6569209170736372
1789665612118191400,5.72219140625,-0.08808511068820953,-0.7933702456973493,0.7633557773143053
1789665612128143600,5.7321435546875,-0.6011947920680045,-0.4874810268655419,0.8877157319545745
1789665612138096600,5.7420966796875,-0.8060194455206394,-0.1947624013826251,1.0415463304247707
1789665612148048600,5.752048583984375,-0.7625491371065378,0.06778875711262226,1.2731236009202898
1789665612158001700,5.762001708984375,-0.7753378915309905,0.3531371460884809,1.5508229364477097
1789665612167954400,5.771954345703125,-0.8385071721494197,0.5035211843013763,1.7619364609114825
1789665612177906400,5.781906494140625,-0.8912386453837156,0.5600900437414645,1.7132454952396452
1789665612187859500,5.791859375,-0.8601181154549121,0.5653732448413967,1.5417117014922201
1789665612197812500,5.8018125,-0.8089321180969476,0.5353102611415088,1.382795835646987
1789665612207764700,5.8117646484375,-0.7687620202720165,0.5298002655483782,1.2199725870996714
1789665612217717800,5.8217177734375,-0.8312175996631384,0.594119008462876,1.131853281880915
1789665612227669500,5.83166943359375,-0.9914134223163127,0.7803292700774968,1.1561761144936085
1789665612237622500,5.84162255859375,-1.2255331438362598,1.0500775004699825,1.176122193326801
1789665612247575600,5.851575439453125,-1.4411656070291996,1.1673416516304016,0.8203051605045795
1789665612257527600,5.861527587890625,-1.6426865427613258,1.004747827924788,0.4462298558056354
1789665612267480600,5.87148046875,-1.659901881456375,1.2053723993390797,1.0903702017612755
1789665612277433600,5.88143359375,-1.707422342044115,1.4818648432947694,1.1981192864056676
1789665612287385300,5.89138525390625,-1.824826486197114,1.6720441546708344,0.9082903910148888
1789665612297338400,5.90133837890625,-1.624375225523114,1.8366586705490946,0.800775699648261
1789665612307290600,5.91129052734375,-1.474233179372549,1.7019092777110636,0.5430909781455994
1789665612317243600,5.92124365234375,-1.3950509215861557,1.4809749087177215,0.16950108234342187
1789665612327196700,5.93119677734375,-1.2591770547628403,1.3992093564398587,0.029504984490945935
1789665612337148400,5.9411484375,-1.1054951440483332,1.4527671974956988,0.05242166749960742
1789665612347101400,5.951101318359375,-0.7551134341478347,1.5240284530244768,0.22629306474858893
1789665612357054500,5.961054443359375,-0.2676280233681202,1.5463576276019215,0.31024270133357496
1789665612367006500,5.97100634765625,0.14297814587056637,1.4860032582737503,0.1869847531184554
1789665612376959500,5.98095947265625,0.4814174890428781,1.2865540142491458,-0.0627211349921301
1789665612386911700,5.990911865234375,0.7698556607276201,1.0144282410703598,-0.37535851290989664
1789665612396864800,6.00086474609375,0.9630874915421008,0.8230996135286986,-0.7152087092608213
1789665612406817500,6.010817626953125,0.9833739082455635,0.7375375915773212,-0.9940347107306122
1789665612416769500,6.02076953125,0.8071084098011255,0.6915434637740254,-1.1564013015516101
1789665612426722600,6.03072265625,0.5217535910844803,0.7141008941493928,-1.2473138907507062
1789665612436674600,6.040674560546875,0.2957201453864574,0.8418331017017364,-1.2955733331374824
1789665612446627600,6.050627685546875,0.08804010250270367,1.0025934263698757,-1.27158908482939
1789665612456580600,6.06058056640625,0.0475005868434906,1.1630362095214426,-1.1555639008793979
1789665612466532400,6.070532470703125,0.2228267586112022,1.2427723017983139,-1.1211062624171375
1789665612476485400,6.0804853515625,0.47499008634388445,1.1916121695339679,-1.1549644736815243
1789665612486438400,6.0904384765625,0.8597685713648796,1.0116853721030057,-1.2576216420143842
1789665612496390700,6.100390625,1.3084604333698748,0.861895646521449,-1.3478218451604247
1789665612506343700,6.11034375,1.7055910349637269,0.8104749636247753,-1.4909274168029427
1789665612516295400,6.12029541015625,1.9634996283501385,0.7718580865912139,-1.6577151850670575
1789665612526248400,6.13024853515625,2.0316934591323137,0.7616635864436626,-1.6889543729394674
1789665612536201500,6.140201416015625,2.0282132158011197,0.8878617162965238,-1.6757878712438046
1789665612546153500,6.150153564453125,2.1284575508385895,1.1060958864204584,-1.726417988284677
1789665612556106500,6.1601064453125,2.3415958591282364,1.2434924327664076,-1.7867320256024597
1789665612566059500,6.1700595703125,2.530140408909321,1.3423092192187904,-1.8351112949766217
1789665612576011800,6.18001171875,2.648026199099421,1.3786863545015453,-1.8337370840139686
1789665612585964500,6.189964599609375,2.73085295086801,1.311280166965723,-1.7831914303861558
1789665612595916500,6.19991650390625,2.885455483558774,1.1355465834408998,-1.6854406657300889
1789665612605869600,6.20986962890625,3.3220869054138658,0.8768162984080612,-1.4614863643936813
1789665612615822600,6.219822509765625,3.964010598233342,0.5333977055184543,-1.1671308584239333
1789665612625774600,6.229774658203125,4.442920488369465,0.15559680442512033,-0.9230478151638061
1789665612635727600,6.2397275390625,4.504145064660906,-0.23904241874441504,-0.8569019298873841
1789665612645680400,6.249680419921875,4.024821917548776,-0.5761823697559535,-0.9984038657255471
1789665612655632400,6.25963232421875,3.147688369885087,-0.8251239589631557,-1.0572348248787224
1789665612665585400,6.26958544921875,2.0648457871496677,-0.9488764492295682,-1.0431639947544782
1789665612675537700,6.27953759765625,0.791549606141448,-0.9624453942462802,-0.9174350167833268
1789665612685490700,6.28949072265625,-0.49547290240228176,-0.8651618087105453,-0.70595134383291
1789665612695443700,6.299443603515625,-1.4725298825860023,-0.5480332568533718,-0.3946235506763682
1789665612705395500,6.3093955078125,-1.862135933893919,-0.24630934100747107,-0.153576514111273
1789665612715348500,6.319348388671875,-1.7152555198878048,-0.16517317267432807,-0.005419431232847273
1789665612725300500,6.329300537109375,-1.333286831590533,-0.21164660842716693,0.06651453592572361
1789665612735253500,6.33925341796875,-0.8607669347524642,-0.35096374757215376,0.05895027468390762
1789665612745206500,6.34920654296875,-0.4739776944309473,-0.5113619609296322,0.0353854573642835
1789665612755158800,6.35915869140625,-0.2548515439033508,-0.6820058201000094,-0.044104332001321016
1789665612765111600,6.369111572265625,-0.13210019350349902,-0.8461582714244723,-0.15578523966930805
1789665612775064600,6.379064697265625,-0.17826631687283515,-0.957725379987061,-0.2707571882393211
1789665612785016800,6.389016845703125,-0.3375233973711729,-1.0307131670475005,-0.32752624642662703
1789665612794969600,6.398969482421875,-0.5906424183934926,-1.0139984713509678,-0.36225963309034703
1789665612804921600,6.408921630859375,-0.8297562949389219,-0.9769760239019989,-0.43806328128911554
1789665612814874600,6.41887451171875,-1.0174754998117685,-0.9724307816877961,-0.5833896707862615
1789665612824827600,6.42882763671875,-1.1673141791015862,-0.9367518578022718,-0.7013848396349698
1789665612834779600,6.438779541015625,-1.2707377286970614,-0.8566156602919102,-0.8775519192062318
1789665612844732700,6.448732666015625,-1.2615601505070924,-0.681786332130432,-1.0398421568553895
1789665612854685700,6.458685791015625,-1.1220201623916626,-0.38831308888792987,-1.1301586067922413
1789665612864637700,6.4686376953125,-0.9463830249786377,-0.053045946010947226,-1.0997043587524442
1789665612874590700,6.4785908203125,-0.684032065230608,0.15438567506968975,-0.9861329246301204
1789665612884542700,6.488542724609375,-0.24525135638713835,0.21953590037226675,-0.9312224268563091
1789665612894495700,6.498495849609375,0.12345920640826225,0.22598756072968243,-1.0108223255328834
1789665612904448800,6.50844873046875,0.30102117440402504,0.10500292774140835,-1.1661875862244515
1789665612914400500,6.518400390625,0.16026012006103993,-0.23018968859463929,-1.3800973903432487
1789665612924353500,6.528353515625,-0.1797024871557951,-0.6167094643250107,-1.5445239824339747
1789665612934306600,6.538306640625,-0.5541612382143736,-0.9089370914205909,-1.5871128318384289
1789665612944258800,6.5482587890625,-0.9193553173214196,-1.07955873875916,-1.5589495442800223
1789665612954211600,6.558211669921875,-1.216379531043768,-1.1614426567196845,-1.5253814750686288
1789665612964163800,6.568163818359375,-1.409707807970047,-1.2050526658654213,-1.4953186374992131
1789665612974116600,6.57811669921875,-1.517972952377796,-1.2231705063581466,-1.4169710769712924
1789665612984069600,6.588069580078125,-1.601048125949502,-1.3017732106909154,-1.234455724351853
1789665612994021600,6.598021728515625,-1.6848714875400066,-1.4088190424367784,-1.0307221540715545
1789665613003974700,6.607974609375,-1.7494751848757266,-1.481881648299098,-0.6928884486421942
1789665613013927700,6.617927734375,-1.6488345439970493,-1.5179621387228368,-0.24428338813781736
1789665613023879700,6.627879638671875,-1.3356991534292697,-1.521951208359003,0.3079361414242536
1789665613033832700,6.637832763671875,-0.7804904519885778,-1.5463023902833462,0.8815868007455021
1789665613043784700,6.64778466796875,-0.0967740285784006,-1.7202692563965916,1.2655842914566398
1789665613053737700,6.65773779296875,0.620144407209754,-2.0901316195756197,1.50084470744431
1789665613063690800,6.667690673828125,1.1681196502655744,-2.544320909953117,1.5763766260296106
1789665613073642800,6.677642822265625,1.5419932949125765,-2.9052871422320603,1.4039891380622982
1789665613083595800,6.687595703125,1.5756307760983705,-3.1378172564730047,1.2468202620148658
1789665613093547500,6.697547607421875,1.1729717664718626,-3.1364050515875217,1.4333084637880324
1789665613103500500,6.70750048828125,0.7041250051885843,-2.908885458984971,1.720753532782197
1789665613113453600,6.71745361328125,0.3460398813039064,-2.6425407534256578,1.8571381256066262
1789665613123405600,6.727405517578125,0.10014262822866439,-2.4727596485644576,1.7274483542457222
1789665613133358600,6.737358642578125,-0.1972252843648195,-2.2552745432421566,1.5723253048121928
1789665613143311600,6.7473115234375,-0.5054460148841142,-1.9718489390224216,1.5859288827508686
1789665613153263600,6.757263671875,-0.6143424429327249,-1.707711388118565,1.786486380278319
1789665613163216600,6.767216552734375,-0.4274596888840198,-1.4238342407390474,1.944737060213089
1789665613173168600,6.777168701171875,-0.11547229930758475,-1.2368518257081509,1.9453145678400992
1789665613183121700,6.78712158203125,0.33464462706446646,-1.208503390841186,1.7586694219395518
1789665613193074700,6.79707470703125,0.8373328676730394,-1.2586512773230671,1.4916460864663124
1789665613203026700,6.807026611328125,1.211356734445691,-1.3417565537720917,1.3429372879892587
1789665613212979500,6.8169794921875,1.3715467118799685,-1.3555948172494767,1.2246513925656675
1789665613222932500,6.826932373046875,1.2647305972367524,-1.2646765289619564,1.1092244667697697
1789665613232884700,6.836884765625,1.0556441946864128,-1.0327367818295956,1.044398066594079
1789665613242837800,6.846837646484375,0.7390186239153146,-0.699418434932828,1.0285080582186579
1789665613252789800,6.856789794921875,0.35889001052677627,-0.36647505882829423,0.995981680079922
1789665613262742800,6.86674267578125,-0.01723871957063675,-0.13450024038255215,0.9446117775224149
1789665613272695800,6.87669580078125,-0.2671253345429897,0.02501286070346832,0.8449528411574662
1789665613282647600,6.8866474609375,-0.3728834645658731,0.18256810571998355,0.7742658783853054
1789665613292600600,6.8966005859375,-0.3802256440222263,0.37217253981754184,0.724143199409917
1789665613302553600,6.9065537109375,-0.33055881905555723,0.607852934782952,0.7820891193568706
1789665613312505600,6.916505615234375,-0.27566403030753134,0.8214869176350533,0.8400148732986301
1789665613322458600,6.926458740234375,-0.27018589115738867,0.955211351339519,0.8553309542436153
1789665613332410600,6.93641064453125,-0.40300796919465065,1.050343750190735,0.8097382468480616
1789665613342363600,6.94636376953125,-0.6137742876559495,1.1536658852383495,0.7246066522032022
1789665613352316700,6.956316650390625,-0.9088935445398092,1.261947103998065,0.689100673731789
1789665613362268700,6.9662685546875,-1.1268833845138548,1.374707952389866,0.7138363979943096
1789665613372221700,6.9762216796875,-1.1854548159480094,1.4726239906102419,0.7711782876335084
1789665613382173700,6.986173583984375,-1.1968518237531185,1.5495187219813464,0.7476544964440166
1789665613392126500,6.99612646484375,-1.238807635951042,1.5525662729837,0.6395696039739995
1789665613402079500,7.00607958984375,-1.3287602940768002,1.5439790619023144,0.4999205294609069
1789665613412031700,7.01603173828125,-1.370061441758275,1.6198213616110384,0.41815435612853613
1789665613421984800,7.02598486328125,-1.3654729449242353,1.7243962731987237,0.3615931320056319
1789665613431937800,7.035937744140625,-1.3046055115073918,1.8068936468824743,0.30471798309534787
1789665613441889800,7.045889892578125,-1.2000029812604187,1.8766757697694003,0.19785412032026797
1789665613451842800,7.0558427734375,-1.1573568487107753,1.9224962945714592,0.03374196447357535
1789665613461794600,7.065794677734375,-1.106537931099534,1.8667178548566996,-0.10730419042110442
1789665613471747600,7.07574755859375,-0.887306566631794,1.8009908525794744,-0.22483382411729544
1789665613481700600,7.08570068359375,-0.5729647228837013,1.7855331712067126,-0.24987846819851545
1789665613491652600,7.095652587890625,-0.1208557459115982,1.8161346456974743,-0.5556200952531769
1789665613501605600,7.105605712890625,0.11872224101424217,1.6998513222679494,-0.38188104654643684
1789665613511558700,7.11555859375,0.2122708778053522,1.4043129631891846,-0.3038916518064216
1789665613521510700,7.1255107421875,0.5685504135727882,0.9581772884730249,-0.22302874745670706
1789665613531463700,7.135463623046875,1.0377262606799602,0.5201690983720123,-0.46353659911118444
1789665613541415700,7.145415771484375,1.0201549481540917,-0.3260923411659896,0.0475323336886242
1789665613551368700,7.15536865234375,0.8183446740865707,0.29489618871770795,-0.5387366553936154
1789665613561321700,7.16532177734375,0.09582301146388053,1.3422899299964308,-1.0575790352065115
1789665613571273500,7.1752734375,-0.36102643803358075,2.03591487621963,-1.1220413513101637
1789665613581226500,7.1852265625,-0.3978752824813127,2.400501052561402,-1.0159135842572897
1789665613591178800,7.1951787109375,-0.03674421502947807,2.4352599389925595,-0.8620031985491514
1789665613601131800,7.2051318359375,0.7162783843189477,1.9538094244629143,-0.7159303015336393
1789665613611084800,7.215084716796875,1.5145447314947842,1.3905707074321805,-0.7829897214584052
1789665613621036800,7.225036865234375,2.2341215728372332,1.020264180682227,-0.8944254587262869
1789665613630989600,7.234989501953125,2.701819164085388,0.8446713208023459,-0.8012491623789072
1789665613640942600,7.244942626953125,2.845948233556747,0.8916272063098847,-0.5929313330482692
1789665613650894600,7.25489453125,2.821207760053873,0.9839595261137932,-0.5594213506996631
1789665613660847600,7.26484765625,2.6420804424375293,1.007445907902345,-0.6270204304590821
1789665613670799600,7.274799560546875,2.282657347947359,0.9972630251273512,-0.8419263329431415
1789665613680752600,7.284752685546875,1.8050298988372087,1.0229735857713966,-1.177239579984173
1789665613690705700,7.29470556640625,1.5745692843466996,1.0148515810489653,-1.3338261991642415
1789665613700657700,7.30465771484375,1.698555729499459,1.0311255472406744,-1.2834613089308142
1789665613710610700,7.314610595703125,2.047655582895875,1.0763017827898262,-0.888943812444806
1789665613720563700,7.324563720703125,2.629669873675704,1.0924649090182035,-0.6551707854706794
1789665613730515700,7.334515625,3.015520371842384,0.7285132311876863,-0.8068184138786048
1789665613740468700,7.34446875,3.041761313036084,0.16157660948708652,-0.9951576503459364
1789665613750420500,7.35442041015625,3.3329864850908515,-0.2327753211736679,-1.0267907329067587
1789665613760373500,7.36437353515625,3.4604853222787377,-0.2910482811179012,-0.8861113654978573
1789665613770326500,7.374326416015625,3.247154706287384,-0.3752385032594204,-0.6587478402398527
1789665613780277800,7.38427783203125,2.8227076432228086,-0.39457222234793005,-0.49084874973297116
1789665613790230800,7.394230712890625,2.456559039869904,-0.4409617792095989,-1.2617068655014037
1789665613800182800,7.404182861328125,1.641006042328477,-0.742322268570587,-1.9913307613447306
1789665613810135800,7.4141357421875,0.5543833565324544,-0.7694559208203107,-1.5629424133084713
1789665613820088800,7.4240888671875,0.00012917933762073515,-0.43359059285447,-0.7095072827488184
1789665613830040600,7.43404052734375,-0.33808570742905136,-0.34897330440729857,-0.08764602515120058
1789665613839993600,7.44399365234375,-0.5575391902148723,-0.5208985816903412,0.2307788318605162
1789665613849946600,7.453946533203125,-0.5233586881935596,-0.7451029122650623,0.4133488555429503
1789665613859899000,7.46389892578125,-0.3044675154656172,-0.9830655729487537,0.6106526119714603
1789665613869852000,7.473851806640625,-0.22926935887932776,-1.1572745772548019,0.7672461358163505
1789665613879804000,7.483803955078125,-0.5437339522242546,-1.0979673788920044,0.5806336866090074
1789665613889756700,7.493756591796875,-1.0908055244386194,-0.7425460673891008,0.026339889789838342
1789665613899709700,7.503709716796875,-1.5413170030862091,-0.461805318339169,-0.4310725456189364
1789665613909661700,7.51366162109375,-1.8192080617934465,-0.4577046050220728,-0.6617183074180036
1789665613919614700,7.52361474609375,-1.8950830947279929,-0.6368298768118024,-0.658803077558428
1789665613929567000,7.53356689453125,-1.243677287814021,-1.4367545125886798,-0.3916233094144612
1789665613939520000,7.54352001953125,-1.1286118157416583,-2.1436612574502822,-0.325018793650344
1789665613949473000,7.55347314453125,-1.5920599328517913,-2.449309214872122,-0.3120092726146802
1789665613959424800,7.5634248046875,-1.5927444079846143,-2.557570267626643,-0.5169395418662578
1789665613969377800,7.573377685546875,-1.6024363654375076,-2.3309221971616148,-0.611782346653752
1789665613979330800,7.583330810546875,-1.6862421913713215,-2.0314660801172257,-0.49571215451825407
1789665613989282800,7.59328271484375,-1.6260580640435218,-1.773409894953668,-0.43015696514397855
1789665613999235800,7.60323583984375,-1.5691460902541874,-1.5348708956867456,-0.39981585862245406
1789665614009187600,7.6131875,-1.575441391006112,-1.3442483705878256,-0.35896183365397155
1789665614019140600,7.623140625,-1.6062258208483458,-1.1600257756590842,-0.25098303190693255
1789665614029093600,7.63309375,-1.680019955855608,-1.0340753369569777,-0.1636557173160836
1789665614039046000,7.6430458984375,-1.7645237009257078,-0.9592793314307928,-0.07688892268482596
1789665614048999000,7.6529990234375,-1.7436387338072061,-0.9651903090402484,-0.05949545094389468
1789665614058951000,7.662950927734375,-1.54633220089972,-1.0371271257430315,-0.17303459023181347
1789665614068903700,7.672903564453125,-1.2947212463527917,-1.1109835123315452,-0.36575335695762184
1789665614078856700,7.682856689453125,-1.0157570054560898,-1.1830495083719492,-0.6533648320272565
1789665614088808700,7.69280859375,-0.7750719340711831,-1.2829717718482017,-0.9430437975533306
1789665614098761700,7.70276171875,-0.5333481672883034,-1.3723419539108872,-0.9804705880194902
1789665614108714800,7.71271484375,-0.2186573639720678,-1.3492650297060609,-0.819979216485843
1789665614118667000,7.7226669921875,0.19024726204574108,-1.213141572035849,-0.6519494122713804
1789665614128620000,7.7326201171875,0.4871276833832264,-1.1194544035568832,-0.5267009843587875
1789665614138571800,7.74257177734375,0.6922633024811744,-1.1034341198652982,-0.40003830573409793
1789665614148524800,7.75252490234375,0.9591904841035603,-1.0919503105595707,-0.06534541908111423
1789665614158477800,7.762477783203125,1.1638806975215672,-1.0991054430112241,0.23240787610076366
1789665614168429800,7.772429931640625,1.5575176117807625,-1.1286845887169241,0.4043523695409298
1789665614178382800,7.7823828125,2.0283178452193735,-1.2257353884100912,0.3305119842391461
1789665614188334600,7.79233447265625,2.2388749048441645,-1.3734113367080687,0.08024769506081939
1789665614198287600,7.80228759765625,2.2639953175753353,-1.4741709277912973,-0.05269640192091465
1789665614208240600,7.81224072265625,2.0105261679410935,-1.4727083078928291,0.3067664400577545
1789665614218193000,7.82219287109375,1.7870856613457202,-1.3216912324734031,0.818699990330264
1789665614228146000,7.83214599609375,1.5049942283391953,-0.984872330109775,1.1890651153996585
1789665614238099000,7.842098876953125,0.9827151520758867,-0.5837976670652628,1.3793889498129486
1789665614248050700,7.85205078125,0.5616232446581125,-0.0779977241769433,1.3864523123279213
1789665614258003700,7.862003662109375,0.44592005920410155,0.4363626879163086,1.214718465963751
1789665614267955700,7.871955810546875,0.7724708116620779,0.7914894003868103,1.019476391305402
1789665614277908700,7.88190869140625,1.2659861502557992,0.8998417846865951,0.725286889552325
1789665614287861800,7.89186181640625,1.7548937027931213,0.7803229864671826,0.5875686369713395
1789665614297814000,7.90181396484375,2.1977076126754285,0.5028169815547764,0.3333109673079103
1789665614307766800,7.911766845703125,2.539574592208862,0.08204992217719555,-0.000630114597082138
1789665614317718800,7.92171875,2.553579736685753,-0.14203253558352588,-0.08639401579611003
1789665614327671800,7.931671875,2.29093593147099,-0.3091711631119251,-0.09691197574436664
1789665614337624800,7.941624755859375,1.9475030177950858,-0.5127002237960696,0.03797835993431508
1789665614347576800,7.951576904296875,1.4847037199825048,-0.5153494231306016,0.2630273246396333
1789665614357529900,7.96152978515625,0.8831956241816282,-0.33608868839293715,0.49744365448597816
1789665614367483000,7.97148291015625,0.39018823511004447,-0.02726137028262019,0.4602861459478736
1789665614377434600,7.9814345703125,0.04720014259219169,0.32099713691882786,0.28183486442957073
1789665614387387600,7.9913876953125,-0.15927520067691803,0.6316993089903146,0.28806440646890547
1789665614397340000,8.00133984375,-0.3572644551515579,0.8883264111988246,0.38880185878556217
1789665614407293000,8.01129296875,-0.4936363346248865,1.107434222352132,0.5717173531711102
1789665614417246000,8.021245849609375,-0.6335796428442001,1.2309936011992395,0.8055945711720734
1789665614427197700,8.03119775390625,-0.7771335427761077,1.1425000558406113,0.9272336494810879
1789665614437150700,8.041150634765625,-0.7904255705475807,1.0644703290902078,0.9217211696699261
1789665614447102700,8.051102783203126,-0.7314549106627702,1.0653021037392318,0.7783981558844447
1789665614457055700,8.0610556640625,-0.8306558741271496,0.9601993688851594,0.5340394009554759
1789665614467008800,8.0710087890625,-1.0655968489021062,0.7290694768309592,0.33084512518364934
1789665614476961000,8.0809609375,-1.442528127554059,0.4542782838352024,0.24824874810483305
1789665614486913800,8.090913818359375,-1.7227666261702774,0.3378011913992464,0.19630462585594505
1789665614496866800,8.10086669921875,-1.8025310677587985,0.4168398029312491,0.1309592067748308
1789665614506818800,8.11081884765625,-1.8496183976262808,0.5014306417629123,0.06459434498548507
1789665614516771800,8.120771728515624,-1.8694430420368908,0.5311205543667078,-0.018968137179128826
1789665614526723800,8.130723876953125,-1.8864900384277103,0.5359282469093799,-0.04317435767482966
1789665614536676900,8.1406767578125,-1.9008172544658184,0.6269223769120872,0.006116363988444209
1789665614546630000,8.1506298828125,-1.8728619105696678,0.6788233906716108,0.05971351414136588
1789665614556581600,8.16058154296875,-1.8385060519814491,0.6419027961619198,0.07561966993398964
1789665614566534700,8.17053466796875,-1.825162001761794,0.6466163806803524,0.007071765017136931
1789665614576487000,8.18048681640625,-1.8127140235990284,0.6634986880287528,-0.15023125880397856
1789665614586440000,8.19043994140625,-1.6703519638001918,0.708488899486512,-0.35788737282287325
1789665614596393000,8.20039306640625,-1.447550339630246,0.7519761590354144,-0.5339733134493232
1789665614606344700,8.2103447265625,-1.1650550019979475,0.7741038196913897,-0.595346577496454
1789665614616297700,8.220297607421875,-0.828280961689353,0.7268328038200735,-0.43437155063170935
1789665614626250800,8.230250732421876,-0.35623686566948887,0.6923449894152581,-0.16794234512671827
1789665614636202800,8.24020263671875,0.10392156224548817,0.7058698030292987,0.005480331107228994
1789665614646155800,8.25015576171875,0.44642917777001856,0.7899920014359056,0.04347805332913995
1789665614656107800,8.260107666015625,0.6471715303450822,0.7896272597767412,-0.01787109919004142
1789665614666060800,8.270060791015625,0.6927402723431587,0.687426383844018,-0.16128507919460533
1789665614676013800,8.280013916015625,0.5962099893927574,0.5440925564035773,-0.3245143512595445
1789665614685965800,8.2899658203125,0.44573651933073993,0.42884705158919095,-0.3730399703018367
1789665614695918800,8.2999189453125,0.30498247925043104,0.3505284248948097,-0.418955918302387
1789665614705872000,8.309871826171875,0.21495324875712393,0.4078784978404641,-0.4907008291622624
1789665614715823900,8.319823974609376,0.21073007810413835,0.5255766565039753,-0.5929502569444477
1789665614725777000,8.32977685546875,0.2969540710955858,0.6213625508278608,-0.7001851815216242
1789665614735728600,8.339728759765626,0.5466238284468651,0.6426283339574933,-0.7846535630173981
1789665614745681700,8.349681640625,0.8688327523082494,0.5753825976803898,-0.8161332816474139
1789665614755634700,8.359634765625,1.240872167265415,0.45916590974628924,-0.8712916167024523
1789665614765587000,8.3695869140625,1.6299176620811222,0.3389692122653126,-0.8569744836669415
1789665614775540000,8.3795400390625,1.9555290878623723,0.267734698612988,-0.7073897060729563
1789665614785491200,8.3894912109375,2.219405649742484,0.21759353413283825,-0.5001365833643824
1789665614795444200,8.3994443359375,2.4015455931782723,0.2175204688966274,-0.4523312048880383
1789665614805397200,8.409397216796876,2.422320085659623,0.25219576869755983,-0.5662102436548099
1789665614815349200,8.419349365234375,2.329739417117834,0.31111294482946394,-0.7442690917894244
1789665614825302300,8.42930224609375,2.1169003840357066,0.27147973036020995,-0.8276305349566042
1789665614835255300,8.43925537109375,1.9315929164797065,0.1799941635787487,-0.8224305551607162
1789665614845207300,8.449207275390625,1.8806845670193433,0.07938157975077628,-0.7448250451717525
1789665614855160300,8.459160400390624,1.945320413058996,-0.07122618421539664,-0.6939442413054406
1789665614865112300,8.4691123046875,2.061405875828862,-0.31674788197651504,-0.6997294005781411
1789665614875065300,8.4790654296875,2.2030530653566123,-0.7160645954377949,-0.7757597702048719
1789665614885018400,8.489018310546875,2.2839503103673455,-1.1329060058042406,-0.8155327584709972
1789665614894970000,8.49897021484375,2.0566274093806745,-1.4779447472415863,-0.7805378713268786
1789665614904923100,8.508923095703125,1.6260528033465147,-1.5983290762491524,-0.75059734496288
1789665614914875400,8.51887548828125,0.9031734133273362,-1.5091588006727397,-0.6357900854352861
1789665614924828400,8.528828369140625,0.06948270154893398,-1.2545996638447046,-0.5801397656122222
1789665614934781400,8.538781494140625,-0.6715086837440729,-0.9164683637082576,-0.5600592832770198
1789665614944733400,8.5487333984375,-1.2856804462850093,-0.5570154586017132,-0.46694801498986777
1789665614954686500,8.5586865234375,-1.8148101190954447,-0.2862801168680191,-0.37776524525806304
1789665614964639200,8.56863916015625,-2.1668945412606,-0.12616115884333848,-0.33928963985871524
1789665614974591200,8.57859130859375,-2.224101698604226,0.023415362378954887,-0.36045020904820413
1789665614984544300,8.588544189453126,-1.8827970291286706,0.23897476033568382,-0.4470152705622837
1789665614994496300,8.598496337890625,-1.3229331953585146,0.5164902637287974,-0.4155225097876042
1789665615004449300,8.60844921875,-0.6878238587290049,0.7775052986979484,-0.2188266926569864
1789665615014402300,8.61840234375,-0.1442705237686634,0.9635413727894425,0.10295889122579246
1789665615024354300,8.628354248046875,0.14341419920027254,1.0889207336053253,0.40231757577769456
1789665615034307300,8.638307373046874,0.16473463512659073,1.0188733839109538,0.6626196401719003
1789665615044260400,8.64826025390625,0.07477379369437694,0.7926309716373682,0.8584583655491471
1789665615054212400,8.65821240234375,-0.029894787526130673,0.4865560209751129,0.8622577578321099
1789665615064165400,8.668165283203125,-0.08056231396794318,0.18653993196040392,0.543496709402278
1789665615074117000,8.6781171875,-0.04393324975073337,-0.13852905750721692,0.15094692365950904
1789665615084070100,8.688070068359375,-0.028653847554326057,-0.5536021430268884,-0.10063941703597083
1789665615094023200,8.698023193359376,0.04982230778932571,-1.0087418659970164,-0.17007712866570798
1789665615103975400,8.707975341796875,0.028359833043813704,-1.3765195318564771,-0.028230014385376125
1789665615113928200,8.71792822265625,-0.15147884771227835,-1.6283151953205466,-0.006891750541422516
1789665615123880400,8.72788037109375,-0.4914654203265905,-1.7548323279947042,0.025927162536792454
1789665615133833500,8.73783349609375,-0.9864268660753964,-1.8154022397696972,0.07953984818556345
1789665615143786200,8.7477861328125,-1.5581892274320124,-1.7973203473731874,-0.010944423465710132
1789665615153738200,8.75773828125,-2.128333047676086,-1.807904869751632,-0.09391153355306014
1789665615163691300,8.767691162109376,-2.5916601687550544,-1.7769152727261184,-0.014449691640306263
1789665615173644300,8.777644287109375,-2.818238973376155,-1.692686545205116,0.11943881918522528
1789665615183596300,8.78759619140625,-2.894599159479141,-1.6176695904046297,0.16910134243611247
1789665615193549300,8.79754931640625,-2.8683839372485873,-1.6199109395906328,0.07766164235668256
1789665615203501300,8.807501220703125,-2.7884108213454484,-1.6681746197611091,-0.043573860120121384
1789665615213454300,8.817454345703124,-2.6231688212186097,-1.6433619578048586,-0.14645433408115058
1789665615223407400,8.827407470703125,-2.3092232833117246,-1.5663462304025888,-0.24729685420747846
1789665615233359400,8.837359375,-1.9729846650540828,-1.53330525380522,-0.24017807171083985
1789665615243312400,8.8473125,-1.5881231779247522,-1.570383815355599,-0.146682863873709
1789665615253264100,8.85726416015625,-1.2249579742968082,-1.5860525091305375,-0.06889297376116738
1789665615263217200,8.867217041015625,-0.8226818265080451,-1.572580740877986,0.019885745214391497
1789665615273170200,8.877170166015626,-0.37773616529405113,-1.5299711409464478,0.22627388512408358
1789665615283122200,8.8871220703125,0.17106734527945516,-1.5336308324977754,0.4883515626223758
1789665615293075200,8.8970751953125,0.7835410717308521,-1.558089274188876,0.7905661480620503
1789665615303028200,8.9070283203125,1.338181033372879,-1.5064873895063995,1.0342719555076212
1789665615312980500,8.91698046875,1.654211560860276,-1.4145780443549156,1.1144292688712476
1789665615322933200,8.926933349609374,1.7224790414005517,-1.3290546008482576,1.1604362561561166
1789665615332885200,8.93688525390625,1.7217542342573404,-1.2060802553474903,1.2822697610586882
1789665615342838300,8.94683837890625,1.5877069983392953,-0.9471426111742853,1.4524584238074718
1789665615352791300,8.956791259765625,1.347090316015482,-0.582579231186211,1.4629004689753056
1789665615362743300,8.966743408203126,1.0876438455373048,-0.167848675493896,1.4347254909791052
1789665615372696300,8.9766962890625,0.8033616244882344,0.1786164454847574,1.4013082284152507
1789665615382648300,8.9866484375,0.6276409004449844,0.43257644737586376,1.3966041423775255
1789665615392601300,8.996601318359374,0.5485077424973249,0.6252779707059264,1.4723787836775182
1789665615402554400,9.006554443359375,0.8334177400559186,0.875871126512438,1.5332283891767262
1789665615412506400,9.01650634765625,1.4380945290207863,1.0906798522323369,1.4778414329975842
1789665615422459400,9.02645947265625,2.043900614276528,1.0715950664035976,1.3612728628858923
1789665615432412400,9.036412353515624,2.5072365031838415,0.8174716906443238,1.238474604604393
1789665615442364200,9.0463642578125,2.7639941729694604,0.45822716759145254,1.0961391405515373
1789665615452317200,9.056317138671876,2.7794191211163994,0.14200140979290007,0.8499529875323176
1789665615462269200,9.066269287109375,2.585127552115917,-0.03584624327644705,0.48296311104968187
1789665615472222200,9.07622216796875,2.2589088080912827,-0.17177622420117258,0.16511311305016277
1789665615482175200,9.08617529296875,1.8119284261792896,-0.17503960991129278,-0.03817417476736009
1789665615492127200,9.096127197265625,1.392529294154048,0.00022504092752933502,-0.16074220448955892
1789665615502080300,9.106080322265624,0.9670710082203149,0.1840419776648283,-0.2612028126262128
1789665615512032300,9.1160322265625,0.5563555333882569,0.35286388210505243,-0.3623809944476932
1789665615521985300,9.1259853515625,0.23347967005074022,0.5602591166980564,-0.3654145169246942
1789665615531938300,9.135938232421875,0.023346388795971867,0.7164820901975035,-0.2702723273318261
1789665615541890300,9.145890380859376,-0.08363456102013588,0.7784763356871902,-0.20049575740285216
1789665615551843300,9.15584326171875,-0.22984862007200715,0.7122369999736547,-0.1592222283806652
1789665615561796000,9.165796142578126,-0.35434359926879405,0.5708445158593356,-0.10505874958187342
1789665615571748400,9.175748291015625,-0.49226563079357144,0.4202854133404791,-0.16015585596896706
1789665615581701400,9.185701416015625,-0.6944856547057628,0.36405893759727476,-0.25605770482271906
1789665615591653400,9.1956533203125,-0.9400392089098691,0.3307901435934007,-0.29811639287322755
1789665615601606400,9.2056064453125,-1.1599340057224035,0.1860248220451176,-0.3452702851708978
1789665615611559400,9.215559326171874,-1.3061854741752148,-0.04915872931405901,-0.28910993346646424
1789665615621511200,9.22551123046875,-1.4881541526973248,-0.2285337380811572,-0.14032492794804274
1789665615631464200,9.235464111328126,-1.6441121916502712,-0.13498933907374738,-0.16568411787115037
1789665615641416200,9.245416259765625,-1.843828708308935,0.20075901144891975,-0.24639022422395646
1789665615651369200,9.255369140625,-2.1260598420470953,0.5992968494921922,-0.31299419199880213
1789665615661322200,9.265322265625,-2.4119009829759595,1.0613463518507777,-0.1863849423280917
1789665615671274200,9.275274169921875,-2.0623843654721976,1.0843990183971821,-0.6187381206084043
1789665615681227300,9.285227294921874,-2.0517033969819543,0.7172926759280264,-0.7144134672299027
1789665615691180300,9.29518017578125,-2.2262129916697737,0.38125615611374375,-0.5265683709550648
1789665615701132300,9.30513232421875,-2.338044304126501,0.32128114149197934,-0.4974853747358545
1789665615711085300,9.315085205078125,-2.4234698402166366,0.48154710677191614,-0.562730365649797
1789665615721037300,9.325037353515626,-2.2351766348481177,0.8122031025916338,-0.7159377541877329
1789665615730990300,9.334990234375,-1.8468547781318425,0.9833623639382422,-0.7962618754856288
1789665615740943000,9.344943115234376,-1.3096961126446722,0.9573284896239638,-0.8722896147638559
1789665615750895400,9.354895263671875,-0.7176186930119991,1.0943458273939788,-0.8999947832912206
1789665615760848400,9.364848388671875,-0.3789613231748342,1.341777742690593,-0.7365116095304489
1789665615770800400,9.37480029296875,-0.17998422670662403,1.4308105094924568,-0.6321313437320292
1789665615780754200,9.384754150390625,0.0059463411837816236,1.3947960700422524,-0.5259092859918252
1789665615790707200,9.394707275390624,0.27664836516976354,1.4230764081090688,-0.5324394914781675
1789665615800659000,9.404658935546875,0.7574918537169695,1.4896407379932701,-0.7645068470455706
1789665615810612000,9.414612060546874,1.047245784175396,1.328947048820555,-1.0214416269637643
1789665615820564000,9.42456396484375,1.092196102014184,1.2795192933067678,-0.8901648786723613
1789665615830517000,9.43451708984375,0.9621680386096239,0.8638906197309494,-0.586283382933773
1789665615840470000,9.444469970703125,0.9011369390636682,0.3565584988392889,-0.4272321272058412
1789665615850422000,9.454422119140625,0.8729641530245542,0.0420377913929522,-0.4098314950717613
1789665615860375000,9.464375,0.912097893539071,0.1341847446925938,-0.8226965126205236
1789665615870328000,9.474328125,1.0195721798300743,0.7647294037550687,-1.415824829545617
1789665615880280000,9.484280029296874,1.128500172060728,0.9809371826179325,-1.8715170718319714
1789665615890233000,9.494233154296875,1.2362404158115385,1.1124411637939513,-1.9474093481622634
1789665615900185000,9.50418505859375,1.5436656120389698,1.225010873527825,-1.6435105724953114
1789665615910138000,9.51413818359375,1.905933574566245,1.2144848033383489,-1.2132207747519015
1789665615920091100,9.524091064453126,1.989220929583907,1.2462784102231264,-1.0585971262078733
1789665615930043000,9.53404296875,2.0151661027014254,1.475109669946134,-1.0022883059434593
1789665615939996000,9.543995849609376,2.1301450655341148,1.6173505875833332,-0.945831747771427
1789665615949948200,9.5539482421875,2.446639118880033,1.5688962071463464,-0.7979863611906767
1789665615959901200,9.563901123046875,3.1073785713285207,1.3597564669735729,-0.7190499679241329
1789665615969854200,9.573854248046874,4.001411231344938,0.9646512337274848,-0.7603472431480884
1789665615979806000,9.583805908203125,4.614495783171058,0.37563670879676936,-0.8629487357709557
1789665615989759000,9.593759033203124,4.541248760652542,-0.23870836448445915,-0.9778832749400287
1789665615999711000,9.6037109375,3.9741047067463398,-0.5622969792012125,-0.9886921075936407
1789665616009664000,9.6136640625,2.9049843598932026,-0.7124061459954828,-0.9122575410801916
1789665616019617000,9.623616943359375,1.7317741084903477,-0.7428283914618193,-0.8989514117181301
1789665616029569000,9.633569091796875,0.6629506987571716,-0.5424298838883638,-0.7890617348484694
1789665616039522000,9.64352197265625,-0.23129180461764334,-0.19194763622283934,-0.5269850619971752
1789665616049474000,9.65347412109375,-0.8849749088138341,0.21954101493880152,-0.28623182074688375
1789665616059427000,9.663427001953124,-1.2831512200683355,0.48118061154708264,-0.19754209522902966
1789665616069380000,9.673380126953125,-1.3567577235490083,0.45433395954519507,-0.19255795014090835
1789665616079332000,9.68333203125,-0.9927946475416422,0.2649021055355668,-0.2190824575163424
1789665616089285000,9.69328515625,-0.30981822884380816,-0.028370646698772907,-0.2292352374140173
1789665616099238100,9.703238037109376,0.34396015242040157,-0.388967461143434,-0.2728236923150718
1789665616109190000,9.71318994140625,0.8332078966975212,-0.7171309094950556,-0.350839390540123
1789665616119143000,9.723142822265626,1.0979185713142157,-0.9789036309637129,-0.41339225629325954
1789665616129095200,9.73309521484375,0.9380307916969061,-1.15073202374354,-0.31945615455452353
1789665616139048200,9.743048095703125,0.40597909395992754,-1.2620740913785993,-0.24514921118691563
1789665616149001200,9.753001220703124,-0.23091946417391299,-1.2826989462561904,-0.21150113554187117
1789665616158953000,9.762952880859375,-0.8928741376310586,-1.2997862746573985,-0.19294680332802236
1789665616168906000,9.772906005859374,-1.4572586636960505,-1.321713736566156,-0.1920661480359733
1789665616178858000,9.78285791015625,-1.9053548978954553,-1.3546977222792804,-0.16997063608393073
1789665616188811000,9.79281103515625,-2.2683090891212223,-1.3633467465505003,-0.15975604299642146
1789665616198764000,9.802763916015625,-2.421768296995759,-1.332090461412817,-0.08681498115453869
1789665616208716000,9.812716064453125,-2.56488614359796,-1.2977826797500251,0.028573694990202785
1789665616218669000,9.8226689453125,-2.8082892417699097,-1.3192187048800288,0.16251896837111562
1789665616228621000,9.83262109375,-2.8919243873119354,-1.192179886419326,0.16189904637448488
1789665616238574000,9.842573974609374,-2.9776579664379357,-1.1148156378403304,0.11484992962554097
1789665616248527000,9.852527099609375,-3.0491099222332236,-1.0937744572468102,0.07256620064750313
1789665616258479000,9.86247900390625,-3.014496874013543,-1.0422069132253526,0.011105148719064891
1789665616268432100,9.87243212890625,-2.9198709633797404,-0.9469570254743098,0.014542064365185797
1789665616278383900,9.8823837890625,-2.730167306691408,-0.9395555170461535,0.04497590893777087
1789665616288337000,9.8923369140625,-2.518194535049796,-0.9389274482756853,0.019170107758324593
1789665616298290000,9.9022900390625,-2.3792606961339713,-1.0038985176190733,-0.09148616956965998
1789665616308242200,9.9122421875,-2.2252461924642324,-1.1135904799595475,-0.2282475415509194
1789665616318195200,9.9221953125,-2.012124835309386,-1.2496363423489034,-0.31505470472518354
1789665616328148200,9.932148193359374,-1.7023744110047816,-1.3207747021503746,-0.2857181538700126
1789665616338100000,9.942099853515625,-1.3346201260209083,-1.3065870407134295,-0.2045006091300398
1789665616348053000,9.952052978515624,-1.0061953963845969,-1.2954122973568736,-0.05369843683661893
1789665616358005000,9.9620048828125,-0.8519827397942542,-1.2902227658897638,0.11528330694097094
1789665616367958000,9.9719580078125,-0.7681365818500518,-1.3183021745570003,0.2807205099795014
1789665616377911000,9.9819111328125,-0.5806295584231614,-1.3972006469659506,0.45575241150837387
1789665616387863000,9.991863037109376,-0.16719079610705376,-1.4663076470702885,0.5168917572017758
1789665616397816000,10.001816162109375,0.40314591636061664,-1.5339521734066306,0.4663496472379192
1789665616407768000,10.01176806640625,0.940085970661044,-1.6647117659561335,0.30252377925300966
1789665616417721000,10.02172119140625,1.1755927626252174,-1.8242858034491538,0.2437410796883516
1789665616427674000,10.031674072265625,1.2277385449260472,-1.9717605300866066,0.30782804140727965
1789665616437626000,10.041626220703124,1.245197044727206,-1.9045036878935993,0.28329719206709414
1789665616447579100,10.0515791015625,1.1802163307726383,-1.7168119555495678,0.26151726713655515
1789665616457531000,10.06153076171875,1.1050719502002,-1.517136647684127,0.4332475881030783
1789665616467484000,10.07148388671875,1.267668988776207,-1.1355148731283844,0.8436922466371208
1789665616477437000,10.08143701171875,1.7427186963528394,-0.6042863283425569,1.2366142175599932
1789665616487389200,10.09138916015625,2.4775994898110625,-0.17254706244319676,1.5074856067635118
1789665616497342200,10.10134228515625,3.3179327083438634,0.0637405046351254,1.671524806971848
1789665616507294000,10.1112939453125,3.9474516776204105,-0.050001902139931914,1.6615066863045096
1789665616517247000,10.1212470703125,4.159990266451239,-0.47057511944584546,1.4443383918464183
1789665616527200000,10.131199951171874,3.868378140905499,-0.9553877308197319,1.0476837372012435
1789665616537152000,10.141152099609375,3.24397256911993,-1.211971140016988,0.5760107029834762
1789665616547105000,10.15110498046875,2.40261234562695,-1.2355670465946196,0.1636816737412475
1789665616557057000,10.16105712890625,1.489886091056466,-1.073309761366993,-0.24294748162524774
1789665616567010000,10.171010009765626,0.6767793176233768,-0.7486538827449083,-0.5305860456312075
1789665616576963000,10.180963134765625,0.1253039574921131,-0.35013719708751884,-0.565593755724281
1789665616586915000,10.1909150390625,-0.17823942886590957,0.06055164546594023,-0.5058594179905951
1789665616596868000,10.2008681640625,-0.2514227384984493,0.4674289669072255,-0.3552472701102495
1789665616606821000,10.210821044921875,-0.14736556717455387,0.9092221189070493,-0.11817403254695236
1789665616616773000,10.220773193359374,0.09088497053980826,1.3269685883544384,0.038142756715789435
1789665616626726100,10.23072607421875,0.34885844585597514,1.5655591716781259,0.1229957901475951
1789665616636678000,10.240677978515626,0.489474538770318,1.555249082326889,0.07922271766094491
1789665616646631000,10.250630859375,0.5104255568623542,1.3573947062782943,-0.01815943287843838
1789665616656584000,10.260583984375,0.3680149817466736,1.171991450197622,-0.1515370807055384
1789665616666536200,10.2705361328125,0.08525485569834709,1.0239864891409873,-0.30412186209941283
1789665616676489200,10.2804892578125,-0.2507598906755447,1.0071827999867498,-0.43322373230345546
1789665616686441000,10.29044091796875,-0.6400315954625606,1.063733904574439,-0.42394598167464137
1789665616696394000,10.30039404296875,-1.0484873086690902,1.1637770910166203,-0.3150166742697358
1789665616706347000,10.310346923828124,-1.5104630151391027,1.2184390208568423,-0.18625145214153452
1789665616716299000,10.320299072265625,-1.9064561371356248,1.2989227896958588,-0.10963970243027434
1789665616726252000,10.330251953125,-2.2439760273754596,1.3694742895200849,-0.017298651330638674
1789665616736204000,10.3402041015625,-2.3631536109417675,1.528307299387455,0.10277852969020604
1789665616746157000,10.350156982421876,-2.3504180480092765,1.6669415708348154,0.19367639624420552
1789665616756110000,10.360110107421875,-2.3591712633073327,1.6171546266198158,0.23522229420067742
1789665616766062000,10.37006201171875,-2.325290621015429,1.5464410681016743,0.380225205630809
1789665616776015000,10.38001513671875,-2.357270982643962,1.5579644787654279,0.46021256925500925
1789665616785966600,10.389966552734375,-2.3365192865163085,1.5718958273537456,0.4057351291362196
1789665616795919600,10.399919677734376,-2.1782062088698146,1.6322040194526313,0.3268758927591145
1789665616805872600,10.40987255859375,-1.817853140053153,1.6991010884225368,0.27868056511711325
1789665616815824400,10.419824462890626,-1.3518167600154876,1.6441405409619212,0.23435740273334085
1789665616825777400,10.42977734375,-0.74853873193264,1.4970456074222922,0.180524872921966
1789665616835729700,10.439729736328125,-0.16108078879415988,1.3084836681149898,0.10191044161878525
1789665616845682700,10.4496826171875,0.4077355822384357,1.1692369638577103,-0.019608460359682795
1789665616855635700,10.4596357421875,0.9082079003632068,1.1534398944627493,-0.16600896591134368
1789665616865587500,10.46958740234375,1.1991630233049393,1.094877888444066,-0.29486530038909986
1789665616875540500,10.47954052734375,1.26646954985857,0.9864157601594924,-0.4406823412137106
1789665616885492500,10.489492431640626,1.1476999625712632,0.8874380109917372,-0.6244797330003231
1789665616895445500,10.499445556640625,0.9301286402702331,0.8109310368292033,-0.8460377137847245
1789665616905398500,10.5093984375,0.736338006529212,0.7976081024628132,-1.0567696185197681
1789665616915350800,10.519350830078125,0.7104717438668012,0.7800200579978526,-1.1622066998947411
1789665616925303800,10.5293037109375,0.9298650208979844,0.7498412658985704,-1.1173154918320476
1789665616935255600,10.539255615234374,1.3578501949608326,0.6961763112064451,-1.1104352307990193
1789665616945208600,10.54920849609375,1.8830822758108376,0.6244506530363112,-1.108687071957439
1789665616955161600,10.55916162109375,2.380145077753067,0.5871888438735157,-1.020481842020899
1789665616965113600,10.569113525390625,2.748367564770579,0.5437709232337773,-0.9436169212661683
1789665616975066600,10.579066650390626,2.9519740746051073,0.5544852825369686,-0.8917650804106145
1789665616985019600,10.58901953125,3.069460636344552,0.6192662361357361,-0.8920356409803032
1789665616994971400,10.598971435546876,3.105878103637695,0.7035287928611039,-0.9350302947066724
1789665617004924400,10.60892431640625,3.061217124134302,0.7807621085368096,-0.8704875337779522
1789665617014876700,10.618876708984375,3.0698265470474957,0.7918019734673202,-0.7485954305559396
1789665617024829700,10.62882958984375,3.2164550321191547,0.7212467473160475,-0.5872799562230706
1789665617034782700,10.63878271484375,3.4505922892957925,0.5433611003238707,-0.4871637045446783
1789665617044734500,10.648734375,3.75893810749948,0.2966729891318828,-0.6419955890119076
1789665617054687500,10.6586875,4.047033749356865,-0.026928119740262626,-0.8853226993381976
1789665617064639500,10.668639404296876,4.0524505137085916,-0.43620355183184145,-0.9828861977938562
1789665617074592500,10.678592529296875,3.5423131261378527,-0.8617729699898511,-0.8224623385384678
1789665617084545500,10.688545654296876,2.590161454629898,-1.1273349276736377,-0.46973808409981427
1789665617094497800,10.698497802734375,1.3553361663132906,-1.0801722675476222,-0.12953706501722334
1789665617104450800,10.708450927734376,0.1281535017043352,-0.7749868861362338,0.044963031189888716
1789665617114402600,10.718402587890624,-0.8443886314034461,-0.325326909751445,0.22195556526724247
1789665617124355600,10.72835546875,-1.5132283881992101,0.10884177525192498,0.3828136877540499
1789665617134308600,10.73830859375,-1.8373212261110543,0.3812131937548518,0.5486704953109846
1789665617144260600,10.748260498046875,-1.7874854743182658,0.4810070085458457,0.6257273219086229
1789665617154213600,10.758213623046874,-1.3912100282490252,0.3435141622185707,0.5437946694355458
1789665617164165400,10.768165283203125,-0.8391431319653987,-0.032404286129027605,0.3510178523795679
1789665617174118400,10.778118408203126,-0.30662089410722254,-0.4098208640798926,0.12393814903162419
1789665617184071400,10.788071533203125,-0.003534603866934776,-0.7700666731297969,-0.10968303011534734
1789665617194023700,10.798023681640625,0.09903437472581862,-1.0788703181035817,-0.2514704318313859
1789665617203976700,10.807976806640625,-0.06650280895531177,-1.315198509453237,-0.3799661163032055
1789665617213928700,10.8179287109375,-0.4837894788712263,-1.4792223659619688,-0.5081833308935165
1789665617223881500,10.827881591796874,-0.9690659814298153,-1.568948667985946,-0.6679197193413973
1789665617233834500,10.83783447265625,-1.3643033166229723,-1.6290155986748636,-0.7732998828973621
1789665617243786500,10.847786376953126,-1.584699633216858,-1.6404973621539771,-0.8407889994762837
1789665617253739500,10.857739501953125,-1.5835960558891296,-1.6363368814736603,-0.924319734795764
1789665617263691800,10.86769189453125,-1.3847364483207463,-1.622140159947425,-0.9023393736559897
1789665617273644800,10.877644775390625,-1.1114531756699084,-1.5799996388323605,-0.6487490818601102
1789665617283597600,10.88759765625,-0.9711299282222986,-1.5178240454263985,-0.3066988547142595
1789665617293549600,10.897549560546874,-1.119397412672639,-1.5030680825822054,0.022633052894845605
1789665617303502600,10.907502685546875,-1.5895739612549542,-1.484094209782034,0.20182037533642724
1789665617313454600,10.91745458984375,-2.290684002536535,-1.4283147471539674,0.13850664474600924
1789665617323407600,10.92740771484375,-2.947597174695134,-1.2852560833930968,-0.13511409796457738
1789665617333360600,10.937360595703124,-3.4246365947842596,-1.1038982302457094,-0.39386948090605434
1789665617343312400,10.9473125,-3.625493513649702,-1.0562054818309843,-0.6070504592936485
1789665617353265400,10.957265380859376,-3.5269606587052342,-1.098464514759183,-0.6957320745702833
1789665617363217700,10.9672177734375,-3.2188854741364716,-1.1200332263581454,-0.7259863430585711
1789665617373170700,10.977170654296875,-2.8916169287979603,-1.1462414343260228,-0.7568764252323656
1789665617383123700,10.987123779296875,-2.624352478045225,-1.095396067099273,-0.6904878903064876
1789665617393075700,10.99707568359375,-2.411440964248776,-1.0373704329796134,-0.5316620773648842
1789665617403028500,11.007028564453124,-2.2959967219918966,-0.9866248728655278,-0.2861320684331469
1789665617412980500,11.01698046875,-2.160802069604397,-0.9489835628658533,-0.08617946886313148
1789665617422933500,11.02693359375,-1.9794237581908702,-0.9512567684948444,-0.0025290983525104818
1789665617432886500,11.036886474609375,-1.7886036646932362,-1.0162396744064985,0.04761179669958073
1789665617442838800,11.0468388671875,-1.5267507175952195,-1.2282495631881059,0.29966775050107386
1789665617452791800,11.056791748046875,-1.2443535796403884,-1.5441023960210383,0.6126152903465554
1789665617462743600,11.06674365234375,-0.7565706472188234,-1.7961312837190926,0.8028015063874423
1789665617472696600,11.076696533203124,0.06952420260310173,-1.763127424261719,0.8350570316955447
1789665617482649600,11.086649658203125,1.0324889445483685,-1.5346701124176383,0.686807082901895
1789665617492601600,11.0966015625,1.6863398065268993,-1.3555337347120047,0.5115401670407503
1789665617502554600,11.1065546875,2.1754238846749065,-1.113250726611167,0.6080555446829646
1789665617512506400,11.11650634765625,2.5624983716785907,-0.8196065107159316,0.9690380705095827
1789665617522459400,11.12645947265625,2.731946591323614,-0.44631578052341936,1.3587114879652857
1789665617532412400,11.136412353515626,2.658898306247592,0.0712279377810657,1.7127857687734067
1789665617542364700,11.14636474609375,2.3074252939790485,0.5170373762175441,1.942013772729039
1789665617552317700,11.156317626953125,1.9804607000231742,0.8720705651856958,2.186218981064111
1789665617562269700,11.166269775390624,1.998760326823592,1.1090073899529873,2.3461178665973246
1789665617572222500,11.176222412109375,2.5266759476691485,1.1957726502142847,2.211920846945047
1789665617582175500,11.186175537109374,3.318030908021331,0.921373525276035,1.9190121057175098
1789665617592127500,11.19612744140625,4.055160941711068,0.2700147723741829,1.6538665468148885
1789665617602080500,11.20608056640625,4.635201886591315,-0.4218630379207432,1.2209982038203626
1789665617612032800,11.21603271484375,4.823140871694684,-1.0115301815412938,0.7800022300802171
1789665617621985800,11.22598583984375,4.46640833146274,-1.4601191676937042,0.43646271422468125
1789665617631938800,11.235938720703125,3.5786505139321085,-1.689309469987452,0.3122053066434339
1789665617641890600,11.245890625,2.2840835813581943,-1.5580504034832119,0.425713721999526
1789665617651843600,11.255843505859374,0.964980173420906,-1.1714245370298624,0.5931346370680257
1789665617661795600,11.265795654296875,-0.17468845838606356,-0.733371704069525,0.7557125690847635
1789665617671748600,11.27574853515625,-1.1435527797639369,-0.3768757490724325,1.0303181033153086
1789665617681701600,11.28570166015625,-1.8901456383258104,-0.11909472758844494,1.3672061984576285
1789665617691653400,11.2956533203125,-2.3655413828611374,0.08374445113539696,1.5530591710671782
1789665617701606400,11.3056064453125,-2.6252012038290498,0.2597811092600226,1.5954232718050478
1789665617711558700,11.31555859375,-2.676000247696042,0.43484315019883213,1.5011251318208871
1789665617721511700,11.32551171875,-2.5752421179175373,0.539714560515061,1.2650199355721472
1789665617731464700,11.335464599609375,-2.350545473781228,0.5190064112681895,0.8846887853488326
1789665617741416700,11.345416748046874,-1.9996365251362322,0.4046562478583306,0.5030380769595504
1789665617751369500,11.355369384765625,-1.7320815670043228,0.25577406557574867,0.18583740971423685
1789665617761321500,11.365321533203126,-1.5312608884960413,0.1305925654195249,-0.07966897272425703
1789665617771274500,11.3752744140625,-1.371243929541111,0.05949746023789048,-0.28125700974268836
1789665617781227500,11.3852275390625,-1.2054250063091516,0.1187683451782912,-0.3753289945544675
1789665617791179800,11.3951796875,-1.0733283199369907,0.26279468492753805,-0.4238305386014282
1789665617801132800,11.4051328125,-1.174894258967042,0.4199705752376467,-0.4052485146630555
1789665617811084800,11.415084716796875,-1.5167168148368597,0.527173862567544,-0.3477728060437366
1789665617821037800,11.425037841796875,-1.97636553966403,0.6357304642025381,-0.2956421847794205
1789665617830990800,11.434990966796875,-2.463808864867687,0.785127318008989,-0.3307315087413415
1789665617840942800,11.44494287109375,-2.8209692751228808,0.9255031724266707,-0.42177104878835375
1789665617850896000,11.454895751953124,-2.9625679493337866,1.0455057355750352,-0.5828385397095233
1789665617860847600,11.46484765625,-2.872847930920124,1.1018985077958554,-0.7390205236114561
1789665617870800600,11.474800537109376,-2.6797324199616908,1.1169185284037142,-0.72017670693174
1789665617880753700,11.484753662109375,-2.3445710755467415,1.1925648671489208,-0.6517236406914889
1789665617890706000,11.494705810546876,-2.0052163710951802,1.2823835966967045,-0.6545707006856799
1789665617900659000,11.504658935546875,-1.7562345960080623,1.3120236788094044,-0.6828940741766244
1789665617910611000,11.51461083984375,-1.420840027359128,1.321482558158785,-0.6750766053587198
1789665617920563700,11.524563720703124,-0.9986574020951986,1.3259076811246573,-0.7007697034113108
1789665617930516700,11.534516845703125,-0.5739712695777416,1.3448568578749893,-0.7954105193533003
1789665617940468700,11.54446875,-0.22074702972769736,1.3440531402766704,-0.9457053449127822
1789665617950421800,11.554421875,0.09283025938868522,1.287983608660847,-1.1793641709227114
1789665617960373800,11.564373779296876,0.2886743185281753,1.2870944047361612,-1.3829643240816891
1789665617970326800,11.574326904296875,0.5075198985487223,1.3149775601789355,-1.581364351314306
1789665617980279800,11.58427978515625,0.7571914094656705,1.3869170072302222,-1.696911177162826
1789665617990231800,11.594231689453125,1.091328671529889,1.410505680349469,-1.7189584660589694
1789665618000184800,11.604184814453125,1.5641700554072857,1.4238731114447116,-1.6165023001909256
1789665618010136800,11.61413671875,2.1371797864764925,1.3971771199598908,-1.5143853031493721
1789665618020089900,11.62408984375,2.7835481837451455,1.263813044000417,-1.4683686712533235
1789665618030043000,11.63404296875,3.3855893635094163,1.1317091972351074,-1.4981250732220708
1789665618039994600,11.64399462890625,3.7711101913303136,0.9618431175041943,-1.6407321938231587
1789665618049947600,11.65394775390625,4.036732135573029,0.7727809005245566,-1.70911467904523
1789665618059900000,11.66389990234375,4.216578415113688,0.6206279529429972,-1.7697000806502996
1789665618069853000,11.67385302734375,4.27069578974843,0.593591842783615,-1.8019805942691862
1789665618079806000,11.683805908203125,4.236391369086504,0.7300235626854003,-1.647150828693807
1789665618089757700,11.6937578125,4.204982669866085,0.9340586001303046,-1.3693511015318334
1789665618099710700,11.703710693359374,4.3661844546914095,1.0827711979996413,-0.9581004969097673
1789665618109662700,11.713662841796875,4.652002799266577,1.030344260669872,-0.5539310461876914
1789665618119615700,11.72361572265625,5.008355400270223,0.7921409961633383,-0.26383264967314896
1789665618129568800,11.73356884765625,5.304647208064794,0.4230182723704725,-0.13321800028597935
1789665618139520800,11.743520751953126,5.415619273343682,-0.09823767139017581,-0.16627923422008753
1789665618149473800,11.753473876953125,5.1617655083060265,-0.6812575590159744,-0.21173474336834625
1789665618159425800,11.76342578125,4.417032598397135,-1.1975796996362507,-0.27177250276170667
1789665618169378800,11.77337890625,3.122797674256563,-1.5168009859889744,-0.24977031338261438
1789665618179331800,11.783331787109375,1.6949059748202562,-1.4757079281002283,-0.14307000713879242
1789665618189283800,11.793283935546874,0.4765653728365898,-1.1597159790575504,0.08977526486539282
1789665618199236900,11.80323681640625,-0.475671638867259,-0.7386128195933997,0.38317061143293973
1789665618209188600,11.813188720703126,-1.1179127270728348,-0.29406755587384104,0.6735737995803356
1789665618219141600,11.8231416015625,-1.4242694172859192,0.0657246641896665,0.9038592766996473
1789665618229094700,11.8330947265625,-1.3869763362020253,0.18938991456404328,0.9663576723191887
1789665618239047000,11.843046875,-1.085409218353033,0.04306815735399723,0.8705677594073117
1789665618249000000,11.853,-0.6428735408902168,-0.3468827618688345,0.7649399777658283
1789665618258952000,11.862951904296875,-0.2084019274175167,-0.7966162418812512,0.6805432732667773
1789665618268904700,11.87290478515625,-0.011243863070011139,-1.2421693674691021,0.5264356479534879
1789665618278857700,11.882857666015624,-0.05005553202331066,-1.6087762359835207,0.4489401011450216
1789665618288809700,11.892809814453125,-0.29352409664690493,-1.8817123026318847,0.3948998468670994
1789665618298762800,11.9027626953125,-0.6579179652869701,-2.0278800383239983,0.3027379517266527
1789665618308714800,11.91271484375,-1.0585919385761022,-2.093707724496722,0.21142185976058245
1789665618318667800,11.922667724609376,-1.4120266063064335,-2.0631278773158788,0.10002065494996495
1789665618328620800,11.932620849609375,-1.72705117162168,-2.04794375218749,0.10942954854462295
1789665618338572800,11.94257275390625,-2.0821376982122657,-2.0622274213448164,0.24331713692154733
1789665618348525800,11.95252587890625,-2.5027292548924684,-2.0808125870883463,0.4897592009305954
1789665618358477800,11.962477783203125,-2.79196997513175,-1.9386006032846868,0.8403861177638172
1789665618368430800,11.972430908203124,-3.027316608098149,-1.9080629878103732,1.034895055842027
1789665618378384000,11.9823837890625,-2.9997441260397433,-1.7340522825554012,0.9311859673034399
1789665618388335600,11.992335693359376,-2.9412533586263656,-1.5623825874686241,0.8551328013230115
1789665618398288600,12.00228857421875,-3.0669466076970098,-1.5885387729883194,0.8137106576103716
1789665618408241000,12.012240966796876,-3.297169906300306,-1.7132868501633405,0.7882172468483447
1789665618418194000,12.02219384765625,-3.445626775842905,-1.7202701331794261,0.7488019129134714
1789665618428147000,12.03214697265625,-3.468711883354187,-1.6662956741467116,0.6540912466056644
1789665618438099000,12.042098876953125,-3.405844216030836,-1.5874126915678382,0.5193419268328696
1789665618448051700,12.0520517578125,-3.304171309494972,-1.512417071816325,0.3677573171911761
1789665618458003700,12.062003662109374,-3.148928140813112,-1.4119021031439303,0.23645766294822096
1789665618467956700,12.071956787109375,-2.9359394701272246,-1.2600903702154755,0.14976722148880361
1789665618477909800,12.08190966796875,-2.831006100490689,-1.1898156415060162,0.14181657301159575
1789665618487861800,12.09186181640625,-2.72585528871119,-1.147459724074602,0.16511738736648113
1789665618497814800,12.101814697265626,-2.399464695250988,-0.9862880421265959,0.26329202172411603
1789665618507766800,12.111766845703125,-2.0161936921834944,-0.7998509860187768,0.4786218669749796
1789665618517719800,12.1217197265625,-1.7175334016919135,-0.7253656538769603,0.7402592716261744
1789665618527672800,12.1316728515625,-1.578104472735524,-0.7382958625987172,0.9873466112688183
1789665618537624800,12.141624755859375,-1.3132891687005757,-0.7883209994837641,1.1815713986434042
1789665618547577900,12.151577880859374,-0.6140817461699247,-0.8977835369825362,1.2474585599184036
1789665618557529600,12.161529541015625,0.3092974198400974,-0.988719945448637,1.20253264586851
1789665618567482600,12.171482666015624,1.2047189038664101,-0.9800947404444217,1.0578143783323466
1789665618577435000,12.181434814453125,1.6631085685431957,-1.013902902022004,0.858406343100965
1789665618587388000,12.191387939453126,1.6406237650126219,-1.1706050373405217,0.6875204918682575
1789665618597341000,12.2013408203125,1.4319792610108852,-1.2782095258824526,0.53150327007398
1789665618607293000,12.21129296875,1.3680349043667315,-1.1334778143428266,0.3590520692206919
1789665618617246000,12.221245849609375,1.4885042813092468,-0.6738492555208504,0.2821073064290918
1789665618627197700,12.23119775390625,1.5735907947033643,-0.05733034533187747,0.3056861705403775
1789665618637150700,12.241150634765624,1.6595909158110618,0.3622250001683831,0.4473253228921443
1789665618647103700,12.251103759765625,2.060471225327253,0.6133325352378189,0.6088016138099134
1789665618657055700,12.2610556640625,2.7710663033127783,0.756526515816152,0.6603104864466935
1789665618667008800,12.2710087890625,3.491054063543677,0.6358240607701242,0.6498293513774871
1789665618676960800,12.280960693359376,4.056847871884703,0.3529781561344862,0.613438625960797
1789665618686913800,12.290913818359375,4.251301937970519,0.00621682868823409,0.5123502413146197
1789665618696866800,12.30086669921875,3.915078517282009,-0.26478293613530696,0.42774135536961255
1789665618706818800,12.31081884765625,3.116160428199172,-0.33968532464541495,0.20398528001904487
1789665618716771800,12.320771728515625,2.1061481038749217,-0.07282412093132734,-0.043555283283814784
1789665618726723800,12.330723876953124,1.033726377388835,0.30078619660437106,-0.13440890883728862
1789665618736676600,12.340676513671875,0.0802963565081358,0.5973758913669734,-0.10442388574443758
1789665618746629600,12.350629638671874,-0.4936743285477161,0.8941826629463583,-0.03861987270824611
1789665618756582000,12.360581787109375,-0.6327636502861976,1.14223687485978,-0.055705557141639286
1789665618766535000,12.370534912109376,-0.38800446133017535,1.2196163940731435,-0.2141764922309667
1789665618776487000,12.38048681640625,0.005318564674258232,1.0691961155030876,-0.4487934226833284
1789665618786440000,12.39043994140625,0.5049281284898519,0.8162423680450767,-0.7445618641909212
1789665618796393000,12.40039306640625,0.9263333396404981,0.5240709646487608,-1.0094090977340937
1789665618806345000,12.410344970703125,1.123063533964753,0.3730514050113037,-1.0889947486896068
1789665618816298000,12.420298095703124,0.9086275870800018,0.2539773548847064,-1.0319535224974155
1789665618826250000,12.43025,0.5658166046947241,0.25657559121698137,-1.0559917660150677
1789665618836202800,12.44020263671875,0.19122867429852486,0.3362402622254565,-0.9760872583687304
1789665618846155000,12.450155029296875,-0.19173954643011093,0.3670496803784743,-0.9260998962108046
1789665618856108000,12.46010791015625,-0.5209457818329334,0.5237225530698895,-0.888116494775191
1789665618866061000,12.47006103515625,-0.8388233984917401,0.7314524264447391,-0.7584008583206683
1789665618876013000,12.480012939453125,-1.2305261298179626,0.9098566904835402,-0.5606782554255798
1789665618885966000,12.489966064453125,-1.68527539216578,1.0662437685035169,-0.3710775111224502
1789665618895917800,12.499917724609375,-2.1032167265981436,1.194103694088757,-0.2918158314242959
1789665618905870800,12.509870849609374,-2.443224342000484,1.3233657415568827,-0.3076157503634691
1789665618915823900,12.519823974609375,-2.594042679977417,1.3920306969821452,-0.33349344773534684
1789665618925776100,12.529776123046876,-2.5754233197033405,1.412579856275022,-0.42396607461459934
1789665618935729200,12.539729248046875,-2.5356758312046526,1.4110618529275059,-0.5775094171086326
