time,seconds_elapsed,z,y,x
1789756985880035800,0.089035888671875,-0.6296873115807772,-0.012533610619604587,0.05511931821890175
1789756985890050800,0.09905078125,-0.6441688413977623,0.046235096952319144,0.1525755569078028
1789756985900065000,0.10906494140625,-0.6537304504692554,0.06538724892884493,0.14772643637619912
1789756985910079000,0.119078857421875,-0.3693395083487034,0.13492577231824399,0.2117678967192769
1789756985920093000,0.129093017578125,0.1423527074486017,-0.19740239449739455,0.13710304329209028
1789756985930107000,0.13910693359375,0.25585282990038394,-0.2813359384641051,0.037530835362523794
1789756985940121900,0.149121826171875,0.36912732690274713,-0.2659481074571609,-0.04466638633087277
1789756985950136000,0.159135986328125,0.36337855411767955,-0.2531131758034229,-0.04381313050240278
1789756985960150000,0.16914990234375,0.5552250680536032,-0.2193108594447374,-0.15184746182896197
1789756985970163700,0.179163818359375,0.44056466965079305,-0.2651896903052926,-0.08965791296288371
1789756985980178000,0.189177978515625,0.3842033154815435,-0.2527054717853665,-0.07249072425849735
1789756985990192600,0.199192626953125,0.39518180561363697,-0.21054507692605257,-0.11245587409585714
1789756986000206600,0.20920654296875,0.3960416373133659,-0.21313509341925382,-0.11515336955152451
1789756986010220800,0.219220703125,0.25794366469979285,-0.11182692854255437,-0.18682510557733475
1789756986020234800,0.22923486328125,0.25091595802009103,-0.09534633386284112,-0.18916114730946718
1789756986030249000,0.2392490234375,0.27803368204832074,-0.07066051315665245,-0.09726641520522535
1789756986040263700,0.249263671875,0.27944997858703136,-0.04924918407648801,-0.0270953660659492
1789756986050277600,0.259277587890625,0.28057459870278834,-0.055803135764598846,-0.04390541189573705
1789756986060291800,0.269291748046875,0.16848375852704048,-0.05494505763053894,0.0901385360866785
1789756986070305800,0.279305908203125,0.0038514147311449047,0.02245353160947561,0.14075250571034847
1789756986080319700,0.28931982421875,-0.13276011871695517,0.02329319730401039,0.2444279842402786
1789756986090334700,0.299334716796875,0.013886486533284186,0.0644581513851881,0.2649840847305953
1789756986100348700,0.3093486328125,0.014729951620101928,0.06107961486279964,0.2580999512400478
1789756986110363000,0.31936279296875,0.06185176827907562,0.1122477843031287,0.19460808760374784
1789756986120376800,0.329376953125,-0.10840659870505333,0.014463117377460002,0.1025844684228301
1789756986130390500,0.339390625,-0.10184709405899048,-0.03353752794265747,0.12654365535490214
1789756986140405800,0.34940576171875,-0.09639584291577338,0.02481383100003004,0.1938902947232127
1789756986150419700,0.359419677734375,-0.09480886598527431,0.018657938718795775,0.18095365626066923
1789756986160433700,0.36943359375,-0.029708325043320653,0.123217214345932,0.23870361524410544
1789756986170448000,0.37944775390625,-0.029033786782622334,0.10536357774734496,0.20357487258724868
1789756986180461600,0.389461669921875,-0.15673019236922264,0.03727145377397537,0.16473185864761472
1789756986190476500,0.3994765625,-0.2947726354032755,-0.03232669084817171,0.1611011739950627
1789756986200490800,0.40949072265625,-0.2925830164045095,-0.03833908300548792,0.15425364618785678
1789756986210504700,0.419504638671875,-0.16326047092080115,0.13248100951462982,0.11038695886731147
1789756986220519000,0.429518798828125,-0.03571662554740906,0.16820231123715637,0.05312441807463765
1789756986230532600,0.43953271484375,0.035088849037885665,0.0892021320194006,0.005454173752665519
1789756986240547600,0.449547607421875,0.08037234435379505,-0.016272504886984823,-0.02059453280456364
1789756986250561800,0.459561767578125,0.07777356003224849,-0.01478957285284996,-0.04352108875326812
1789756986260575700,0.46957568359375,0.11882160973548889,-0.08583470141291617,-0.06146941789798438
1789756986270590000,0.47958984375,-0.052154550129175185,-0.09665303254723548,-0.031583252069726585
1789756986280603600,0.489603759765625,-0.059573301953077314,-0.13928542883247136,0.04045717113800346
1789756986290618600,0.49961865234375,-0.06434767674803733,-0.1298217271775007,0.035666721991077066
1789756986300632800,0.5096328125,0.022248072165250776,-0.16918664609938858,0.6738076083362102
1789756986310646800,0.519646728515625,-0.43623745410144327,0.22700345977395772,-0.04268134999349713
1789756986320660700,0.52966064453125,-0.14587152922451496,-0.16399842980653045,0.06774703686274587
1789756986330674700,0.5396748046875,0.14113573287427425,-0.07298018827587366,-0.08522467975579201
1789756986340688600,0.549688720703125,0.21227380041480062,-0.03380465444624424,-0.20770225471556186
1789756986350703600,0.55970361328125,0.20568448515236376,-0.010929682554304598,-0.16781133915819227
1789756986360717800,0.5697177734375,0.6514379556179046,-0.3236488935366273,0.048251624406501645
1789756986370731800,0.579731689453125,0.5363479336261749,0.2868091091781855,-0.18898805576488376
1789756986380745700,0.589745849609375,0.49293607740104195,-0.28282880737036464,0.3761899587653577
1789756986390759700,0.599759765625,0.4944552497923374,-0.27423078263401984,0.42466055968478317
1789756986400774700,0.609774658203125,0.5044155027925968,0.16392741039693354,0.4376636875122785
1789756986410788900,0.619788818359375,0.4114765223324299,-0.059009822851419445,0.43322694717384874
1789756986420802800,0.629802734375,-0.15615093117654322,0.10667524486780167,-0.11101407778970897
1789756986430816800,0.639816650390625,0.041539632612466806,-0.09710632927268743,-0.0046925417304039
1789756986440830700,0.649830810546875,0.25622224773466584,-0.23719752153009174,0.015614917761087416
1789756986450845700,0.659845703125,0.27075346191227434,-0.24909809494316576,0.07926847476512193
1789756986460859600,0.669859619140625,0.4297130207687616,-0.22122283054590225,0.05342836945727467
1789756986470873900,0.679873779296875,0.5049187761396169,0.3848486276477575,-0.4837617140814662
1789756986480887600,0.689887451171875,0.5177192210018634,0.36636984488815066,-0.4560385715059936
1789756986490901800,0.69990185546875,0.006978022319078445,-0.06655073975026607,0.12423983539193868
1789756986500916700,0.709916748046875,0.019962007054686544,-0.08950783696770667,0.13918153006657957
1789756986510930700,0.7199306640625,-0.5676140095055103,-0.17977964404523372,-0.04425093739777803
1789756986520945000,0.72994482421875,-0.5235206007570028,-0.09974807595312594,-0.05572276400476694
1789756986530958600,0.73995849609375,-0.5124918417423964,0.03512099774181843,-0.130759300288558
1789756986540972800,0.749972900390625,-0.5618938782930374,0.05858575222045183,-0.17552461694926022
1789756986550987800,0.75998779296875,-0.526743069934845,-0.03925824367702007,-0.10969693077653646
1789756986561001700,0.770001708984375,-0.6401064142644405,-0.056764966534078115,-0.1451866157002747
1789756986571016000,0.780015869140625,-0.7114642620354891,-0.05359685789197683,-0.13768471563756465
1789756986581029600,0.790029541015625,-0.6265238791137934,-0.07298457219004631,-0.05813040966838598
1789756986591043600,0.800043701171875,-0.5621832166284323,-0.0736886288061738,0.025090309853851793
1789756986601058800,0.810058837890625,-0.5098170695751905,-0.06377747564464807,0.1326340081192553
1789756986611072800,0.82007275390625,-0.36227322322428224,-0.09541296935826539,0.28305428668931126
1789756986621086700,0.830086669921875,-0.16702479189038275,-0.16105506983101367,0.49277153448909516
1789756986631100700,0.8401005859375,-0.10456979702115059,-0.1942223031565547,0.6854926393024623
1789756986641114600,0.850114501953125,-0.2634258955031633,-0.22472177857756614,0.7464271466061473
1789756986651129600,0.860129638671875,-0.3456663718163967,-0.3112044225051999,0.6724686148174107
1789756986661143800,0.870143798828125,-0.34234219582974906,-0.29049861134588717,0.45952597523033617
1789756986671157800,0.88015771484375,-0.15985387734770773,-0.013273030810058116,0.16411489579305052
1789756986681171700,0.890171630859375,0.06569499970376491,0.24390607925802468,-0.05577420193105936
1789756986691185700,0.900185546875,0.10179565613269806,0.11780629521310329,-0.08639598855748772
1789756986701200000,0.910199951171875,0.09862813201248645,0.14123247124701738,-0.044053953520953655
1789756986711214800,0.92021484375,-0.010115735822916031,-0.3113692576780915,-0.21060440589785576
1789756986721228800,0.930228759765625,-0.28327158270180225,-0.09169424109607935,-0.5208933209933341
1789756986731242800,0.94024267578125,-0.6766776108145713,0.12494652235656976,-0.5168753175236285
1789756986741256700,0.950256591796875,-0.8952110561460256,-0.8123062707051635,0.7932341982275247
1789756986751270700,0.960270751953125,-0.8861632418155669,-0.7211296237424015,0.9928202203743159
1789756986761286000,0.970285888671875,1.274418463036418,-1.2891881621450185,0.6865516468361019
1789756986771299800,0.9802998046875,0.04400573046505451,-0.3536769520536065,0.7732327359452843
1789756986781313500,0.9903134765625,0.05453413874208927,-0.8472448976173996,0.7152873274549841
1789756986791327700,1.00032763671875,-0.44318625032603737,-1.2513906386703253,0.259875509545207
1789756986801341700,1.010341796875,-0.42848377123475073,-1.118365731537342,0.4361702340841293
1789756986811356700,1.020356689453125,-0.4590215328395366,-1.590230963858962,0.056742170180380344
1789756986821371000,1.030370849609375,0.6367448288768529,-1.4352847322970628,-0.3942538771137595
1789756986831384600,1.040384521484375,0.8067945215463638,-1.142832941056788,0.08738923737853765
1789756986841398800,1.050398681640625,0.7643892120152711,-0.8866086474955082,0.5833908398300409
1789756986851412700,1.060412841796875,0.1891214728862047,-0.7360504217594862,0.7766495586514472
1789756986861427700,1.070427734375,-0.03908873232901096,-0.46899610662609337,0.9328110112220048
1789756986871442000,1.08044189453125,-0.1807084493279457,-0.2388882510960102,0.845179781781137
1789756986881455600,1.09045556640625,-0.16945815651714802,-0.21338088487386703,0.8873346236824988
1789756986891469800,1.1004697265625,-0.2721855405420065,-0.06181202079057693,0.7668617396086453
1789756986901483800,1.11048388671875,-0.2745931862056255,0.07129968784302472,0.6012365853831172
1789756986911498800,1.120498779296875,-0.8071779679059982,0.15940087288320062,0.09785685537904501
1789756986921513000,1.130512939453125,-1.091684645360708,0.2570877785228193,-0.09212035755366087
1789756986931526700,1.140526611328125,-1.140109945833683,0.3067129563048482,-0.1769961508065462
1789756986941540600,1.15054052734375,-0.7328349668443203,0.5109178704239428,-1.039520742881298
1789756986951554800,1.160554931640625,-0.38517362181842324,1.335791800148785,-2.4022049338698386
1789756986961568800,1.17056884765625,-0.3307745076328516,3.4001845828339454,-4.937518946024775
1789756986971583700,1.180583740234375,-0.11401157910525798,4.044300232739746,-4.986397250962257
1789756986981597700,1.19059765625,-0.12414017440974712,4.022494351384044,-5.027048410302401
1789756986991611600,1.200611572265625,0.10058277321159839,0.3573448269113898,-0.16515286053866146
1789756987001625900,1.2106259765625,0.30087796654105187,0.7743107404403388,0.10491524945795536
1789756987011639800,1.220639892578125,0.2780225761324167,0.7304846043258905,0.00753244133144617
1789756987021654800,1.23065478515625,0.6573498100101948,-0.008132599181681872,1.2909268225058912
1789756987031668700,1.240668701171875,0.6697206312835217,0.07518953488841652,1.1980281740561127
1789756987041682700,1.2506826171875,0.39784430282115935,-0.06554360853433609,0.6167503808572888
1789756987051697000,1.26069677734375,0.35238603546023367,-0.07590747389942407,-0.004369885647296905
1789756987061710800,1.2707109375,0.6462035620957612,-0.11618103209882974,-0.2679886733740568
1789756987071725800,1.280725830078125,0.8694961846530437,0.0014513678520917891,-0.4447074685439467
1789756987081739800,1.29073974609375,1.3852788846343755,0.21670535312145947,-0.31756489744782446
1789756987091753700,1.300753662109375,1.5279998408734798,0.21516309211552143,0.08438523325696587
1789756987101767700,1.310767578125,0.8935796555519103,-0.18549743717014788,0.5210254229404032
1789756987111782000,1.320781982421875,0.3226911544203758,-0.43963586436808105,0.8862709399737417
1789756987121796900,1.330796875,-0.33240532370507714,-0.39680005446523425,1.0267902945153415
1789756987131810600,1.340810546875,-0.7817804917991161,-0.38120939436256884,1.058641476806253
1789756987141824800,1.35082470703125,-1.2930144424349068,-0.3082978874087334,0.9526027762763202
1789756987151838700,1.360838623046875,-1.264278177294135,-0.4122191573932767,0.8697869842931628
1789756987161853000,1.37085302734375,-1.0612427453458309,-0.4829597500488162,0.37951223505586384
1789756987171866600,1.38086669921875,-0.34616496898829935,0.2577852592676878,-0.2523113579012453
1789756987181881600,1.390881591796875,0.1553594885379076,0.439923156876862,-0.3105484428144991
1789756987191895800,1.400895751953125,0.503609447106719,0.17095716290324925,-0.12307532165721058
1789756987201909800,1.41090966796875,0.5258230324804782,0.08917875114381313,-0.24156324245892463
1789756987211923700,1.420923828125,-0.027238720059394834,-0.8102689196586609,0.3447131627447903
1789756987221937700,1.430937744140625,-0.6974427509456873,-0.718417149913311,0.4489996127799153
1789756987231952600,1.44095263671875,-1.0569166988402605,-0.44262277122437954,0.4122971180003136
1789756987241966800,1.450966796875,-0.7962403943061828,-0.3931415319576859,0.36648492263518273
1789756987251980800,1.460980712890625,-0.4441261615246534,-0.25369243699610233,0.2797281379412859
1789756987261994800,1.470994873046875,-0.4201502426534891,-0.3062985302850604,0.2107040303474292
1789756987272008700,1.4810087890625,-1.8767396287858484,-0.568550705833733,0.4741669699253514
1789756987282023700,1.491023681640625,-1.3632944318413733,-0.5446119041025638,0.454914097520709
1789756987292037600,1.50103759765625,-0.9510282204359769,-0.5943818971827626,0.4196406856961548
1789756987302051800,1.5110517578125,-0.7229167994201183,-0.6043684536680579,0.4078253428811207
1789756987312065800,1.521065673828125,-0.5388970335870981,-0.5163800813525915,0.34393794058859345
1789756987322079700,1.531079833984375,-0.5024012403607369,-0.4445873492956161,0.3727658660681918
1789756987332094700,1.5410947265625,-0.5756178677409887,-0.5001595989137888,0.5115186858613043
1789756987342108700,1.551108642578125,-0.7437462369590997,-0.7702578117877245,0.3483706623390317
1789756987352123000,1.561122802734375,-1.0243740271538495,-0.9141822985976934,0.1516323212409392
1789756987362136800,1.57113671875,-1.9182950434893369,-1.0228539779797197,0.5958331554370001
1789756987372150800,1.58115087890625,-2.8043898962438103,-0.9391448904186487,0.8497913672298193
1789756987382164700,1.591164794921875,-3.430824343508482,-0.3631646191060543,0.642588732599467
1789756987392179700,1.6011796875,-3.4378502966225146,-0.34290275232195855,0.526610346933268
1789756987402193700,1.611193603515625,-4.359603907257318,-1.1923983514755963,1.4324302196487784
1789756987412207900,1.621207763671875,-3.9365135194987055,-2.2588462642490863,2.1437710014350713
1789756987422221600,1.6312216796875,-3.456663718163967,-2.5787726301312444,1.980311939202249
1789756987432235800,1.64123583984375,-3.5721272496432066,-2.8356673702999946,1.3545663509845733
1789756987442250800,1.651250732421875,-3.764186529546976,-3.02687675537616,0.6686633042503148
1789756987452264700,1.6612646484375,-3.341154009455442,-2.870658019660413,-0.21399492511898277
1789756987462279000,1.67127880859375,-2.5781156275272368,-2.4024323128849265,-0.9968770214844495
1789756987472292600,1.681292724609375,-2.0092057329922914,-1.968875768430531,-1.3787866000056266
1789756987482306800,1.691306884765625,-2.019445387455821,-1.8606553399473427,-1.6297465432979166
1789756987492321800,1.70132177734375,-2.4480326190650463,-1.5553803074911237,-1.9854124772116541
1789756987502335700,1.711335693359375,-2.8510300668656825,-2.446763037520647,-2.1641841132581234
1789756987512350000,1.721349853515625,-2.732283860453963,-2.4419217349693176,-2.605349379150569
1789756987522363600,1.73136376953125,-3.7452404215365647,-5.855360351651907,-0.6395256917670369
1789756987532377600,1.741377685546875,-4.5618104871660465,-6.189945357483625,-0.2857522936016321
1789756987542392800,1.751392822265625,-4.7365053752928965,-6.421746280667185,-0.25061551376879215
1789756987552406800,1.76140673828125,-4.589959307807684,-6.756507812109589,-0.6076040745884179
1789756987562420700,1.771420654296875,-4.433985486763715,-6.798343797320127,-0.9654010291814803
1789756987572434700,1.7814345703125,-4.296757867243886,-6.610075141870975,-1.4994295799493789
1789756987582448600,1.79144873046875,-3.750101890093088,-6.492351264244317,-1.9601836356699465
1789756987592462800,1.801462890625,-2.9500761320292948,-6.488827766293287,-2.0877806725353003
1789756987602477800,1.811477783203125,-2.1832851195693013,-6.663729575169086,-1.9570628733009099
1789756987612491800,1.82149169921875,-1.3939859227031468,-7.057417927354574,-1.5036632719963787
1789756987622505700,1.831505615234375,-0.6199643744677305,-7.320126029977202,-0.6186451085627078
1789756987632519700,1.841519775390625,-0.0031467735931277273,-7.116613628166913,-1.003041316267848
1789756987642534000,1.851533935546875,0.44168958202749486,-6.942761620604991,1.74570151155591
1789756987652548900,1.861548828125,0.5589195386573672,-6.684558428186178,2.774226228648424
1789756987662562800,1.871562744140625,0.5985648819558322,-6.366756214851141,3.468265893152356
1789756987672576800,1.88157666015625,0.5844232516176998,-5.856597199970484,3.7549189349859953
1789756987682590700,1.8915908203125,0.48357612838149067,-5.158488094070553,3.885657192486524
1789756987692604700,1.901604736328125,0.4357288835247978,-4.475514013460279,4.159290009227395
1789756987702620000,1.911619873046875,0.3784031047701835,-3.9353444757193325,4.6567952942401165
1789756987712633900,1.9216337890625,0.15891981136798858,-3.5904841595888137,5.459999097818136
1789756987722647600,1.9316474609375,-0.03904255509972572,-3.243400614450872,6.311340617099404
1789756987732661800,1.941661865234375,-0.18307108680605888,-2.7393349480092524,6.895939079153537
1789756987742675700,1.95167578125,-0.5113642990171909,-2.1893141706004737,7.182271218469738
1789756987752690700,1.961690673828125,-0.8624188666779548,-1.8061106798112392,7.05242669493854
1789756987762705000,1.971704833984375,-0.8358172024130821,-1.438349526695162,7.095668455293774
1789756987772718600,1.981718505859375,-1.0959330235201865,-1.2503770777136087,6.291884221479297
1789756987782732800,1.99173291015625,-0.8356582855243235,-0.9001857758186756,6.682591512027383
1789756987792746800,2.001746826171875,-0.3331179289538413,-0.6157059863708912,7.358345578256249
1789756987802761000,2.011760986328125,0.19433022051043808,-0.26909692687690256,7.8277371139407155
1789756987812776000,2.02177587890625,0.13585227604601532,0.07338847681581974,7.929988697147369
1789756987822789600,2.03178955078125,1.11239432897754,0.5305860090985894,8.51345318673551
1789756987832803800,2.041803955078125,1.3252689448297024,0.8009691763937473,8.466506726643443
1789756987842817800,2.05181787109375,1.4400924248397349,1.0911270114779472,8.281402088183164
1789756987852831700,2.061831787109375,1.3182406536281108,1.3553311978772282,8.05766405994594
1789756987862847000,2.071846923828125,1.1295569876372813,1.603127270311117,8.030369225785135
1789756987872860700,2.081860595703125,0.8528396488845348,1.9718451396301389,7.854109572559595
1789756987882874600,2.09187451171875,0.4061246399104595,2.5955145060956477,7.38851918272376
1789756987892888800,2.101888916015625,0.37450905647370963,2.7605262045979497,7.483049231767654
1789756987902902800,2.11190283203125,-0.446823730045557,3.2430636375814674,7.339439802256226
1789756987912917800,2.121917724609375,-0.9120552234411239,3.4774925711810587,7.723130492040514
1789756987922931700,2.131931640625,-1.3544938702702523,3.7620144462049003,7.913300012674927
1789756987932945700,2.141945556640625,-1.7619757700085639,3.981538071617484,7.913437959840893
1789756987942959900,2.1519599609375,-2.2111983778893944,4.087106816548109,7.605787138164043
1789756987952973800,2.161973876953125,-2.560263159972429,4.176752016159892,6.998298214387893
1789756987962987800,2.17198779296875,-2.745669411727786,4.2560394878864285,6.466094540959596
1789756987973002200,2.182002197265625,-2.946159250846505,4.249804392889142,5.993257248735428
1789756987983016200,2.19201611328125,-2.993291588899493,4.213492139536142,5.545331694927811
1789756987993030400,2.202030517578125,-3.0146506032705305,4.227802988961339,5.377260024333
1789756988003044400,2.21204443359375,-3.01233881919682,4.183139086848497,5.149189519849419
1789756988013058300,2.222058349609375,-3.025919600781798,4.063236696138977,5.07453321505487
1789756988023073300,2.2320732421875,-2.698889540374279,3.8924510904103515,4.1377714203804725
1789756988033087200,2.242087158203125,-2.527635732612014,3.603447393797338,3.481521680566668
1789756988043101200,2.25210107421875,-2.415160277032852,3.288410261261463,2.942004469254613
1789756988053115400,2.262115478515625,-2.305069670763612,3.0245684784337876,2.5906267340540885
1789756988063129000,2.272129150390625,-2.221076797825098,2.8593121575206517,2.5191817925214766
1789756988073144300,2.282144287109375,-2.1642887426763773,2.689611424419284,2.357376781105995
1789756988083158300,2.292158203125,-2.1664777771532533,2.4534803630769253,2.090203515768051
1789756988093172200,2.302172119140625,-2.1247575272768735,2.244844334642589,1.3184142566293477
1789756988103186400,2.3121865234375,-2.0374042379945516,1.9308809688180684,0.17671031960248945
1789756988113200000,2.3222001953125,-1.774881428810954,1.818117636208236,-0.7039578319281339
1789756988123214300,2.33221435546875,-2.1751666950434445,1.4970225188076496,-1.6078770951867103
1789756988133229300,2.342229248046875,-4.771781855857372,0.9533142855465412,-2.988698415890336
1789756988143243300,2.3522431640625,-5.419586423408985,1.3422761937320231,-3.211609345653653
1789756988153257500,2.362257568359375,-3.3035938018679616,1.3867666389741002,-3.173540604022145
1789756988163271200,2.372271240234375,-2.9291736292541026,0.451616809540987,-3.427480293777585
1789756988173285000,2.38228515625,-2.9433646516919136,0.6858518280036747,-3.3778140533328056
1789756988183300400,2.39230029296875,-0.7869394819974899,1.1055134103573858,-3.807496094441414
1789756988193314300,2.402314208984375,1.4741642057895659,0.5716643078096211,-3.793810098916292
1789756988203328300,2.412328369140625,2.645765852952003,-0.8614572551041841,-3.7014948033124204
1789756988213342200,2.42234228515625,1.2980991983532906,-1.8138371824100612,-2.360055060404539
1789756988223356200,2.432356201171875,2.347078674453497,-0.35862777939401563,-0.9872393515020609
1789756988233371100,2.44237109375,3.848331962698698,-0.4773942979414016,-1.7205793452590703
1789756988243385300,2.45238525390625,1.7334627922296524,-1.8605030719950795,-2.4857833807885648
1789756988253399300,2.4623994140625,0.3830793164202943,-2.841094071523845,-2.9438188252002
1789756988263413200,2.472413330078125,0.4444412188231945,-2.9082570979535576,-2.9453333214163777
1789756988273427200,2.48242724609375,0.8750842139184475,-3.3114006762266155,-1.825249680045247
1789756988283442200,2.492442138671875,0.9844260476469993,-4.3668847119152545,-1.0726122806221245
1789756988293456400,2.502456298828125,1.1167255631148814,-4.463419378779828,-0.9528156883746385
1789756988303470300,2.51247021484375,0.9227590613503008,-4.361415925115347,-0.7157412087023258
1789756988313484300,2.522484375,0.8884032758273184,-4.3312332605585455,-0.2858306195348501
1789756988323498200,2.532498291015625,0.5881062509793787,-4.551975614111125,0.34537352634966373
1789756988333512200,2.54251220703125,0.04630816218852996,-3.278864434280991,-0.6131272219240665
1789756988343527400,2.55252734375,0.15009937605261803,-1.4572981189236045,-0.25795886226892467
1789756988353541400,2.562541259765625,-0.0707493604838848,0.2518066049831919,0.3397235377639532
1789756988363555000,2.57255517578125,0.24391397030353545,1.0283514063522219,0.1725958700209856
1789756988373569300,2.5825693359375,0.44922260788083074,1.866369041419029,1.1110077699899672
1789756988383583200,2.592583251953125,0.4732851821221411,1.7793370930455623,1.7785253382712602
1789756988393598200,2.60259814453125,0.48523858170099554,1.7744461061336099,1.7792875548154115
1789756988403612400,2.6126123046875,0.5933586916148662,-0.6947264046590775,3.1980490223348137
1789756988413626000,2.622626220703125,0.38058454046249385,-0.21799146567555144,2.5460364816993475
1789756988423640300,2.632640380859375,0.15840535903982816,-0.960043959127739,1.5077888274937867
1789756988433654300,2.642654296875,0.5982547930933535,-1.8822145530655978,0.8960124356567859
1789756988443669200,2.652669189453125,0.7373100664317608,-2.1736307176478205,1.0667214690178632
1789756988453683500,2.662683349609375,0.19238372608516363,-1.6057479742035268,2.007009684252739
1789756988463697200,2.672697265625,-0.4094925819735974,-1.458647195445001,3.4353438667595384
1789756988473711400,2.68271142578125,-0.2744026320695877,-2.487659988315403,5.32640077471137
1789756988483725300,2.692725341796875,-0.2467395491182804,-3.641006140080094,6.559035859507322
1789756988493739300,2.7027392578125,-0.46896775731444357,-3.1049805702760813,5.671714679828286
1789756988503754500,2.71275439453125,-0.32743279598951336,0.27372721702605485,2.771041168871522
1789756988513768200,2.722768310546875,-0.4132862021028995,0.06250285259895026,2.7741619312405583
1789756988523782100,2.7327822265625,-1.7846750930726527,3.437733976766467,0.041326866644620895
1789756988533796400,2.74279638671875,-1.191556055432558,3.487887123945355,-0.06432604943811893
1789756988543810300,2.752810302734375,0.3103951519489288,3.884402516250312,-2.0200994674503803
1789756988553825300,2.7628251953125,0.48080666366815566,4.1411975954368705,-3.6547166855245825
1789756988563839200,2.772839111328125,-0.6033119303524493,3.4911592774838205,-3.525260284528136
1789756988573853200,2.782853271484375,-2.526723293942213,3.1576684966295954,-3.8194565813481804
1789756988583867400,2.792867431640625,-2.519185299652815,3.083296269473433,-3.8090643666714428
1789756988593881300,2.80288134765625,-0.01277413224405609,2.8326243493422862,-2.112134192547202
1789756988603896300,2.812896240234375,0.6857037978351116,2.456568976742029,-3.913607275685668
1789756988613910300,2.82291015625,0.3989443730175495,1.4653525383025408,-5.971962531772255
1789756988623924200,2.83292431640625,-0.05341010314822197,0.9483024487338959,-6.989276119020581
1789756988633938400,2.8429384765625,-0.2703880991986021,0.5540203684389591,-6.4263429608076805
1789756988643952400,2.852952392578125,-0.43472529597282406,0.24374343604221937,-5.442281070297956
1789756988653966000,2.862966064453125,-0.25092236949456853,0.4035102196283638,-5.134892114427686
1789756988663981300,2.872981201171875,0.4025438588142395,0.040960225289314985,-4.974657713329791
1789756988673995300,2.882995361328125,0.7487935834765433,-0.4837492929913103,-4.492914061072469
1789756988684009200,2.89300927734375,0.7185434066414833,-0.37865357239991426,-4.509830124559998
1789756988694023400,2.9030234375,0.7248246788680553,-1.0401648860037327,-3.3981185902148483
1789756988704037000,2.913037109375,0.146841251039505,-1.6182457828573882,-2.0283996782839298
1789756988714052000,2.923052001953125,-0.23094167600572107,-1.8784379571363328,-0.7940022599905728
1789756988724066300,2.93306640625,-1.1500678607463837,-2.2404250568956137,0.19921441235542295
1789756988734080300,2.943080322265625,-2.342393731507659,-2.072821442203969,0.14579846398830412
1789756988744094500,2.953094482421875,-1.602538072246313,-1.3796668899714946,-0.44326106912791724
1789756988754108200,2.963108154296875,-0.9351421575833111,-1.2881496128775178,-0.5882260049015283
1789756988764123100,2.973123046875,-1.0887860013097523,-1.0134829230442643,-0.582426378712058
1789756988774137300,2.983137451171875,-1.24179571185112,-2.1893495341748,-0.42263504520654677
1789756988784151300,2.9931513671875,-1.9394155729293823,-2.1812844472713766,-0.8461170626312494
1789756988794165200,3.003165283203125,-2.825070280700922,-1.8873595147386193,-0.8148591700583696
1789756988804179200,3.01317919921875,-0.37033962530195713,-2.008009216684103,1.7329115880876778
1789756988814193200,3.023193115234375,5.265440986835956,-0.9389140042722225,2.1397423304408787
1789756988824208400,3.03320849609375,5.262465770417451,-0.5302314965724945,2.2321739459007977
1789756988834222300,3.043222412109375,9.650300915902852,1.2565879150524735,2.2441274185448883
1789756988844236300,3.053236328125,6.769595257219672,1.4614686826065182,2.0025141263991593
1789756988854250200,3.063250244140625,3.7448008610755203,1.657458579957485,0.9515952066689729
1789756988864264200,3.07326416015625,1.9529712200731038,1.989894298800826,0.28959786311388014
1789756988874279200,3.083279052734375,1.0354162301719188,2.3251544274151326,0.14098551074862478
1789756988884293400,3.09329345703125,0.3873591491639614,2.522735101088881,0.02217792953848839
1789756988894307300,3.103307373046875,0.2416203064084053,2.401526888477802,-0.15674831254780291
1789756988904321300,3.1133212890625,-1.3284651105225085,1.550021703067422,0.03726327046751976
1789756988914335200,3.123335205078125,-11.077051044088602,-2.9995798753887413,0.9511316808104514
1789756988924350200,3.13335009765625,-13.824736471813916,-5.203761067992448,0.4749164365857839
1789756988934364400,3.143364501953125,-4.948993695241213,-1.5938520769655704,-0.9477338550657033
1789756988944378400,3.15337841796875,-1.5061387221992015,0.1927601216495037,-1.1683972981631756
1789756988954392300,3.163392333984375,-0.28618542432188987,0.6789882258445024,-1.5242033711999654
1789756988964406300,3.17340625,0.5598457135915756,0.6871604263842106,-1.9054963521927595
1789756988974420000,3.183419921875,1.4363351181328297,-0.21502689851522444,-1.8463626107007265
1789756988984435200,3.193435302734375,1.4756886388778685,-0.0620136808425188,-1.6714590482592582
1789756988994449200,3.20344921875,1.7640929082930088,1.806608692461252,-1.5213397984623909
1789756989004463000,3.213463134765625,1.067061076235771,3.2808746050596236,-1.8165975870341062
1789756989014477300,3.223477294921875,0.4253531085262075,4.039907258477807,-2.5223791272580622
1789756989024491000,3.233490966796875,0.4188473433613777,4.215367870280146,-2.2764088089466092
1789756989034506000,3.243506103515625,0.5064718508005142,4.735698150563239,-2.945567714694142
1789756989044520200,3.253520263671875,0.6663046853601932,5.848054997074604,-3.734612644538283
1789756989054534100,3.2635341796875,0.8941992487549781,6.455882943546771,-3.942078460149467
1789756989064548400,3.27354833984375,1.0157412233650684,6.708015291619301,-3.900059519587457
1789756989074562000,3.28356201171875,0.9679518827080726,6.596969576582312,-3.7118405484989285
1789756989084577000,3.293576904296875,0.8596586812496185,6.502544156956672,-3.515659512490034
1789756989094591200,3.30359130859375,0.5742530091285705,6.6549559016048905,-3.325461642543971
1789756989104605200,3.313605224609375,0.6384440340101718,6.630055269104242,-3.1393375979080793
1789756989114619100,3.323619140625,0.7039519867092371,5.789553123745322,-2.605058287249505
1789756989124633000,3.333633056640625,0.6051520052611827,3.768891346237063,-1.6298855133771895
1789756989134647000,3.34364697265625,1.280839435994625,1.9501503174334764,-1.7014042507983742
1789756989144662000,3.353662109375,1.6191466772198677,-2.4540450112223624,-2.4146204710677264
1789756989154676200,3.36367626953125,2.407709961026907,-8.3756691023767,-3.521821249990165
1789756989164690000,3.37368994140625,4.63273111256361,-15.385836618256567,-3.3991067244693633
1789756989174704000,3.3837041015625,7.041472754725813,-21.60745487885475,-3.0314187827199697
1789756989184718000,3.393718017578125,8.123693990692496,-25.227604693388937,-2.3292209462016817
1789756989194733000,3.403733154296875,8.696551161548495,-26.33403448793888,-1.3621078524053096
1789756989204747300,3.413747314453125,6.594761837404966,-23.976017070841788,0.047413420016691084
1789756989214761000,3.423760986328125,2.2073389259822664,-15.750685829448699,0.3147655490528792
1789756989224775200,3.433775146484375,-0.9499358951546252,-8.052621389603614,0.1804289747994393
1789756989234789000,3.4437890625,-3.0200556771844624,-3.100557200875878,0.3342915027778596
1789756989244804000,3.45380419921875,-15.35528365908265,2.193954397621751,0.1575846537740901
1789756989254818300,3.463818359375,-26.036741978669166,6.91178546758294,-0.4488395633799955
1789756989264832000,3.47383203125,-10.985056651002168,6.1069309741884465,-0.635177652625367
1789756989274846000,3.483845947265625,-7.64656280066669,5.769056863683462,-0.873030642389506
1789756989284860200,3.493860107421875,-5.015460848361253,5.236859035474062,-1.1108091786779464
1789756989294874000,3.5038740234375,-2.217732163572311,3.6307261536061763,-1.328216104197502
1789756989304889000,3.51388916015625,-0.22313129451572894,1.8687030373245477,-1.3939501207374037
1789756989314903000,3.523903076171875,1.382950149425864,0.28479075509309765,-1.2388878615804015
1789756989324917000,3.5339169921875,2.4945716674000025,-1.438587280973792,-1.01285207779482
1789756989334931200,3.54393115234375,3.3705063606679437,-2.6905980973690746,-0.8470525899156928
1789756989344945200,3.553945068359375,3.6876901498436925,-3.281260974028706,-0.6044338470544666
1789756989354960100,3.563960205078125,3.4361212808728214,-2.8813994861662384,-0.14668869995945133
1789756989364974000,3.57397412109375,2.5515958693921563,-1.7023112826406954,0.1280490823486354
1789756989374988000,3.583988037109375,1.2300526670873164,-0.5158931746184826,0.3702199809776619
1789756989385002200,3.594002197265625,1.306766488933563,-0.517013118559122,0.3799466444177553
1789756989395016200,3.60401611328125,-2.3941607436239716,0.20593933669626713,1.5931351608678697
1789756989405031200,3.61403125,-4.478600873559713,0.1292161624997854,2.286603455224633
1789756989415045000,3.624045166015625,-6.08773352176547,-0.09572364274263381,2.9169261420994994
1789756989425059000,3.63405908203125,-6.6421770840525625,-0.4457873727351427,3.3421009349167345
1789756989435073000,3.644072998046875,-5.799108303076029,-0.757516988158226,3.3813457345902918
1789756989445087200,3.654087158203125,-3.9416730942189693,-0.9033411711096763,3.0068536657840013
1789756989455101200,3.66410107421875,-3.792632871830463,-0.9182306972056626,2.953225535970926
1789756989465116000,3.674115966796875,-1.8258206118009983,-1.0331272424519062,2.2763260990992187
1789756989475130000,3.684130126953125,1.2955972985349595,-1.4192910443514584,0.9865366100601851
1789756989485144000,3.69414404296875,1.4154782080650328,-1.4385165538251399,0.878066298469156
1789756989495158300,3.704158203125,2.6417513566136357,-1.4411065703183412,0.2843807495201006
1789756989505172200,3.714172119140625,3.257556857836246,-1.149862109041214,-0.023756284771114588
1789756989515187000,3.72418701171875,3.7360090673327444,-0.6623685149550438,-0.28885873518437144
1789756989525201200,3.734201171875,4.0627041966974735,-0.1076104798913002,-0.5663682472281157
1789756989535215000,3.744215087890625,4.089965128588676,-0.11893325341641903,-0.6518762009046971
1789756989545229300,3.754229248046875,3.525745437696576,0.5378752893239259,-0.8268508558209985
1789756989555243300,3.7642431640625,3.128627987845242,0.8622954594939947,-0.5675995425887406
1789756989565258000,3.774258056640625,2.5634943969786166,1.1400456484258175,-0.14289039452187716
1789756989575272200,3.784272216796875,1.6882650755010544,1.1851134551644324,0.44838038490302856
1789756989585286100,3.7942861328125,0.7090275364078581,0.9713029467016457,1.0697075721565634
1789756989595300000,3.804300048828125,-0.21214418268576263,0.5452566317468881,1.665684410380572
1789756989605314300,3.814314208984375,-0.7655728688418865,0.037489480438828465,2.1369059379711746
1789756989615329000,3.8243291015625,-0.6150502989411354,-0.39367841531336306,2.3425006990134714
1789756989625343000,3.834343017578125,0.23728783016204832,-0.6209650759428739,2.1163465495452285
1789756989635357200,3.844357177734375,1.2136030520677565,-0.6031570320516825,1.7968319793343543
1789756989645371100,3.85437109375,1.8310732716321945,-0.3891267433583736,1.3904089409992098
1789756989655385300,3.86438525390625,1.6485587957955896,-0.12660510321855545,1.0170160656064748
1789756989665399000,3.87439892578125,0.914049758259207,0.047699324285984036,0.7169992459394038
1789756989675414000,3.8844140625,0.14436273209676145,0.16565701066851615,0.3412250283680856
1789756989685428200,3.89442822265625,0.15001739685758947,0.1488929228723049,0.26513284555152056
1789756989695442200,3.904442138671875,0.07965045982003212,0.4182669131249189,-0.5645807792894542
1789756989705456000,3.9144560546875,0.30549218233823777,0.48154783742427826,-1.0668858657993376
1789756989715470000,3.924469970703125,0.17905542142391204,0.652399494126439,-1.6046932044535875
1789756989725485000,3.934485107421875,0.2332641276039183,0.6351087521076202,-1.6313552936688065
1789756989735499300,3.944499267578125,-0.5793289972186089,0.9496820665240288,-2.2480852162599563
1789756989745513200,3.95451318359375,-0.9622729602888226,1.045349010643363,-2.4470206655435263
1789756989755527000,3.96452685546875,-1.3055249644398688,1.1112702203184366,-2.5801658380553123
1789756989765541000,3.974541015625,-1.263519175620377,1.100443121355772,-2.585299401551485
1789756989775555000,3.98455517578125,-1.7927508475005625,1.3369523683607578,-2.7012399028927088
1789756989785570000,3.994570068359375,-1.7368872137203812,1.592373821106553,-2.7106159262642264
1789756989795584300,4.004584228515625,-1.51820310787186,1.9764953035235404,-2.7160651315808293
1789756989805598000,4.014597900390625,-1.2337640888258814,2.376078558966517,-2.822745929406583
1789756989815612200,4.024612060546875,-1.2277448285363615,2.376313536766171,-2.8155934273034333
1789756989825626000,4.034626220703125,-0.8951492429561912,2.9970372051686045,-2.8704782791793346
1789756989835641000,4.04464111328125,-0.8802639546439051,3.1065023730158803,-2.664155496123433
1789756989845655300,4.0546552734375,-0.7445102070689201,3.0584932521283625,-2.292197475839406
1789756989855669000,4.0646689453125,-0.5234197707310319,2.807671986654401,-1.7476643360614776
1789756989865683200,4.07468310546875,-0.4112824610650539,2.2796908993571994,-1.1339495235078036
1789756989875697200,4.084697265625,-0.4225172640457749,1.4822335304766892,-0.46732978084906934
1789756989885712100,4.094712158203125,-0.5523860452353954,0.6736030256748199,0.21565350598096847
1789756989895726000,4.10472607421875,-0.698439068506658,0.08383329846262931,0.7566684085048735
1789756989905740000,4.114739990234375,-0.5755379343725741,-0.170993110999465,1.1615884949311612
1789756989915754000,4.12475390625,-0.22862638480067252,-0.022226444855332372,1.5975081152550876
1789756989925768200,4.134768310546875,-0.32466932262554765,-0.0004243628919124603,1.6212665919832885
1789756989935782100,4.1447822265625,0.17965864801406858,0.3470768231362104,2.043261731851101
1789756989945797000,4.154797119140625,0.6529284864366054,0.4926110832303762,2.7404262503772974
1789756989955811000,4.16481103515625,0.5027811795890331,0.4251981736928224,2.9314304682701824
1789756989965825000,4.174824951171875,0.34548736198768015,0.3267868993014097,2.8570784071192143
1789756989975839200,4.184839111328125,0.2897568530678749,0.3368009283155203,2.8698028641358015
1789756989985853200,4.194853271484375,0.2878502157289535,0.3559790915161371,2.3922464344352483
1789756989995868200,4.2048681640625,0.9178735543310642,-0.7312059043377638,0.8453123221196234
1789756990005882400,4.21488232421875,1.4209551781713963,-2.517101479116082,0.009828589444607495
1789756990015896300,4.224896240234375,1.2019241585813463,-4.260053984224796,-0.4906280927196145
1789756990025910300,4.23491015625,1.094394415776059,-4.239133945792913,-0.4306473790094256
1789756990035924200,4.24492431640625,-0.0035058892291039228,-5.989491758722067,-0.9075076431393623
1789756990045939200,4.254939208984375,-6.298221023285389,-8.661808933991193,-1.9709527208350597
1789756990055953200,4.264953125,-10.467174932914972,-9.352661200630664,-1.6320976364687083
1789756990065967400,4.27496728515625,-8.674611132419109,-7.040816921165585,-0.9075793932013213
1789756990075981300,4.284981201171875,-8.621348328787088,-7.039888700404763,-0.8778544092841446
1789756990085995300,4.294995361328125,-4.951693017327785,-2.8698966798990964,-0.6740669899247587
1789756990096009200,4.30500927734375,2.1257272490918635,1.1800719538658857,-1.615744175300002
1789756990106024200,4.315024169921875,2.845771707946062,2.2771324470460415,-1.821335136950016
1789756990116038400,4.325038330078125,2.849922982406616,2.280298217600584,-1.7966133681476115
1789756990126052400,4.33505224609375,2.824534858649969,3.4449826327204702,-1.9029639111056922
1789756990136066300,4.34506640625,3.0372096410810947,4.222371027040482,-1.8242542392671106
1789756990146080300,4.355080322265625,3.3328245725274086,4.656095037016272,-1.4724281757771969
1789756990156095200,4.36509521484375,3.4616403375327587,4.023829399380087,-1.0454586815629154
1789756990166109400,4.375109375,3.674264851081371,2.95855169942975,-0.6077591190196573
1789756990176123400,4.385123291015625,3.688386899936199,2.9622569836884733,-0.5644562761269509
1789756990186137000,4.39513720703125,3.8626059872448444,1.6727245381504297,-0.2436016894839704
1789756990196151300,4.4051513671875,3.6124797182977195,-0.3620692250847816,0.06946509282700718
1789756990206165200,4.415165283203125,3.276604088133573,-1.081839543172717,0.1269876727953553
1789756990216180200,4.42518017578125,3.265618583738804,-1.0801356618642806,0.13479608152396977
1789756990226194400,4.4351943359375,2.922305497050285,-1.4882500142872332,0.18022146952860058
1789756990236208000,4.4452080078125,2.606877611631155,-1.6339181298941372,0.259577111120522
1789756990246222300,4.455222412109375,1.94428697835803,-0.8195207321286201,0.31798385351225733
1789756990256236300,4.465236328125,1.619175903314352,-0.18800035990178585,0.35404096306040883
1789756990266251300,4.475251220703125,1.3781962328970432,0.21503625086545944,0.456388407856971
1789756990276265500,4.485265380859375,1.1444891838312148,0.269726456952095,0.6457860673360526
1789756990286279200,4.495279052734375,0.9635901803672313,0.10532383025884627,0.8468652506500483
1789756990296293400,4.50529345703125,0.8547919519960879,-0.1017021326303482,1.0195881080515683
1789756990306307300,4.515307373046875,0.7753834842383861,-0.2923883706152439,1.1405073476534335
1789756990316322300,4.525322265625,0.7127578089773654,-0.3594529051065445,1.2477173569850624
1789756990326336300,4.535336181640625,0.6510217760324478,-0.3209650612801313,1.3197457974940539
1789756990336350200,4.54535009765625,0.4495283128291368,-0.25938041950464247,1.3092112517371772
1789756990346364200,4.5553642578125,0.11970482231080531,-0.09181202225685119,1.3086939498648047
1789756990356378400,4.56537841796875,-0.9728858319789171,0.19840368049442766,1.3673610967583953
1789756990366392300,4.575392333984375,-3.4083126519709825,0.5873346090197563,1.519024799518287
1789756990376407300,4.5854072265625,-3.7956314691245554,0.7397171275734901,1.547030120036006
1789756990386421200,4.595421142578125,-2.475015903058648,0.6439636742144823,1.3202696752376855
1789756990396435200,4.605435302734375,-1.3904787913650274,0.4685907406955957,1.0375734812710433
1789756990406449400,4.615449462890625,-1.4402245267868041,0.4643985497027635,1.0279569271419198
1789756990416463400,4.62546337890625,-0.5410311230063438,0.23613164586424826,0.7865866499718278
1789756990426478300,4.635478271484375,0.27343283718936146,0.022982816180586813,0.2574918292790651
1789756990436492300,4.6454921875,0.3399497477352619,-0.04084697417318821,0.0071761021744459865
1789756990446506200,4.65550634765625,0.2088245367437601,-0.019638766449689864,-0.21581256900019943
1789756990456520200,4.665520263671875,0.09207505710721016,0.010841712009906768,-0.3496601176276803
1789756990466534400,4.675534423828125,0.02674721021540463,-0.0011766425639390945,-0.32921704905778165
1789756990476548000,4.685548095703125,0.013768924568220972,0.011486439654231071,-0.24343685431107878
1789756990486563300,4.695563232421875,-0.0018283844709396362,0.010698504146933555,-0.23774887180253862
1789756990496577300,4.705577392578125,-0.06376841555535794,0.05889350299537181,0.0251841986823827
1789756990506591200,4.71559130859375,-0.15200250626020131,0.15790625041127204,0.14641834945231674
1789756990516605400,4.72560546875,-0.1727262184023857,0.1569622475594282,0.1566821154437959
1789756990526619100,4.735619140625,-0.35529688140563664,0.36181963423788543,0.3458236812699586
1789756990536634000,4.745634033203125,-0.4236784167796373,0.47773558565974233,0.3883077551256865
1789756990546648300,4.7556484375,-0.4637595211468637,0.5515221218824387,0.4179900689449161
1789756990556662300,4.765662353515625,-0.4449490222148597,0.5930921496331691,0.44632593659125264
1789756990566676500,4.775676513671875,-0.39711657306849957,0.6066968966156244,0.5335312687702477
1789756990576690200,4.785690185546875,-0.3319997385788709,0.5532178198844194,0.6680913495812565
1789756990586705200,4.795705078125,-0.2508686117470264,0.4710796349018812,0.8242509024556726
1789756990596719400,4.80571923828125,-0.2020094499014318,0.4046574899673462,1.0187891396936029
1789756990606733300,4.8157333984375,-0.23908114331960675,0.35605157223045825,1.134479977122694
1789756990616747300,4.825747314453125,-0.33861002356410025,0.3451332878530025,1.2330755220398306
1789756990626761200,4.83576123046875,-0.4560625369034707,0.3699877431243658,1.3122259233832358
1789756990636775200,4.845775146484375,-0.5687374605774879,0.3905822028636932,1.3585510367065667
1789756990646790100,4.8557900390625,-0.7396392400316893,0.38259588028490543,1.3873974842235446
1789756990656804400,4.865804443359375,-0.9527724337548017,0.3498509640246629,1.4563693136408924
1789756990666818300,4.875818359375,-1.1712883434295653,0.27480127599835397,1.5766989898517727
1789756990676832300,4.885832275390625,-1.2871037570863961,0.15867606573998927,1.7460367348596453
1789756990686846200,4.89584619140625,-1.270526131772995,0.057876434907317156,1.9347998958274721
1789756990696861200,4.905861083984375,-1.0875279640726745,-0.037300679868459696,2.0968762715302405
1789756990706875400,4.91587548828125,-0.831803875118494,-0.0754857413560152,2.200555549452454
1789756990716889300,4.925889404296875,-0.6530559122085571,-0.02622808171212673,2.2404339708544314
1789756990726903300,4.9359033203125,-0.5153817179650068,0.08839315372407436,2.2247166156321763
1789756990736917200,4.945917236328125,-0.3703133218169212,0.060897244033217425,2.303232956855744
1789756990746931200,4.95593115234375,-0.16287015642896294,-0.25751637919843196,2.5084669217616318
1789756990756946400,4.965946533203125,0.010168927314877509,-0.6044301207274199,2.6867881836920975
1789756990766960400,4.97596044921875,0.04380056328177452,-0.5998953999072313,2.664908944839239
1789756990776974000,4.98597412109375,0.268600083270669,-1.1179583197802305,2.959028084769845
1789756990786988300,4.99598828125,0.48489904754832386,-1.5991700571179388,3.0710277395308014
1789756990797002200,5.006002197265625,0.7215447804145515,-2.315011219063401,3.164767807240784
1789756990807017200,5.016017333984375,0.8585445825278758,-3.178071233189106,3.227193283754587
1789756990817031400,5.026031494140625,0.911457769004628,-3.176070999282598,3.13621303614676
1789756990827045000,5.036045166015625,1.010533133327961,-4.08570571757853,3.1216943891897797
1789756990837059300,5.046059326171875,0.6025707565963268,-5.32052516067624,2.638075298449397
1789756990847073300,5.0560732421875,-0.05255129436179995,-4.999489372247457,1.8517741143554447
1789756990857088300,5.066088134765625,-1.023800611180067,-4.00922102831304,0.8529279116898775
1789756990867102500,5.0761025390625,-0.9947119524050504,-4.010984530854225,0.8034295020926743
1789756990877116200,5.0861162109375,-5.196191509521007,-1.2794155406713486,-1.193875292160362
1789756990887130400,5.09613037109375,-8.814525214543938,0.20944471446871757,-2.7159996651291847
1789756990897144300,5.106144287109375,-9.436306867566705,1.235273616605997,-3.5177187831073997
1789756990907158300,5.116158203125,-6.521978340744972,1.5225427445113657,-3.0217671572774645
1789756990917173500,5.126173583984375,-3.8739346059888597,1.4228010982990265,-2.4559245413586495
1789756990927187200,5.136187255859375,-1.683046610200405,1.1499936264663935,-2.294438094373047
1789756990937201200,5.146201171875,0.01039630632996559,0.8107359526485204,-2.247272438572347
1789756990947215400,5.15621533203125,1.3335375914812087,0.31930443459153174,-2.111821619466692
1789756990957229300,5.166229248046875,2.287049445426464,-0.41892450025081635,-2.03361156771332
1789756990967244300,5.176244384765625,2.9275977582395076,-1.0417349117994308,-2.179630980975926
1789756990977259000,5.186259033203125,3.9779263108611103,-1.1038888778954743,-2.5746213556706903
1789756990987273000,5.19627294921875,4.956717567491531,-0.9837287130326032,-2.8491069898486137
1789756990997287000,5.206286865234375,5.34620671442151,-0.8338625612139702,-3.0136808814555405
1789756991007300900,5.21630078125,5.405445669853687,-0.8430284489661455,-2.780744816762209
1789756991017314800,5.226314697265625,5.464906743603945,-0.8579740891635418,-2.8186995766252276
1789756991027330000,5.236330078125,5.226239441782236,-0.8932423864215612,-2.2105241318896414
1789756991037344000,5.246343994140625,4.920521633994579,-0.6163128662228584,-1.7607775001347064
1789756991047357700,5.256357666015625,3.2465865510106084,-0.481100678178668,-0.6139883687980473
1789756991057372000,5.266371826171875,0.43617607930302615,-0.5560591807901859,0.8883435084640979
1789756991067385900,5.2763857421875,-1.7057320508696139,-0.6964408804267644,2.1754848210819064
1789756991077400800,5.28640087890625,-2.180955215317011,-0.7169336333572864,3.0209149243623017
1789756991087415000,5.2964150390625,-1.3037035942316055,-0.7704495349675416,3.5055019833520054
1789756991097428700,5.3064287109375,0.1450057061754167,-0.7667471733182668,3.722461018973589
1789756991107443000,5.31644287109375,0.13928119104877112,-0.7967424986094236,3.577897941999137
1789756991117457000,5.326456787109375,2.22885459221974,-0.08018880448043346,3.323539734570682
1789756991127470800,5.336470947265625,2.511794020357728,0.46342999693155285,2.649761644589901
1789756991137486000,5.346486083984375,2.412007512090355,1.1933639816373587,1.4419243164420128
1789756991147499800,5.356499755859375,2.3023438990615306,1.8998305815160272,-0.05346563272774219
1789756991157514000,5.366513916015625,2.2522331297196447,2.3573604144930838,-1.2130378194004297
1789756991167528000,5.37652783203125,2.0498339498482645,2.389717792740464,-2.0728481840804216
1789756991177542000,5.3865419921875,2.0888554621599615,2.3688006769180294,-2.1134619340196252
1789756991187556900,5.396556884765625,1.272496116671711,1.0722089605182408,-2.6783175847277043
1789756991197570800,5.40657080078125,0.9018038785398006,0.7505401348829269,-2.9324805618450043
1789756991207584800,5.416584716796875,0.6332268838837742,0.6648948185622692,-3.255020909617841
1789756991217599000,5.426598876953125,0.6132374043002724,0.7573311101973056,-3.566503564542532
1789756991227613000,5.436613037109375,0.7335821319498121,0.9647200611799954,-3.7857223617896434
1789756991237627000,5.446626953125,0.8752633698776364,1.2422872947603463,-3.821518774574995
1789756991247641900,5.456641845703125,1.0526572878301144,1.541281931772828,-3.7197257487908004
1789756991257655800,5.46665576171875,1.0676983512260019,1.7982938685804604,-3.5053117214769123
1789756991267670000,5.476669921875,1.0455975785769522,1.8039093703746794,-3.5028546837136147
1789756991277684000,5.48668408203125,0.6636733139432966,1.9261194535046815,-2.669604701440036
1789756991287698000,5.496697998046875,0.41937458210587497,1.7354770546615124,-1.884498864610493
1789756991297713000,5.506712890625,0.32994974724650383,1.483397898080945,-1.0796665830478072
1789756991307726800,5.516726806640625,0.2443478316761553,1.501104235163331,-1.0759902326226234
1789756991317740800,5.52674072265625,0.5238403342306613,0.9923895738720894,0.34685178220868107
1789756991327755000,5.536755126953125,0.5798528749622405,0.6948685165435076,0.7923591689586639
1789756991337768700,5.546768798828125,0.439164155203104,0.3869628433227539,1.1558528738886118
1789756991347783000,5.556782958984375,0.04822773207426071,0.11182429819405078,1.4837915735736489
1789756991357798000,5.5667978515625,-0.6435832965947688,-0.1320236211359501,1.8303385276168584
1789756991367811800,5.576811767578125,-1.5512942072212694,-0.3800947111189365,2.140256125181913
1789756991377826000,5.586825927734375,-2.4286625865541396,-0.6865116070866585,2.3136545437574387
1789756991387839700,5.59683984375,-3.0971196276426314,-1.0087339749515056,2.313202123814821
1789756991397854000,5.60685400390625,-3.417947326278686,-1.3139496784359217,2.2566484619438647
1789756991407869000,5.616868896484375,-3.470843050163984,-1.412260999584198,2.1640923433214425
1789756991417883000,5.6268828125,-3.132829238927364,-1.1745353625267743,2.203714744135737
1789756991427897000,5.63689697265625,-2.537785955226421,-0.6108703829079866,2.2963582487806677
1789756991437910800,5.646910888671875,-2.0583106862924994,-0.052698740008473396,2.2942715056344865
1789756991447924700,5.6569248046875,-1.813227818340063,0.33580022684037686,2.009425805483758
1789756991457939000,5.66693896484375,-1.6415234903313218,0.8592395790547132,1.051893317720294
1789756991467954000,5.676953857421875,-1.2698093618057666,1.438587280973792,-0.13729250144958496
1789756991477968000,5.6869677734375,-0.4927414316117763,1.9186878421992062,-1.0500827611669898
1789756991487981800,5.69698193359375,-0.5170972897112369,1.9270120184302328,-1.0343977007791398
1789756991497995800,5.706995849609375,1.523814664143324,2.27588507733345,-1.9886229636907575
1789756991508010000,5.717010009765625,2.1612088968396184,2.258779628753662,-2.1622864629432557
1789756991518025000,5.72702490234375,2.674237914198637,1.7572902425408363,-2.2729474164463577
1789756991528039000,5.737038818359375,3.0829157457232474,0.5445902767926454,-2.241239880409837
1789756991538052900,5.747052978515625,3.3106454739451405,-1.0660253034472464,-2.284405068397522
1789756991548066800,5.75706689453125,3.359401613807678,-2.8706682487934825,-2.5490128671616312
1789756991558081000,5.7670810546875,2.9207810639619827,-4.703856320622563,-3.1538223425954577
1789756991568095000,5.777094970703125,0.1068004056174308,-7.070027818080782,-4.631486665460467
1789756991578110000,5.78710986328125,-4.151992253434658,-10.19203346517682,-5.3325306557685135
1789756991588124000,5.7971240234375,-5.44818474138379,-11.173647962534426,-2.982339986774325
1789756991598137900,5.807137939453125,-6.652870327502488,-8.491630646505952,-0.1184841944746673
1789756991608151800,5.81715185546875,-6.892913593852519,-4.455636762079596,1.2764805101327596
1789756991618166000,5.827166015625,-4.4296085868537425,-1.2264882526040077,1.0425108646079897
1789756991628181000,5.837180908203125,-0.34266887050084766,1.0237082567214966,0.1344972447078675
1789756991638194700,5.847194580078125,2.8546061717867848,2.309757536318898,-0.6186090143360197
1789756991648209000,5.857208984375,3.6499803046524524,3.358180547580123,-0.7327014766577631
1789756991658222800,5.867222900390625,3.697553372210264,4.171057603910565,-0.6428044211767614
1789756991668237000,5.877237060546875,3.7448376859545704,4.687340070107579,-0.5476836396981031
1789756991678250800,5.887250732421875,3.7910149152398107,4.844069093433022,-0.3734993314418942
1789756991688265700,5.897265625,3.8860242722332474,4.562749813842773,-0.21745039933510124
1789756991698280000,5.907280029296875,3.9143116245627403,4.561426456284523,-0.20218202998936174
1789756991708294000,5.9172939453125,4.016973542135954,2.7613936350822446,0.2217011886473745
1789756991718308000,5.92730810546875,3.8989059656381606,1.4677449863970278,0.46687684944979846
1789756991728321800,5.93732177734375,3.657470368146896,0.1978875476658344,0.6119358932476491
1789756991738336800,5.947336669921875,3.4571734212517735,-0.9348626830548048,0.719423258215934
1789756991748351000,5.95735107421875,3.195887460386753,-1.7969360242307184,0.8397774112809449
1789756991758365000,5.967364990234375,2.811127095544338,-2.177608827498555,0.9010409313432872
1789756991768379000,5.97737890625,2.439741906712204,-1.976246297198534,0.8430435004048049
1789756991778392800,5.987392822265625,2.183061832207441,-1.3399287538230418,0.7578511154834181
1789756991788406800,5.99740673828125,1.9290823949635028,-0.6877127995699643,0.7475301394119859
1789756991798421800,6.007421875,1.767947245633602,-0.1961620390474796,0.7919215812589973
1789756991808436000,6.01743603515625,1.6981063782967627,0.11190846934616565,0.8964501694869249
1789756991818450000,6.027449951171875,1.5704793846845626,0.11984335399866103,0.908267594661191
1789756991828463900,6.0374638671875,1.4039023365616798,0.10809972471296786,1.1341501606464386
1789756991838477800,6.047477783203125,1.1994260581552982,-0.1200847615391016,1.2642778850331902
1789756991848492000,6.057491943359375,0.8246119177877903,-0.3351046457916498,1.3323250008210539
1789756991858507000,6.067507080078125,0.33497371288836003,-0.41071956648528574,1.2992255720347166
1789756991868521000,6.07752099609375,-0.5486006814777851,-0.4421937321573496,1.262381403762102
1789756991878535000,6.087534912109375,-4.683361814126372,-0.269383342602849,1.366201697590202
1789756991888548900,6.097548828125,-7.59035049957931,0.04033668656349182,1.280619363503158
1789756991898562800,6.107562744140625,-7.720732198727131,0.0335492183804512,1.2786913180500268
1789756991908577800,6.117577880859375,-3.7422768955558534,0.38976504126191136,0.4580889281645417
1789756991918592000,6.127592041015625,-1.5150865832865237,0.2774123352795839,0.2833927248634398
1789756991928605700,6.137605712890625,0.3145300597965717,0.16014380020499228,0.2872859329096973
1789756991938620000,6.147619873046875,1.3734358866274357,0.17282967877686023,0.2376021568082273
1789756991948633900,6.1576337890625,1.8480097933858632,0.29447277567386626,0.12371420408263802
1789756991958648000,6.16764794921875,1.8976316101670263,0.2958686139464378,0.10450345378667115
1789756991968663000,6.1776630859375,1.6904291216671465,0.4090624469280243,-0.030849677098169923
1789756991978677000,6.187677001953125,1.4773025038152932,0.34993455065488815,-0.00576850039884448
1789756991988691200,6.197691162109375,1.2764286338150501,0.2133861455708742,0.06982815398573874
1789756991998705200,6.207705078125,1.050601012887433,0.07936462861597537,0.18462087353132664
1789756992008718800,6.21771875,0.8143822001963853,-0.04076104945540428,0.28394414820112285
1789756992018734000,6.227734130859375,0.562854795747064,-0.11003858382105827,0.3302199424900114
1789756992028748000,6.237748046875,0.28772973115444184,-0.08557283560633659,0.339919644857943
1789756992038762000,6.247761962890625,0.06945588660724461,0.0071603931486606594,0.3808412917025387
1789756992048776200,6.257776123046875,-0.08975742781460284,0.13173194471299648,0.4216690497186035
1789756992058790000,6.267789794921875,-0.18393376805000006,0.2704097630411386,0.46824733408540486
1789756992068804000,6.27780419921875,-0.15559673135988414,0.4300841921687126,0.5608236917782574
1789756992078819000,6.287819091796875,-0.038189153140783305,0.5978448971182108,0.699954952962324
1789756992088833000,6.2978330078125,0.12219956173598766,0.6822142021536827,0.9014147330917417
1789756992098847200,6.30784716796875,0.29910978782474995,0.6548439646691083,1.0929820647601038
1789756992108861000,6.31786083984375,0.42030747904181476,0.514495582780242,1.2822025410413742
1789756992118875100,6.327875244140625,0.46702078796513374,0.3752542853504419,1.4403697804763913
1789756992128890000,6.33789013671875,0.43343226048760114,0.3544751166939735,1.5595650458298622
1789756992138904000,6.347904052734375,0.35866957270912825,0.4376473208993673,1.6160129092387854
1789756992148918300,6.357918212890625,0.2641284177493304,0.5702753376692533,1.6389494020596145
1789756992158932000,6.367931884765625,0.22537819665968417,0.6939806277930736,1.6768356267310678
1789756992168946000,6.37794580078125,0.20134616368710995,0.8035100930482149,1.688385194749385
1789756992178960100,6.387960205078125,0.21960670058615506,0.8506412620574235,1.6896911627814173
1789756992188975000,6.39797509765625,0.2224620169520378,0.7943453743398189,1.7263829169712959
1789756992198989000,6.407989013671875,0.2552783179480582,0.5643640677988528,1.8093116678096353
1789756992209003000,6.4180029296875,0.30572840224690734,0.2158656874269247,1.899293259768933
1789756992219017000,6.428016845703125,0.30573183631300926,-0.027752514800429343,1.8528705312900244
1789756992229031200,6.43803125,0.2589115598838776,-0.12278817527890204,1.7342749853953718
1789756992239045000,6.448045166015625,0.2480113956850022,-0.06070142920017242,1.6531472926296293
1789756992249060000,6.45806005859375,0.23179624700844287,0.16088263587355614,1.5674759650848804
1789756992259074000,6.468073974609375,0.19087620759904383,0.43186523036658764,1.480461113976687
1789756992269088000,6.478087890625,0.19059454111345112,0.689354721558094,1.4386089082837104
1789756992279102200,6.488102294921875,0.18276771994531155,0.8362585164397954,1.4625436183616518
1789756992289116200,6.4981162109375,0.18222287247888744,0.6860054111301899,1.6208531888768076
1789756992299131100,6.508131103515625,0.28723581015765665,0.10733750816881656,1.9069830836191772
1789756992309145000,6.51814501953125,0.46693829731345177,-0.5571569128990173,2.2072497863940894
1789756992319159000,6.528158935546875,0.6460785474766045,-1.0930787300676106,2.3807595563896
1789756992329173000,6.538173095703125,0.8435282882470637,-1.6530062767237423,2.5202634502783416
1789756992339187200,6.548187255859375,1.039811177195236,-2.2022949404656886,2.580012108798325
1789756992349201000,6.558200927734375,1.1667968772292137,-2.726810397478938,2.6247712879791854
1789756992359215900,6.5682158203125,1.2561743658155202,-3.180626178368926,2.6188790150702
1789756992369230000,6.57822998046875,1.2332125924229622,-3.3793934314787384,2.489889354802668
1789756992379244000,6.588244140625,1.0212882630329578,-3.1692057896882293,2.2333564336836336
1789756992389258200,6.59825830078125,0.6538005930960178,-2.543262340810895,1.8827474908985196
1789756992399272000,6.60827197265625,0.20951076544225214,-1.7544535578101872,1.4462661450386047
1789756992409287000,6.618286865234375,-0.4911223790425807,-0.9481704929172993,0.9739492964919656
1789756992419301000,6.628301025390625,-5.376087473422289,-0.055554713961482045,-0.18279541166983543
1789756992429315000,6.638315185546875,-13.597768960136174,0.7723597525030375,-2.3870905129767954
1789756992439329000,6.6483291015625,-12.729354140979051,0.7692062569081782,-3.1576112134844063
1789756992449343000,6.658343017578125,-8.014598240679502,0.2586515207082033,-2.6672324193507433
1789756992459357000,6.66835693359375,-4.162677313578128,-0.2889022820651531,-1.993432117538154
1789756992469372200,6.6783720703125,-1.3041232809484005,-0.8531313253074884,-1.2664347708061336
1789756992479386000,6.68838623046875,0.41644842899348583,-1.2187690565288065,-0.6846710207212716
1789756992489400000,6.698400146484375,0.6687714407999068,-1.2318670230329036,-0.7139340862151234
1789756992499414000,6.7084140625,2.734682153767347,-1.129684413409233,0.20093524479866026
1789756992509428000,6.718427978515625,3.361988707691431,-0.7823661827325821,0.07400989664979278
1789756992519442200,6.728442138671875,4.477340644365549,-0.6110515846937894,-0.07520670521892607
1789756992529457200,6.73845703125,5.044024095022678,-0.6986316684693098,0.09656038582772015
1789756992539471000,6.74847119140625,5.191514165359735,-0.7226292146503925,0.06855155817866325
1789756992549485000,6.758485107421875,4.986296713197231,-0.9582149170696734,0.3014217180289328
1789756992559499000,6.7684990234375,4.160273759567738,-1.2871405819654465,0.9868399769209325
1789756992569513000,6.778512939453125,3.6481203559994695,-1.4517770174145697,1.3150949029482901
1789756992579528200,6.788528076171875,3.3160455794230104,-1.5788701964110134,1.6672576510466635
1789756992589542100,6.798542236328125,3.2472903153657913,-1.4733540584504603,1.9669965305551886
1789756992599556000,6.80855615234375,3.0905022553294894,-1.1708166342645883,2.1606546239577233
1789756992609570000,6.818570068359375,2.740456937776506,-0.8005693634212017,2.283291554197669
1789756992619584000,6.828583984375,2.450086775115877,-0.5386451046526431,2.507923900926113
1789756992629598200,6.83859814453125,2.671130595833063,-0.32826106350719925,2.6074019277662037
1789756992639613200,6.84861328125,2.8157807665690777,-0.17803426168262956,2.629070738738775
1789756992649627000,6.858626953125,2.774144395583868,0.10293722738325595,2.4392599684141576
1789756992659641000,6.86864111328125,2.9765669563308355,0.4442927502632141,2.0815993535518644
1789756992669655000,6.878655029296875,3.054613195824623,0.7046545820206404,1.5975858566664158
1789756992679669200,6.888669189453125,2.954857521086931,0.7815741555720567,0.9908213016420602
1789756992689684200,6.898684326171875,2.897839456574619,0.8088608064264059,0.13561331619098782
1789756992699698000,6.908697998046875,2.9730621630802747,0.712782943418622,-0.8527383804671466
1789756992709712100,6.918712158203125,2.9404733141645787,0.4956751469761133,-1.5975810343608259
1789756992719726000,6.92872607421875,2.673691678492725,0.3025046909600496,-1.9850588414683936
1789756992729740000,6.938739990234375,2.4629952103972435,0.09601941081881522,-2.1059823919191953
1789756992739754000,6.94875390625,2.325641626410186,-0.04687924007475376,-2.154092635093629
1789756992749769000,6.95876904296875,2.351765078704059,-0.053285599985718725,-2.155356079158187
1789756992759783000,6.968782958984375,1.8328806133151054,-0.27780688755512234,-2.0641654036700725
1789756992769797000,6.978797119140625,1.2967666345752775,-0.2957604773968458,-1.9891028561621904
1789756992779811000,6.98881103515625,0.5718658217310905,-0.09403320543766021,-2.198472167307138
1789756992789825000,6.998824951171875,0.010015198057889937,0.1968511903554201,-2.5820883305504916
1789756992799839000,7.0088388671875,-0.27598069504126904,0.5660369694471359,-2.977906972762942
1789756992809854000,7.01885400390625,-0.39667043673619623,0.9428881686002015,-3.2442236212715505
1789756992819868200,7.0288681640625,-0.39034474084600806,0.936385947099328,-3.261372908993065
1789756992829882000,7.038882080078125,-0.40547114443778987,1.4246785826086996,-3.6248335884362457
1789756992839896000,7.04889599609375,-0.4415592336460948,1.4258242455124854,-3.653615738545358
1789756992849910000,7.058909912109375,0.0961576502457261,1.353655081358552,-3.6780291720509526
1789756992859925000,7.068925048828125,0.563142124788463,1.221959377002716,-3.474103513264656
1789756992869939200,7.078939208984375,0.9452394079014659,1.1051730724871158,-2.9102321974188086
1789756992879953200,7.088953125,1.2955280326910317,0.8823363770037889,-2.101675634635985
1789756992889966800,7.098966796875,1.5802546365067363,0.656211745890975,-1.2870558262914418
1789756992899981000,7.10898095703125,1.752323121652752,0.42717502672374247,-0.6260916251763701
1789756992909995000,7.1189951171875,1.7829831944629548,0.30879005483984945,-0.21976386390924452
1789756992920010000,7.129010009765625,1.6099359274126588,0.36282267380058764,0.023463293173909185
1789756992930024200,7.139024169921875,1.241969022591412,0.5407464608460665,0.10615385134220123
1789756992940038000,7.149037841796875,0.6948389981880784,0.7492769830793142,0.0394812387779355
1789756992950052000,7.159052001953125,0.11545023360624909,0.9727566526412963,-0.19575287372469902
1789756992960066000,7.169066162109375,-0.3419322998546064,1.2813421248197554,-0.8615867267027497
1789756992970080300,7.179080322265625,-0.8510228087209165,1.568384458231926,-1.4480319856673478
1789756992980095200,7.18909521484375,-1.4600725520730018,1.6465286051422356,-1.642568469339609
1789756992990109200,7.199109130859375,-1.984583771302551,1.4399310967981815,-1.6217977762505411
1789756993000123100,7.209123046875,-2.390251461225748,1.011131683743,-1.2693205553755162
1789756993010137000,7.21913720703125,-2.678736394661665,0.6437859795600176,-0.7295293494276702
1789756993020151000,7.229151123046875,-2.7004174805939196,0.34918870072364805,-0.05229600442647934
1789756993030166300,7.239166259765625,-2.539761639213562,-0.08539923260509967,0.9514436693690717
1789756993040180200,7.24918017578125,-1.9856874947607517,-0.8165998762458563,2.298550498127937
1789756993050194000,7.25919384765625,-1.3959050541974602,-1.6683739417254924,3.308223799756169
1789756993060208000,7.2692080078125,-1.3443300575219095,-2.3643483736842867,3.6728581991538403
1789756993070222000,7.27922216796875,-2.0700421867489815,-2.6467536949455734,3.5436093034282323
1789756993080236300,7.289236328125,-3.0622774468421934,-2.486822660708427,3.5433629274517298
1789756993090251300,7.299251220703125,-3.1294191382229326,-1.5215028800696133,3.265522722148895
1789756993100265000,7.309264892578125,-2.405420973306894,0.04684767589271068,2.62418442800194
1789756993110279200,7.319279052734375,-1.295846304859966,1.6730629763245581,1.8042162443667649
1789756993120293000,7.329293212890625,0.37472405093126,2.7507956687003374,0.7567948113635182
1789756993130307000,7.33930712890625,2.6228221997380254,2.8000112427681683,-0.47591421545147894
1789756993140321300,7.3493212890625,4.321322399657965,1.4758663335323332,-1.6505317033037543
1789756993150336000,7.3593359375,4.696446336627006,-0.017218845826387403,-1.862447191800177
1789756993160350200,7.36935009765625,4.4996787329018115,-1.4881921466201542,-1.9222604399889707
1789756993170364200,7.3793642578125,3.94072032353878,-3.471616957145929,-2.034620744755864
1789756993180378000,7.389378173828125,2.311967613583803,-5.836944989517331,-2.1379984093829987
1789756993190392300,7.399392333984375,-6.446776092505455,-10.073963550591468,-1.6687297694258392
1789756993200407000,7.409406982421875,-10.301999568283557,-11.498082161229847,0.512973487779498
1789756993210421000,7.4194208984375,-10.699313125228882,-8.64281314162016,2.2783219490915534
1789756993220435200,7.429435302734375,-9.267990866822004,-3.9263334862679242,2.3774444404922424
1789756993230449200,7.43944921875,-4.329107062184811,-0.024260581031441686,0.36984088199958204
1789756993240463000,7.449463134765625,0.7608136916160583,1.9883757109314202,-1.5187484667949378
1789756993250477000,7.45947705078125,3.1213305243134495,3.131948948961496,-2.2649331829473374
1789756993260492000,7.469491943359375,3.267003900617361,4.2095951320976015,-2.5732190876573324
1789756993270506200,7.47950634765625,2.939614359247684,4.815483634939789,-2.639326175293326
1789756993280520200,7.489520263671875,2.6894226238489147,4.933535429346561,-2.480907299184799
1789756993290534100,7.4995341796875,2.5662264522910117,4.544373030152917,-2.1838285787962377
1789756993300548000,7.509548095703125,2.6878327243089672,3.6780385244011877,-1.744973051150888
1789756993310562000,7.51956201171875,2.8759891515552996,2.5855484078764914,-1.3120203178085386
1789756993320577000,7.529576904296875,2.908963200396299,1.531332200166583,-0.9399883555054664
1789756993330591200,7.53959130859375,2.9409552524626252,0.6193570562243461,-0.7076146008700132
1789756993340605000,7.54960498046875,2.983951513624191,-0.2107061127066612,-0.6259736978851258
1789756993350619100,7.559619140625,2.8861107325971127,-0.9288684110760689,-0.6105727151356637
1789756993360633000,7.569633056640625,2.752752063465118,-1.4716267962664364,-0.6237431623540818
1789756993370648000,7.57964794921875,2.589105808097124,-1.706230501911044,-0.6056185998596251
1789756993380662300,7.589662353515625,2.302296114397049,-1.6347966662943363,-0.5678995484486222
1789756993390676000,7.599676025390625,2.267201420140266,-1.6269611503630876,-0.5273762532718479
1789756993400690200,7.609690185546875,1.8078712597429751,-0.915305749669671,-0.024680560009181497
1789756993410704100,7.6197041015625,1.6665443882107733,-0.5987766250103712,0.31560894107446075
1789756993420718000,7.629718017578125,1.521891587126255,-0.3581009059756994,0.5703530790805816
1789756993430733300,7.6397333984375,1.3691560173511503,-0.1680827765107155,0.768551154000312
1789756993440747000,7.6497470703125,1.242422319316864,-0.03836217162013054,0.8964617868594825
1789756993450761000,7.659760986328125,1.0760510228991509,0.049482700571417806,0.993915760526061
1789756993460775200,7.669775146484375,1.0067793337523936,0.049552843198180194,0.9921639484226703
1789756993470789000,7.6797890625,0.7430442261695861,0.24374036730229853,1.1216774864338337
1789756993480803300,7.68980322265625,0.6453852314502,0.35445465842783447,1.1479622667692602
1789756993490818000,7.699818115234375,0.5470429306417703,0.44551264744699,1.2160459151752292
1789756993500832000,7.70983203125,0.3819949917823076,0.5859352636158466,1.195556523245573
1789756993510846200,7.71984619140625,0.22858426269199697,0.7610504229813814,1.0734072303920983
1789756993520860200,7.729860107421875,0.1563525912284851,0.7531289823323488,1.037278078521043
1789756993530874400,7.739874267578125,-0.2632406020641327,1.0385586198508738,0.7302617553554475
1789756993540889000,7.74988916015625,-0.7683733862806111,1.0551765771746635,0.48534313805401325
1789756993550903000,7.759903076171875,-1.721564849165082,0.8827578172862529,0.2590691615983844
1789756993560917200,7.769917236328125,-2.409166005054116,0.5656792420506477,-0.014092822760343552
1789756993570931200,7.77993115234375,-2.034447726276517,0.3141045278608799,-0.16624503968954085
1789756993580945200,7.789945068359375,-1.5439192945390938,0.02433890696465969,-0.1887758743189275
1789756993590959000,7.799958984375,-1.0435480987012387,-0.28131752602458,-0.17305720392242074
1789756993600974000,7.80997412109375,-0.6067565178483725,-0.4944844758868217,-0.14729001772031186
1789756993610988000,7.819988037109375,-0.27604060853496193,-0.588638677355647,-0.09817293559089302
1789756993621002200,7.830002197265625,-0.02261047573685646,-0.531517444729805,-0.045186756943166255
1789756993631016200,7.84001611328125,-0.009964490783959626,-0.3119026339024305,-0.08041486832126975
1789756993641030100,7.850030029296875,-0.07374751938655973,-0.15037760847210882,-0.05544672354236245
1789756993651044000,7.860044189453125,-0.1702817478597164,0.010796119302511214,-0.020365911680459974
1789756993661059000,7.87005908203125,-0.298157090209797,0.1615811395317316,0.0563179534189403
1789756993671073300,7.8800732421875,-0.44625148311555385,0.24653613550066947,0.16291735657155512
1789756993681087200,7.890087158203125,-0.5501900695610791,0.28522388581335545,0.2816448582828045
1789756993691101200,7.90010107421875,-0.6714766081053763,0.288117269167304,0.3853421102531254
1789756993701115100,7.910115234375,-0.7486341551311314,0.30073358963429925,0.49085474108234045
1789756993711129000,7.920129150390625,-0.790181386528164,0.32154373795092106,0.5842686455778777
1789756993721144300,7.930144287109375,-0.8071066562354564,0.38774493361115453,0.6742540369294583
1789756993731158000,7.940157958984375,-0.7858945029892027,0.5015028302162885,0.7523685924191027
1789756993741172000,7.950171875,-0.7133288868635892,0.635806671243906,0.8404463965836911
1789756993751186200,7.960186279296875,-0.6273901405543089,0.7286082890599965,0.9011544747203588
1789756993761200000,7.9702001953125,-0.5041789175577461,0.7778127572119236,0.961653805477172
1789756993771215000,7.980215087890625,-0.4983423203587532,0.7823574149042367,0.9948219155855477
1789756993781229000,7.99022900390625,-0.24102526312470435,0.6938198842734098,1.1698732159346341
1789756993791243000,8.000242919921876,-0.13868190998136998,0.6439525682985783,1.3016206504777073
1789756993801257200,8.01025732421875,-0.06216156488060951,0.5905494794130325,1.4013292712032794
1789756993811271200,8.020271240234376,-0.0053426031369715925,0.5206278019249438,1.4838270832784473
1789756993821285000,8.03028515625,0.018893501040339468,0.5265244587481022,1.5152170777983962
1789756993831300000,8.040300048828126,0.06251805016808211,0.3283358823090792,1.5415084340050815
1789756993841314000,8.05031396484375,0.06140402451157569,0.3143693162769079,1.5496205749206244
1789756993851328300,8.060328369140626,0.07147577506229282,0.31736323739588257,1.5706962423056363
1789756993861342200,8.07034228515625,0.1655899367816746,0.38590427418053147,1.5825997383281587
1789756993871356200,8.080356201171876,0.22211656451523304,0.37943595494925975,1.642384052683413
1789756993881370000,8.0903701171875,0.2651168442647904,0.2952928598850965,1.7452341863051055
1789756993891385000,8.100385009765626,0.2636450912117958,0.29647593218982216,1.762033345414698
1789756993901399000,8.11039892578125,0.245109829024598,-0.05504442635178566,2.0785218458026646
1789756993911413200,8.120413330078126,0.22652853573858736,-0.5406137743771076,2.369339021578431
1789756993921427200,8.13042724609375,0.25022666058167814,-1.2333633990705013,2.6671307125419377
1789756993931441200,8.140441162109376,0.2814936132438481,-1.96661162289083,2.94202843465209
1789756993941455000,8.150455078125,0.30169688170850273,-2.5606524515509603,3.191421128627658
1789756993951470000,8.160469970703126,0.27234679551832375,-3.0517502076089382,3.4149197951510546
1789756993961484300,8.170484375,0.05846870171204209,-3.4894343533873555,3.6452684736996885
1789756993971498200,8.180498291015626,-0.6374048271555454,-3.869024037593603,3.913866511143744
1789756993981512000,8.190511962890625,-1.7004671160787344,-4.075253297147155,4.1244188945934175
1789756993991525600,8.200525634765626,-2.6881752541363237,-3.6438702973395585,4.009476172117889
1789756994001540600,8.21054052734375,-5.097648133182525,-2.5803262893140313,3.33646818972677
1789756994011554800,8.220554931640624,-12.267199570810794,-1.784821808066964,2.3074235404133794
1789756994021568800,8.23056884765625,-15.296002618074416,-1.5861825652509927,1.1626847657352686
1789756994031582700,8.240582763671876,-9.278242211723327,-1.5151035344213246,0.3550282935973257
1789756994041596700,8.2505966796875,-3.7442239379703994,-1.3893787211686373,-0.17135083839595316
1789756994051610600,8.260610595703126,-0.09746610249578952,-1.1531693338930606,-0.6858486131332814
1789756994061625600,8.27062548828125,1.8382348338246344,-0.795098823055625,-1.5101356828808783
1789756994071639800,8.280639892578124,2.631959445917606,-0.5800590650588273,-2.337483163112402
1789756994081653800,8.29065380859375,2.775244465780258,-0.47824938040077686,-2.900219921970367
1789756994091667700,8.300667724609376,2.929205193436146,-0.547004352197051,-2.952615879639983
1789756994101681700,8.310681640625,2.8352795400261877,-0.5931874267011881,-3.1176728785887358
1789756994111696000,8.32069580078125,2.8710955342948434,-0.5890852520793676,-3.2249490119591355
1789756994121710800,8.3307109375,3.348271147984266,-0.6893371859014034,-3.1858564802378413
1789756994131724800,8.340724853515624,4.029081328558922,-0.9083172059565782,-3.070338588222861
1789756994141738800,8.35073876953125,4.359080175644159,-1.1491524994671345,-2.9527076495766638
1789756994151752700,8.360752685546874,4.438951584738493,-1.170267183688283,-2.9946856736063956
1789756994161766700,8.3707666015625,4.250812693148851,-1.529164792999625,-2.61595056040287
1789756994171782000,8.380781982421874,3.4872611010015007,-1.5112807612627743,-2.1509739185512067
1789756994181795800,8.3907958984375,2.6609049698948857,-1.1147937182694674,-1.5761238203123211
1789756994191809500,8.4008095703125,2.0791151355206967,-0.9510498477458953,-0.6767518450945615
1789756994201823700,8.41082373046875,2.0775088693678376,-0.765146752384305,0.08032792069017887
1789756994211837700,8.420837646484374,1.9673577650830147,-0.5124240372031926,0.8085831585288047
1789756994221852000,8.430851806640625,1.594124756427109,-0.363987625926733,1.5790215875804423
1789756994231867000,8.440866943359374,1.1886220478072762,-0.26121114206314083,2.2932348560631275
1789756994241880600,8.450880615234375,0.9874258139848708,-0.06511340042352676,2.7491280277490615
1789756994251894800,8.460894775390624,1.1173908951558171,0.18807050252854823,2.8751626376032826
1789756994261908700,8.47090869140625,1.645738916069269,0.48179041400849815,2.6574627204865218
1789756994271923000,8.4809228515625,2.2923241709589957,0.8226414944976568,2.031796919506788
1789756994281936600,8.4909365234375,2.681863586771488,1.2977777113139628,0.9559928571060299
1789756994291951600,8.50095166015625,2.7116975840210915,1.6697580895602702,-0.5365408258497715
1789756994301965800,8.5109658203125,2.5293112646088,1.536188408026099,-1.9245237087458371
1789756994311979800,8.520979736328124,2.253419563025236,1.1823650332391262,-2.7255767640307544
1789756994321993700,8.53099365234375,2.064528099502623,0.8952490500688552,-3.125733143186569
1789756994332007700,8.541007568359374,1.5275354382321238,0.7347814247369766,-3.50804874522537
1789756994342021600,8.551021728515625,1.580955332121998,0.7323802088141441,-3.4801463005602358
1789756994352035800,8.561035888671874,1.0143677430547773,0.8591127378046512,-3.6989182308226822
1789756994362050800,8.57105078125,0.5147755687654018,1.0405307967066764,-3.948626566618681
1789756994372064800,8.581064697265624,0.2449532502233982,1.1988619945317507,-4.176054389284551
1789756994382078700,8.59107861328125,0.17194062098264692,1.3730752366214989,-4.349996997739375
1789756994392092700,8.6010927734375,0.27064766345024105,1.5952134284466504,-4.413910082462429
1789756994402107000,8.61110693359375,0.4401999279916286,1.822773060798645,-4.424179547542334
1789756994412120800,8.621120849609374,0.7058725795082748,1.990522659832239,-4.388454154166579
1789756994422135800,8.6311357421875,1.0056969453431666,2.102003259155154,-4.347742496810853
1789756994432149800,8.641149658203124,1.1343363308683037,2.2344237706542014,-4.235325785681605
1789756994442163700,8.651163818359375,1.0801578736960886,2.1720184601455927,-3.685971363227069
1789756994452177700,8.661177734375,0.87621701734066,1.9574492422699927,-2.7181965906515715
1789756994462191900,8.67119189453125,0.6323052389942109,1.6665005490690468,-1.7392036739692092
1789756994472205800,8.681205810546874,0.3752595460474491,1.3381266728371382,-0.9374643899857997
1789756994482220500,8.691220458984375,0.10242693977355956,0.8697036899238825,-0.22540654597133397
1789756994492234800,8.70123486328125,-0.0973566507719457,0.346771702709794,0.4984706229135394
1789756994502248700,8.711248779296875,-0.3407071419738233,-0.10227671764791012,1.2729139036923647
1789756994512263000,8.721262939453124,-0.6634263534449041,-0.47218321222960946,2.071954450111091
1789756994522276900,8.73127685546875,-1.008605526266247,-0.7267308047503233,2.86323196131289
1789756994532291600,8.74129150390625,-1.3206700727321208,-0.8834533983349799,3.46341874538213
1789756994542305800,8.751305908203125,-1.5014964493513105,-0.953905821698904,3.9060567141756413
1789756994552319700,8.76131982421875,-1.7802946860313416,-1.0352484723895787,4.3251328978568315
1789756994562333700,8.771333740234375,-2.2472060953378676,-1.1485662240117787,4.6318557910338045
1789756994572348000,8.781347900390625,-3.0814252149045465,-1.4157722225755451,4.841953708714247
1789756994582361600,8.791361572265625,-4.415063344150782,-1.6407810014009474,4.97689760121107
1789756994592376800,8.801376953125,-5.600156925570965,-1.6969208217740057,4.871979136882722
1789756994602390800,8.811390869140626,-5.264527963644266,-1.3015291728019713,4.2679236946865915
1789756994612404700,8.82140478515625,-3.7389796075761317,-0.2192465620368719,3.107596013471484
1789756994622419000,8.8314189453125,-2.4811376008093355,1.1458008509516715,1.8580919192001222
1789756994632432600,8.8414326171875,-1.4245230997860432,2.686311798352003,0.40313744079321623
1789756994642446800,8.85144677734375,-0.07978606889843941,3.348938671982288,-1.1607783475920557
1789756994652461800,8.8614619140625,1.5935925492465495,2.1380027932971717,-2.2889658004418014
1789756994662475800,8.871475830078126,3.006830869430303,0.978225439441204,-2.559720431397855
1789756994672489700,8.88148974609375,3.7967911605536937,0.13791910891532896,-2.648319629088044
1789756994682503700,8.891503662109375,3.9825604004025457,-1.1344342382848263,-2.580390586721897
1789756994692517600,8.901517578125,3.731258073413372,-3.0748943518310785,-2.521528647908568
1789756994702531800,8.91153173828125,3.5621699192523955,-5.379288899812102,-2.5622128327354785
1789756994712546800,8.921546875,0.689170012640953,-8.409707565578818,-2.8764912558585403
1789756994722560800,8.931560791015626,-4.9287224761068815,-11.859732868641615,-2.1658403560325503
1789756994732574700,8.94157470703125,-7.3985940020143985,-11.406942339146136,-0.19355214881002902
1789756994742588700,8.951588623046876,-9.158804515916108,-7.522655265969037,1.2709165923953056
1789756994752603000,8.961602783203125,-7.8121911697626105,-2.7172470348417757,0.7353856742404401
1789756994762617900,8.971617919921876,-3.2625603652119635,0.4673012854069471,-0.896946501636505
1789756994772631600,8.981631591796875,0.8345546351313591,2.179340765857696,-2.0929453618220983
1789756994782645800,8.991645751953126,2.2098294276237485,3.5536131033092735,-2.625478851726651
1789756994792659700,9.00165966796875,2.29211023594737,4.70859854671359,-2.891596470531821
1789756994802674000,9.011673828125,2.18619720762372,5.513820119854808,-2.827476172798872
1789756994812688000,9.02168798828125,1.9657821863293647,5.96684445810616,-2.697911342991888
1789756994822702600,9.03170263671875,1.9477906025648115,6.031601884698867,-2.5266508132278918
1789756994832716800,9.041716796875,1.8676397920072079,5.326030187833309,-2.270843137643486
1789756994842730800,9.051730712890626,2.349694994431734,3.7616923746436832,-2.0394684770479796
1789756994852744700,9.06174462890625,2.8209751203417777,1.9859949532747267,-1.9481727337501942
1789756994862759000,9.071759033203126,3.3452643673837184,0.2456587681442499,-1.921808604568243
1789756994872772600,9.081772705078125,3.7553754465818403,-1.4333967265933751,-1.9092407994180918
1789756994882787600,9.09178759765625,3.8935552522599695,-2.801711032423377,-1.9037284657374023
1789756994892801800,9.1018017578125,3.8506279646813866,-3.571160450437665,-1.8530303980268537
1789756994902815700,9.111815673828126,3.5835704346776005,-3.6996249177873133,-1.7176966294296085
1789756994912830000,9.121829833984375,3.256926743239164,-3.007704145133495,-1.4230438210137188
1789756994922843600,9.13184375,2.9264649548172947,-1.905739513298869,-0.9260502849154174
1789756994932857900,9.14185791015625,2.6109610815525053,-0.9240291543513536,-0.5228033923983574
1789756994942872800,9.151872802734376,2.3128619320750237,-0.18206629367768765,-0.14072744433432816
1789756994952886800,9.16188671875,2.0029402428567407,0.4076636860460043,0.13913462218493222
1789756994962901000,9.17190087890625,1.712068122023344,0.8021610165268183,0.2928261775106191
1789756994972914700,9.181914794921875,1.445446645349264,0.986459599301219,0.43205388480648393
1789756994982928600,9.1919287109375,1.2434370493173599,0.9892547829777002,0.6890988471008836
1789756994992943600,9.201943603515625,1.1011772808492184,0.8726116863250732,0.9577321019887923
1789756995002957600,9.21195751953125,0.9185860865145922,0.7540957815378904,1.1883256952092052
1789756995012971500,9.221971435546875,0.7181096913993358,0.6894733795017004,1.408890646368265
1789756995022985500,9.2319853515625,0.47373628689050673,0.6336562152117491,1.5746622233271599
1789756995032999400,9.24199951171875,0.15390698817465454,0.5981067629247904,1.7461523240633308
1789756995043013600,9.252013671875,-0.2243050144702196,0.596706832998991,1.8753851454369723
1789756995053028600,9.262028564453125,-0.5610767532238736,0.5565805743157863,1.9376253285117446
1789756995063042300,9.272042236328126,-1.4898475126117467,0.5103618439763784,2.0266326686114073
1789756995073056500,9.282056396484375,-3.623766251465678,0.4535252735108137,2.168793360619247
1789756995083070500,9.292070556640626,-3.888084127372503,0.08521335464417934,2.0351734102025625
1789756995093084700,9.302084716796875,-2.285962234711647,-0.14535656543970107,1.6826916592828929
1789756995103098600,9.3120986328125,-1.1264584371000528,-0.22279870156049728,1.5306408569015562
1789756995113113300,9.32211328125,-0.7873867873735726,-0.2556225282758474,1.3780951106101273
1789756995123127600,9.33212744140625,-1.1732710416793823,-0.12432722141444683,1.0897183137238025
1789756995133141500,9.3421416015625,-1.9735446370244025,0.13005495141148565,0.6654542060106993
1789756995143155500,9.352155517578124,-2.3604484436362982,0.3272662072509527,0.2830477108180523
1789756995153169400,9.36216943359375,-1.87020935023427,0.38306875849366184,0.10479352277442812
1789756995163183400,9.372183349609376,-1.1319739856511353,0.3094242610901594,0.07889481914713978
1789756995173198300,9.3821982421875,-0.49053851474002,0.2399427285850048,0.12055376729033887
1789756995183212500,9.392212646484374,-0.19250614688843487,0.27259236777722834,0.13077932016327976
1789756995193226500,9.4022265625,-0.1094622452378273,0.3940986865520477,0.17154190398864447
1789756995203240400,9.412240478515624,-0.15592545185759663,0.5345552049905061,0.21897373644486068
1789756995213254400,9.42225439453125,-0.2536478672020137,0.6663309888452291,0.2794160032521933
1789756995223268600,9.4322685546875,-0.39923648783192034,0.7563444372475147,0.4306694447107613
1789756995233283600,9.44228369140625,-0.557848548424989,0.806713857525587,0.6535019754756242
1789756995243297500,9.452297607421874,-0.6956329250447452,0.803213155928254,0.8558120888240635
1789756995253311500,9.4623115234375,-0.760451434174925,0.6866507232964039,1.145044771887362
1789756995263325400,9.472325439453124,-0.7035549502156675,0.482128267660737,1.5110039901480077
1789756995273339400,9.48233935546875,-0.5457803633600473,0.25709318535029885,1.919119219353795
1789756995283354600,9.492354736328124,-0.377428706780076,0.07785656214058399,2.268953232243657
1789756995293368600,9.50236865234375,-0.24726810303702948,-0.034688451543450356,2.5356392985865472
1789756995303382300,9.51238232421875,-0.23249781940653919,-0.06114625035822391,2.714115166556835
1789756995313396500,9.522396484375,-0.2973847175978124,-0.017898644784092903,2.805138961045444
1789756995323410400,9.532410400390624,-0.41099297659918665,0.05314180760085582,2.749858387850225
1789756995333424600,9.542424560546875,-0.5303947243101894,0.09562719663083553,2.5742536914020775
1789756995343439600,9.552439697265624,-0.6307873817771673,0.0367559054672718,2.424630554559082
1789756995353453300,9.562453369140625,-0.7743481498412788,-0.04065817360281944,2.319123476687819
1789756995363467500,9.572467529296874,-0.9404431135356426,0.010857494100928306,2.1727527657695114
1789756995373481500,9.5824814453125,-1.086690490335226,-0.0621878683656454,2.0618308232426643
1789756995383495700,9.59249560546875,-1.094835948998481,-0.6017220308125019,2.077999283233285
1789756995393509600,9.602509521484375,-0.9374445162415503,-1.3141378944844007,2.2051059062331912
1789756995403524400,9.6125244140625,-0.6644226710058748,-1.8326976579636334,2.376547345522046
1789756995413538600,9.62253857421875,-0.18868585794791579,-2.344935232684016,2.5748455198153852
1789756995423552500,9.632552490234374,0.2729612010896206,-3.0350241137355565,2.7969804967701433
1789756995433566500,9.64256640625,0.6836759452693164,-3.872177533188462,2.9553692700013516
1789756995443580700,9.65258056640625,0.9455926052533089,-4.606017293161154,2.99562792289257
1789756995453594400,9.662594482421875,0.8861059586703777,-4.940230543071031,2.834600617851317
1789756995463609300,9.672609375,0.23151450745761393,-4.612358186620473,2.4010914196699855
1789756995473623600,9.68262353515625,-5.2376247591495515,-3.5823189733117817,1.7312974308893083
1789756995483637500,9.692637451171874,-15.858149009823798,-2.7383634726285933,0.7314240771330892
1789756995493651700,9.702651611328125,-15.112490801763533,-2.367891745379567,-0.17150690574049948
1789756995503665400,9.71266552734375,-9.172374776107072,-1.9967600929170846,-0.6088276250340044
1789756995513680400,9.722680419921875,-3.8696366165339944,-1.4691905090302229,-1.1381054741434753
1789756995523694600,9.732694580078125,-0.0315759090134874,-0.7664239327132701,-1.9390873638883233
1789756995533708500,9.74270849609375,1.5982196245253084,-0.07683598692119122,-2.475273384951055
1789756995543722800,9.75272265625,2.462076341986656,-0.051418637070059774,-2.225374641149491
1789756995553736400,9.762736328125,3.2876924683809277,-0.2716577172756195,-1.9183802375547587
1789756995563750400,9.77275048828125,4.33891767758131,-0.10361118112206459,-1.8293325654447077
1789756995573765600,9.782765625,5.336849688011408,0.2570528533399105,-1.805961918990314
1789756995583779600,9.792779541015625,5.73058480194807,0.5274088403671979,-1.887947251498699
1789756995593793500,9.80279345703125,6.019199499243498,0.7220505379796027,-2.078319601228833
1789756995603807500,9.812807373046875,6.767557029390335,0.7059142266929149,-2.369855446667969
1789756995613821400,9.822821533203125,7.662143231636286,0.31037060202956196,-2.4225419117167593
1789756995623835600,9.832835693359375,7.7794310559332365,-0.3610381284713745,-2.1211178556002674
1789756995633850600,9.8428505859375,7.3191387725055215,-1.0716355445444583,-1.6564783367484808
1789756995643864300,9.8528642578125,5.998482874429226,-1.6535206559866666,-1.1043097336560488
1789756995653878500,9.86287841796875,2.211254638121277,-2.097635711595416,0.06942439549043775
1789756995663892500,9.872892578125,-7.26466483951807,-2.7925650184154507,2.985034924946725
1789756995673906700,9.88290673828125,-7.180287935698032,-2.7257103272825476,3.780963184563815
1789756995683920600,9.892920654296875,-3.398514311534166,-1.9427870951890944,2.924062862111628
1789756995693935400,9.902935302734376,-0.12432546784877777,-1.012933180207014,1.7488205203592777
1789756995703949600,9.912949462890625,2.365974075189978,-0.22399814047813416,0.5926368070811033
1789756995713963500,9.922963623046876,3.513818268537521,0.4053104009181261,-0.6043044485211372
1789756995723977500,9.9329775390625,3.7840976831972597,0.8102385245203971,-1.8077710142388939
1789756995733991700,9.94299169921875,3.4188293698102235,0.897629223203659,-2.8530206561610103
1789756995744005400,9.95300537109375,2.2960076817773283,0.8391630057096481,-3.541838494363427
1789756995754020400,9.963020263671876,1.2250174493990837,0.8601865045160054,-3.793805715002119
1789756995764034600,9.97303466796875,0.7230697980247438,0.9191735310137271,-3.8021795755937693
1789756995774048500,9.983048583984376,0.5468577833332121,1.136603399017453,-3.8125264898240565
1789756995784062700,9.993062744140625,0.5518623136222363,1.4257768992394209,-3.997730497005582
1789756995794076400,10.003076416015626,0.5090706351220607,1.6754975099951028,-4.187139846922457
1789756995804091400,10.01309130859375,0.3470481815636158,1.8803572347611188,-4.42890423797667
1789756995814105600,10.023105712890626,0.18167729436010122,1.9750790069848299,-4.793929097996652
1789756995824119600,10.03311962890625,0.15157953160777687,2.0713515157818794,-5.034361363664269
1789756995834133500,10.043133544921876,0.2107121040560305,2.188375136184692,-5.132687882381678
1789756995844147500,10.0531474609375,0.5109728154815734,2.3254636394947767,-4.9569759261667725
1789756995854161400,10.063161376953126,0.8989807839430868,2.5029081185907125,-4.638187039881944
1789756995864176400,10.07317626953125,0.9678574824228883,2.6227263381481167,-4.120080280867219
1789756995874190600,10.083190673828126,0.7678690169550478,2.563555187255144,-3.3544004445195195
1789756995884204500,10.09320458984375,0.43936303877606986,2.321874675092101,-2.5560475881040094
1789756995894218500,10.103218505859376,0.08490648065209389,1.9906471629947422,-1.7905606439799069
1789756995904232400,10.113232421875,-0.2114567849434912,1.5468302135497332,-1.0694941486015914
1789756995914246700,10.12324658203125,-0.4469852042175829,0.991627357327938,-0.36973639871180053
1789756995924261600,10.13326171875,-0.6420974419511855,0.4028928183823824,0.41384062111526726
1789756995934275600,10.143275634765626,-0.8257460363842547,-0.11260989561378955,1.2903630511432886
1789756995944289500,10.15328955078125,-0.9453111579634249,-0.6105716922223567,2.208144835537672
1789756995954303500,10.163303466796876,-0.9352012673594057,-1.0880044955432415,3.0835443990156053
1789756995964317400,10.1733173828125,-0.8900339457690716,-1.4892384408026933,3.8726781761869784
1789756995974331600,10.18333154296875,-0.8949006750226021,-1.6872317869305609,4.490573635426164
1789756995984345900,10.193345947265625,-1.042683152434975,-1.8036895901441572,4.885423724867403
1789756995994360000,10.203360107421876,-1.5759401343084871,-1.8601450523376464,4.999308170461655
1789756996004374000,10.2133740234375,-2.976713963586092,-1.6828326751887797,4.888500355833768
1789756996014388000,10.223387939453126,-4.689667051750421,-1.3778601328104734,4.570776760692894
1789756996024402000,10.23340185546875,-5.2625826747953885,-0.6670657328605651,3.8233486203506586
1789756996034415900,10.243415771484376,-3.8589258374273774,0.48933366899490355,2.6420728436529637
1789756996044430800,10.253430908203125,-1.8403579634584486,1.9209078563362358,1.340486095444858
1789756996054445000,10.263445068359376,-0.7468319280147552,3.347064110282063,-0.07397942844629288
1789756996064459000,10.273458984375,-0.15906360375285147,4.129371256303787,-1.4363333645671605
1789756996074473000,10.283472900390626,0.8191044064126908,3.4355110400199886,-2.4320582203418013
1789756996084487000,10.29348681640625,1.9617010544955729,2.1799650352358815,-2.7324574634552
1789756996094501000,10.303501220703126,2.7905928415596484,1.039116253733635,-2.758433616232872
1789756996104516000,10.31351611328125,3.1801287502408027,-0.375882646381855,-2.629622819663584
1789756996114530000,10.323530029296874,3.302157047063112,-2.288797165876627,-2.3904879003301263
1789756996124544000,10.3335439453125,3.3060523009359835,-4.607530620333552,-2.225419795465469
1789756996134558000,10.343557861328126,2.3716379461705683,-7.319587100794911,-2.5426395327374336
1789756996144572000,10.353572021484375,-4.032946187293529,-11.824644019603728,-3.344567032769322
1789756996154587100,10.363587158203124,-6.029760640746355,-13.890462451177834,-1.4118527110442518
1789756996164601000,10.37360107421875,-6.152613113433122,-11.531830117052793,1.2033667586050927
1789756996174614800,10.38361474609375,-6.127692607188225,-7.2323267504930495,2.407043898333609
1789756996184629000,10.39362890625,-3.7063422433435913,-3.0915415352493523,1.5285751565434038
1789756996194643000,10.403642822265626,-0.21574586043953894,0.08090309022963046,-0.06625219519510865
1789756996204657200,10.4136572265625,1.6326397805213928,2.117680720758438,-1.2153894970931112
1789756996214672100,10.423672119140624,1.702573148447275,3.810578278365731,-1.8404456417419015
1789756996224685800,10.433685791015625,1.5059318014502525,6.5404533241122955,-2.3170142294488847
1789756996234700000,10.443699951171874,1.520591610443592,6.5390066324353215,-2.321168134257942
1789756996244714000,10.4537138671875,1.5401029511213302,6.539617457810044,-2.3145479854658246
1789756996254728200,10.463728271484374,1.6360311765253543,6.7243971020996565,-2.1622408702358604
1789756996264742000,10.473741943359375,2.000451348650455,6.256980081358551,-1.8691149791263042
1789756996274756900,10.4837568359375,2.4599662179648876,4.773620177200437,-1.4630672038443386
1789756996284771000,10.49377099609375,2.948576248860359,2.915243303579092,-1.132865235402435
1789756996294785000,10.503784912109374,3.2173090185999866,0.9926818348169326,-0.8624220084831118
1789756996304799000,10.513799072265625,3.2858769433915613,-2.7029408615916966,-0.6050653498910367
1789756996314813000,10.52381298828125,3.301858940899372,-2.701723887017369,-0.5941847671754658
1789756996324827000,10.533826904296875,3.1519933736026284,-3.914151465564966,-0.5610593271650374
1789756996334841900,10.543841796875,2.7030583504915238,-4.30490025716722,-0.640659371972084
1789756996344856000,10.55385595703125,2.228967843335867,-3.7257998080074786,-0.7276059801496565
1789756996354870000,10.5638701171875,1.9033400509417056,-2.4915970355033874,-0.6059346800714731
1789756996364884000,10.573884033203125,1.705674621593952,-1.2010066053450106,-0.32132235028520223
1789756996374898000,10.58389794921875,1.5072107353448867,-0.15051263302862644,-0.09377280093580484
1789756996384913000,10.593912841796875,1.2972937271893024,0.6743512136936187,0.1009662195712328
1789756996394927000,10.603927001953124,1.1468401308715344,1.1634534120202065,0.29621874255836006
1789756996404941000,10.613941162109375,1.0061398668050765,1.4280898523569105,0.4634732515513897
1789756996414955000,10.623955078125,0.9305272841989993,1.418189805111289,0.591331861962378
1789756996424969000,10.633968994140625,0.8768857103824615,1.2283406024724244,0.7396247731149196
1789756996434983000,10.64398291015625,0.7957540720939635,1.0025725297123194,0.9022554216995835
1789756996444998100,10.653998046875,0.6903671134710312,0.7909159844130277,1.0489766996212304
1789756996455012000,10.66401220703125,0.5284907903850078,0.5950099659532309,1.1670432532057164
1789756996465025800,10.67402587890625,0.3430336486926302,0.45167117007672786,1.2606655397549271
1789756996475040000,10.6840400390625,0.14771573231909424,0.30805355725884437,1.2910631622366606
1789756996485054000,10.694053955078125,-0.10339140089154243,0.250317407605052,1.2209326643034815
1789756996495068200,10.704068115234374,-0.6333873351424932,0.24845745895206928,1.1023955705977975
1789756996505083100,10.714083251953125,-1.8455664918869732,0.27215631444752214,0.983427099737525
1789756996515096800,10.724096923828125,-3.65419879913032,0.16595277874469755,0.8231386303648353
1789756996525111000,10.734111083984375,-3.5006858152419325,0.051423897767066955,0.5259516272962093
1789756996535125000,10.744125,-2.4449575955338774,-0.020676292803883552,0.4000137558147311
1789756996545139200,10.75413916015625,-1.7986011809639633,-0.09307634310424327,0.36147447406202554
1789756996555154200,10.764154296875,-1.3593896794877947,-0.1488496682524681,0.3669032211124897
1789756996565167900,10.77416796875,-0.895507847135514,-0.1296124683409929,0.4268925565205514
1789756996575182000,10.78418212890625,-0.43165553313866256,-0.06267360605597495,0.4472578836791217
1789756996585196000,10.794196044921875,-0.10835691434442997,0.1312345165848732,0.5115177360132336
1789756996595210000,10.8042099609375,-0.038366409403830765,0.20503508133292198,0.5359703324854374
1789756996605224000,10.814223876953125,-0.1382183841228485,0.25397885272204873,0.5299613013289869
1789756996615239000,10.824239013671875,-0.3534083642452955,0.33449615850448605,0.4780779693566262
1789756996625252900,10.8342529296875,-0.6086671737752855,0.3922381533771753,0.46958720438703894
1789756996635267000,10.84426708984375,-0.7844051412142813,0.4138596180766821,0.4986712600521743
1789756996645281000,10.854281005859375,-0.8922124588519335,0.48189504342675205,0.5948844398774207
1789756996655295000,10.864294921875,-0.9767407538414001,0.5300415269583464,0.7123787465319037
1789756996665310000,10.87431005859375,-1.050586472905427,0.6122153677761555,0.8555823717214167
1789756996675324000,10.884323974609375,-1.1055594414561987,0.7077905419588089,1.0296111240897328
1789756996685338000,10.894338134765626,-1.104948177690059,0.7678308769017458,1.222443507257849
1789756996695352000,10.90435205078125,-1.0249718469165265,0.7271832246929407,1.4331084111712873
1789756996705366000,10.914365966796876,-0.8812579341173171,0.6218780991345644,1.6609771094724535
1789756996715380000,10.9243798828125,-0.7034054587423801,0.4757026185274124,1.8512832620985804
1789756996725395000,10.93439501953125,-0.5495109281904995,0.37794367056488987,1.9900325382277368
1789756996735409000,10.944408935546875,-0.4868262162186205,0.3105500502496958,2.0410244743183252
1789756996745423000,10.954423095703126,-0.468746808040142,0.245759305909276,2.051224673554301
1789756996755436800,10.964436767578125,-0.4004578463204205,0.18304069166779516,2.0068921953529117
1789756996765451000,10.974450927734376,-0.2967816371381283,0.24130057293474672,1.9545389077812432
1789756996775466000,10.984466064453125,-0.1651847900468856,0.3516220653504133,1.8757015179097651
1789756996785480000,10.99447998046875,-0.04411912771165371,0.4976958391487598,1.827022388806194
1789756996795494100,11.004494140625,0.008194996893405913,0.648417731013894,1.770373888258636
1789756996805507800,11.0145078125,0.06881503142043947,0.7576578579336405,1.762760782906413
1789756996815522000,11.02452197265625,0.08823021824732423,0.6941425403565168,1.8001947337657211
1789756996825536000,11.034535888671876,0.08113105376660823,0.32133973981142044,1.9471601957067846
1789756996835551000,11.044551025390625,0.1516067849408835,-0.6180880592018365,2.3093723363935945
1789756996845565200,11.054565185546876,0.32887130436003204,-1.6187679070353507,2.701251593330502
1789756996855579000,11.064578857421875,0.5421633419066667,-2.459004094934463,3.011445085227489
1789756996865592800,11.0745927734375,0.7581768403064459,-3.108362321668863,3.3215485607534645
1789756996875607000,11.08460693359375,0.9283680603384971,-3.660003101494908,3.6035748195692894
1789756996885621000,11.09462109375,1.0581932215820997,-4.092759143221378,3.8396699328154322
1789756996895636000,11.104635986328125,0.9775509011805057,-4.350581811890006,3.9765985693886874
1789756996905650000,11.11464990234375,-0.11944945931024849,-4.142024986171722,4.031847578401863
1789756996915664000,11.124663818359375,-2.7665374277114867,-3.2896517857551575,3.957732833138108
1789756996925678000,11.134677978515626,-6.45329409609735,-2.085311652073264,3.5138702909857034
1789756996935692000,11.144692138671875,-12.256807940655946,-1.472894039723277,2.616448573052883
1789756996945707000,11.15470703125,-14.419000003314018,-1.3061556635588407,1.6616230061605572
1789756996955721000,11.164720947265625,-8.130961351346969,-1.2624106298565865,0.6462403869748116
1789756996965735000,11.17473486328125,-2.4533505992174147,-1.1184691919118166,-0.37716026510223744
1789756996975749000,11.1847490234375,1.0177191723745316,-1.0831810209095478,-1.209477934961766
1789756996985763600,11.194763671875,2.4211516264021395,-1.1022305892944335,-1.9734391308233141
1789756996995777500,11.204777587890625,3.1993980988562107,-0.8937427371591329,-2.6835899721726775
1789756997005792500,11.21479248046875,3.6528503071308136,-0.44831016921103,-3.123666858306527
1789756997015806500,11.224806396484375,4.048192856264114,-0.05143266559541225,-3.3147686913549896
1789756997025820400,11.2348203125,4.129642474460602,0.023280922344326972,-3.276978182142973
1789756997035834600,11.244834716796875,4.866952540892362,-0.11232990962862968,-3.4645161852300164
1789756997045848600,11.2548486328125,4.9277813958644865,-0.13375322140753268,-3.505388586105406
1789756997055863600,11.264863525390625,5.3823254910290235,-0.6549684678316116,-3.5869761514678595
1789756997065877500,11.27487744140625,5.451980626535415,-1.3886170891463756,-3.3151214503154156
1789756997075891500,11.284891357421875,5.643651199382544,-1.9369921451747416,-3.0090386086076495
1789756997085905700,11.29490576171875,5.107960268360376,-2.3613106134235857,-2.5906004305690526
1789756997095919600,11.304919677734375,3.216930540676415,-2.404848726376891,-1.9156945056021213
1789756997105933600,11.31493359375,1.5729615568891167,-1.9626661001354455,-1.1189824021309613
1789756997115948500,11.324948486328125,0.746028502677381,-1.4514736505538224,-0.3816068692475557
1789756997125962500,11.33496240234375,0.5237652231678366,-0.9595347674965858,0.2432391397818923
1789756997135976400,11.3449765625,0.4485910319790244,-0.6644909139364957,0.8624135329157113
1789756997145990700,11.35499072265625,0.4869515961639583,-0.558116113319993,1.453317232593894
1789756997156004600,11.365004638671875,0.9788985163971781,-0.29941490825116635,1.7547826436340808
1789756997166018600,11.3750185546875,1.7768251102246344,0.0807189658343792,1.7193153166726232
1789756997176033500,11.385033447265625,2.4543173984229565,0.5028191735118627,1.4583932206839323
1789756997186047500,11.395047607421875,2.747413625046611,0.9375836324512958,1.010238242034614
1789756997196061700,11.405061767578125,2.557152626736462,1.3660071979314088,0.3292158800140023
1789756997206075600,11.41507568359375,2.2382059195414183,1.7398539545714855,-0.6354363766267895
1789756997216089600,11.425089599609375,1.9183603638105093,1.8374381304889917,-1.8980194404408335
1789756997226104600,11.4351044921875,1.730335892380774,1.5853472834706306,-3.0437986640825865
1789756997236118500,11.445118408203125,1.588522406375408,1.2357897494345902,-3.690098672290146
1789756997246132700,11.4551328125,1.385106450676918,1.0945061325222254,-4.071321802917122
1789756997256146700,11.465146728515625,1.094465508250892,1.1409750382304191,-4.410752787475288
1789756997266160400,11.475160400390624,0.8020872206382453,1.2425099976003169,-4.7300960927724836
1789756997276174600,11.485174560546875,0.49896834330260753,1.2831985663414,-4.97343021736145
1789756997286189600,11.495189453125,0.3213387168981135,1.3509931686729193,-5.147257675004005
1789756997296203500,11.50520361328125,0.19908727884441613,1.4239672194689512,-5.188575189298391
1789756997306217700,11.5152177734375,0.21465514259338378,1.466851252427697,-5.084972191482782
1789756997316231400,11.5252314453125,0.2912622891947627,1.5047101507008074,-4.829558922043442
1789756997326245600,11.53524560546875,0.3825606628410518,1.5189403361052274,-4.409015588419139
1789756997336260600,11.545260498046876,0.3227205266453326,1.4910259087413549,-3.673304481616616
1789756997346274600,11.555274658203125,0.2593172911405563,1.308400812137127,-2.6713568058043715
1789756997356288800,11.565288818359376,0.35482889856770633,1.0140443563193082,-1.6584502213433383
1789756997366302500,11.575302490234375,0.5296056197591126,0.7377636554181576,-0.7623331562682986
1789756997376316700,11.585316650390626,0.6874328135848045,0.5631026695609093,-0.027246611104905602
1789756997386330600,11.59533056640625,0.6741374248124659,0.4253811290442943,0.5613669318094849
1789756997396345600,11.605345703125,0.5173486341238022,0.38794367105364796,1.0600319082513452
1789756997406359600,11.615359619140625,0.22505831705555318,0.35865152559578417,1.5015192457050084
1789756997416373500,11.62537353515625,-0.0768028153039515,0.3287590761572122,1.913444096326828
1789756997426387500,11.635387451171875,-0.31313904382959007,0.2754062561541796,2.3232740204960107
1789756997436401700,11.645401611328126,-0.3433962349273264,0.15332359879612922,2.7486227085754273
1789756997446416600,11.655416748046875,-0.29994039342999457,0.037672435790300364,3.1099463759899137
1789756997456430300,11.665430419921876,-0.5073345320444553,-0.09201309778690338,3.476563473637402
1789756997466444500,11.675444580078125,-1.1295442742861808,-0.26223814702332016,3.8074665760859845
1789756997476458500,11.68545849609375,-2.147169703962654,-0.4776531680732965,4.049974771244823
1789756997486472700,11.69547265625,-3.347973041820526,-0.6815583685934543,4.153507334172725
1789756997496486700,11.705486572265626,-4.45038950907588,-0.8967465951502323,4.122413107728958
1789756997506501400,11.71550146484375,-4.917451725029945,-0.8323492340415716,3.6675665224865077
1789756997516515600,11.725515625,-4.458667508077621,-0.3262690129071474,2.8579841237872836
1789756997526529500,11.735529541015625,-3.3979800585269926,0.668403118944168,1.8018869246363638
1789756997536543500,11.74554345703125,-2.231395947265625,1.7087082902014255,0.48499096361547706
1789756997546557700,11.7555576171875,-1.1105870603598653,1.7189099507421255,-0.8263347960576415
1789756997556571400,11.7655712890625,-0.006239186650514602,0.5529588766872883,-1.785847643983364
1789756997566586400,11.77558642578125,0.7790520166832954,-0.6016121406972408,-2.2036101147174834
1789756997576600600,11.7856005859375,1.5824550691604613,-1.5070119979023933,-2.465486150430143
1789756997586614500,11.795614501953125,2.5438497853100297,-2.677027837178111,-2.5532632180824875
1789756997596628700,11.805628662109376,3.182642194366455,-4.362234840282798,-2.521172674077749
1789756997606642400,11.815642333984375,2.036187847942114,-6.741313750109076,-2.799099680881202
1789756997616657400,11.825657470703124,-1.5934300521612166,-9.843056361377238,-2.9560391320869326
1789756997626671600,11.835671630859375,-2.440669981342554,-10.702983922696113,-1.7433400431215762
1789756997636685600,11.845685546875,-2.9283342558205128,-8.394470248958468,-0.09223170897364616
1789756997646699800,11.85569970703125,-3.244332634603977,-4.672351175290346,0.7300009124621748
1789756997656713500,11.86571337890625,-2.2222283059477803,-1.2245768660247325,0.1387767486579716
1789756997666727400,11.8757275390625,-0.47231947889514264,1.3219494450181721,-0.908603767812997
1789756997676742700,11.88574267578125,0.8944692978680133,2.9545640910983084,-1.7405302463978527
1789756997686756600,11.895756591796875,1.2996189552664756,4.231612902638316,-2.2461042715758084
1789756997696770600,11.9057705078125,1.2903905236721038,5.191155268919467,-2.594275611950457
1789756997706784500,11.915784423828125,1.309661041331291,5.7576955117136235,-2.7364497479617595
1789756997716798500,11.925798583984376,1.385056181794405,6.002433073359727,-2.8062311401963234
1789756997726813400,11.9358134765625,1.5306944867849348,5.600402424764633,-2.629292857056856
1789756997736827600,11.94582763671875,1.8324176719784735,4.241812225091457,-2.2983935540005564
1789756997746841600,11.955841552734375,2.2162030543088913,2.4676988580435513,-1.9404855402484535
1789756997756855600,11.96585546875,2.618722363203764,0.5921826335728169,-1.6426881501965225
1789756997766869500,11.975869384765625,3.028616000258922,-1.2105933488577603,-1.450415812063962
1789756997776883700,11.9858837890625,3.3209704686045645,-2.7588229078114033,-1.2742156339406967
1789756997786898700,11.995898681640625,3.282164060348272,-3.719609136673808,-1.0981455119378865
1789756997796912600,12.00591259765625,3.0193595116138456,-3.811096749281883,-0.9870334536664187
1789756997806926600,12.015926513671875,2.6213690783202646,-3.0128917769044636,-0.9109665514215827
1789756997816940500,12.0259404296875,2.182071652126312,-1.941236358615756,-0.6847732389867305
1789756997826954500,12.03595458984375,1.882990505874157,-0.955972106578946,-0.3639281508244574
1789756997836969700,12.0459697265625,1.676996808642149,-0.16817571549117563,-0.08800283923223615
1789756997846983700,12.055983642578125,1.520397549176216,0.3676479019999504,0.20958280776515603
1789756997856997400,12.065997314453124,1.3774305092215537,0.6829694044351577,0.5343785332493484
1789756997867011600,12.076011474609375,1.1926537875413894,0.8674895210057496,0.8164543302953243
1789756997877025500,12.086025634765624,1.063693061107397,0.9187444919466972,1.072609650273621
1789756997887039700,12.096039794921875,0.8854910416424274,0.8916565785348415,1.337855308549851
1789756997897054700,12.1060546875,0.7346107443451881,0.7856751611500978,1.5767385912097989
1789756997907068400,12.116068359375,0.5972165360867977,0.628012656366825,1.785476472583413
1789756997917082600,12.12608251953125,0.4869897362172603,0.49479368796646594,1.982360542295128
1789756997927096600,12.1360966796875,0.33787411050498484,0.4340045804828405,2.125574250487238
1789756997937110800,12.14611083984375,0.03283376358747482,0.43497605586349963,2.2467679961815477
1789756997947124500,12.15612451171875,-1.151793953886628,0.6312216815412044,2.404680968594551
1789756997957139500,12.166139404296874,-2.6880092499196526,0.8545967216849326,2.535729607218504
1789756997967153700,12.176153564453125,-2.384060205370188,0.7964034759134053,2.3955953064717352
1789756997977167600,12.186167724609374,-0.9284452902931719,0.4769090717077255,2.099485869506746
1789756997987181800,12.196181884765625,0.009239427912421523,0.16405542069077492,1.9025239122532307
1789756997997196000,12.206196044921874,0.24307751947939393,0.01853226651251316,1.7128071038223802
1789756998007211000,12.2162109375,-0.06854154824130236,-0.03687631697654724,1.449110282423347
1789756998017224700,12.226224609375,-0.8533212949216366,-0.026557167536020276,1.044784800889343
1789756998027239000,12.236239013671875,-1.6462456965476273,0.0188180977165699,0.5993075170166791
1789756998037252900,12.2462529296875,-1.7914736671715974,0.05410334610939026,0.2729264220371842
1789756998047267000,12.25626708984375,-1.3003501921504734,0.04931961896419525,0.16204524991214275
1789756998057280800,12.26628076171875,-0.6071387951642274,0.0371177245169878,0.2089779737398028
1789756998067295700,12.276295654296876,-0.02244096438884735,0.1017892263919115,0.3243864140309393
1789756998077310000,12.28631005859375,0.1585655911028385,0.20081717137694358,0.43626068884655833
1789756998087324000,12.296323974609376,0.07065401035062968,0.30994565461575985,0.5348438126735389
1789756998097337900,12.306337890625,-0.07625153809674083,0.4031324723571539,0.6216261702001095
1789756998107351800,12.316351806640625,-0.32919987872727213,0.519193385207653,0.6499896565057337
1789756998117366800,12.32636669921875,-0.6076625998426228,0.6281950271964073,0.7201109482191502
1789756998127380700,12.336380615234376,-0.8701169468998908,0.716141606196761,0.7994891669690608
1789756998137395000,12.34639501953125,-0.97440273934789,0.7480261062353849,0.8825189670290797
1789756998147409000,12.356408935546876,-0.9913386035144328,0.7525316009610891,1.053432436921075
1789756998157422800,12.3664228515625,-0.8691238442093133,0.7541857979089022,1.2352436598591505
1789756998167436800,12.376436767578125,-0.6850012755889445,0.7414613408923149,1.4476657827034591
1789756998177451800,12.38645166015625,-0.5115169322956353,0.6883113499850034,1.620841206178069
1789756998187466000,12.396466064453126,-0.352414238641411,0.6931769101947546,1.7827783195406197
1789756998197480000,12.40647998046875,-0.2565215229421854,0.7019821479409932,1.9125705283626913
1789756998207494000,12.416493896484376,-0.22987667712271212,0.6437018084079027,2.081111277773976
1789756998217507800,12.4265078125,-0.2679986102461815,0.5079647197067737,2.2595804237425328
1789756998227522800,12.436522705078126,-0.32540099790096283,0.31036709489822384,2.367589547562599
1789756998237537000,12.446537109375,-0.4093016625113785,0.1831003129005432,2.3061963367059826
1789756998247551000,12.456551025390626,-0.5337551406539977,0.16465338658392428,2.1838635039791465
1789756998257564700,12.466564697265625,-0.5816952148932963,0.2463689622402191,2.0334866261594
1789756998267579000,12.476578857421876,-0.5313789130419493,0.3938409123986959,1.8460333787463605
1789756998277592800,12.4865927734375,-0.538188593056798,0.5703402195990085,1.6982032627999781
1789756998287607800,12.49660791015625,-0.5840935082066804,0.6993038686424493,1.6325567784130572
1789756998297622000,12.5066220703125,-0.547533929029107,0.5051040695786476,1.7058927943892777
1789756998307635700,12.5166357421875,-0.3184083625346422,0.00042260932624340057,1.9156290391504764
1789756998317650000,12.52664990234375,0.0467040296383202,-0.4955214177191257,2.1030011841513216
1789756998327663900,12.536663818359376,0.41087088458947835,-0.8698714477062225,2.208654100234061
1789756998337678800,12.546678955078125,0.8197925348073244,-1.4055945274323225,2.3809023258611557
1789756998347693000,12.556693115234374,1.2658289138674734,-2.266419329851866,2.6074369990795847
1789756998357706800,12.566706787109375,1.5531354511737823,-3.2463720314770934,2.842261653998494
1789756998367721000,12.576720947265626,1.6799889761954545,-4.212756810998917,2.984887917691469
1789756998377735000,12.58673486328125,1.3498773163855076,-5.100433964508771,3.051819181191921
1789756998387748900,12.596748779296876,-0.019542977925017475,-5.653016993620992,2.8908251938983796
1789756998397763800,12.606763916015625,-1.9245897597193717,-4.89075310319662,2.169251479650289
1789756998407777800,12.61677783203125,-3.333780265817046,-3.1194886958390473,1.196961567737907
1789756998417791700,12.626791748046875,-6.642270607554912,-1.698990613785386,0.3986528427250683
1789756998427806000,12.636805908203126,-12.564114478939771,-0.3272241216748953,-0.7948362265966832
1789756998437820000,12.64681982421875,-10.08207320728898,0.2119704335540533,-1.3403697755888104
1789756998447835000,12.6568349609375,-4.278238460212946,0.5158212784260511,-1.5248418152339756
1789756998457848800,12.666848876953125,-0.5672890153348445,0.765942871198058,-1.7674127003654836
