time,seconds_elapsed,z,y,x
1757090186809971000,0.052970947265625,0,0,0
1757090186819590000,0.06258984375,-0.06505584716796875,0.035331010818481445,-0.04193595051765442
1757090186829208800,0.072208740234375,-0.05161571502685547,0.08491230010986328,-0.15080267190933228
1757090186838827800,0.081827880859375,-0.39062023162841797,0.12848830223083496,-0.21693480014801025
1757090186848446700,0.09144677734375,-0.08009910583496094,-0.0011317729949951172,-0.373909592628479
1757090186858065400,0.1010654296875,0.1516427993774414,0.07738709449768066,-0.48224401473999023
1757090186867684600,0.1106845703125,0.6826200485229492,0.24503207206726074,-0.5234397053718567
1757090186877303600,0.120303466796875,1.5194473266601562,0.34075307846069336,-0.4591013789176941
1757090186886922200,0.129922119140625,1.594498634338379,0.33667540550231934,-0.15293866395950317
1757090186896541200,0.139541259765625,1.6791105270385742,0.19913697242736816,0.13233888149261475
1757090186906160000,0.14916015625,1.4253349304199219,0.17062950134277344,0.2396748661994934
1757090186915779000,0.158779052734375,1.0771799087524414,0.11238527297973633,0.30630216002464294
1757090186925398000,0.16839794921875,0.5555744171142578,0.00694584846496582,0.2928447127342224
1757090186935017000,0.178016845703125,0.016584396362304688,-0.10509467124938965,0.09725832939147949
1757090186944636000,0.187635986328125,-0.21871376037597656,-0.20450687408447266,0.054894059896469116
1757090186954254800,0.1972548828125,-0.590092658996582,-0.2636146545410156,0.24648091197013855
1757090186963873800,0.206873779296875,-0.6718759536743164,-0.3600142002105713,0.4071311950683594
1757090186973492700,0.21649267578125,-0.6627349853515625,-0.4037935733795166,0.37600481510162354
1757090186983111700,0.226111572265625,-0.6672382354736328,-0.4144468307495117,0.3068360686302185
1757090186992730600,0.235730712890625,-0.6847238540649414,-0.36788129806518555,0.2714691162109375
1757090187002349300,0.245349365234375,-0.6905069351196289,-0.32743239402770996,0.30874067544937134
1757090187011968300,0.25496826171875,-0.7167119979858398,-0.3213491439819336,0.29836365580558777
1757090187021587200,0.264587158203125,-0.6267709732055664,-0.3426792621612549,0.39112964272499084
1757090187031206100,0.2742060546875,-0.563258171081543,-0.3190145492553711,0.5021953582763672
1757090187040825000,0.2838251953125,-0.4741630554199219,-0.344174861907959,0.568462610244751
1757090187050444000,0.293444091796875,-0.33247947692871094,-0.3436276912689209,0.6092397570610046
1757090187060063000,0.30306298828125,-0.13450908660888672,-0.31419897079467773,0.6805574297904968
1757090187069682000,0.312681884765625,0.1503276824951172,-0.3161604404449463,0.6832939982414246
1757090187079300900,0.32230078125,0.3922138214111328,-0.31733250617980957,0.7277325391769409
1757090187088919800,0.331919921875,0.49016761779785156,-0.27371692657470703,0.8210799694061279
1757090187098538800,0.341538818359375,0.5772323608398438,-0.21277403831481934,0.793182373046875
1757090187108157400,0.351157470703125,0.7013149261474609,-0.14320898056030273,0.600616991519928
1757090187117776400,0.3607763671875,0.830439567565918,-0.10318326950073242,0.45258453488349915
1757090187127395300,0.370395263671875,0.7954902648925781,-0.07741665840148926,0.3391510546207428
1757090187137014300,0.38001416015625,0.5779438018798828,-0.0497441291809082,0.15537366271018982
1757090187146633200,0.38963330078125,0.3482522964477539,-0.05472707748413086,0.08038821816444397
1757090187156252200,0.399252197265625,0.04863166809082031,-0.07210636138916016,0.1267419457435608
1757090187165871000,0.40887109375,-0.07442569732666016,-0.0788121223449707,0.14824119210243225
1757090187175490000,0.418489990234375,-0.10828304290771484,-0.09871149063110352,0.20485129952430725
1757090187185109000,0.42810888671875,-0.0777902603149414,-0.04433035850524902,0.16202214360237122
1757090187194728000,0.43772802734375,-0.027492523193359375,-0.03614497184753418,0.10644334554672241
1757090187204347000,0.447346923828125,-0.1734161376953125,-0.029442310333251953,0.09535881876945496
1757090187213965800,0.4569658203125,-0.29702091217041016,-0.02571892738342285,0.007701754570007324
1757090187223584800,0.466584716796875,-0.27535533905029297,-0.04861283302307129,0.018007338047027588
1757090187233203500,0.476203369140625,-0.2554168701171875,-0.13222098350524902,0.11750388145446777
1757090187242822400,0.485822509765625,-0.1841573715209961,-0.13864803314208984,0.18817251920700073
1757090187252441300,0.49544140625,-0.12067985534667969,-0.12174630165100098,0.17941218614578247
1757090187262060300,0.505060302734375,0.007537841796875,-0.07867741584777832,0.1100725531578064
1757090187271679200,0.51467919921875,0.06381034851074219,-0.022844314575195312,-0.016367554664611816
1757090187281298200,0.524298095703125,0.08072566986083984,0.1558976173400879,0.040229737758636475
1757090187290917000,0.533917236328125,0.09145545959472656,0.2872762680053711,0.061392784118652344
1757090187300536000,0.5435361328125,0.07972049713134766,0.36286091804504395,0.012348413467407227
1757090187310155000,0.553155029296875,0.014437675476074219,0.28284120559692383,0.01931232213973999
1757090187319774000,0.56277392578125,-0.11155986785888672,0.16885638236999512,0.15889215469360352
1757090187329393000,0.572392822265625,-0.1623554229736328,0.11376309394836426,0.246829092502594
1757090187339011800,0.58201171875,-0.13506603240966797,0.06817126274108887,0.21331435441970825
1757090187348630500,0.591630615234375,0.0024423599243164062,0.04832100868225098,0.2518494725227356
1757090187358249500,0.60124951171875,0.1319732666015625,0.06123018264770508,0.36432796716690063
1757090187367868700,0.61086865234375,0.2662181854248047,0.04637861251831055,0.4932858943939209
1757090187377487600,0.620487548828125,0.2931222915649414,0.00923776626586914,0.47469770908355713
1757090187387106300,0.630106201171875,0.2699699401855469,0.05308032035827637,0.28369754552841187
1757090187396725200,0.639725341796875,0.2656087875366211,0.11388278007507324,0.17315489053726196
1757090187406344200,0.64934423828125,0.18910503387451172,0.11887526512145996,0.15467071533203125
1757090187415963100,0.658963134765625,-0.022377967834472656,0.11746931076049805,0.11866295337677002
1757090187425582000,0.66858203125,-0.21181583404541016,0.0610651969909668,0.11576855182647705
1757090187435201000,0.678200927734375,-0.4034385681152344,-0.02293229103088379,0.22444212436676025
1757090187444820000,0.687820068359375,-0.5348548889160156,-0.14214324951171875,0.2652599811553955
1757090187454439000,0.69743896484375,-0.6028680801391602,-0.20732378959655762,0.21179795265197754
1757090187464057900,0.707057861328125,-0.46591854095458984,-0.1703500747680664,0.24688464403152466
1757090187473676800,0.7166767578125,-0.29622364044189453,-0.17800021171569824,0.26593017578125
1757090187483295700,0.726295654296875,-0.11589717864990234,-0.18282318115234375,0.30847424268722534
1757090187492914700,0.735914794921875,-0.00946807861328125,-0.22109246253967285,0.31193190813064575
1757090187502533600,0.74553369140625,-0.03296852111816406,-0.21355247497558594,0.3709964156150818
1757090187512152300,0.75515234375,-0.09173107147216797,-0.24872946739196777,0.32050710916519165
1757090187521771300,0.764771240234375,-0.10216522216796875,-0.2489457130432129,0.10599887371063232
1757090187531390200,0.77439013671875,-0.1520252227783203,-0.24875593185424805,0.0026500821113586426
1757090187541009200,0.784009033203125,-0.12479209899902344,-0.28369641304016113,0.16250038146972656
1757090187550628000,0.793628173828125,-0.08984756469726562,-0.3528871536254883,0.2471882700920105
1757090187560247000,0.8032470703125,-0.15456199645996094,-0.31781697273254395,0.22481632232666016
1757090187569866000,0.812865966796875,-0.29997920989990234,-0.22736668586730957,0.23262333869934082
1757090187579485000,0.82248486328125,-0.38845157623291016,-0.1627969741821289,0.21750277280807495
1757090187589103900,0.832103759765625,-0.3748970031738281,-0.15555381774902344,0.18694454431533813
1757090187598722800,0.841722900390625,-0.30443477630615234,-0.1557161808013916,0.18269002437591553
1757090187608341800,0.851341796875,-0.20041942596435547,-0.1117408275604248,0.15652668476104736
1757090187617960700,0.860960693359375,-0.07732582092285156,-0.10429072380065918,0.12542378902435303
1757090187627579600,0.87057958984375,0.09180164337158203,-0.07754254341125488,0.07691812515258789
1757090187637198600,0.880198486328125,0.22890281677246094,-0.07522702217102051,0.08977144956588745
1757090187646817300,0.8898173828125,0.3209524154663086,-0.09671950340270996,0.12140548229217529
1757090187656436500,0.8994365234375,0.35230159759521484,-0.15778207778930664,0.08869153261184692
1757090187666055400,0.909055419921875,0.27149391174316406,-0.13006973266601562,0.008401155471801758
1757090187675674400,0.91867431640625,0.1397390365600586,-0.04752469062805176,-0.09341442584991455
1757090187685293000,0.92829296875,-0.051525115966796875,0.03677940368652344,-0.15515458583831787
1757090187694912000,0.937912109375,-0.2108163833618164,0.09881854057312012,-0.09976285696029663
1757090187704531000,0.947531005859375,-0.2071390151977539,0.09674525260925293,-0.05072343349456787
1757090187714150000,0.95714990234375,-0.1696796417236328,0.114501953125,0.03165823221206665
1757090187723768800,0.966768798828125,-0.14744186401367188,0.11516761779785156,0.06305074691772461
1757090187733387800,0.9763876953125,-0.10928058624267578,0.1335458755493164,0.05524027347564697
1757090187743006700,0.9860068359375,-0.07682132720947266,0.13962221145629883,-0.03418397903442383
1757090187752625700,0.995625732421875,-0.036025047302246094,0.09287858009338379,-0.09398633241653442
1757090187762244600,1.00524462890625,0.10697174072265625,0.03710651397705078,0.0042724609375
1757090187771863600,1.014863525390625,0.19725418090820312,0.020639896392822266,0.10664665699005127
1757090187781482500,1.024482421875,0.1878509521484375,0.03086233139038086,-0.04184442758560181
1757090187791101400,1.034101318359375,0.0955209732055664,0.08878636360168457,-0.2686539888381958
1757090187800720400,1.043720458984375,-0.03792381286621094,0.10215330123901367,-0.37521594762802124
1757090187810339300,1.05333935546875,-0.16331195831298828,0.008939743041992188,-0.23648512363433838
1757090187819958000,1.0629580078125,-0.13984203338623047,0.012854814529418945,0.06826919317245483
1757090187829577200,1.0725771484375,-0.11027717590332031,-0.023064374923706055,0.23455113172531128
1757090187839196200,1.082196044921875,-0.06046295166015625,-0.03146100044250488,0.21611714363098145
1757090187848815000,1.091815185546875,-0.0020971298217773438,0.008465051651000977,0.1598515510559082
1757090187858433800,1.101433837890625,0.11691761016845703,0.05914759635925293,0.20341861248016357
1757090187868052700,1.111052734375,0.17963409423828125,0.03421306610107422,0.27464568614959717
1757090187877671700,1.120671630859375,0.19770336151123047,0.03795599937438965,0.07903909683227539
1757090187887290600,1.13029052734375,0.2189950942993164,0.06855058670043945,-0.2168194055557251
1757090187896909600,1.13990966796875,0.17680072784423828,0.132887601852417,-0.40922868251800537
1757090187906528500,1.149528564453125,-0.17494678497314453,0.1378939151763916,-0.4211617708206177
1757090187916147500,1.1591474609375,-0.6521930694580078,0.23097896575927734,-0.12417072057723999
1757090187925766400,1.168766357421875,-0.8688640594482422,0.20821785926818848,0.226906418800354
1757090187935385300,1.17838525390625,-0.8313961029052734,0.14057517051696777,0.5029544830322266
1757090187945004300,1.18800439453125,-0.5649166107177734,0.0033485889434814453,0.5167428255081177
1757090187954623200,1.197623291015625,-0.16659832000732422,-0.08158564567565918,0.2661024332046509
1757090187964242200,1.2072421875,0.37719249725341797,-0.20147705078125,0.07058835029602051
1757090187973861000,1.216861083984375,0.9426536560058594,-0.3163425922393799,-0.20370042324066162
1757090187983480000,1.22647998046875,1.162419319152832,-0.3892545700073242,-0.2695962190628052
1757090187993099000,1.23609912109375,1.065835952758789,-0.48902225494384766,-0.2689896821975708
1757090188002718000,1.245718017578125,0.6236152648925781,-0.5255675315856934,-0.22649478912353516
1757090188012337000,1.2553369140625,-0.11459827423095703,-0.5114130973815918,-0.05908763408660889
1757090188021955800,1.264955810546875,-0.5600376129150391,-0.3470883369445801,0.1881875991821289
1757090188041193700,1.28419384765625,-0.4731607437133789,-0.05462026596069336,0.5295015573501587
1757090188050812400,1.2938125,-0.11205005645751953,0.11685442924499512,0.4631538391113281
1757090188060431400,1.303431396484375,0.3270721435546875,0.26327013969421387,0.4687530994415283
1757090188070050300,1.31305029296875,0.6137590408325195,0.28494691848754883,0.6180800199508667
1757090188079669500,1.32266943359375,0.8046360015869141,0.23583674430847168,0.7382925748825073
1757090188089288200,1.3322880859375,0.7902584075927734,0.19040632247924805,0.7442337274551392
1757090188098907100,1.3419072265625,0.8094825744628906,0.10538172721862793,0.7923741340637207
1757090188108526000,1.351526123046875,0.9574966430664062,-0.08943986892700195,1.2107679843902588
1757090188118145000,1.36114501953125,0.8699398040771484,-0.39937686920166016,2.2103216648101807
1757090188127764000,1.370763916015625,0.48050403594970703,-0.9116474390029907,3.3056514263153076
1757090188137383000,1.3803828125,0.40009498596191406,-1.483133316040039,4.090744972229004
1757090188147001900,1.390001953125,0.5719747543334961,-1.6790478229522705,4.329193115234375
1757090188156620800,1.399620849609375,0.5982017517089844,-1.7486364841461182,4.162321090698242
1757090188166239700,1.40923974609375,0.7674894332885742,-1.8371806144714355,3.3864564895629883
1757090188175858700,1.418858642578125,1.3590993881225586,-1.6531779766082764,1.5559284687042236
1757090188185477600,1.4284775390625,2.0286426544189453,-1.280529499053955,0.7993590831756592
1757090188195096600,1.4380966796875,2.599818229675293,-0.9689807891845703,1.0116815567016602
1757090188204715500,1.447715576171875,3.346991539001465,-0.8676438331604004,1.2370003461837769
1757090188214334500,1.45733447265625,3.619357109069824,-1.0298826694488525,0.9882351160049438
1757090188223953400,1.466953369140625,3.5558176040649414,-1.5164151191711426,1.0275946855545044
1757090188233572400,1.476572265625,3.4365768432617188,-2.0745856761932373,1.582586646080017
1757090188243191300,1.48619140625,2.9350290298461914,-2.446476697921753,1.8530863523483276
1757090188252810200,1.495810302734375,2.232590675354004,-2.609483242034912,1.3863725662231445
1757090188262429200,1.50542919921875,0.971898078918457,-3.1375317573547363,0.011426091194152832
1757090188272048000,1.515048095703125,-2.466221809387207,-3.8499808311462402,-4.555714130401611
1757090188291285800,1.53428564453125,-7.9735894203186035,-3.4993367195129395,-13.487135887145996
1757090188300904700,1.54390478515625,-10.168351173400879,-1.4892220497131348,-7.946616172790527
1757090188310523600,1.553523681640625,-9.839672088623047,-1.2329902648925781,-1.1546216011047363
1757090188320142600,1.563142578125,-7.123744964599609,-1.9454524517059326,1.4828369617462158
1757090188339380500,1.58238037109375,3.4570789337158203,-3.595332384109497,-1.648571491241455
1757090188348999400,1.59199951171875,9.390950202941895,-3.7489664554595947,-3.853356122970581
1757090188358618400,1.601618408203125,11.452468872070312,-3.2446444034576416,-2.217578887939453
1757090188368237300,1.6112373046875,9.261210441589355,-2.6046626567840576,-0.7575503587722778
1757090188377856300,1.620856201171875,5.429756164550781,-1.998732566833496,-0.9063389301300049
1757090188387475200,1.63047509765625,1.5071640014648438,-1.8807849884033203,-0.873882532119751
1757090188397094100,1.64009423828125,-1.1734566688537598,-2.3350300788879395,-0.0315854549407959
1757090188406713000,1.649713134765625,-0.8047347068786621,-2.4036874771118164,1.241471767425537
1757090188416332000,1.65933203125,-5.5207839012146,-0.3022475242614746,2.225911855697632
1757090188425951000,1.668950927734375,-6.59197473526001,2.3586196899414062,1.1597645282745361
1757090188435570000,1.67856982421875,-3.453151226043701,5.17034912109375,3.284156084060669
1757090188445188900,1.68818896484375,-6.253592491149902,4.150274276733398,1.6224520206451416
1757090188454807800,1.697807861328125,-5.780093193054199,3.028262138366699,1.320033311843872
1757090188464426800,1.7074267578125,-4.131694793701172,1.7571368217468262,0.22400569915771484
1757090188474045700,1.717045654296875,-1.2768259048461914,0.4337334632873535,0.08530926704406738
1757090188483664600,1.72666455078125,1.2843456268310547,-0.13041162490844727,0.3562335968017578
1757090188493283600,1.73628369140625,3.7555174827575684,-0.026105403900146484,-0.1899278163909912
1757090188502902500,1.745902587890625,3.7337026596069336,-0.3558626174926758,-0.42632198333740234
1757090188512521500,1.755521484375,3.680870532989502,-1.280259132385254,-0.45044755935668945
1757090188522140400,1.765140380859375,2.296001434326172,-2.4763340950012207,-0.8023536205291748
1757090188531759400,1.77475927734375,0.41474485397338867,-3.085631847381592,-1.0480458736419678
1757090188541378300,1.78437841796875,-0.40618896484375,-2.338510036468506,0.1234123706817627
1757090188550997200,1.793997314453125,-3.224029541015625,-0.4182095527648926,1.6892554759979248
1757090188560616200,1.8036162109375,-5.585483074188232,1.6491332054138184,2.445358991622925
1757090188570235000,1.81323486328125,-4.238325595855713,2.1252918243408203,3.1094932556152344
1757090188579854000,1.82285400390625,-1.7817234992980957,1.5919804573059082,3.3241398334503174
1757090188589473000,1.83247314453125,-0.8136887550354004,1.269723892211914,3.2112038135528564
1757090188599092000,1.842092041015625,-3.6036217212677,1.035224437713623,2.0096089839935303
1757090188608710700,1.851710693359375,-4.646583557128906,-0.3817787170410156,2.1010358333587646
1757090188618329600,1.86132958984375,-4.943922996520996,-2.0424137115478516,2.3315701484680176
1757090188627948500,1.870948486328125,-5.06978178024292,-2.6057357788085938,2.519153118133545
1757090188637567500,1.8805673828125,-3.6630537509918213,-2.372549057006836,2.2622761726379395
1757090188647186700,1.890186767578125,-2.061074733734131,-2.882321357727051,1.600576400756836
1757090188656805400,1.899805419921875,-0.26985883712768555,-3.3835225105285645,0.3177311420440674
1757090188666424300,1.90942431640625,2.108635902404785,-3.8070788383483887,-1.3490755558013916
1757090188676043300,1.919043212890625,3.3898510932922363,-4.383319854736328,-1.9935063123703003
1757090188685662200,1.928662109375,2.356271743774414,-5.10795783996582,-2.81561279296875
1757090188695281200,1.93828125,0.7832298278808594,-4.2365899085998535,-3.703805446624756
1757090188704900000,1.947900146484375,0.28752994537353516,-2.1820969581604004,-3.2238199710845947
1757090188714519000,1.95751904296875,0.8627855777740479,-0.020336151123046875,-2.1866707801818848
1757090188724138000,1.967137939453125,2.287928581237793,1.2849817276000977,-1.5750452280044556
1757090188774571000,2.017571044921875,-1.1759872436523438,7.586874008178711,-1.2324414253234863
1757090188784190000,2.02718994140625,-0.7669763565063477,8.055903434753418,0.28748178482055664
1757090188793809000,2.036808837890625,-0.07798051834106445,7.269290924072266,1.0565677881240845
1757090188803427800,2.046427734375,0.5539836883544922,6.961371421813965,1.6457780599594116
1757090188813046800,2.056046875,7.223333835601807,0.5854930877685547,0.9490396976470947
1757090188822665700,2.065665771484375,15.98491096496582,1.736562728881836,-0.09836745262145996
1757090188832284700,2.07528466796875,-10.602733612060547,3.900686264038086,5.686593532562256
1757090188841903600,2.084903564453125,-14.194119453430176,3.628957748413086,7.227321624755859
1757090188851522600,2.0945224609375,-16.261184692382812,5.137347221374512,7.867220401763916
1757090188861141500,2.1041416015625,-13.56690788269043,4.334455490112305,6.540001392364502
1757090188870760400,2.113760498046875,-10.191927909851074,2.2645797729492188,5.943104267120361
1757090188880379400,2.12337939453125,-4.9646382331848145,0.41903018951416016,5.023746490478516
1757090188889998300,2.132998291015625,-2.025066375732422,-1.315582275390625,2.722337484359741
1757090188899617300,2.1426171875,-2.1414198875427246,-2.6769986152648926,0.5777797698974609
1757090188909236200,2.152236328125,-1.929375410079956,-3.9697580337524414,-0.7256629467010498
1757090188918855200,2.161855224609375,-0.5711009502410889,-5.1258440017700195,-1.555405855178833
1757090188928474000,2.17147412109375,0.854337215423584,-7.337385177612305,-2.184889793395996
1757090188938092800,2.1810927734375,1.5901975631713867,-8.232735633850098,-2.488086223602295
1757090188947712000,2.1907119140625,-0.10041046142578125,-8.809895515441895,-1.7204216718673706
1757090188957330700,2.20033056640625,-0.7629327774047852,-9.716049194335938,-0.7859408259391785
1757090188966949600,2.20994970703125,-1.136521816253662,-8.572491645812988,0.04039418697357178
1757090188976568800,2.21956884765625,-1.694838523864746,-6.8169403076171875,-0.4768487215042114
1757090188986187500,2.2291875,12.958843231201172,-0.2920341491699219,-1.554033637046814
1757090188995806500,2.238806396484375,9.9721040725708,-3.113262176513672,0.5845506191253662
1757090189005425400,2.24842529296875,2.475384473800659,-0.14600849151611328,0.40740036964416504
1757090189015044400,2.25804443359375,-2.0085697174072266,1.7475347518920898,0.25075650215148926
1757090189024663300,2.267663330078125,-4.843013286590576,5.250530242919922,1.2987046241760254
1757090189043901200,2.286901123046875,-3.2255706787109375,2.9654159545898438,-1.9177740812301636
1757090189053520100,2.29652001953125,-3.27486252784729,6.443011283874512,0.4248239994049072
1757090189063139000,2.30613916015625,-2.929891586303711,6.385307312011719,-1.3070495128631592
1757090189072758000,2.315758056640625,-4.768377304077148,6.840116500854492,-1.1596766710281372
1757090189091996000,2.334995849609375,-3.893101453781128,3.660249710083008,-1.1141321659088135
1757090189101614800,2.34461474609375,-3.2817225456237793,2.1585988998413086,-1.1345757246017456
1757090189111233800,2.35423388671875,-3.6273090839385986,0.16924285888671875,-0.7504391670227051
1757090189120852700,2.363852783203125,-2.619319438934326,-1.687058448791504,-0.2974294424057007
1757090189130471700,2.3734716796875,-1.4250224828720093,-2.5756025314331055,-0.3336477279663086
1757090189140090600,2.383090576171875,-2.5044825077056885,-1.3175811767578125,-1.3744313716888428
1757090189149709600,2.39270947265625,-4.225999355316162,-2.3239293098449707,-2.242928981781006
1757090189159328500,2.40232861328125,0.5248217582702637,4.532270431518555,0.4154832363128662
1757090189168947500,2.411947509765625,0.065460205078125,8.745779991149902,0.2843043804168701
1757090189178566400,2.42156640625,-2.2421276569366455,5.309103012084961,-1.440739631652832
1757090189188185300,2.431185302734375,5.532510757446289,5.274091720581055,1.5410983562469482
1757090189197804300,2.44080419921875,4.017952919006348,1.4772357940673828,1.5429060459136963
1757090189207423200,2.45042333984375,6.351922988891602,-12.708067893981934,-5.012015342712402
1757090189217042200,2.460042236328125,2.6057193279266357,-10.621068954467773,-1.509753942489624
1757090189226661000,2.4696611328125,1.7247865200042725,-8.447559356689453,-0.9961656332015991
1757090189236280000,2.479280029296875,5.384648323059082,-8.963561058044434,-2.1341280937194824
1757090189245899000,2.48889892578125,6.9989776611328125,-6.025758743286133,2.7124288082122803
1757090189255518000,2.49851806640625,5.677739143371582,-0.6574220657348633,5.783417701721191
1757090189265137000,2.508136962890625,3.659043550491333,0.10377120971679688,6.760037422180176
1757090189274755800,2.517755859375,1.9945197105407715,2.7485456466674805,5.572636127471924
1757090189284374500,2.52737451171875,0.404117226600647,5.020691871643066,3.738144874572754
1757090189293993700,2.53699365234375,-18.101709365844727,1.6099777221679688,-6.897149085998535
1757090189303612700,2.54661279296875,0.5494652986526489,0.10006046295166016,2.0869901180267334
1757090189313231400,2.5562314453125,3.284505844116211,2.735518455505371,1.6780610084533691
1757090189322850300,2.565850341796875,-1.2913321256637573,-3.8818068504333496,-3.7595367431640625
1757090189332469200,2.57546923828125,-1.9492089748382568,-7.81452751159668,-3.4605555534362793
1757090189342088200,2.585088134765625,-1.4350216388702393,-9.573376655578613,-0.775810718536377
1757090189351707100,2.59470703125,-4.572619915008545,-9.592859268188477,0.054363250732421875
1757090189361326000,2.604326171875,-3.376312017440796,-10.74456787109375,-1.341282606124878
1757090189370945000,2.613945068359375,10.836506843566895,-13.69771671295166,-12.697833061218262
1757090189380564000,2.62356396484375,-2.1816344261169434,-8.092950820922852,-8.502918243408203
1757090189390183000,2.633182861328125,-5.588364601135254,11.229154586791992,-1.9241867065429688
1757090189399801900,2.6428017578125,-6.336343765258789,50.97169876098633,7.873434066772461
1757090189409420800,2.6524208984375,2.8988330364227295,44.94573211669922,10.967551231384277
1757090189419039700,2.662039794921875,3.3614187240600586,5.16518497467041,13.093498229980469
1757090189428658700,2.67165869140625,-3.4210212230682373,2.9628982543945312,6.7414374351501465
1757090189438277600,2.681277587890625,-3.5828826427459717,0.25859928131103516,2.3843817710876465
1757090189447896600,2.690896484375,-4.127624034881592,0.4860954284667969,1.9732928276062012
1757090189457515500,2.700515625,-19.15254020690918,1.6207218170166016,5.93887186050415
1757090189467134500,2.710134521484375,-8.918709754943848,5.655668258666992,3.9076948165893555
1757090189476753400,2.71975341796875,-3.857724666595459,3.9274168014526367,0.6765768527984619
1757090189486372400,2.729372314453125,0.0024613142013549805,-0.2916584014892578,-2.8772504329681396
1757090189505610200,2.7486103515625,5.403308391571045,-7.010047912597656,-15.036664962768555
1757090189515229200,2.758229248046875,8.501977920532227,-9.35573959350586,-14.35806941986084
1757090189524848000,2.76784814453125,8.413270950317383,-5.934854984283447,-7.19185733795166
1757090189534467000,2.777467041015625,3.7847447395324707,-2.0172390937805176,-3.0300397872924805
1757090189544086000,2.7870859375,0.852414608001709,-0.23709869384765625,-1.7067947387695312
1757090189553705000,2.796705078125,-0.6156363487243652,0.6166419982910156,-0.6881821155548096
1757090189563324000,2.806323974609375,-0.7447828650474548,0.8046989440917969,-0.3065982162952423
1757090189572942800,2.81594287109375,-4.197522163391113,1.1581287384033203,0.4337015450000763
1757090189582561800,2.825561767578125,-6.32255744934082,1.5569868087768555,1.580330729484558
1757090189592180700,2.8351806640625,-5.041079998016357,1.6420974731445312,2.304079532623291
1757090189601799700,2.844799560546875,-1.9365299940109253,1.7275276184082031,2.4350595474243164
1757090189611418600,2.854418701171875,0.4301624298095703,1.6075353622436523,1.222139835357666
1757090189621037600,2.86403759765625,1.3007515668869019,1.2850847244262695,-0.09399697929620743
1757090189630656500,2.873656494140625,0.7994992733001709,1.2574338912963867,-0.5373256206512451
1757090189640275500,2.883275390625,0.11902141571044922,1.4755058288574219,-0.4232844114303589
1757090189649894400,2.892894287109375,-0.12275809049606323,1.572946548461914,-0.22821635007858276
1757090189659513300,2.902513427734375,-0.36136919260025024,1.346308708190918,-0.059202972799539566
1757090189669132300,2.91213232421875,-0.39169666171073914,1.0860891342163086,0.09855518490076065
1757090189678751200,2.921751220703125,-0.2910015285015106,0.8765048980712891,0.20002694427967072
1757090189688370200,2.9313701171875,-0.6863654851913452,0.6609516143798828,0.3045136034488678
1757090189697989000,2.940989013671875,-1.0269031524658203,0.41620349884033203,0.32628166675567627
1757090189707608000,2.950608154296875,-1.0652889013290405,0.19233322143554688,0.33966007828712463
1757090189717227000,2.96022705078125,-0.3129217028617859,0.2148113250732422,0.5133903622627258
1757090189726846000,2.969845947265625,1.3701930046081543,0.2093954086303711,0.7183939218521118
1757090189736465000,2.97946484375,2.2425074577331543,0.2107381820678711,1.4022226333618164
1757090189746083600,2.98908349609375,2.1798293590545654,0.27587223052978516,2.668765068054199
1757090189755702800,2.998702880859375,5.793532848358154,-0.42903709411621094,2.699333667755127
1757090189765321700,3.00832177734375,7.230108737945557,-0.8814516067504883,2.874354600906372
1757090189774940400,3.0179404296875,5.606900691986084,-0.7206754684448242,3.1163995265960693
1757090189784559400,3.027559326171875,3.1903181076049805,-0.16999435424804688,3.075305700302124
1757090189794178600,3.037178466796875,1.4361281394958496,0.48236083984375,2.3825483322143555
1757090189803797500,3.046797607421875,0.7514861822128296,1.1392507553100586,1.0806931257247925
1757090189813416200,3.056416259765625,1.2221028804779053,1.5349454879760742,-0.5538955926895142
1757090189832654300,3.075654296875,2.200211524963379,1.1318416595458984,-4.978852272033691
1757090189842273000,3.08527294921875,1.978723168373108,0.9679660797119141,-6.166015625
1757090189851892000,3.09489208984375,1.994033932685852,0.6776771545410156,-6.109377384185791
1757090189861511200,3.10451123046875,2.3154687881469727,0.49119091033935547,-5.155750274658203
1757090189871130000,3.114130126953125,2.2847633361816406,0.2294607162475586,-3.7885377407073975
1757090189880748800,3.123748779296875,2.022902727127075,-0.2557239532470703,-3.1431732177734375
1757090189890368000,3.133367919921875,2.2175958156585693,-0.5658254623413086,-2.425935745239258
1757090189899987000,3.142987060546875,2.299312114715576,-0.6308631896972656,-1.8327958583831787
1757090189909606000,3.15260595703125,2.6389646530151367,-0.5982503890991211,-1.1277332305908203
1757090189919224600,3.162224609375,2.4605791568756104,-0.5436391830444336,-0.2506257891654968
1757090189928843800,3.17184375,2.3161697387695312,-0.6498470306396484,0.5305802822113037
1757090189938462700,3.181462646484375,2.2412922382354736,-0.6856594085693359,1.113181710243225
1757090189948081700,3.19108154296875,1.9600582122802734,-0.7230615615844727,1.6002724170684814
1757090189957700400,3.200700439453125,1.731155514717102,-0.7997827529907227,1.8010488748550415
1757090189967319600,3.210319580078125,1.3921399116516113,-1.0200519561767578,1.758692741394043
1757090189976938500,3.2199384765625,1.1861979961395264,-1.4784884452819824,1.296764612197876
1757090189986557400,3.229557373046875,0.9136674404144287,-1.7732510566711426,0.8563815951347351
1757090189996176400,3.23917626953125,0.7181713581085205,-2.047746181488037,0.32255709171295166
1757090190005795300,3.24879541015625,0.48903918266296387,-2.2901854515075684,-0.1475832462310791
1757090190015414300,3.258414306640625,0.5104970932006836,-2.421776294708252,-0.49339890480041504
1757090190025033200,3.268033203125,0.5892179012298584,-2.478391170501709,-0.7815351486206055
1757090190034652200,3.277652099609375,0.5388545989990234,-2.5104103088378906,-0.988651692867279
1757090190044271000,3.28727099609375,0.4240565299987793,-2.4726462364196777,-1.1034505367279053
1757090190053890000,3.29689013671875,0.37506961822509766,-2.3602519035339355,-1.2876121997833252
1757090190063509000,3.306509033203125,0.23405146598815918,-2.079826831817627,-1.4785566329956055
1757090190073128000,3.3161279296875,-0.297593355178833,-1.8961172103881836,-1.514846682548523
1757090190082747000,3.325746826171875,-0.4222099781036377,-0.5629425048828125,-2.1660609245300293
1757090190092365800,3.33536572265625,-0.9603073596954346,0.06795215606689453,-2.480994462966919
1757090190101984800,3.34498486328125,-2.482099771499634,-1.2346010208129883,-1.9812979698181152
1757090190111603700,3.354603759765625,-4.131473541259766,-1.7546815872192383,-0.5164838433265686
1757090190121222700,3.36422265625,-4.8519697189331055,-0.7995052337646484,-0.33429649472236633
1757090190130841600,3.373841552734375,-4.749053001403809,0.6886701583862305,-0.4869263768196106
1757090190140460500,3.38346044921875,-5.496551513671875,1.5246009826660156,-0.5957499742507935
1757090190150079500,3.39307958984375,-5.453235149383545,1.880380630493164,-0.8585830330848694
1757090190159698400,3.402698486328125,-4.91875696182251,1.3051986694335938,-1.2178609371185303
1757090190169317400,3.4123173828125,-4.10945987701416,-0.24462509155273438,-1.8787964582443237
1757090190178936300,3.421936279296875,-3.4360690116882324,-1.8432426452636719,-2.8785624504089355
1757090190188555300,3.43155517578125,-2.1420071125030518,-2.6657137870788574,-3.0370097160339355
1757090190198174200,3.44117431640625,-0.5169992446899414,-3.1923818588256836,-3.1775732040405273
1757090190207793200,3.450793212890625,0.7543957233428955,-3.867116928100586,-3.0892999172210693
1757090190217412000,3.460412109375,1.014590859413147,-4.700512886047363,-2.8813350200653076
1757090190227031000,3.470031005859375,0.951831579208374,-5.321314811706543,-2.6853973865509033
1757090190236650000,3.47964990234375,0.7723774909973145,-5.56230354309082,-2.396022319793701
1757090190246269000,3.48926904296875,0.7119888067245483,-5.598322868347168,-2.0447959899902344
1757090190255888000,3.498887939453125,1.3637052774429321,-5.3097028732299805,-1.7381181716918945
1757090190265506800,3.5085068359375,2.198575973510742,-2.934020519256592,-1.8395496606826782
1757090190275126000,3.5181259765625,2.0804686546325684,2.2486133575439453,-1.4796028137207031
1757090190284745000,3.527744873046875,1.7532014846801758,7.317120552062988,-1.2732504606246948
1757090190294364000,3.537364013671875,3.0075817108154297,10.542054176330566,-2.034968376159668
1757090190303982800,3.54698291015625,5.071185111999512,14.120501518249512,-3.7197420597076416
1757090190313601800,3.556601806640625,6.999419212341309,20.863365173339844,-3.7511637210845947
1757090190323220700,3.566220703125,3.1174092292785645,21.571056365966797,-7.096432209014893
1757090190332839700,3.575839599609375,-1.0027344226837158,13.996042251586914,-7.940014362335205
1757090190342458600,3.585458740234375,0.028455138206481934,5.350250244140625,-2.72282075881958
1757090190352077600,3.59507763671875,0.48969364166259766,0.13327503204345703,2.1771633625030518
1757090190361696500,3.604696533203125,0.4420151710510254,-4.816824436187744,3.6799657344818115
1757090190371315500,3.6143154296875,1.56337308883667,-8.529260635375977,3.3151190280914307
1757090190380934400,3.623934326171875,3.8135204315185547,-10.342378616333008,2.9754538536071777
1757090190390553300,3.63355322265625,5.126513481140137,-12.06640911102295,2.234431743621826
1757090190400172300,3.64317236328125,7.108565330505371,-11.886637687683105,1.569841980934143
1757090190409791200,3.652791259765625,9.072004318237305,-9.593503952026367,2.297597885131836
1757090190419410200,3.66241015625,9.029807090759277,-4.77119779586792,5.392210006713867
1757090190429029000,3.672029052734375,10.567682266235352,0.43200206756591797,6.353362083435059
1757090190438648000,3.68164794921875,10.170994758605957,5.563737869262695,4.855732440948486
1757090190448267300,3.691267333984375,-1.3513708114624023,8.48214340209961,4.350862503051758
1757090190457886200,3.70088623046875,-9.20083236694336,7.278461456298828,5.143448352813721
1757090190467505200,3.710505126953125,-9.628710746765137,4.261037826538086,6.081740379333496
1757090190477124000,3.7201240234375,-6.588005542755127,1.8028297424316406,6.106235504150391
1757090190486743000,3.729742919921875,-2.2050974369049072,-0.37036800384521484,4.40662145614624
1757090190496362000,3.739362060546875,1.3422569036483765,-2.381438732147217,2.7822978496551514
1757090190505981000,3.74898095703125,3.237123489379883,-3.417311668395996,1.6856260299682617
1757090190515600000,3.758599853515625,3.5937840938568115,-3.5322699546813965,0.8349740505218506
1757090190525218800,3.76821875,2.6808605194091797,-2.9217796325683594,0.4822753071784973
1757090190534837800,3.777837646484375,2.520742177963257,-1.771376132965088,-0.5039446949958801
1757090190544456700,3.787456787109375,1.2523388862609863,-0.8013458251953125,-2.3450441360473633
1757090190554076000,3.797075927734375,-1.0483856201171875,-0.004787445068359375,-4.408592224121094
1757090190563694800,3.80669482421875,-2.000810384750366,0.6679954528808594,-5.638348579406738
1757090190573313800,3.816313720703125,-1.9448776245117188,1.1877145767211914,-5.534668922424316
1757090190582932700,3.8259326171875,-1.3378081321716309,1.5751762390136719,-4.40676736831665
1757090190592551700,3.8355517578125,-0.7723971605300903,1.190847396850586,-3.6451473236083984
1757090190602170600,3.845170654296875,-0.47845005989074707,0.6307868957519531,-3.0314254760742188
1757090190611789600,3.85478955078125,-0.262509822845459,0.10232830047607422,-2.519179344177246
1757090190621408500,3.864408447265625,-0.08122813701629639,-0.20390605926513672,-1.7992552518844604
1757090190631027500,3.87402734375,0.13532555103302002,-0.2653961181640625,-0.9356014728546143
1757090190640646400,3.883646484375,0.02156388759613037,-0.36806297302246094,-0.07269799709320068
1757090190650265600,3.893265625,-0.2752828598022461,-0.6633148193359375,0.5488321781158447
1757090190659884500,3.902884521484375,-0.4496572017669678,-0.9539947509765625,0.9621196985244751
1757090190669503500,3.91250341796875,-0.4635878801345825,-1.1106796264648438,1.1517304182052612
1757090190679122400,3.922122314453125,-0.5197486877441406,-1.133413314819336,1.0215669870376587
1757090190688741400,3.931741455078125,-1.0698704719543457,-0.9341316223144531,0.9010926485061646
1757090190698360300,3.9413603515625,-1.9284000396728516,-0.322509765625,0.7707432508468628
1757090190707979300,3.950979248046875,-2.919886589050293,0.4830179214477539,0.5785890817642212
1757090190717598200,3.96059814453125,-3.5652570724487305,1.1083602905273438,0.33325672149658203
1757090190727217200,3.970217041015625,-3.632473945617676,1.421830177307129,0.2532668113708496
1757090190736836000,3.979836181640625,-3.005136251449585,1.6815261840820312,0.512170672416687
1757090190746455000,3.989455078125,-2.027649402618408,1.9401273727416992,0.8030976057052612
1757090190756074200,3.99907421875,-1.0923466682434082,1.7356805801391602,0.8326241970062256
1757090190765693200,4.008693115234375,-1.0054038763046265,1.612196922302246,0.5226505994796753
1757090190775312100,4.01831201171875,-1.2412196397781372,2.3876142501831055,0.7920526266098022
1757090190784931000,4.02793115234375,-1.371779203414917,3.278225898742676,1.063320279121399
1757090190794550000,4.037550048828125,-1.4973198175430298,3.799759864807129,1.077498435974121
1757090190804169000,4.0471689453125,-2.1001126766204834,4.071921348571777,1.016535997390747
1757090190813788000,4.056787841796875,-3.136254072189331,4.076208114624023,0.7163236141204834
1757090190823406800,4.06640673828125,-3.9441163539886475,3.836925506591797,0.43156254291534424
1757090190833026000,4.076026123046875,-4.553791046142578,2.580343246459961,-0.008665204048156738
1757090190842645000,4.08564501953125,-4.206418037414551,1.0950584411621094,-0.9498364329338074
1757090190852264000,4.095263916015625,-3.016683340072632,0.7180614471435547,-0.9999057650566101
1757090190861883000,4.1048828125,-2.354861259460449,1.188669204711914,-0.19821572303771973
1757090190871501800,4.114501708984375,-2.0020313262939453,2.328122138977051,0.5222951173782349
1757090190881120800,4.124120849609375,-1.5703997611999512,3.896261215209961,1.032167673110962
1757090190900358700,4.143358642578125,1.1010925769805908,3.430617332458496,2.480226993560791
1757090190919596800,4.1625966796875,5.511940956115723,0.7524251937866211,3.5539584159851074
1757090190929215700,4.1722158203125,5.784757614135742,-0.3313865661621094,2.593665361404419
1757090190938834700,4.181834716796875,5.200458526611328,-1.373499870300293,1.097057819366455
1757090190948453600,4.19145361328125,4.482810974121094,-1.01177978515625,-0.6962600946426392
1757090190958072600,4.201072509765625,3.7849745750427246,0.09311294555664062,-2.280863046646118
1757090190967691500,4.21069140625,2.9787425994873047,1.3750286102294922,-3.4923095703125
1757090190977310500,4.220310546875,1.439587116241455,3.002274513244629,-3.8656253814697266
1757090190986929700,4.2299296875,0.256463885307312,4.359078407287598,-3.6236205101013184
1757090191006167600,4.24916748046875,0.03614354133605957,5.295339584350586,-2.379960060119629
1757090191015786500,4.258786376953125,0.950219988822937,3.988140106201172,-2.0955657958984375
1757090191025405400,4.268405517578125,2.459057331085205,2.4459381103515625,-1.3727712631225586
1757090191035024400,4.2780244140625,3.274813175201416,1.569014549255371,-0.05515039712190628
1757090191044643300,4.287643310546875,2.4836254119873047,1.163034439086914,0.6913173198699951
1757090191054262500,4.297262451171875,1.9531071186065674,0.8614749908447266,0.819156289100647
1757090191063881500,4.306881591796875,2.592045783996582,0.879425048828125,0.7945301532745361
1757090191073500400,4.31650048828125,3.7265233993530273,1.3025693893432617,0.7950631976127625
1757090191083119400,4.326119384765625,4.7378668785095215,2.279078483581543,1.2005621194839478
1757090191092738300,4.33573828125,5.201066017150879,2.9834680557250977,1.4326989650726318
1757090191111976200,4.35497607421875,4.284200191497803,1.6214523315429688,0.22048285603523254
1757090191121595400,4.364595458984375,3.5065360069274902,-0.08091449737548828,-0.7819024324417114
1757090191131214300,4.37421435546875,2.7985267639160156,-1.9365625381469727,-0.9534594416618347
1757090191140833300,4.383833251953125,2.3674511909484863,-3.8359670639038086,-0.9663938283920288
1757090191150452200,4.3934521484375,2.3196828365325928,-5.232581615447998,-0.4036511182785034
1757090191160071200,4.4030712890625,1.9837398529052734,-6.278817653656006,-0.025567233562469482
1757090191169690000,4.412690185546875,2.161468029022217,-6.69169807434082,0.38273751735687256
1757090191179309300,4.422309326171875,2.537348508834839,-6.655904769897461,0.5069882869720459
1757090191188928300,4.43192822265625,3.3677637577056885,-6.215724468231201,0.4763067364692688
1757090191198547200,4.441547119140625,4.020777225494385,-5.461909294128418,0.23743212223052979
1757090191208166100,4.451166259765625,4.48088264465332,-4.708286762237549,0.12429094314575195
1757090191217785000,4.46078515625,4.909729957580566,-4.077232837677002,0.16570758819580078
1757090191227404000,4.470404052734375,5.037703990936279,-3.5785961151123047,0.11869442462921143
1757090191237023200,4.480023193359375,5.040100574493408,-3.2312774658203125,0.05398857593536377
1757090191246642200,4.48964208984375,4.947052955627441,-3.21286678314209,-0.01690542697906494
1757090191256261000,4.49926123046875,4.444259166717529,-3.4794697761535645,-0.3740715980529785
1757090191265880000,4.508880126953125,3.5190353393554688,-3.831813335418701,-0.7709057331085205
1757090191275499000,4.5184990234375,2.3150272369384766,-4.049837112426758,-0.9327348470687866
1757090191285118000,4.528117919921875,1.252197265625,-4.163209915161133,-1.0615125894546509
1757090191294737200,4.537737060546875,0.690889835357666,-4.21323823928833,-1.214146614074707
1757090191304356000,4.547356201171875,0.6480655670166016,-4.090017795562744,-1.17258620262146
1757090191313975000,4.55697509765625,0.5713787078857422,-3.7075185775756836,-0.9498258829116821
1757090191323594000,4.566593994140625,-0.3337841033935547,-3.0977959632873535,-1.0497831106185913
1757090191333213000,4.576212890625,-1.6030361652374268,-1.7308216094970703,-1.3248885869979858
1757090191342831900,4.585831787109375,-2.855159282684326,1.2498044967651367,-0.929337739944458
1757090191352451000,4.595451171875,-5.778321743011475,7.47934627532959,0.35048991441726685
1757090191362070000,4.605070068359375,-12.751163482666016,19.511093139648438,3.5288145542144775
1757090191371689000,4.61468896484375,-18.01658821105957,25.811534881591797,4.257411003112793
1757090191381308000,4.624307861328125,-15.198995590209961,18.613155364990234,-2.114997386932373
1757090191390926800,4.6339267578125,-4.712249755859375,7.076784133911133,-6.567962169647217
1757090191400545800,4.6435458984375,1.8688267469406128,-1.2625017166137695,-6.361558437347412
1757090191410164700,4.653164794921875,0.9734774827957153,-6.411421775817871,-4.9575605392456055
1757090191419784000,4.662783935546875,-0.9582099914550781,-8.403573036193848,-3.638925790786743
1757090191429403000,4.67240283203125,-0.1026310920715332,-8.299251556396484,-2.594749927520752
1757090191439021800,4.682021728515625,3.7563858032226562,-5.497494220733643,0.15235306322574615
1757090191448640800,4.691640869140625,8.818116188049316,-0.7952651977539062,0.9691130518913269
1757090191458259700,4.701259765625,13.041464805603027,4.423851013183594,-0.10648041218519211
1757090191467879000,4.71087890625,14.49207878112793,8.181997299194336,-1.9197531938552856
1757090191477497900,4.720497802734375,12.159080505371094,8.44446086883545,-4.1537370681762695
1757090191487116800,4.73011669921875,9.915482521057129,7.711952209472656,-5.7216901779174805
1757090191496735700,4.73973583984375,1.1959316730499268,8.745362281799316,-0.37571677565574646
1757090191506354700,4.749354736328125,-9.07370662689209,6.501778602600098,6.5324907302856445
1757090191515973600,4.7589736328125,-7.021914958953857,1.436767578125,8.287055015563965
1757090191525592800,4.7685927734375,0.6395014524459839,-3.507263660430908,5.807363033294678
1757090191535211800,4.778211669921875,6.5594072341918945,-5.8004584312438965,3.5037930011749268
1757090191544830700,4.787830810546875,8.869842529296875,-7.438637733459473,1.541489839553833
1757090191554449700,4.79744970703125,9.482046127319336,-8.876461029052734,0.5002427697181702
1757090191564068600,4.807068603515625,9.74388313293457,-8.291839599609375,0.18618935346603394
1757090191573687600,4.8166875,9.7783203125,-5.350431442260742,-0.5850193500518799
1757090191583306800,4.826306640625,7.910303592681885,-1.319930076599121,-1.8754801750183105
1757090191592925700,4.83592578125,0.035432398319244385,2.0268192291259766,-2.9934885501861572
1757090191602544600,4.845544677734375,-5.951229095458984,4.2388153076171875,-2.0951132774353027
1757090191612163600,4.85516357421875,-3.8012585639953613,3.4766626358032227,0.48065370321273804
1757090191621782500,4.864782470703125,1.0256325006484985,1.653080940246582,2.097055435180664
1757090191631401700,4.874401611328125,4.147588729858398,0.2716484069824219,2.6398580074310303
1757090191641020700,4.884020751953125,4.145015239715576,-0.9159708023071289,3.532810688018799
1757090191650639600,4.8936396484375,3.270369291305542,-1.7891674041748047,4.181456565856934
1757090191660258600,4.903258544921875,2.6160240173339844,-2.1446657180786133,3.8015711307525635
1757090191669877500,4.91287744140625,0.3998314142227173,-1.628100872039795,2.3151042461395264
1757090191679496400,4.922496337890625,-1.9115089178085327,-0.8233757019042969,0.26876723766326904
1757090191689115600,4.93211572265625,-3.5817508697509766,0.21342754364013672,-0.8945554494857788
1757090191698734600,4.941734619140625,-4.349806785583496,0.9835662841796875,-1.544276475906372
1757090191708353500,4.951353515625,-4.366879463195801,1.3191680908203125,-2.158431053161621
1757090191717972500,4.960972412109375,-3.0471410751342773,1.1159725189208984,-2.858430862426758
1757090191727591400,4.97059130859375,-1.4881000518798828,0.6815156936645508,-2.7644968032836914
1757090191737210400,4.98021044921875,-0.316318154335022,0.14174652099609375,-1.9636943340301514
1757090191746829600,4.98982958984375,0.7584618330001831,-0.4227914810180664,-1.3441095352172852
1757090191756448500,4.999448486328125,1.4121533632278442,-0.7481489181518555,-0.9969644546508789
1757090191766067500,5.0090673828125,1.5906811952590942,-0.8792562484741211,-0.7805307507514954
1757090191775686400,5.018686279296875,1.474662184715271,-0.829991340637207,-0.7554187178611755
1757090191785305300,5.028305419921875,1.235903263092041,-0.7975749969482422,-1.145306944847107
1757090191794924500,5.037924560546875,0.5622260570526123,-0.7550516128540039,-1.4993985891342163
1757090191804543500,5.04754345703125,-0.9143936634063721,-0.7409553527832031,-1.422312617301941
1757090191814162400,5.057162353515625,-2.5124528408050537,-0.6879034042358398,-0.9759030938148499
1757090191823781400,5.066781494140625,-2.840583086013794,-0.45185184478759766,-0.5807633399963379
1757090191833400300,5.076400390625,-2.4679551124572754,-0.15787029266357422,-0.6110028624534607
1757090191852638500,5.095638427734375,-3.1055219173431396,1.1446514129638672,-0.62893146276474
1757090191862257400,5.10525732421875,-3.714064121246338,1.3753280639648438,-0.5244856476783752
1757090191871876400,5.11487646484375,-3.677056312561035,1.2611093521118164,-0.07832050323486328
1757090191881495300,5.124495361328125,-3.0133023262023926,1.978898048400879,0.8406071662902832
1757090191891114200,5.1341142578125,-1.580108880996704,2.8305234909057617,1.8601188659667969
1757090191900733200,5.143733154296875,-0.7471923828125,2.0449323654174805,2.110358715057373
1757090191910352400,5.153352294921875,-0.8594050407409668,1.0775766372680664,1.7443647384643555
1757090191919971300,5.162971435546875,-1.334060549736023,1.149662971496582,2.052896022796631
1757090191929590300,5.17259033203125,-1.3793634176254272,2.118891716003418,2.691678285598755
1757090191939209200,5.182209228515625,-1.452228307723999,2.8641176223754883,2.9845635890960693
1757090191948828200,5.191828125,-2.241004467010498,3.5228796005249023,2.6954357624053955
1757090191958447400,5.201447265625,-3.3016269207000732,3.9821815490722656,1.3489940166473389
1757090191968066300,5.21106640625,-3.4401493072509766,4.1299285888671875,0.5718924403190613
1757090191987304200,5.23030419921875,-3.3837008476257324,2.5823144912719727,-0.4041704535484314
1757090191996923100,5.239923095703125,-2.787998914718628,2.356903076171875,-0.8265217542648315
1757090192006542000,5.2495419921875,-1.674790382385254,2.7854576110839844,0.5799584984779358
1757090192016161300,5.259161376953125,-0.12056446075439453,2.781728744506836,1.5834394693374634
1757090192025780200,5.2687802734375,1.6245105266571045,3.190058708190918,2.059420108795166
1757090192035399200,5.278399169921875,4.377377986907959,3.025188446044922,1.8341569900512695
1757090192045018000,5.28801806640625,4.708575248718262,2.574223518371582,1.3978060483932495
1757090192054637000,5.297636962890625,2.5131185054779053,1.920018196105957,1.6954575777053833
1757090192064256000,5.307256103515625,0.692750871181488,0.4221792221069336,1.9161421060562134
1757090192073875200,5.316875244140625,1.02363920211792,-0.3860015869140625,1.1839326620101929
1757090192083494100,5.326494140625,2.6362862586975098,-0.2147045135498047,-0.7731027603149414
1757090192093113000,5.336113037109375,3.1372148990631104,0.3758735656738281,-2.329059600830078
1757090192102732000,5.34573193359375,2.299502372741699,1.6596174240112305,-2.8101043701171875
1757090192112351000,5.35535107421875,0.7963444590568542,2.987820625305176,-2.604822874069214
1757090192121970200,5.36497021484375,0.028729796409606934,4.2027435302734375,-2.608227252960205
1757090192131589000,5.374589111328125,-0.21626770496368408,4.946249961853027,-1.870354413986206
1757090192141208000,5.3842080078125,1.0257073640823364,4.235954284667969,-1.1608134508132935
1757090192150827000,5.393826904296875,2.571927070617676,2.774168014526367,-0.6045621037483215
1757090192160446000,5.403446044921875,3.4290013313293457,1.3240737915039062,-0.36923331022262573
1757090192170065000,5.41306494140625,3.013172149658203,0.5558452606201172,-0.194342702627182
1757090192179683800,5.422683837890625,2.281754493713379,0.1410818099975586,-0.25881803035736084
1757090192189303000,5.432302978515625,1.8881535530090332,0.2548084259033203,0.045984312891960144
1757090192198922000,5.441921875,2.2880795001983643,0.9452629089355469,0.6171156167984009
1757090192208541000,5.451541015625,3.486333131790161,1.6798276901245117,1.0992980003356934
1757090192218159900,5.461159912109375,4.39512300491333,2.5074195861816406,1.509124994277954
1757090192227778800,5.47077880859375,4.919427871704102,2.513334274291992,1.1921725273132324
1757090192237397800,5.480397705078125,4.612386226654053,1.6761713027954102,0.1800374984741211
1757090192247017000,5.490016845703125,3.9258058071136475,0.43075084686279297,-0.8186166882514954
1757090192256636000,5.499635986328125,3.1252622604370117,-1.067406177520752,-0.912085771560669
1757090192266254800,5.5092548828125,3.134492874145508,-2.5754222869873047,-0.7280771732330322
1757090192275873800,5.518873779296875,2.896533250808716,-3.7032227516174316,-0.0019266605377197266
1757090192285492700,5.52849267578125,3.013394832611084,-4.7937445640563965,0.4819888472557068
1757090192295111700,5.538111572265625,2.6699678897857666,-5.63118314743042,0.5465850234031677
1757090192304731000,5.54773095703125,2.5360257625579834,-5.829288482666016,0.6598570942878723
1757090192314349800,5.557349853515625,2.739976167678833,-5.631717681884766,0.7190296053886414
1757090192323968800,5.56696875,3.156313419342041,-5.191963195800781,0.4342772364616394
1757090192333587700,5.576587646484375,3.794139862060547,-4.49757194519043,0.3659564256668091
1757090192343206700,5.58620654296875,4.547929286956787,-3.831847667694092,0.35019898414611816
1757090192352825600,5.59582568359375,4.993460178375244,-3.310871124267578,0.22141563892364502
1757090192362444800,5.60544482421875,5.1013712882995605,-3.029801368713379,0.16671347618103027
1757090192372063700,5.615063720703125,5.014387130737305,-3.1029000282287598,0.04999220371246338
1757090192381682700,5.6246826171875,4.599787712097168,-3.4967355728149414,-0.1840442419052124
1757090192391301600,5.634301513671875,4.091930389404297,-3.8895645141601562,-0.37314891815185547
1757090192400920600,5.643920654296875,3.4105327129364014,-4.230019569396973,-0.5444240570068359
1757090192410539500,5.65353955078125,2.5499727725982666,-4.483211040496826,-0.6752274036407471
1757090192420158700,5.66315869140625,1.9065850973129272,-4.601113796234131,-0.7293273210525513
1757090192429777700,5.672777587890625,1.4147839546203613,-4.579733371734619,-0.7162885069847107
1757090192439396600,5.682396728515625,1.021294116973877,-4.510734558105469,-0.7819743752479553
1757090192449015600,5.692015625,0.25749683380126953,-3.9513139724731445,-1.0449209213256836
1757090192458634500,5.701634521484375,-0.8830840587615967,-2.820047378540039,-1.870976209640503
1757090192468253400,5.71125341796875,-2.613891363143921,-0.47711753845214844,-2.288529634475708
1757090192477872400,5.720872314453125,-4.569091796875,3.907252311706543,-1.6687688827514648
1757090192487491600,5.73049169921875,-7.827223777770996,13.441887855529785,1.3094249963760376
1757090192497110500,5.740110595703125,-17.090343475341797,26.613067626953125,4.090015411376953
1757090192506729500,5.7497294921875,-22.025104522705078,24.755842208862305,2.3104400634765625
1757090192516348400,5.759348388671875,-14.43281078338623,12.505637168884277,-2.9478564262390137
1757090192525967400,5.76896728515625,-2.967384099960327,2.1271915435791016,-3.680630683898926
1757090192535586300,5.77858642578125,2.1310880184173584,-4.840754508972168,-3.3698012828826904
1757090192545205200,5.788205322265625,0.95758056640625,-9.541413307189941,-2.8606152534484863
1757090192554824400,5.797824462890625,-0.7757537364959717,-12.260270118713379,-2.70896053314209
1757090192564443400,5.807443359375,-1.4389748573303223,-13.394073486328125,-2.059744358062744
1757090192574062300,5.817062255859375,1.7627270221710205,-12.169759750366211,0.9972022771835327
1757090192583681300,5.826681396484375,6.620153427124023,-9.16712474822998,3.9231784343719482
1757090192593300200,5.83630029296875,10.879461288452148,-4.2335205078125,3.412919521331787
1757090192602919200,5.845919189453125,13.031306266784668,3.9092111587524414,2.1056582927703857
1757090192612538000,5.8555380859375,15.46619987487793,15.997621536254883,0.9930920600891113
1757090192622157300,5.8651572265625,18.639968872070312,24.900070190429688,-3.096341848373413
1757090192631776300,5.8747763671875,12.122228622436523,28.276592254638672,-10.380249977111816
1757090192641395200,5.884395263671875,-20.98003578186035,15.059184074401855,-2.599917411804199
1757090192651014100,5.89401416015625,-17.328872680664062,4.060206413269043,4.4124860763549805
1757090192660633000,5.903633056640625,-2.6378188133239746,-3.16229248046875,3.639275550842285
1757090192670252000,5.913251953125,8.31790542602539,-7.66018009185791,2.2678709030151367
1757090192679871000,5.92287109375,12.153155326843262,-10.87643051147461,0.27177295088768005
1757090192689490200,5.932490234375,12.255949974060059,-12.329706192016602,-0.3213048279285431
1757090192699109000,5.942109130859375,10.944209098815918,-12.41041088104248,-0.41897597908973694
1757090192708728000,5.95172802734375,9.800637245178223,-10.528450012207031,-0.06603929400444031
1757090192718347000,5.961346923828125,9.389057159423828,-6.086034774780273,-0.1418580263853073
1757090192727966000,5.970966064453125,5.569961071014404,-0.9811363220214844,-1.7591453790664673
1757090192737585000,5.9805849609375,-3.6711409091949463,4.2052154541015625,-3.4101574420928955
1757090192747203800,5.990203857421875,-8.672566413879395,6.292215347290039,-2.091465711593628
1757090192756823000,5.999822998046875,-2.9828872680664062,4.473448753356934,-0.8158041834831238
1757090192766442000,6.00944189453125,2.701249361038208,2.7353944778442383,0.3183267414569855
1757090192776061000,6.01906103515625,4.796545505523682,0.9604473114013672,2.1168506145477295
1757090192785680000,6.028679931640625,3.8731565475463867,-0.6668977737426758,4.406379222869873
1757090192795298800,6.038298828125,2.9046928882598877,-1.8031773567199707,6.2239909172058105
1757090192804917800,6.047917724609375,2.9692726135253906,-2.5616559982299805,6.487113952636719
1757090192814536700,6.05753662109375,2.6028261184692383,-2.7084951400756836,6.476183891296387
1757090192824156000,6.067156005859375,0.6809069514274597,-2.0847787857055664,2.5344629287719727
1757090192833774800,6.07677490234375,-1.4678192138671875,-1.1538429260253906,-0.39172399044036865
1757090192843393800,6.086393798828125,-3.3838696479797363,0.2682514190673828,-1.7492607831954956
1757090192853012700,6.0960126953125,-4.645745277404785,1.6329765319824219,-2.613528251647949
1757090192862631700,6.105631591796875,-4.403960704803467,2.116265296936035,-3.4631636142730713
1757090192872250600,6.115250732421875,-2.6087450981140137,1.5446157455444336,-4.364078521728516
1757090192881869600,6.12486962890625,-0.036417484283447266,0.4400053024291992,-4.394210338592529
1757090192891488800,6.13448876953125,1.5474833250045776,-0.15320205688476562,-2.9507458209991455
1757090192901107700,6.144107666015625,1.9763821363449097,-0.39470386505126953,-1.4959357976913452
1757090192910726700,6.1537265625,1.9839648008346558,-0.6092948913574219,-1.2613322734832764
1757090192920345600,6.163345703125,1.9426149129867554,-0.7115688323974609,-1.6263384819030762
1757090192929964500,6.172964599609375,1.8612123727798462,-0.569000244140625,-1.8824870586395264
1757090192939583500,6.18258349609375,1.2066009044647217,-0.4824552536010742,-2.0648648738861084
1757090192949202400,6.192202392578125,-0.24981975555419922,-0.6265087127685547,-1.718589186668396
1757090192958821600,6.201821533203125,-1.5243629217147827,-0.9640970230102539,-1.0996705293655396
1757090192968440600,6.211440673828125,-1.4273594617843628,-1.1565790176391602,-0.5663517713546753
1757090192978059500,6.2210595703125,-0.6493427753448486,-1.0159587860107422,-0.22881805896759033
1757090192987678500,6.230678466796875,-0.23067200183868408,-0.49332714080810547,-0.1380002498626709
1757090192997297400,6.24029736328125,-0.49134743213653564,0.047039031982421875,-0.5884531736373901
1757090193006916400,6.249916259765625,-0.6219595670700073,0.5164976119995117,-0.9747267961502075
1757090193016535600,6.25953564453125,-0.6822015047073364,0.7612113952636719,-1.0377206802368164
1757090193026154500,6.269154541015625,-0.8888576030731201,0.7086114883422852,-1.0427435636520386
1757090193035773400,6.2787734375,-1.2561917304992676,0.5915021896362305,-0.9229269623756409
1757090193045392400,6.288392333984375,-1.3762928247451782,0.5187587738037109,-0.6357005834579468
1757090193055011300,6.29801123046875,-1.0778189897537231,0.6474761962890625,0.005897641181945801
1757090193064630300,6.30763037109375,-0.6112711429595947,0.7624139785766602,0.5521179437637329
1757090193074249200,6.317249267578125,-0.2844736576080322,0.446075439453125,0.6436238288879395
1757090193083868400,6.326868408203125,-0.5777430534362793,0.20533084869384766,0.8521949052810669
1757090193093487400,6.3364873046875,-0.8768758773803711,0.5931606292724609,1.2403029203414917
1757090193103106300,6.346106201171875,-0.7568802833557129,1.1279077529907227,1.61558198928833
1757090193112725200,6.355725341796875,-0.5041661262512207,1.5145235061645508,1.628987431526184
1757090193122344200,6.36534423828125,-0.5025553703308105,1.734705924987793,0.8555798530578613
1757090193131963100,6.374963134765625,-1.0912805795669556,2.139899253845215,-0.35730522871017456
1757090193141582000,6.38458203125,-1.9945361614227295,2.8585100173950195,-1.0841811895370483
1757090193151201300,6.394201171875,-2.770656108856201,3.1514148712158203,-1.2533626556396484
1757090193160820200,6.4038203125,-3.524258613586426,2.3741445541381836,-1.3125017881393433
1757090193170439200,6.413439208984375,-4.058294773101807,1.2072830200195312,-1.6388401985168457
1757090193180058000,6.42305810546875,-3.75504994392395,0.3555107116699219,-2.1557705402374268
1757090193189677000,6.432677001953125,-3.02215576171875,0.4007291793823242,-2.119410514831543
1757090193199296000,6.4422958984375,-2.1373376846313477,1.2547550201416016,-1.4313156604766846
1757090193208915000,6.4519150390625,-0.6254317760467529,2.3281803131103516,-0.15218746662139893
1757090193218534100,6.4615341796875,1.0887305736541748,4.137606620788574,0.9635000228881836
1757090193228153000,6.471153076171875,2.015291213989258,6.539224624633789,1.545640230178833
1757090193237772000,6.48077197265625,2.0682601928710938,7.5106401443481445,1.8483879566192627
1757090193247391000,6.490390869140625,1.8883252143859863,5.73716926574707,1.9477158784866333
1757090193257010000,6.500010009765625,2.1147167682647705,1.9743452072143555,2.1525349617004395
1757090193266628900,6.50962890625,2.1511266231536865,-0.7118701934814453,1.1892179250717163
1757090193276247800,6.519247802734375,2.1711621284484863,-2.2269530296325684,-0.5891501307487488
1757090193285867000,6.528866943359375,2.3862481117248535,-2.8074593544006348,-2.250558853149414
1757090193295486000,6.53848583984375,3.0279359817504883,-1.7479925155639648,-3.211372137069702
1757090193305105000,6.54810498046875,3.3446743488311768,-0.506627082824707,-4.097532272338867
1757090193314723800,6.557723876953125,3.169538974761963,0.5733356475830078,-5.099740505218506
1757090193324342800,6.5673427734375,2.1525232791900635,1.9772834777832031,-6.136956214904785
1757090193333961700,6.576961669921875,0.629899799823761,3.6016712188720703,-6.854250431060791
1757090193343580700,6.58658056640625,-0.6159417629241943,4.681275367736816,-6.836251258850098
1757090193353199900,6.596199951171875,-0.29263806343078613,4.953017234802246,-6.242728233337402
1757090193362818800,6.60581884765625,1.2720848321914673,4.234671592712402,-5.284735202789307
1757090193372437800,6.615437744140625,2.8917202949523926,3.064687728881836,-4.2620344161987305
1757090193382056700,6.625056640625,4.152885437011719,2.0717830657958984,-3.1690142154693604
1757090193391675600,6.634675537109375,4.096465110778809,1.4403982162475586,-2.6388802528381348
1757090193401294600,6.644294677734375,3.988347291946411,1.0299386978149414,-2.1825075149536133
1757090193410913500,6.65391357421875,3.9554357528686523,0.7894744873046875,-1.5392498970031738
1757090193420532700,6.66353271484375,4.328396797180176,0.767857551574707,-0.3916766941547394
1757090193430151700,6.673151611328125,4.5029754638671875,0.6844987869262695,0.7327472567558289
1757090193439770600,6.6827705078125,4.407582759857178,0.3759775161743164,1.7868953943252563
1757090193449389600,6.6923896484375,4.203216552734375,0.0963754653930664,2.5192692279815674
1757090193459008500,6.702008544921875,3.2861127853393555,-0.506617546081543,2.8993539810180664
1757090193468627500,6.71162744140625,3.532585859298706,-1.6093263626098633,2.594792604446411
1757090193478246700,6.72124658203125,4.046473026275635,-2.79750394821167,2.0998239517211914
1757090193487865600,6.730865478515625,3.6948916912078857,-3.558396339416504,1.6304229497909546
1757090193497484500,6.740484619140625,3.154061794281006,-3.8105788230895996,1.4340894222259521
1757090193507103500,6.750103515625,2.3504550457000732,-3.8592734336853027,1.3250426054000854
1757090193516722400,6.759722412109375,1.6698544025421143,-3.78139066696167,0.9401253461837769
1757090193526341400,6.76934130859375,1.2501091957092285,-3.7770843505859375,0.41955506801605225
1757090193535960600,6.778960693359375,1.008542776107788,-3.8950395584106445,-0.018526792526245117
1757090193555198500,6.798198486328125,1.1166465282440186,-3.955648422241211,-1.0153841972351074
1757090193564817400,6.8078173828125,1.1715309619903564,-4.029261112213135,-1.467031717300415
1757090193574436400,6.817436279296875,1.2090675830841064,-4.038149833679199,-1.7224757671356201
1757090193584055300,6.82705517578125,1.3111014366149902,-3.940563201904297,-1.5790972709655762
1757090193593674500,6.836674560546875,1.3542602062225342,-3.7847952842712402,-1.1856513023376465
1757090193603293400,6.84629345703125,1.2908439636230469,-3.746187686920166,-0.8045293092727661
1757090193612912400,6.855912353515625,1.3197753429412842,-3.687164306640625,-0.609846830368042
1757090193622531300,6.86553125,1.250183343887329,-3.7021350860595703,-0.589943528175354
1757090193632150300,6.875150390625,1.1337069272994995,-3.8355565071105957,-0.728826642036438
1757090193641769200,6.884769287109375,0.9070523977279663,-3.8377418518066406,-0.8245843648910522
1757090193651388400,6.894388427734375,0.6198897361755371,-3.860227584838867,-0.9452003240585327
1757090193661007400,6.90400732421875,0.539165735244751,-3.888915538787842,-1.2158353328704834
1757090193670626300,6.913626220703125,0.6162842512130737,-3.7916555404663086,-1.4761334657669067
1757090193680245200,6.923245361328125,0.3015035390853882,-3.0373220443725586,-1.3880529403686523
1757090193699483100,6.942483154296875,-3.014698028564453,1.5521965026855469,-0.42016416788101196
1757090193709102000,6.95210205078125,-5.521272659301758,5.753844261169434,0.7267051935195923
1757090193718721300,6.96172119140625,-9.750609397888184,13.356348991394043,2.3160719871520996
1757090193728340200,6.97134033203125,-17.892093658447266,17.82526206970215,2.8965015411376953
1757090193737959200,6.980959228515625,-20.617984771728516,14.524148941040039,2.0928595066070557
1757090193747578000,6.990578125,-14.08580493927002,8.087249755859375,-0.6275994777679443
1757090193757197000,7.000197021484375,-5.6856770515441895,1.159128189086914,-3.1842732429504395
1757090193766816000,7.00981591796875,-0.6028945446014404,-4.703242301940918,-4.198319911956787
1757090193776435200,7.019435302734375,0.18518829345703125,-8.844049453735352,-4.708547592163086
1757090193786054100,7.02905419921875,0.30624938011169434,-11.022329330444336,-5.621279239654541
1757090193795673000,7.038673095703125,2.1582894325256348,-10.720820426940918,-4.943449020385742
1757090193805292000,7.0482919921875,5.4840826988220215,-7.684601306915283,-1.9140715599060059
1757090193814911000,7.057910888671875,8.642511367797852,-2.856424331665039,-0.506017804145813
1757090193824530200,7.0675302734375,11.074355125427246,3.5910472869873047,-0.37259480357170105
1757090193834149000,7.077149169921875,12.621613502502441,12.038509368896484,-0.7981595396995544
1757090193843768000,7.08676806640625,14.2728271484375,16.21084976196289,-3.6721935272216797
1757090193853387000,7.096386962890625,9.691184997558594,15.040440559387207,-9.467045783996582
1757090193863006000,7.106005859375,1.0771896839141846,12.101981163024902,-11.328248977661133
1757090193872625000,7.115625,-7.6803460121154785,6.591770172119141,-4.7521257400512695
1757090193882243800,7.125243896484375,-9.31311321258545,1.2600727081298828,-1.3127590417861938
1757090193891863000,7.134863037109375,-4.252821922302246,-2.1788058280944824,0.7106515169143677
1757090193901482000,7.14448193359375,0.5256853103637695,-5.3989386558532715,1.1629613637924194
1757090193911101000,7.154100830078125,2.8313803672790527,-8.252254486083984,1.532952904701233
1757090193920720000,7.163719970703125,5.710943222045898,-10.321033477783203,2.535936117172241
1757090193930338800,7.1733388671875,8.758658409118652,-11.279326438903809,3.0016531944274902
1757090193939958000,7.1829580078125,9.921158790588379,-9.980085372924805,4.247737884521484
1757090193949577000,7.192576904296875,10.69214916229248,-5.824624061584473,5.531711578369141
1757090193959196000,7.20219580078125,11.216702461242676,-0.6192474365234375,5.0584845542907715
1757090193968814800,7.21181494140625,9.004768371582031,3.716822624206543,2.6147546768188477
1757090193978433800,7.221433837890625,-0.5494542717933655,7.591697692871094,1.1518375873565674
1757090193988053000,7.231052978515625,-7.487904071807861,7.984766006469727,1.5053433179855347
1757090193997672000,7.240671875,-6.253045082092285,4.950549125671387,2.7496085166931152
1757090194007291000,7.250290771484375,-1.7998713254928589,2.3339033126831055,2.806682825088501
1757090194016909800,7.259909912109375,1.3700627088546753,0.41797351837158203,2.2414846420288086
1757090194026528800,7.26952880859375,1.9414701461791992,-0.8498630523681641,1.6841895580291748
1757090194036147700,7.279147705078125,1.6571919918060303,-1.2761869430541992,1.3419017791748047
1757090194045766700,7.2887666015625,0.4771106243133545,-1.1252164840698242,0.6472983360290527
1757090194055385900,7.2983857421875,-0.9542206525802612,-0.6680393218994141,-0.31935763359069824
1757090194065004800,7.3080048828125,-1.9994187355041504,-0.059383392333984375,-1.5423296689987183
1757090194074623700,7.317623779296875,-2.912417411804199,0.44952964782714844,-3.030846118927002
1757090194084242700,7.32724267578125,-3.4407718181610107,0.4887275695800781,-4.4028191566467285
1757090194093861600,7.336861572265625,-2.3514034748077393,0.0003681182861328125,-5.222152233123779
1757090194103480800,7.346480712890625,-0.3374916911125183,-0.30297183990478516,-4.4146528244018555
1757090194113099800,7.356099853515625,1.0641236305236816,-0.39676475524902344,-3.0323619842529297
1757090194122718700,7.36571875,1.5036338567733765,-0.6024894714355469,-2.1180357933044434
1757090194132337700,7.375337646484375,1.6315544843673706,-0.7200412750244141,-1.5752296447753906
1757090194141956600,7.38495654296875,1.4560595750808716,-0.6281070709228516,-1.1205099821090698
1757090194151575800,7.394575927734375,1.2706326246261597,-0.4708747863769531,-0.9449132084846497
1757090194161194800,7.40419482421875,1.1551964282989502,-0.41137027740478516,-0.7645686864852905
1757090194170813700,7.413813720703125,0.9057282209396362,-0.3908224105834961,-0.4277523159980774
1757090194180432600,7.4234326171875,0.9831992387771606,-0.37771034240722656,-0.10678684711456299
1757090194190051600,7.433051513671875,0.9665701389312744,-0.5230073928833008,0.20997369289398193
1757090194199670500,7.44267041015625,0.41467106342315674,-0.7538127899169922,0.5189669132232666
1757090194209289700,7.452289794921875,-0.11720526218414307,-1.0793991088867188,0.7164920568466187
1757090194218908700,7.46190869140625,-0.6424500942230225,-1.1981258392333984,0.6571520566940308
1757090194228527600,7.471527587890625,-1.1010167598724365,-1.00762939453125,0.10687863826751709
1757090194238146600,7.481146484375,-1.0674843788146973,-0.664820671081543,-0.38753557205200195
1757090194247765500,7.490765625,-0.7780114412307739,-0.36486148834228516,-0.4251070022583008
1757090194257384700,7.500384765625,-0.5302691459655762,-0.2628326416015625,-0.21901023387908936
1757090194267003600,7.510003662109375,-0.5061389207839966,-0.34014415740966797,0.1902710199356079
1757090194276622600,7.51962255859375,-0.287550687789917,0.041625022888183594,0.6751097440719604
1757090194286241500,7.529241455078125,-0.041727304458618164,0.4341907501220703,0.7888312339782715
1757090194295860500,7.538860595703125,0.0653679370880127,0.6284780502319336,0.6574057340621948
1757090194305479400,7.5484794921875,-0.01549839973449707,0.6915521621704102,0.6864670515060425
1757090194315098600,7.5580986328125,-0.32898545265197754,0.76171875,0.825661301612854
1757090194324717600,7.567717529296875,-0.2569456100463867,0.8889455795288086,1.1013299226760864
1757090194334336500,7.57733642578125,0.045790672302246094,0.9395027160644531,1.3473583459854126
1757090194343955500,7.58695556640625,0.37444639205932617,0.9661808013916016,1.3613755702972412
1757090194353574700,7.59657470703125,0.3566713333129883,0.9496870040893555,1.0061817169189453
1757090194363193600,7.606193603515625,0.031167030334472656,0.7535524368286133,0.3665199279785156
1757090194372812500,7.6158125,-0.4064493179321289,0.5044212341308594,-0.21959519386291504
1757090194382431500,7.625431396484375,-0.671292781829834,0.4154186248779297,-0.5223482251167297
1757090194392050400,7.635050537109375,-1.1485776901245117,0.5306119918823242,-0.6188824772834778
1757090194401669400,7.64466943359375,-1.8393359184265137,0.77423095703125,-0.8138164281845093
1757090194411288600,7.65428857421875,-2.7508840560913086,1.133500099182129,-1.069337010383606
1757090194420907500,7.663907470703125,-3.4239501953125,1.3504056930541992,-1.5351331233978271
1757090194430526500,7.6735263671875,-3.459947109222412,1.6111488342285156,-1.6109917163848877
1757090194440145400,7.6831455078125,-3.2175402641296387,1.501755714416504,-1.1192295551300049
1757090194449764400,7.692764404296875,-3.0789401531219482,1.1538410186767578,-0.33910471200942993
1757090194459383600,7.702383544921875,-2.934473752975464,0.6162281036376953,0.24660789966583252
1757090194469002500,7.71200244140625,-3.0550241470336914,0.575098991394043,1.2575180530548096
1757090194478621400,7.721621337890625,-3.3163230419158936,0.4758472442626953,1.9109848737716675
1757090194488240400,7.731240478515625,-3.7468883991241455,0.2368011474609375,1.8958873748779297
1757090194497859300,7.740859375,-4.165961742401123,0.06576061248779297,1.6558105945587158
1757090194507478500,7.750478515625,-4.339408874511719,0.1608428955078125,1.8264415264129639
1757090194517097500,7.760097412109375,-4.327688217163086,0.4308786392211914,2.1704254150390625
1757090194526716400,7.76971630859375,-4.171037197113037,0.798375129699707,2.4781556129455566
1757090194536335400,7.77933544921875,-4.180941104888916,1.155531883239746,2.6236371994018555
1757090194545954300,7.788954345703125,-4.309899806976318,1.2887020111083984,2.348644256591797
1757090194555573500,7.798573486328125,-4.496116638183594,1.2265377044677734,1.7173831462860107
1757090194565192400,7.8081923828125,-4.541910648345947,1.0933265686035156,1.0975470542907715
1757090194574811400,7.817811279296875,-4.103137016296387,1.0138988494873047,0.8551684021949768
1757090194584430300,7.827430419921875,-2.9210519790649414,1.2632732391357422,1.0633928775787354
1757090194594049300,7.83704931640625,-1.323537826538086,1.956258773803711,1.5099142789840698
1757090194603668200,7.846668212890625,-0.1080927848815918,2.9705934524536133,1.3438689708709717
1757090194613287400,7.856287353515625,0.27100181579589844,3.7024707794189453,1.2112667560577393
1757090194622906400,7.86590625,1.419020652770996,3.9155969619750977,2.463212728500366
1757090194632525300,7.875525390625,4.256097793579102,4.089652061462402,4.0875773429870605
1757090194642144300,7.885144287109375,7.519037246704102,3.9424562454223633,4.757725238800049
1757090194651763500,7.894763427734375,7.656242370605469,2.0031661987304688,2.9788544178009033
1757090194661382400,7.90438232421875,5.543755054473877,-0.464996337890625,-1.380574345588684
1757090194671001300,7.91400146484375,2.719768762588501,0.4295177459716797,-2.7587802410125732
1757090194680620300,7.923620361328125,1.7986705303192139,2.430511474609375,-3.740192174911499
1757090194690239200,7.9332392578125,1.44129478931427,3.7667646408081055,-5.071101665496826
1757090194699858400,7.9428583984375,0.4264475405216217,5.050846099853516,-5.889763355255127
1757090194709477400,7.952477294921875,0.15505971014499664,6.313843727111816,-6.259082794189453
1757090194719096300,7.962096435546875,-0.03829866647720337,6.79312801361084,-6.192939758300781
1757090194728715300,7.97171533203125,0.8123013973236084,6.092555046081543,-5.962742805480957
1757090194738334200,7.981334228515625,1.7159457206726074,4.219260215759277,-5.9392194747924805
1757090194747953400,7.990953369140625,2.288750648498535,2.1193227767944336,-5.653199672698975
1757090194757572400,8.000572265625,2.188559055328369,0.7782211303710938,-5.477705001831055
1757090194767191300,8.01019140625,1.5165284872055054,0.6657047271728516,-5.040323257446289
1757090194776810200,8.019810302734374,0.77036452293396,1.2301464080810547,-4.591030120849609
1757090194786429200,8.02942919921875,1.3726518154144287,1.7940168380737305,-3.3601908683776855
1757090194796048400,8.03904833984375,2.15775203704834,2.2072019577026367,-1.5860075950622559
1757090194805667300,8.048667236328125,4.840210914611816,2.451944351196289,0.2944416403770447
1757090194815286300,8.058286376953125,6.625652313232422,2.208653450012207,2.0400078296661377
1757090194824905200,8.0679052734375,5.371048927307129,1.6958961486816406,3.8979787826538086
1757090194834524200,8.077524169921874,4.140454292297363,0.7759790420532227,4.602102279663086
1757090194844143400,8.087143310546875,2.331141948699951,-0.5224103927612305,3.540696620941162
1757090194853762300,8.09676220703125,1.809821605682373,-1.7829437255859375,1.5666629076004028
1757090194863381200,8.10638134765625,1.968374252319336,-2.7120537757873535,-0.19766344130039215
1757090194873000200,8.116000244140626,1.5408899784088135,-3.0105152130126953,-1.7380272150039673
1757090194882619100,8.125619140625,1.54160737991333,-3.141368865966797,-2.7983992099761963
1757090194892238300,8.13523828125,1.456773042678833,-3.2049012184143066,-3.2521376609802246
1757090194901857300,8.144857177734375,2.0319983959198,-3.182229518890381,-3.2767906188964844
1757090194911476200,8.154476318359375,2.8605334758758545,-3.004714012145996,-2.924809694290161
1757090194921095200,8.16409521484375,4.144065856933594,-2.5595622062683105,-2.5472731590270996
1757090194930714000,8.173714111328126,5.357418537139893,-2.059959888458252,-2.2147836685180664
1757090194940333000,8.1833330078125,6.072812080383301,-1.459505558013916,-1.9194934368133545
1757090194949952300,8.1929521484375,5.685794353485107,-0.8875298500061035,-1.3834002017974854
1757090194959571200,8.2025712890625,4.355867385864258,-0.5995874404907227,-0.84849613904953
1757090194969190100,8.212190185546875,2.900588274002075,-0.603980541229248,-0.5106444954872131
1757090194978809000,8.22180908203125,1.2121570110321045,-0.41446542739868164,-0.20286905765533447
1757090194988428300,8.23142822265625,-0.8000683784484863,-0.3055596351623535,-0.03709179162979126
1757090194998047200,8.241047119140624,-2.1597185134887695,-0.33184099197387695,0.19656521081924438
1757090195007666200,8.250666259765625,-2.8154959678649902,-0.4871821403503418,0.23485350608825684
1757090195026904000,8.269904052734375,-1.680614948272705,-0.731778621673584,0.5001688003540039
1757090195046142200,8.28914208984375,-0.1361527442932129,-1.1573982238769531,0.6668916940689087
1757090195055761200,8.29876123046875,0.3614640235900879,-1.2536625862121582,0.5072267651557922
1757090195065380000,8.308380126953125,0.6665453910827637,-1.2963171005249023,0.202173113822937
1757090195074999000,8.3179990234375,0.6639962196350098,-1.3296895027160645,-0.1444535255432129
1757090195084618200,8.3276181640625,0.5071024894714355,-1.323167324066162,-0.4480704069137573
1757090195094237200,8.3372373046875,0.289980411529541,-1.195383071899414,-0.8335939645767212
1757090195103856000,8.346856201171875,0.05240201950073242,-1.0984549522399902,-1.1767916679382324
1757090195113475000,8.35647509765625,-0.3653526306152344,-0.993649959564209,-1.5381361246109009
1757090195123094000,8.366093994140625,-0.559725284576416,-0.7732505798339844,-1.684104084968567
1757090195132713200,8.375713134765626,-0.6408047676086426,-0.5753216743469238,-1.6590313911437988
1757090195142332200,8.385332275390626,-0.49560117721557617,-0.4920783042907715,-1.487440586090088
1757090195151951000,8.394951171875,-0.12451982498168945,-0.5457859039306641,-1.2477519512176514
1757090195161570000,8.404570068359375,0.3178081512451172,-0.7725300788879395,-0.860410213470459
1757090195171189000,8.41418896484375,0.6255617141723633,-1.0971598625183105,-0.5683298110961914
1757090195180808200,8.42380810546875,0.9271719455718994,-1.4891905784606934,-0.2884488105773926
1757090195190427100,8.43342724609375,1.158348560333252,-1.9330930709838867,-0.07306861877441406
1757090195200046000,8.443046142578124,1.2362475395202637,-2.3534092903137207,-0.08658814430236816
1757090195209665000,8.4526650390625,1.3106560707092285,-2.6838436126708984,-0.20655608177185059
1757090195219284000,8.462283935546875,1.3961296081542969,-2.9099860191345215,-0.40828990936279297
1757090195228903200,8.471903076171875,1.430558443069458,-2.955254077911377,-0.6470718383789062
1757090195238522000,8.481522216796876,1.3029472827911377,-2.8561606407165527,-0.897763729095459
1757090195248141000,8.49114111328125,1.2562572956085205,-2.7782669067382812,-1.2064135074615479
1757090195257760000,8.500760009765624,1.1781370639801025,-2.7386655807495117,-1.6037395000457764
1757090195267379000,8.51037890625,1.0528125762939453,-2.6965842247009277,-1.8667597770690918
1757090195276998100,8.519998046875,0.9440045356750488,-2.6876683235168457,-2.0172016620635986
1757090195286617000,8.5296171875,0.8894398212432861,-2.6353096961975098,-2.0365655422210693
1757090195296236000,8.539236083984376,0.5606906414031982,-2.537273406982422,-1.998582363128662
1757090195305855000,8.54885498046875,0.04550766944885254,-2.3250012397766113,-1.939359188079834
1757090195315474000,8.558473876953125,-0.4670569896697998,-1.91074800491333,-1.8594446182250977
1757090195325092900,8.5680927734375,-1.2171831130981445,-1.484206199645996,-1.9214069843292236
1757090195334712000,8.577712158203125,-1.9907927513122559,-0.8909158706665039,-1.949568748474121
1757090195344331000,8.5873310546875,-2.8509693145751953,-0.3130197525024414,-2.026545763015747
1757090195353950000,8.596949951171876,-3.3894689083099365,0.1784811019897461,-2.219210147857666
1757090195363569000,8.60656884765625,-3.273711919784546,0.4421062469482422,-2.6559932231903076
1757090195373188000,8.61618798828125,-2.2482285499572754,0.5077753067016602,-3.0967559814453125
1757090195382807000,8.62580712890625,-0.50437331199646,0.5118780136108398,-2.8710036277770996
1757090195392426000,8.635426025390625,1.3819334506988525,0.39835643768310547,-2.471651554107666
1757090195402045000,8.645044921875,2.174717903137207,0.06406497955322266,-2.4382407665252686
1757090195411664000,8.654663818359374,2.989596366882324,-0.8026943206787109,-3.473367691040039
1757090195421282800,8.66428271484375,3.730968475341797,-1.4072599411010742,-4.5218963623046875
1757090195430901800,8.67390185546875,1.91314697265625,0.5746603012084961,-4.0290985107421875
1757090195440521000,8.68352099609375,0.5021317005157471,4.301365852355957,-3.431922435760498
1757090195450140000,8.693139892578126,2.114187479019165,8.292547225952148,-4.048876762390137
1757090195459758800,8.7027587890625,3.6683731079101562,9.577946662902832,-5.670729637145996
1757090195469377800,8.712377685546874,3.1625142097473145,5.143446922302246,-6.814960479736328
1757090195478996700,8.721996826171875,2.3156981468200684,1.3099727630615234,-6.2275004386901855
1757090195488616000,8.731615966796875,-0.01459503173828125,3.738077163696289,-5.376791477203369
1757090195498235000,8.74123486328125,-2.0502729415893555,7.552629470825195,-5.077817440032959
1757090195507853800,8.750853759765626,-3.280703067779541,10.2018404006958,-3.5363094806671143
1757090195517472800,8.76047265625,-3.2437820434570312,10.399873733520508,0.4122633934020996
1757090195527091700,8.770091796875,-1.6616460084915161,6.160495758056641,2.923553466796875
1757090195536711000,8.7797109375,-0.7735869884490967,1.392228126525879,4.290245056152344
1757090195546329900,8.789329833984375,0.9175770878791809,-2.1252665519714355,5.334983825683594
1757090195555948800,8.79894873046875,3.76047945022583,-3.9416232109069824,5.677337169647217
1757090195565567700,8.808567626953124,5.399048805236816,-5.000358581542969,5.935701370239258
1757090195575186700,8.818186767578124,6.190426349639893,-5.974300384521484,5.6818461418151855
1757090195584805600,8.8278056640625,6.647573471069336,-5.874742031097412,5.50885009765625
1757090195594424800,8.8374248046875,5.959210395812988,-4.779107093811035,5.197207927703857
1757090195604043800,8.847043701171875,4.747589588165283,-3.3657474517822266,4.475096702575684
1757090195613662700,8.856662841796876,3.632284641265869,-1.5447216033935547,3.524982213973999
1757090195623281700,8.86628173828125,1.8707284927368164,0.7260637283325195,2.246652841567993
1757090195632900600,8.875900634765625,-0.38313886523246765,2.728304862976074,1.2019120454788208
1757090195642519600,8.88551953125,0.30574437975883484,2.7659921646118164,0.5034208297729492
1757090195652138800,8.895138671875,1.551842451095581,1.9547643661499023,0.3846476078033447
1757090195661757700,8.9047578125,2.10020112991333,1.2318334579467773,0.7228020429611206
1757090195671376600,8.914376708984374,1.21938157081604,0.7363739013671875,1.2821804285049438
1757090195680995600,8.92399560546875,0.26005083322525024,0.27649974822998047,1.345922589302063
1757090195690614500,8.933614501953125,-0.38810843229293823,-0.37270164489746094,0.6473034024238586
1757090195700233700,8.943233642578125,-0.28737151622772217,-0.9657936096191406,-0.46685630083084106
1757090195709852700,8.952852783203125,-0.15434205532073975,-1.2082042694091797,-1.080946445465088
1757090195719471600,8.9624716796875,-0.08728593587875366,-1.2261772155761719,-1.0806465148925781
1757090195738709500,8.98170947265625,0.6110911965370178,-0.5845136642456055,-0.22325140237808228
1757090195757947400,9.000947509765625,1.1368180513381958,0.0836172103881836,0.31106120347976685
1757090195767566600,9.010566650390626,1.5427204370498657,0.29323673248291016,0.6558709144592285
1757090195777185500,9.020185546875,2.0777060985565186,0.2984151840209961,0.9353490471839905
1757090195786804500,9.029804443359374,2.6477794647216797,0.13552284240722656,1.3414781093597412
1757090195796423400,9.03942333984375,3.07222318649292,-0.1523590087890625,1.837559700012207
1757090195806042400,9.04904248046875,3.186375141143799,-0.3267402648925781,2.111799955368042
1757090195815661300,9.058661376953125,2.8680291175842285,-0.4934873580932617,2.4862427711486816
1757090195825280300,9.0682802734375,2.2664361000061035,-0.593170166015625,2.742861747741699
1757090195834899500,9.0778994140625,1.5833046436309814,-0.5111923217773438,2.4544289112091064
1757090195844518400,9.087518310546875,1.0573656558990479,-0.24306011199951172,1.4978916645050049
1757090195854137300,9.097137451171875,0.29562079906463623,0.17043685913085938,0.7448343634605408
1757090195863756300,9.10675634765625,-0.2237175703048706,0.6738147735595703,0.3808285593986511
1757090195873375200,9.116375244140626,-0.24660217761993408,0.8438491821289062,0.10697424411773682
1757090195882994200,9.125994140625,-0.0017555952072143555,0.8244991302490234,0.08940798044204712
1757090195892613400,9.13561328125,0.23276185989379883,0.6928253173828125,0.22974979877471924
1757090195902232300,9.145232421875,0.7251639366149902,0.26285457611083984,0.6454209089279175
1757090195911851300,9.154851318359375,1.146804928779602,-0.3217945098876953,0.9426144361495972
1757090195921470200,9.16447021484375,1.527510404586792,-0.884669303894043,1.1326220035552979
1757090195931089200,9.174089111328126,1.3426061868667603,-1.366459846496582,1.1582658290863037
1757090195940708000,9.1837080078125,0.6650582551956177,-1.6164050102233887,1.3283112049102783
1757090195950327000,9.1933271484375,-0.40966153144836426,-1.5556201934814453,1.639789342880249
1757090195959946200,9.2029462890625,-1.3972426652908325,-1.311166763305664,1.9899728298187256
1757090195969565200,9.212565185546875,-1.9100831747055054,-1.033614158630371,2.1640257835388184
1757090195979184000,9.22218408203125,-1.9985733032226562,-0.7060031890869141,2.2961201667785645
1757090195988803000,9.231802978515624,-1.8254042863845825,-0.4687480926513672,2.160722255706787
1757090195998422000,9.241422119140625,-1.717756748199463,-0.3829479217529297,1.889538288116455
1757090196017660000,9.260659912109375,-1.557107925415039,-0.4172830581665039,1.4979655742645264
1757090196036898000,9.27989794921875,-1.339862585067749,0.0047893524169921875,1.173830509185791
1757090196046517000,9.28951708984375,-0.9995994567871094,0.19693851470947266,0.7095593214035034
1757090196056136000,9.299135986328125,-0.8470141887664795,0.2986907958984375,0.33611536026000977
1757090196065755000,9.3087548828125,-0.7670011520385742,0.22442054748535156,-0.026465237140655518
1757090196075373800,9.318373779296875,-0.7485270500183105,0.16285228729248047,-0.4077306091785431
1757090196084992800,9.32799267578125,-0.9481523036956787,0.14945220947265625,-0.6636420488357544
1757090196094611700,9.33761181640625,-1.4489223957061768,0.22934627532958984,-0.9677711129188538
1757090196104231000,9.34723095703125,-1.801503300666809,0.359222412109375,-1.239600419998169
1757090196113849900,9.356849853515625,-2.049579620361328,0.4808645248413086,-1.4149361848831177
1757090196123468800,9.36646875,-1.9736363887786865,0.5669660568237305,-1.4001555442810059
1757090196133087700,9.376087646484375,-1.840507984161377,0.5716085433959961,-1.250423789024353
1757090196142706700,9.385706787109376,-1.552533745765686,0.5259189605712891,-0.9242120981216431
1757090196152325600,9.39532568359375,-1.431063175201416,0.49010467529296875,-0.6636217832565308
1757090196161944600,9.404944580078125,-1.387415885925293,0.5319986343383789,-0.2760884165763855
1757090196171563800,9.414563720703125,-1.484538197517395,0.6885919570922852,0.15262800455093384
1757090196181182700,9.4241826171875,-1.6412357091903687,0.8389348983764648,0.7141579389572144
1757090196190801700,9.4338017578125,-1.7225261926651,0.9190797805786133,1.2984209060668945
1757090196200420600,9.443420654296874,-1.8701485395431519,0.8793478012084961,1.8084677457809448
1757090196210039600,9.45303955078125,-1.9907604455947876,0.7534170150756836,2.2730636596679688
1757090196219658500,9.462658447265625,-2.1692185401916504,0.5816307067871094,2.6322989463806152
1757090196229277400,9.47227734375,-2.408379316329956,0.33002376556396484,2.8004186153411865
1757090196238896400,9.481896484375,-2.6097912788391113,0.23488140106201172,2.665870189666748
1757090196248515300,9.491515380859376,-2.926037311553955,0.233642578125,2.250192880630493
1757090196258134300,9.50113427734375,-3.114466667175293,0.44017505645751953,1.7868810892105103
1757090196267753200,9.510753173828125,-3.1975581645965576,0.6790857315063477,1.447150707244873
1757090196277372400,9.520372314453125,-3.3417086601257324,0.804356575012207,1.210038661956787
1757090196286991400,9.529991455078125,-3.5796499252319336,0.7182559967041016,1.1506484746932983
1757090196296610300,9.5396103515625,-3.757082939147949,0.6642951965332031,1.3475037813186646
1757090196306229200,9.549229248046874,-3.7469568252563477,0.7280263900756836,1.712369680404663
1757090196315848200,9.55884814453125,-3.502908706665039,0.8321523666381836,2.1589436531066895
1757090196325467100,9.568467041015625,-2.627819299697876,1.0661916732788086,2.661860942840576
1757090196335086000,9.578086181640625,-1.2428479194641113,1.7927274703979492,3.307122230529785
1757090196344705000,9.587705078125,-0.20753145217895508,2.870760917663574,3.542746067047119
1757090196354324000,9.597323974609376,-0.6097748279571533,3.666834831237793,3.5192947387695312
1757090196363943200,9.606943115234374,-1.3828781843185425,3.2281503677368164,4.206959247589111
1757090196373562000,9.61656201171875,-0.4757876396179199,2.5796213150024414,5.672018527984619
1757090196383181000,9.62618115234375,1.8583581447601318,2.905461311340332,6.997589588165283
1757090196392800000,9.635800048828125,4.218912124633789,3.7609453201293945,7.547209739685059
1757090196402419000,9.6454189453125,4.734544277191162,3.071688652038574,5.5610761642456055
1757090196412038000,9.655037841796876,4.926593780517578,1.1306133270263672,-0.1477261781692505
1757090196421656800,9.66465673828125,3.877937078475952,1.1488065719604492,-3.1588261127471924
1757090196431275800,9.67427587890625,2.519782304763794,2.0289716720581055,-3.1465702056884766
1757090196440894700,9.683894775390625,1.7140690088272095,2.2756099700927734,-3.864330530166626
1757090196450513700,9.693513671875,1.757130742073059,1.8852882385253906,-5.343677520751953
1757090196460132600,9.703132568359376,1.721840739250183,1.185098648071289,-6.836975574493408
1757090196469751800,9.712751708984374,0.9448365569114685,0.7544498443603516,-7.527016639709473
1757090196479370800,9.722370849609375,0.2577991783618927,0.8442258834838867,-7.551054954528809
1757090196488989700,9.73198974609375,0.16164976358413696,1.2943716049194336,-7.15858268737793
1757090196498608600,9.741608642578125,0.1090608537197113,1.9336700439453125,-6.388400554656982
1757090196508227600,9.7512275390625,0.2031375765800476,2.489870071411133,-5.148438930511475
1757090196517846500,9.760846435546876,0.9351993799209595,2.9301223754882812,-3.696904182434082
1757090196527465500,9.770465576171874,1.8554786443710327,3.3130979537963867,-2.1594748497009277
1757090196537084400,9.78008447265625,2.0716333389282227,3.1485071182250977,-0.852885901927948
1757090196546703400,9.789703369140625,1.6841200590133667,2.5528745651245117,-0.4164871573448181
1757090196556322300,9.799322265625,1.133981704711914,1.7465791702270508,-0.3651781380176544
1757090196575560200,9.818560302734374,1.9137011766433716,0.5335779190063477,0.65528404712677
1757090196585179400,9.828179443359375,2.9638538360595703,0.41056251525878906,1.3290737867355347
1757090196594798300,9.83779833984375,3.94760799407959,0.7564706802368164,2.269660711288452
1757090196604417300,9.847417236328125,4.674978256225586,1.3572120666503906,3.165041923522949
1757090196614036200,9.8570361328125,4.470573902130127,1.745279312133789,3.1229541301727295
1757090196623655200,9.8666552734375,3.166900396347046,1.6351137161254883,2.0564427375793457
1757090196633274000,9.876274169921874,1.8029617071151733,1.40985107421875,0.917243480682373
1757090196642893000,9.88589306640625,0.8902649879455566,0.9805793762207031,-0.4153352379798889
1757090196652512000,9.895511962890625,0.6477537155151367,0.6466941833496094,-1.5612105131149292
1757090196662131000,9.905130859375,1.4159188270568848,0.44559574127197266,-2.34002423286438
1757090196671750000,9.91475,2.2252044677734375,-0.024977684020996094,-2.9367733001708984
1757090196681368800,9.924368896484374,2.877194404602051,-0.6428318023681641,-3.254481077194214
1757090196690987800,9.93398779296875,3.4110677242279053,-0.9664173126220703,-2.994807243347168
1757090196700606700,9.943606689453125,3.755572557449341,-1.2866768836975098,-2.3311893939971924
1757090196710225700,9.9532255859375,3.986090898513794,-1.6688361167907715,-1.6930830478668213
1757090196719844600,9.9628447265625,3.8243486881256104,-2.1077094078063965,-1.2495685815811157
1757090196729463600,9.972463623046876,3.727743625640869,-2.4671568870544434,-1.0195239782333374
1757090196739082500,9.98208251953125,3.913914680480957,-2.815706729888916,-0.8878735303878784
1757090196748701700,9.99170166015625,3.610562324523926,-3.015901565551758,-0.8017089366912842
1757090196758320600,10.001320556640625,3.213214874267578,-3.054072380065918,-0.7946250438690186
1757090196767939600,10.010939697265625,2.6830549240112305,-2.8155441284179688,-0.8854289650917053
1757090196777558500,10.02055859375,2.0696845054626465,-2.5102381706237793,-1.0093086957931519
1757090196787177500,10.030177490234376,1.4598875045776367,-2.12800931930542,-0.9692474007606506
1757090196796796400,10.03979638671875,1.1129584312438965,-1.7033934593200684,-0.7316062450408936
1757090196806415400,10.049415283203125,0.9302520751953125,-1.3970446586608887,-0.41222864389419556
1757090196816034300,10.059034423828125,0.9274544715881348,-1.1549701690673828,-0.030294060707092285
1757090196825653200,10.0686533203125,0.7268795967102051,-0.9748291969299316,0.19697487354278564
1757090196835272200,10.078272216796876,0.6501858234405518,-0.8719062805175781,0.37840425968170166
1757090196844891100,10.08789111328125,0.533571720123291,-0.9310846328735352,0.44526493549346924
1757090196854510000,10.097510009765625,0.3807215690612793,-1.0913848876953125,0.3642815351486206
1757090196864129000,10.10712890625,0.31817054748535156,-1.274343490600586,0.2909364700317383
1757090196873748000,10.116748046875,0.35646796226501465,-1.4389238357543945,0.20290446281433105
1757090196883367000,10.126366943359375,0.32572412490844727,-1.5841717720031738,0.006649971008300781
1757090196892985900,10.13598583984375,0.3140130043029785,-1.6613140106201172,-0.14652907848358154
1757090196902604800,10.145604736328124,0.27370524406433105,-1.5733895301818848,-0.2138533592224121
1757090196912223700,10.1552236328125,0.24698567390441895,-1.4352030754089355,-0.22010886669158936
1757090196921842700,10.1648427734375,0.047926902770996094,-1.1483149528503418,-0.22484159469604492
1757090196931461600,10.174461669921875,-0.2653975486755371,-0.6256704330444336,-0.36659443378448486
1757090196941080600,10.18408056640625,-0.6940367221832275,0.2222461700439453,-0.5987509489059448
1757090196950699500,10.193699462890624,-1.465013027191162,1.3164043426513672,-0.7793676853179932
1757090196960318500,10.203318359375,-1.9739744663238525,2.2766685485839844,-0.995499849319458
1757090196969937400,10.2129375,-2.3725693225860596,2.793972969055176,-1.261218786239624
1757090196979556400,10.222556396484375,-2.479381561279297,2.7521629333496094,-1.4890308380126953
1757090196989175300,10.23217529296875,-2.168513536453247,2.0365419387817383,-1.5255486965179443
1757090196998794500,10.24179443359375,-1.8954949378967285,1.0126008987426758,-1.514061450958252
1757090197008413200,10.2514130859375,-1.2674283981323242,-0.05773353576660156,-0.8837616443634033
1757090197018032000,10.2610322265625,-0.742058515548706,-1.1251511573791504,-0.577660322189331
1757090197027651300,10.2706513671875,-0.4493989944458008,-2.0667734146118164,-0.3592996597290039
1757090197037270300,10.280270263671875,-0.06403350830078125,-2.8548765182495117,-0.2167820930480957
1757090197046889200,10.28988916015625,0.15048575401306152,-3.3467116355895996,-0.20621275901794434
1757090197056508000,10.2995078125,0.4598991870880127,-3.6191320419311523,-0.10873746871948242
1757090197075746000,10.31874609375,1.1129491329193115,-3.593693733215332,-0.5568029880523682
1757090197085365000,10.328364990234375,1.1867914199829102,-3.4223179817199707,-0.7729055881500244
1757090197094984000,10.33798388671875,1.3008809089660645,-3.2323222160339355,-1.0146775245666504
1757090197104603000,10.347602783203126,1.20371413230896,-3.117400646209717,-1.4263768196105957
1757090197114221800,10.357221923828124,0.9138426780700684,-3.103602886199951,-1.9002947807312012
1757090197123840800,10.3668408203125,0.7562687397003174,-3.0687832832336426,-2.3235280513763428
1757090197133459700,10.376459716796875,1.0756568908691406,-2.863795757293701,-2.348769187927246
1757090197143078700,10.38607861328125,1.0082368850708008,-2.506222724914551,-2.214603900909424
1757090197152697600,10.395697509765625,0.5469152927398682,-2.1477646827697754,-2.0935423374176025
1757090197162316500,10.405316650390626,0.3468806743621826,-1.8614134788513184,-2.255915403366089
1757090197171935500,10.414935546875,0.22325468063354492,-1.8151936531066895,-2.3545072078704834
1757090197181554400,10.424554443359375,0.9257782697677612,-1.7818841934204102,-2.297999620437622
1757090197191173400,10.43417333984375,1.7314338684082031,-1.3807239532470703,-2.021368980407715
1757090197210411300,10.453411376953126,-0.7123855352401733,5.6164140701293945,-2.487238883972168
1757090197229649200,10.472649169921874,1.662827730178833,10.019575119018555,-2.44467830657959
1757090197239268000,10.48226806640625,2.044171094894409,5.806767463684082,-4.7861833572387695
1757090197248887000,10.491886962890625,2.326836585998535,9.166470527648926,-3.676455020904541
1757090197258506000,10.501506103515625,1.5666215419769287,12.868871688842773,-2.303912401199341
1757090197268124700,10.511124755859376,-0.2992234230041504,13.336087226867676,-2.9099464416503906
1757090197277743900,10.520743896484374,-1.5085235834121704,9.204724311828613,-4.8267059326171875
1757090197287362600,10.530362548828125,-2.8711037635803223,3.0608301162719727,-4.339337348937988
1757090197296981500,10.5399814453125,-4.303948879241943,-0.8801612854003906,-1.1839596033096313
1757090197306600700,10.5496005859375,-3.953500270843506,-3.465409278869629,1.8163515329360962
1757090197316219400,10.559219482421875,-1.8652958869934082,-5.287881851196289,4.035778999328613
1757090197325838300,10.56883837890625,1.225144386291504,-5.870540618896484,5.698886871337891
1757090197335457300,10.578457275390624,3.9631686210632324,-6.248791694641113,6.161477088928223
1757090197345076200,10.588076171875,6.975926399230957,-6.279066562652588,6.182398796081543
1757090197354695200,10.597695068359375,8.51297378540039,-5.316866874694824,6.42689323425293
1757090197364314000,10.607314208984375,7.542901992797852,-3.4521870613098145,6.624671936035156
1757090197373933000,10.61693310546875,5.666694164276123,-1.1379852294921875,5.844037055969238
1757090197383552000,10.626552001953126,3.39359712600708,0.8131818771362305,4.633304595947266
1757090197393171000,10.6361708984375,3.190189838409424,2.258418083190918,4.2277021408081055
1757090197402790000,10.645789794921875,0.6500014066696167,3.1671667098999023,4.575124740600586
1757090197412408800,10.655408935546875,-2.5752158164978027,2.770819664001465,5.280395984649658
1757090197422027800,10.66502783203125,-3.687095880508423,1.7828006744384766,4.82497501373291
1757090197431646700,10.674646728515626,-1.7841532230377197,0.4180126190185547,3.183469295501709
1757090197441265700,10.684265625,1.1398072242736816,-0.5104951858520508,1.1395676136016846
1757090197460503600,10.703503662109375,3.309478759765625,-1.4390029907226562,-1.2175418138504028
1757090197470122500,10.71312255859375,2.6776299476623535,-1.4622020721435547,-1.3422694206237793
1757090197479741400,10.722741455078125,1.3724792003631592,-0.9215917587280273,-1.280311942100525
1757090197489360400,10.7323603515625,-0.043881118297576904,-0.18083858489990234,-1.907238245010376
1757090197498979300,10.741979248046874,-1.55600905418396,0.19146442413330078,-2.6527581214904785
1757090197508598300,10.751598388671875,-2.8195769786834717,0.06387901306152344,-3.0140249729156494
1757090197518217200,10.76121728515625,-2.8949081897735596,-0.24630451202392578,-2.691431760787964
1757090197527836200,10.770836181640625,-1.6889166831970215,-0.25683116912841797,-1.8348057270050049
1757090197537455000,10.780455078125,-0.47212129831314087,-0.20562458038330078,-0.921747624874115
1757090197547074000,10.790073974609374,0.3123210668563843,-0.08870506286621094,0.17158503830432892
1757090197556693000,10.79969287109375,1.0288535356521606,0.0029172897338867188,1.1986560821533203
1757090197566312000,10.80931201171875,1.264371633529663,-0.056583404541015625,1.8259764909744263
1757090197575930600,10.8189306640625,1.2675081491470337,-0.2893667221069336,2.0205090045928955
1757090197585549600,10.828549560546875,1.0560601949691772,-0.6453723907470703,2.1297051906585693
1757090197595168500,10.83816845703125,1.0093531608581543,-0.9554271697998047,2.2511582374572754
1757090197604787500,10.847787353515624,1.4263768196105957,-1.0542278289794922,2.560316324234009
1757090197614406400,10.857406494140625,1.7801016569137573,-1.0551881790161133,2.929616689682007
1757090197624025300,10.867025390625,1.7380906343460083,-0.8508520126342773,3.0313076972961426
1757090197633644300,10.876644287109375,1.1546703577041626,-0.7588186264038086,2.2592742443084717
1757090197643263200,10.88626318359375,0.07747054100036621,-0.5191011428833008,0.9936734437942505
1757090197652882200,10.895882080078126,-0.7913186550140381,-0.05490398406982422,0.1911657452583313
1757090197662501000,10.905501220703124,-1.0568588972091675,0.22763729095458984,-0.0046738386154174805
1757090197672120000,10.9151201171875,-1.013917326927185,0.31882190704345703,-0.13599258661270142
1757090197681739000,10.924739013671875,-1.0524903535842896,0.1854104995727539,-0.3563951551914215
1757090197691358000,10.93435791015625,-1.2613706588745117,0.049895286560058594,-0.5008091330528259
1757090197700977000,10.943976806640626,-1.4211395978927612,0.07444095611572266,-0.5126684904098511
1757090197710595800,10.953595947265624,-1.7368788719177246,0.08887863159179688,-0.5673819184303284
1757090197720214800,10.96321484375,-2.0997886657714844,0.07631397247314453,-0.8597772121429443
1757090197729833700,10.972833740234375,-2.617673635482788,0.2017812728881836,-1.0500209331512451
1757090197739452400,10.982452392578125,-2.889343738555908,0.4697713851928711,-0.9258074760437012
1757090197749071400,10.9920712890625,-2.4382030963897705,1.1863632202148438,-0.25469231605529785
1757090197758690300,11.001690185546876,-1.9360753297805786,1.7377958297729492,0.3829635977745056
1757090197768309200,11.011309326171874,-1.7756706476211548,1.6644153594970703,0.7742401361465454
1757090197777928200,11.02092822265625,-1.713127851486206,1.3969850540161133,0.8958715200424194
1757090197787547100,11.030547119140625,-1.507163166999817,1.314864158630371,0.8399397730827332
1757090197797166000,11.040166015625,-1.1293818950653076,1.6109142303466797,0.7938368916511536
1757090197806785000,11.049784912109375,-0.9313054084777832,1.9769859313964844,0.8957698941230774
1757090197816404000,11.059404052734376,-1.027655839920044,2.110546112060547,0.7610560655593872
1757090197826023000,11.06902294921875,-1.1377172470092773,2.1645326614379883,0.5306466221809387
1757090197835641900,11.078641845703125,-1.6452637910842896,2.2121171951293945,0.394488662481308
1757090197845260800,11.0882607421875,-2.6577885150909424,2.3205013275146484,0.3730243146419525
1757090197854879500,11.09787939453125,-4.108645439147949,2.238574981689453,0.25405362248420715
1757090197864498400,11.10749853515625,-5.146300315856934,1.9392547607421875,0.254468709230423
1757090197874117400,11.117117431640626,-5.071542739868164,1.3298511505126953,-0.11747187376022339
1757090197883736300,11.126736328125,-4.414486885070801,1.0152177810668945,-0.642672061920166
1757090197893355300,11.136355224609375,-3.95039439201355,1.3191633224487305,-0.33699166774749756
1757090197902974200,11.14597412109375,-4.010714054107666,1.7783613204956055,0.5527644157409668
1757090197912593200,11.15559326171875,-3.717865467071533,2.4289913177490234,1.6256103515625
1757090197922212000,11.165212158203126,-2.7882940769195557,3.314502716064453,2.7424330711364746
1757090197931831000,11.1748310546875,-1.9920246601104736,4.234495162963867,3.585292100906372
1757090197941450000,11.184449951171874,-1.1355392932891846,4.664981842041016,4.157124042510986
1757090197960687600,11.2036875,1.3332998752593994,3.953794479370117,5.3316802978515625
1757090197979925500,11.222925537109376,4.144528388977051,0.13388824462890625,3.478672981262207
1757090197989544400,11.23254443359375,4.114880084991455,-1.2391490936279297,1.8923954963684082
1757090197999163400,11.242163330078125,3.127030372619629,-2.0257697105407715,0.46776941418647766
1757090198008782300,11.2517822265625,2.355029821395874,-1.9785642623901367,-0.6680895090103149
1757090198018401300,11.2614013671875,2.695435047149658,-1.1883258819580078,-1.939212679862976
1757090198028020200,11.271020263671875,3.435225486755371,-0.09146404266357422,-3.186399459838867
1757090198037639200,11.28063916015625,3.1605868339538574,0.8131446838378906,-4.4495625495910645
1757090198047257900,11.2902578125,2.011502742767334,1.736220359802246,-5.570711135864258
1757090198056876800,11.299876708984375,0.8801931738853455,2.7578020095825195,-5.886124134063721
1757090198066495700,11.309495849609375,0.2352297306060791,3.372248649597168,-4.791000843048096
1757090198076114700,11.31911474609375,-0.13106560707092285,3.430588722229004,-2.5623996257781982
1757090198085733600,11.328733642578126,-0.09763169288635254,2.950270652770996,-0.8789445161819458
1757090198095352600,11.3383525390625,0.2914634943008423,2.1961164474487305,0.11319601535797119
1757090198104971500,11.347971435546874,0.7876889705657959,1.5241899490356445,0.34775328636169434
1757090198114590500,11.357590576171875,1.6063909530639648,1.3669099807739258,0.6171550750732422
1757090198124209200,11.367209228515625,2.2014431953430176,1.2385854721069336,0.8920073509216309
1757090198133828000,11.376828125,3.138308525085449,1.193922996520996,1.1897940635681152
1757090198143447000,11.386447021484376,4.470015048980713,1.2947864532470703,2.0480973720550537
1757090198153066000,11.39606591796875,4.748778343200684,1.5981645584106445,3.3715033531188965
1757090198162685000,11.405684814453124,4.9562153816223145,1.9785690307617188,4.224471569061279
1757090198172304000,11.415303955078125,5.045562744140625,1.588698387145996,4.024717330932617
1757090198181922800,11.4249228515625,4.0497212409973145,0.7024383544921875,3.0847063064575195
1757090198201160700,11.44416064453125,2.1952438354492188,-2.2719039916992188,0.729758620262146
1757090198220398300,11.4633984375,1.1693274974822998,-4.786090850830078,0.07425045967102051
1757090198230017300,11.473017333984375,0.7610015869140625,-5.156792640686035,0.4841524362564087
1757090198239636200,11.48263623046875,0.6628658771514893,-5.154641151428223,0.8549244403839111
1757090198249255200,11.492255126953125,0.8226807117462158,-4.97920560836792,0.8682972192764282
1757090198258874000,11.5018740234375,1.1181385517120361,-4.643333435058594,0.7763280868530273
1757090198268493000,11.5114931640625,1.6821343898773193,-4.241858005523682,0.7362202405929565
1757090198278112000,11.521112060546875,2.5080456733703613,-3.882930278778076,0.6431723833084106
1757090198287730700,11.530730712890625,3.3069005012512207,-3.6004252433776855,0.5795284509658813
1757090198297349600,11.540349609375,3.897965908050537,-3.3140978813171387,0.500818133354187
1757090198306968600,11.549968505859376,4.052350044250488,-3.0716371536254883,0.37338292598724365
1757090198316587500,11.55958740234375,3.846409559249878,-2.9501090049743652,0.21131956577301025
1757090198326206500,11.56920654296875,3.422700881958008,-2.9335570335388184,0.06339359283447266
1757090198335825400,11.578825439453125,2.6713602542877197,-2.9271068572998047,-0.02676260471343994
1757090198345444400,11.5884443359375,1.7899781465530396,-2.823273181915283,0.12222158908843994
1757090198355063000,11.59806298828125,0.9410109519958496,-2.6522750854492188,0.21813535690307617
1757090198364682000,11.607681884765626,0.182236909866333,-2.585029125213623,0.2304755449295044
1757090198374301000,11.617301025390624,-0.3266322612762451,-2.5551443099975586,0.29998624324798584
1757090198383919900,11.626919921875,-0.8093669414520264,-2.3547096252441406,0.5155346989631653
1757090198393538800,11.636538818359375,-1.1930711269378662,-1.978200912475586,0.5740905404090881
1757090198403157500,11.646157470703125,-1.9772379398345947,-1.4779634475708008,0.011335968971252441
1757090198412776400,11.6557763671875,-3.0268447399139404,-0.3532295227050781,-0.8565688133239746
1757090198422395400,11.6653955078125,-4.74855899810791,1.5267248153686523,-1.7259716987609863
1757090198432014300,11.675014404296874,-7.20155143737793,4.485791206359863,-2.3943138122558594
1757090198441633300,11.68463330078125,-9.063224792480469,8.741511344909668,-2.1574535369873047
1757090198451252200,11.694252197265625,-9.862850189208984,14.047151565551758,-0.4606577157974243
1757090198460871200,11.70387109375,-8.558187484741211,14.690993309020996,-0.3221636414527893
1757090198480108800,11.72310888671875,-2.306300401687622,1.3721237182617188,-3.909379243850708
1757090198489727700,11.732727783203124,-0.9448068141937256,-3.2235755920410156,-2.9901680946350098
1757090198499346700,11.7423466796875,-1.4557578563690186,-6.214884281158447,-2.133866310119629
1757090198508965600,11.751965576171875,-1.032754898071289,-7.893192291259766,-1.717085599899292
1757090198518584300,11.761584228515625,-0.8489906787872314,-8.02600383758545,-0.7780143022537231
1757090198528203300,11.771203369140625,0.08368349075317383,-5.211082935333252,1.2640602588653564
1757090198537822200,11.780822265625,2.8709795475006104,0.1301431655883789,1.3579425811767578
1757090198547441200,11.790441162109374,5.825740337371826,7.3557586669921875,1.3125911951065063
1757090198557060000,11.80006005859375,10.007688522338867,14.489168167114258,1.2302794456481934
1757090198566679000,11.809678955078125,11.886255264282227,14.477315902709961,-1.6023911237716675
1757090198576298000,11.819298095703125,10.81539249420166,8.95097827911377,-5.375109672546387
1757090198585916700,11.828916748046876,8.134683609008789,4.150561332702637,-2.4232468605041504
1757090198595535600,11.83853564453125,-4.001274108886719,1.2062835693359375,3.900202989578247
1757090198605154600,11.848154541015624,-5.287947654724121,-1.7001867294311523,6.105959892272949
1757090198614773500,11.8577734375,-3.049339532852173,-3.7171692848205566,6.2443084716796875
1757090198624392400,11.867392333984375,0.5014852285385132,-6.551867485046387,4.3174543380737305
1757090198634011100,11.87701123046875,4.957100868225098,-8.955004692077637,2.55859375
1757090198643630000,11.886630126953126,9.22297477722168,-9.465340614318848,1.635878086090088
1757090198653249000,11.8962490234375,10.005685806274414,-8.26710319519043,1.6317524909973145
1757090198662868000,11.905867919921874,10.829390525817871,-4.613325595855713,2.0906834602355957
1757090198672487000,11.91548681640625,10.748839378356934,-0.41338157653808594,1.7447619438171387
1757090198682105600,11.925105712890625,7.936234474182129,3.1207237243652344,0.6887655258178711
1757090198691724500,11.934724609375,-3.075333833694458,6.117290496826172,0.03867793083190918
1757090198701343500,11.944343505859376,-12.092655181884766,7.007213592529297,0.7432079315185547
1757090198720581400,11.963581298828124,-2.807258129119873,1.6914777755737305,3.102574586868286
1757090198739819000,11.982819091796875,3.1631972789764404,-1.7296571731567383,4.529416084289551
1757090198749438000,11.99243798828125,3.953356981277466,-2.2164602279663086,4.546186447143555
1757090198759057000,12.002056884765626,3.1154844760894775,-2.126497745513916,3.665654182434082
1757090198768675800,12.01167578125,1.1455730199813843,-2.1641783714294434,1.7265410423278809
1757090198778294500,12.02129443359375,-0.4268382787704468,-1.3946781158447266,0.8124260902404785
1757090198787913500,12.03091357421875,-1.6018848419189453,-0.6475906372070312,-0.3101443648338318
1757090198797532400,12.040532470703125,-2.5537428855895996,-0.20693016052246094,-1.775747299194336
1757090198807151400,12.0501513671875,-2.563955307006836,-0.05104637145996094,-2.954185962677002
1757090198816770300,12.059770263671876,-1.6922848224639893,0.0654296875,-3.1939542293548584
1757090198826389000,12.069388916015624,-0.9039710760116577,0.12699127197265625,-2.5678703784942627
1757090198836008000,12.079008056640625,-0.3579205870628357,-0.03426551818847656,-1.7338007688522339
1757090198845627000,12.088626953125,0.17026102542877197,-0.36804771423339844,-1.1742315292358398
1757090198855245800,12.098245849609375,0.45048069953918457,-0.4798460006713867,-0.8256170749664307
1757090198864864800,12.10786474609375,0.2500746250152588,-0.4576377868652344,-0.34435299038887024
1757090198874483500,12.1174833984375,-0.18708348274230957,-0.31001949310302734,0.2163453847169876
1757090198884102400,12.127102294921874,-0.4909621477127075,-0.26300907135009766,0.6210496425628662
1757090198893721300,12.136721435546875,-0.6994974613189697,-0.3969097137451172,0.9862257838249207
1757090198903340300,12.14634033203125,-0.7354923486709595,-0.5941734313964844,1.2904624938964844
1757090198912959000,12.155958984375,-0.8113354444503784,-0.661524772644043,1.415189504623413
1757090198922578000,12.165577880859376,-0.9881895780563354,-0.5567026138305664,1.292178750038147
1757090198932196900,12.17519677734375,-1.5201706886291504,-0.24250125885009766,1.0857532024383545
1757090198941815800,12.18481591796875,-2.1044583320617676,0.26787281036376953,0.9943511486053467
1757090198951434800,12.194434814453125,-2.5407967567443848,0.7824764251708984,0.9715324640274048
1757090198961053400,12.204053466796875,-2.958164930343628,1.1316757202148438,0.8848239779472351
1757090198970672400,12.21367236328125,-3.3063158988952637,1.3777809143066406,0.8336908221244812
1757090198980291300,12.223291259765626,-3.306326389312744,1.3811988830566406,0.8798680305480957
1757090198989910300,12.23291015625,-2.865607261657715,1.399587631225586,1.1313544511795044
1757090198999529000,12.242529052734374,-2.0068373680114746,1.515639305114746,1.429139256477356
1757090199009148000,12.25214794921875,-1.2041220664978027,1.3581647872924805,1.21861732006073
1757090199018766800,12.261766845703125,-0.5807313919067383,1.1633977890014648,0.5397317409515381
1757090199028385800,12.2713857421875,-0.5329971313476562,1.2638587951660156,0.9423925876617432
1757090199038004500,12.28100439453125,-0.6746871471405029,1.252640724182129,1.8044910430908203
1757090199047623400,12.29062353515625,-1.1453211307525635,1.5485553741455078,2.2092020511627197
1757090199057242400,12.300242431640624,-2.4954729080200195,2.4819860458374023,2.413316249847412
1757090199066861300,12.309861328125,-3.6526670455932617,3.7588815689086914,2.952188014984131
1757090199076480300,12.319480224609375,-3.8334617614746094,4.536693572998047,3.3158671855926514
1757090199086099000,12.329098876953125,-3.501661777496338,4.350638389587402,3.4754724502563477
1757090199095718000,12.3387177734375,-2.6569714546203613,3.4211206436157227,3.7888474464416504
1757090199105336800,12.3483369140625,-1.1823846101760864,2.915010452270508,4.808401584625244
1757090199114955800,12.357955810546875,0.2855560779571533,3.196995735168457,5.711368083953857
1757090199124574500,12.367574462890625,1.1700983047485352,3.5442428588867188,5.579558849334717
1757090199134193400,12.377193359375,2.022472381591797,3.378939628601074,4.559229850769043
1757090199143812400,12.386812255859375,2.9453821182250977,2.4191646575927734,3.351649045944214
1757090199153431300,12.396431396484376,2.064298629760742,1.1716814041137695,2.537841796875
1757090199163050000,12.406050048828124,0.28192412853240967,-0.42559051513671875,1.8249236345291138
1757090199172669000,12.4156689453125,-0.6778630018234253,-1.6399297714233398,1.3022875785827637
1757090199182288000,12.425287841796875,0.6317342519760132,-1.8422551155090332,0.6133309602737427
1757090199191906800,12.43490673828125,2.4140868186950684,-1.8635239601135254,-0.4154926538467407
1757090199201525500,12.444525390625,2.513504981994629,-1.0869503021240234,-0.7588783502578735
1757090199220763400,12.463763427734374,-0.43593478202819824,1.7053966522216797,-1.5356584787368774
1757090199230382300,12.47338232421875,-1.6902498006820679,3.310361862182617,-1.6185400485992432
1757090199240001000,12.4830009765625,-1.3801366090774536,4.407558441162109,-0.21410679817199707
1757090199249620000,12.492619873046875,0.12841129302978516,4.797222137451172,1.5913945436477661
1757090199259239000,12.502239013671876,2.786674976348877,4.374723434448242,2.9458980560302734
1757090199268857900,12.51185791015625,3.8322091102600098,3.123697280883789,3.5130622386932373
1757090199278476500,12.5214765625,3.283909320831299,2.0186023712158203,3.6667895317077637
1757090199288095500,12.531095458984375,2.599330186843872,1.4674978256225586,3.8741021156311035
1757090199297714400,12.54071435546875,2.431123971939087,1.076268196105957,3.905392646789551
1757090199307333000,12.5503330078125,2.7360761165618896,1.1774835586547852,4.455174446105957
1757090199316952000,12.5599521484375,4.114370346069336,1.4928293228149414,4.74419641494751
